"acc","accuracy","average_response_time","avg_rt","background","block","canvas_backend","clock_backend","color_backend","compensation","coordinates","correct","correct_instruction1","correct_keyboard_response","correct_response","count_ISI","count_correctFeedback","count_expSequence","count_experiment","count_experimentLoop","count_fixation","count_incorrectFeedback","count_instruction1","count_instruction2","count_keyboard_response","count_logger","count_memorySet","count_practiceLoop","count_probe","count_thankYou","datetime","description","disable_garbage_collection","experiment_file","experiment_path","font_bold","font_family","font_italic","font_size","font_underline","foreground","form_clicks","fullscreen","height","keyboard_backend","live_row","live_row_practiceLoop","logfile","mouse_backend","numberSet","opensesame_codename","opensesame_version","posInSet","present","repeat_cycle","response","response_instruction1","response_instruction2","response_keyboard_response","response_thankYou","response_time","response_time_instruction1","response_time_instruction2","response_time_keyboard_response","response_time_thankYou","round_decimals","sampler_backend","setSize","sound_buf_size","sound_channels","sound_freq","sound_sample_size","start","subject_nr","subject_parity","target","time_ISI","time_correctFeedback","time_expSequence","time_experiment","time_experimentLoop","time_fixation","time_incorrectFeedback","time_instruction1","time_instruction2","time_keyboard_response","time_logger","time_memorySet","time_practiceLoop","time_probe","time_thankYou","title","total_correct","total_response_time","total_responses","uniform_coordinates","width"
"0","0","2000","2000","black","practice","legacy","legacy","legacy","0","uniform","0","undefined","0","right","0","0","0","0","0","0","0","0","0","0","0","0","0","0","0","Thu Oct 20 09:44:14 2022","The main experiment item","yes","Sternbergtask.osexp","/Users/keelyn/Library/CloudStorage/OneDrive-Personal","no","mono","no","18","no","white","no","yes","768","legacy","0","0","/Users/keelyn/Library/CloudStorage/OneDrive-Personal/KB-subject-3.csv","legacy","5","Lentiform Loewenfeld","3.3.12","0","n","0","None","right","NA","None","NA","2000","40385","NA","2000","NA","2","legacy","1","1024","2","48000","-16","experiment","3","odd","3","43606","NA","41367","853","NA","41372","NA","864","NA","45617","47617","42389","41263","45617","NA","Sternberg task","0","2000","1","yes","1024"
"50","50","1723","1723","black","practice","legacy","legacy","legacy","0","uniform","1","undefined","1","right","1","1","1","0","0","1","1","0","0","1","1","1","0","1","0","Thu Oct 20 09:44:14 2022","The main experiment item","yes","Sternbergtask.osexp","/Users/keelyn/Library/CloudStorage/OneDrive-Personal","no","mono","no","18","no","white","no","yes","768","legacy","1","1","/Users/keelyn/Library/CloudStorage/OneDrive-Personal/KB-subject-3.csv","legacy","4 1 5","Lentiform Loewenfeld","3.3.12","0","n","0","right","right","NA","right","NA","1446","40385","NA","1446","NA","2","legacy","3","1024","2","48000","-16","experiment","3","odd","2","50944","NA","48710","853","NA","48715","47639","864","NA","52955","54402","49728","41263","52955","NA","Sternberg task","1","3446","2","yes","1024"
"66.66666666666667","66.66666666666667","1418","1418","black","practice","legacy","legacy","legacy","0","uniform","1","undefined","1","right","2","2","2","0","0","2","2","0","0","2","2","2","0","2","0","Thu Oct 20 09:44:14 2022","The main experiment item","yes","Sternbergtask.osexp","/Users/keelyn/Library/CloudStorage/OneDrive-Personal","no","mono","no","18","no","white","no","yes","768","legacy","2","2","/Users/keelyn/Library/CloudStorage/OneDrive-Personal/KB-subject-3.csv","legacy","3 1 9 4","Lentiform Loewenfeld","3.3.12","0","n","0","right","right","NA","right","NA","808","40385","NA","808","NA","2","legacy","4","1024","2","48000","-16","experiment","3","odd","6","57717","54407","55482","853","NA","55488","47639","864","NA","59726","60540","56501","41263","59726","NA","Sternberg task","2","4254","3","yes","1024"
"75","75","1205.25","1205.25","black","practice","legacy","legacy","legacy","0","uniform","1","undefined","1","left","3","3","3","0","0","3","3","0","0","3","3","3","0","3","0","Thu Oct 20 09:44:14 2022","The main experiment item","yes","Sternbergtask.osexp","/Users/keelyn/Library/CloudStorage/OneDrive-Personal","no","mono","no","18","no","white","no","yes","768","legacy","3","3","/Users/keelyn/Library/CloudStorage/OneDrive-Personal/KB-subject-3.csv","legacy","4 8","Lentiform Loewenfeld","3.3.12","1","y","0","left","right","NA","left","NA","567","40385","NA","567","NA","2","legacy","2","1024","2","48000","-16","experiment","3","odd","4","63837","60546","61604","853","NA","61610","47639","864","NA","65851","66419","62622","41263","65851","NA","Sternberg task","3","4821","4","yes","1024"
"80","80","1076.6","1076.6","black","practice","legacy","legacy","legacy","0","uniform","1","undefined","1","left","4","4","4","0","0","4","4","0","0","4","4","4","0","4","0","Thu Oct 20 09:44:14 2022","The main experiment item","yes","Sternbergtask.osexp","/Users/keelyn/Library/CloudStorage/OneDrive-Personal","no","mono","no","18","no","white","no","yes","768","legacy","4","4","/Users/keelyn/Library/CloudStorage/OneDrive-Personal/KB-subject-3.csv","legacy","1 5 2 9","Lentiform Loewenfeld","3.3.12","2","y","0","left","right","NA","left","NA","562","40385","NA","562","NA","2","legacy","4","1024","2","48000","-16","experiment","3","odd","5","69727","66424","67487","853","NA","67492","47639","864","NA","71740","72303","68505","41263","71739","NA","Sternberg task","4","5383","5","yes","1024"
"83.33333333333333","83.33333333333333","1000.1666666666666","1000.1666666666666","black","practice","legacy","legacy","legacy","0","uniform","1","undefined","1","right","5","5","5","0","0","5","5","0","0","5","5","5","0","5","0","Thu Oct 20 09:44:14 2022","The main experiment item","yes","Sternbergtask.osexp","/Users/keelyn/Library/CloudStorage/OneDrive-Personal","no","mono","no","18","no","white","no","yes","768","legacy","5","5","/Users/keelyn/Library/CloudStorage/OneDrive-Personal/KB-subject-3.csv","legacy","9 6 7 4 5","Lentiform Loewenfeld","3.3.12","0","n","0","right","right","NA","right","NA","618","40385","NA","618","NA","2","legacy","5","1024","2","48000","-16","experiment","3","odd","3","75606","72308","73371","853","NA","73377","47639","864","NA","77618","78237","74390","41263","77618","NA","Sternberg task","5","6001","6","yes","1024"
"85.71428571428571","85.71428571428571","930.8571428571429","930.8571428571429","black","practice","legacy","legacy","legacy","0","uniform","1","undefined","1","left","6","6","6","0","0","6","6","0","0","6","6","6","0","6","0","Thu Oct 20 09:44:14 2022","The main experiment item","yes","Sternbergtask.osexp","/Users/keelyn/Library/CloudStorage/OneDrive-Personal","no","mono","no","18","no","white","no","yes","768","legacy","6","6","/Users/keelyn/Library/CloudStorage/OneDrive-Personal/KB-subject-3.csv","legacy","4 3 1 7 9 8","Lentiform Loewenfeld","3.3.12","1","y","0","left","right","NA","left","NA","515","40385","NA","515","NA","2","legacy","6","1024","2","48000","-16","experiment","3","odd","4","81538","78242","79303","853","NA","79309","47639","864","NA","83554","84070","80322","41263","83554","NA","Sternberg task","6","6516","7","yes","1024"
"75","75","880","880","black","practice","legacy","legacy","legacy","0","uniform","0","undefined","0","left","7","7","7","0","0","7","7","0","0","7","7","7","0","7","0","Thu Oct 20 09:44:14 2022","The main experiment item","yes","Sternbergtask.osexp","/Users/keelyn/Library/CloudStorage/OneDrive-Personal","no","mono","no","18","no","white","no","yes","768","legacy","7","7","/Users/keelyn/Library/CloudStorage/OneDrive-Personal/KB-subject-3.csv","legacy","1 7 9 8 5","Lentiform Loewenfeld","3.3.12","4","y","0","right","right","NA","right","NA","524","40385","NA","524","NA","2","legacy","5","1024","2","48000","-16","experiment","3","odd","8","87369","84075","85136","853","NA","85141","47639","864","NA","89380","89904","86154","41263","89380","NA","Sternberg task","6","7040","8","yes","1024"
"77.77777777777777","77.77777777777777","875.2222222222222","875.2222222222222","black","practice","legacy","legacy","legacy","0","uniform","1","undefined","1","right","8","8","8","0","0","8","8","0","0","8","8","8","0","8","0","Thu Oct 20 09:44:14 2022","The main experiment item","yes","Sternbergtask.osexp","/Users/keelyn/Library/CloudStorage/OneDrive-Personal","no","mono","no","18","no","white","no","yes","768","legacy","8","8","/Users/keelyn/Library/CloudStorage/OneDrive-Personal/KB-subject-3.csv","legacy","5 7 8 4 1 2","Lentiform Loewenfeld","3.3.12","0","n","0","right","right","NA","right","NA","837","40385","NA","837","NA","2","legacy","6","1024","2","48000","-16","experiment","3","odd","6","93208","84075","90973","853","NA","90979","89909","864","NA","95220","96057","91993","41263","95220","NA","Sternberg task","7","7877","9","yes","1024"
"80","80","848.6","848.6","black","practice","legacy","legacy","legacy","0","uniform","1","undefined","1","left","9","9","9","0","0","9","9","0","0","9","9","9","0","9","0","Thu Oct 20 09:44:14 2022","The main experiment item","yes","Sternbergtask.osexp","/Users/keelyn/Library/CloudStorage/OneDrive-Personal","no","mono","no","18","no","white","no","yes","768","legacy","9","9","/Users/keelyn/Library/CloudStorage/OneDrive-Personal/KB-subject-3.csv","legacy","6","Lentiform Loewenfeld","3.3.12","1","y","0","left","right","NA","left","NA","609","40385","NA","609","NA","2","legacy","1","1024","2","48000","-16","experiment","3","odd","6","99362","96063","97122","853","NA","97128","89909","864","NA","101374","101983","98147","41263","101374","NA","Sternberg task","8","8486","10","yes","1024"
"81.81818181818181","81.81818181818181","823.4545454545455","823.4545454545455","black","practice","legacy","legacy","legacy","0","uniform","1","undefined","1","right","10","10","10","0","0","10","10","0","0","10","10","10","0","10","0","Thu Oct 20 09:44:14 2022","The main experiment item","yes","Sternbergtask.osexp","/Users/keelyn/Library/CloudStorage/OneDrive-Personal","no","mono","no","18","no","white","no","yes","768","legacy","10","10","/Users/keelyn/Library/CloudStorage/OneDrive-Personal/KB-subject-3.csv","legacy","2 1","Lentiform Loewenfeld","3.3.12","0","n","0","right","right","NA","right","NA","572","40385","NA","572","NA","2","legacy","2","1024","2","48000","-16","experiment","3","odd","5","105291","101988","103052","853","NA","103057","89909","864","NA","107301","107873","104076","41263","107301","NA","Sternberg task","9","9058","11","yes","1024"
"75","75","817.4166666666666","817.4166666666666","black","practice","legacy","legacy","legacy","0","uniform","0","undefined","0","left","11","11","11","0","0","11","11","0","0","11","11","11","0","11","0","Thu Oct 20 09:44:14 2022","The main experiment item","yes","Sternbergtask.osexp","/Users/keelyn/Library/CloudStorage/OneDrive-Personal","no","mono","no","18","no","white","no","yes","768","legacy","11","11","/Users/keelyn/Library/CloudStorage/OneDrive-Personal/KB-subject-3.csv","legacy","2 9 4","Lentiform Loewenfeld","3.3.12","3","y","0","right","right","NA","right","NA","751","40385","NA","751","NA","2","legacy","3","1024","2","48000","-16","experiment","3","odd","4","111181","107879","108946","853","NA","108952","89909","864","NA","113194","113946","109965","41263","113193","NA","Sternberg task","9","9809","12","yes","1024"
"76.92307692307692","76.92307692307692","798.6153846153846","798.6153846153846","black","experiment","legacy","legacy","legacy","0","uniform","1","undefined","1","right","12","12","12","0","0","12","12","0","0","12","12","12","0","12","0","Thu Oct 20 09:44:14 2022","The main experiment item","yes","Sternbergtask.osexp","/Users/keelyn/Library/CloudStorage/OneDrive-Personal","no","mono","no","18","no","white","no","yes","768","legacy","0","11","/Users/keelyn/Library/CloudStorage/OneDrive-Personal/KB-subject-3.csv","legacy","1 4 9 3","Lentiform Loewenfeld","3.3.12","0","n","0","right","right","right","right","NA","573","40385","6276","573","NA","2","legacy","4","1024","2","48000","-16","experiment","3","odd","5","123532","107879","121296","853","121265","121301","113951","864","114988","125547","126121","122313","41263","125547","NA","Sternberg task","10","10382","13","yes","1024"
"78.57142857142857","78.57142857142857","778.2142857142857","778.2142857142857","black","experiment","legacy","legacy","legacy","0","uniform","1","undefined","1","right","13","13","13","0","0","13","13","0","0","13","13","13","0","13","0","Thu Oct 20 09:44:14 2022","The main experiment item","yes","Sternbergtask.osexp","/Users/keelyn/Library/CloudStorage/OneDrive-Personal","no","mono","no","18","no","white","no","yes","768","legacy","1","11","/Users/keelyn/Library/CloudStorage/OneDrive-Personal/KB-subject-3.csv","legacy","5","Lentiform Loewenfeld","3.3.12","0","n","0","right","right","right","right","NA","513","40385","6276","513","NA","2","legacy","1","1024","2","48000","-16","experiment","3","odd","8","129414","126126","127181","853","121265","127187","113951","864","114988","131426","131940","128198","41263","131426","NA","Sternberg task","11","10895","14","yes","1024"
"80","80","759.7333333333333","759.7333333333333","black","experiment","legacy","legacy","legacy","0","uniform","1","undefined","1","right","14","14","14","0","0","14","14","0","0","14","14","14","0","14","0","Thu Oct 20 09:44:14 2022","The main experiment item","yes","Sternbergtask.osexp","/Users/keelyn/Library/CloudStorage/OneDrive-Personal","no","mono","no","18","no","white","no","yes","768","legacy","2","11","/Users/keelyn/Library/CloudStorage/OneDrive-Personal/KB-subject-3.csv","legacy","3 9 1","Lentiform Loewenfeld","3.3.12","0","n","0","right","right","right","right","NA","501","40385","6276","501","NA","2","legacy","3","1024","2","48000","-16","experiment","3","odd","7","135238","131945","133005","853","121265","133011","113951","864","114988","137251","137753","134023","41263","137251","NA","Sternberg task","12","11396","15","yes","1024"
"81.25","81.25","758.0625","758.0625","black","experiment","legacy","legacy","legacy","0","uniform","1","undefined","1","left","15","15","15","0","0","15","15","0","0","15","15","15","0","15","0","Thu Oct 20 09:44:14 2022","The main experiment item","yes","Sternbergtask.osexp","/Users/keelyn/Library/CloudStorage/OneDrive-Personal","no","mono","no","18","no","white","no","yes","768","legacy","3","11","/Users/keelyn/Library/CloudStorage/OneDrive-Personal/KB-subject-3.csv","legacy","4 9 7 8 5 3","Lentiform Loewenfeld","3.3.12","4","y","0","left","right","right","left","NA","733","40385","6276","733","NA","2","legacy","6","1024","2","48000","-16","experiment","3","odd","8","141048","137758","138812","853","121265","138818","113951","864","114988","143060","143794","139832","41263","143060","NA","Sternberg task","13","12129","16","yes","1024"
"82.3529411764706","82.3529411764706","752.4705882352941","752.4705882352941","black","experiment","legacy","legacy","legacy","0","uniform","1","undefined","1","right","16","16","16","0","0","16","16","0","0","16","16","16","0","16","0","Thu Oct 20 09:44:14 2022","The main experiment item","yes","Sternbergtask.osexp","/Users/keelyn/Library/CloudStorage/OneDrive-Personal","no","mono","no","18","no","white","no","yes","768","legacy","4","11","/Users/keelyn/Library/CloudStorage/OneDrive-Personal/KB-subject-3.csv","legacy","8 5 7 3 6","Lentiform Loewenfeld","3.3.12","0","n","0","right","right","right","right","NA","663","40385","6276","663","NA","2","legacy","5","1024","2","48000","-16","experiment","3","odd","9","147098","143799","144862","853","121265","144868","113951","864","114988","149107","149770","145881","41263","149107","NA","Sternberg task","14","12792","17","yes","1024"
"83.33333333333333","83.33333333333333","741.1111111111111","741.1111111111111","black","experiment","legacy","legacy","legacy","0","uniform","1","undefined","1","right","17","17","17","0","0","17","17","0","0","17","17","17","0","17","0","Thu Oct 20 09:44:14 2022","The main experiment item","yes","Sternbergtask.osexp","/Users/keelyn/Library/CloudStorage/OneDrive-Personal","no","mono","no","18","no","white","no","yes","768","legacy","5","11","/Users/keelyn/Library/CloudStorage/OneDrive-Personal/KB-subject-3.csv","legacy","6 8 4","Lentiform Loewenfeld","3.3.12","0","n","0","right","right","right","right","NA","548","40385","6276","548","NA","2","legacy","3","1024","2","48000","-16","experiment","3","odd","1","153060","149775","150826","853","121265","150831","113951","864","114988","155069","155618","151844","41263","155069","NA","Sternberg task","15","13340","18","yes","1024"
"84.21052631578948","84.21052631578948","728.7894736842105","728.7894736842105","black","experiment","legacy","legacy","legacy","0","uniform","1","undefined","1","left","18","18","18","0","0","18","18","0","0","18","18","18","0","18","0","Thu Oct 20 09:44:14 2022","The main experiment item","yes","Sternbergtask.osexp","/Users/keelyn/Library/CloudStorage/OneDrive-Personal","no","mono","no","18","no","white","no","yes","768","legacy","6","11","/Users/keelyn/Library/CloudStorage/OneDrive-Personal/KB-subject-3.csv","legacy","8 9 5 6 7","Lentiform Loewenfeld","3.3.12","1","y","0","left","right","right","left","NA","507","40385","6276","507","NA","2","legacy","5","1024","2","48000","-16","experiment","3","odd","8","158920","155623","156687","853","121265","156693","113951","864","114988","160931","161439","157705","41263","160931","NA","Sternberg task","16","13847","19","yes","1024"
"85","85","724.4","724.4","black","experiment","legacy","legacy","legacy","0","uniform","1","undefined","1","left","19","19","19","0","0","19","19","0","0","19","19","19","0","19","0","Thu Oct 20 09:44:14 2022","The main experiment item","yes","Sternbergtask.osexp","/Users/keelyn/Library/CloudStorage/OneDrive-Personal","no","mono","no","18","no","white","no","yes","768","legacy","7","11","/Users/keelyn/Library/CloudStorage/OneDrive-Personal/KB-subject-3.csv","legacy","9 6 2 4 1","Lentiform Loewenfeld","3.3.12","4","y","0","left","right","right","left","NA","641","40385","6276","641","NA","2","legacy","5","1024","2","48000","-16","experiment","3","odd","4","164747","161444","162506","853","121265","162512","113951","864","114988","166759","167400","163524","41263","166758","NA","Sternberg task","17","14488","20","yes","1024"
"85.71428571428571","85.71428571428571","722.8095238095239","722.8095238095239","black","experiment","legacy","legacy","legacy","0","uniform","1","undefined","1","right","20","20","20","0","0","20","20","0","0","20","20","20","0","20","0","Thu Oct 20 09:44:14 2022","The main experiment item","yes","Sternbergtask.osexp","/Users/keelyn/Library/CloudStorage/OneDrive-Personal","no","mono","no","18","no","white","no","yes","768","legacy","8","11","/Users/keelyn/Library/CloudStorage/OneDrive-Personal/KB-subject-3.csv","legacy","5 3 8 7 2 4","Lentiform Loewenfeld","3.3.12","0","n","0","right","right","right","right","NA","691","40385","6276","691","NA","2","legacy","6","1024","2","48000","-16","experiment","3","odd","9","170701","167405","168463","853","121265","168468","113951","864","114988","172712","173403","169485","41263","172712","NA","Sternberg task","18","15179","21","yes","1024"
"86.36363636363636","86.36363636363636","719.1818181818181","719.1818181818181","black","experiment","legacy","legacy","legacy","0","uniform","1","undefined","1","right","21","21","21","0","0","21","21","0","0","21","21","21","0","21","0","Thu Oct 20 09:44:14 2022","The main experiment item","yes","Sternbergtask.osexp","/Users/keelyn/Library/CloudStorage/OneDrive-Personal","no","mono","no","18","no","white","no","yes","768","legacy","9","11","/Users/keelyn/Library/CloudStorage/OneDrive-Personal/KB-subject-3.csv","legacy","1 7 8 3 9","Lentiform Loewenfeld","3.3.12","0","n","0","right","right","right","right","NA","643","40385","6276","643","NA","2","legacy","5","1024","2","48000","-16","experiment","3","odd","2","176708","173408","174473","853","121265","174479","113951","864","114988","178720","179364","175492","41263","178719","NA","Sternberg task","19","15822","22","yes","1024"
"86.95652173913044","86.95652173913044","714.8260869565217","714.8260869565217","black","experiment","legacy","legacy","legacy","0","uniform","1","undefined","1","right","22","22","22","0","0","22","22","0","0","22","22","22","0","22","0","Thu Oct 20 09:44:14 2022","The main experiment item","yes","Sternbergtask.osexp","/Users/keelyn/Library/CloudStorage/OneDrive-Personal","no","mono","no","18","no","white","no","yes","768","legacy","10","11","/Users/keelyn/Library/CloudStorage/OneDrive-Personal/KB-subject-3.csv","legacy","1 6 4 3 9 7","Lentiform Loewenfeld","3.3.12","0","n","0","right","right","right","right","NA","619","40385","6276","619","NA","2","legacy","6","1024","2","48000","-16","experiment","3","odd","8","182658","179369","180424","853","121265","180430","113951","864","114988","184670","185290","181443","41263","184669","NA","Sternberg task","20","16441","23","yes","1024"
"87.5","87.5","712.125","712.125","black","experiment","legacy","legacy","legacy","0","uniform","1","undefined","1","left","23","23","23","0","0","23","23","0","0","23","23","23","0","23","0","Thu Oct 20 09:44:14 2022","The main experiment item","yes","Sternbergtask.osexp","/Users/keelyn/Library/CloudStorage/OneDrive-Personal","no","mono","no","18","no","white","no","yes","768","legacy","11","11","/Users/keelyn/Library/CloudStorage/OneDrive-Personal/KB-subject-3.csv","legacy","8 1 6","Lentiform Loewenfeld","3.3.12","3","y","0","left","right","right","left","NA","650","40385","6276","650","NA","2","legacy","3","1024","2","48000","-16","experiment","3","odd","6","188593","185295","186357","853","121265","186363","113951","864","114988","190607","191258","187375","41263","190607","NA","Sternberg task","21","17091","24","yes","1024"
"88","88","706.44","706.44","black","experiment","legacy","legacy","legacy","0","uniform","1","undefined","1","left","24","24","24","0","0","24","24","0","0","24","24","24","0","24","0","Thu Oct 20 09:44:14 2022","The main experiment item","yes","Sternbergtask.osexp","/Users/keelyn/Library/CloudStorage/OneDrive-Personal","no","mono","no","18","no","white","no","yes","768","legacy","12","11","/Users/keelyn/Library/CloudStorage/OneDrive-Personal/KB-subject-3.csv","legacy","1 4 9 3 2 5","Lentiform Loewenfeld","3.3.12","3","y","0","left","right","right","left","NA","570","40385","6276","570","NA","2","legacy","6","1024","2","48000","-16","experiment","3","odd","9","194556","191263","192323","853","121265","192329","113951","864","114988","196568","197139","193340","41263","196567","NA","Sternberg task","22","17661","25","yes","1024"
"88.46153846153847","88.46153846153847","705.3846153846154","705.3846153846154","black","experiment","legacy","legacy","legacy","0","uniform","1","undefined","1","right","25","25","25","0","0","25","25","0","0","25","25","25","0","25","0","Thu Oct 20 09:44:14 2022","The main experiment item","yes","Sternbergtask.osexp","/Users/keelyn/Library/CloudStorage/OneDrive-Personal","no","mono","no","18","no","white","no","yes","768","legacy","13","11","/Users/keelyn/Library/CloudStorage/OneDrive-Personal/KB-subject-3.csv","legacy","2 8 9","Lentiform Loewenfeld","3.3.12","0","n","0","right","right","right","right","NA","679","40385","6276","679","NA","2","legacy","3","1024","2","48000","-16","experiment","3","odd","6","200441","197144","198206","853","121265","198212","113951","864","114988","202454","203134","199225","41263","202453","NA","Sternberg task","23","18340","26","yes","1024"
"88.88888888888889","88.88888888888889","708.8888888888889","708.8888888888889","black","experiment","legacy","legacy","legacy","0","uniform","1","undefined","1","right","26","26","26","0","0","26","26","0","0","26","26","26","0","26","0","Thu Oct 20 09:44:14 2022","The main experiment item","yes","Sternbergtask.osexp","/Users/keelyn/Library/CloudStorage/OneDrive-Personal","no","mono","no","18","no","white","no","yes","768","legacy","14","11","/Users/keelyn/Library/CloudStorage/OneDrive-Personal/KB-subject-3.csv","legacy","6 9 5","Lentiform Loewenfeld","3.3.12","0","n","0","right","right","right","right","NA","800","40385","6276","800","NA","2","legacy","3","1024","2","48000","-16","experiment","3","odd","8","206433","203139","204199","853","121265","204205","113951","864","114988","208443","209244","205218","41263","208443","NA","Sternberg task","24","19140","27","yes","1024"
"89.28571428571429","89.28571428571429","717.6071428571429","717.6071428571429","black","experiment","legacy","legacy","legacy","0","uniform","1","undefined","1","right","27","27","27","0","0","27","27","0","0","27","27","27","0","27","0","Thu Oct 20 09:44:14 2022","The main experiment item","yes","Sternbergtask.osexp","/Users/keelyn/Library/CloudStorage/OneDrive-Personal","no","mono","no","18","no","white","no","yes","768","legacy","15","11","/Users/keelyn/Library/CloudStorage/OneDrive-Personal/KB-subject-3.csv","legacy","7 9 1 6","Lentiform Loewenfeld","3.3.12","0","n","0","right","right","right","right","NA","953","40385","6276","953","NA","2","legacy","4","1024","2","48000","-16","experiment","3","odd","4","212551","209249","210315","853","121265","210321","113951","864","114988","214561","215515","211335","41263","214561","NA","Sternberg task","25","20093","28","yes","1024"
"89.65517241379311","89.65517241379311","707.6206896551724","707.6206896551724","black","experiment","legacy","legacy","legacy","0","uniform","1","undefined","1","left","28","28","28","0","0","28","28","0","0","28","28","28","0","28","0","Thu Oct 20 09:44:14 2022","The main experiment item","yes","Sternbergtask.osexp","/Users/keelyn/Library/CloudStorage/OneDrive-Personal","no","mono","no","18","no","white","no","yes","768","legacy","16","11","/Users/keelyn/Library/CloudStorage/OneDrive-Personal/KB-subject-3.csv","legacy","3 4","Lentiform Loewenfeld","3.3.12","1","y","0","left","right","right","left","NA","428","40385","6276","428","NA","2","legacy","2","1024","2","48000","-16","experiment","3","odd","3","218811","215520","216577","853","121265","216582","113951","864","114988","220821","221249","217594","41263","220820","NA","Sternberg task","26","20521","29","yes","1024"
"90","90","706.1333333333333","706.1333333333333","black","experiment","legacy","legacy","legacy","0","uniform","1","undefined","1","left","29","29","29","0","0","29","29","0","0","29","29","29","0","29","0","Thu Oct 20 09:44:14 2022","The main experiment item","yes","Sternbergtask.osexp","/Users/keelyn/Library/CloudStorage/OneDrive-Personal","no","mono","no","18","no","white","no","yes","768","legacy","17","11","/Users/keelyn/Library/CloudStorage/OneDrive-Personal/KB-subject-3.csv","legacy","7 1 8 5 6 2","Lentiform Loewenfeld","3.3.12","2","y","0","left","right","right","left","NA","663","40385","6276","663","NA","2","legacy","6","1024","2","48000","-16","experiment","3","odd","1","224547","221254","222312","853","121265","222318","113951","864","114988","226560","227224","223332","41263","226560","NA","Sternberg task","27","21184","30","yes","1024"
"90.3225806451613","90.3225806451613","700.0322580645161","700.0322580645161","black","experiment","legacy","legacy","legacy","0","uniform","1","undefined","1","right","30","30","30","0","0","30","30","0","0","30","30","30","0","30","0","Thu Oct 20 09:44:14 2022","The main experiment item","yes","Sternbergtask.osexp","/Users/keelyn/Library/CloudStorage/OneDrive-Personal","no","mono","no","18","no","white","no","yes","768","legacy","18","11","/Users/keelyn/Library/CloudStorage/OneDrive-Personal/KB-subject-3.csv","legacy","7 8 6 1","Lentiform Loewenfeld","3.3.12","0","n","0","right","right","right","right","NA","517","40385","6276","517","NA","2","legacy","4","1024","2","48000","-16","experiment","3","odd","3","230530","227229","228294","853","121265","228300","113951","864","114988","232541","233059","229314","41263","232540","NA","Sternberg task","28","21701","31","yes","1024"
"90.625","90.625","695.71875","695.71875","black","experiment","legacy","legacy","legacy","0","uniform","1","undefined","1","right","31","31","31","0","0","31","31","0","0","31","31","31","0","31","0","Thu Oct 20 09:44:14 2022","The main experiment item","yes","Sternbergtask.osexp","/Users/keelyn/Library/CloudStorage/OneDrive-Personal","no","mono","no","18","no","white","no","yes","768","legacy","19","11","/Users/keelyn/Library/CloudStorage/OneDrive-Personal/KB-subject-3.csv","legacy","9 8 2 7 4","Lentiform Loewenfeld","3.3.12","0","n","0","right","right","right","right","NA","562","40385","6276","562","NA","2","legacy","5","1024","2","48000","-16","experiment","3","odd","5","236362","233063","234126","853","121265","234132","113951","864","114988","238374","238937","235145","41263","238374","NA","Sternberg task","29","22263","32","yes","1024"
"90.9090909090909","90.9090909090909","695.3939393939394","695.3939393939394","black","experiment","legacy","legacy","legacy","0","uniform","1","undefined","1","left","32","32","32","0","0","32","32","0","0","32","32","32","0","32","0","Thu Oct 20 09:44:14 2022","The main experiment item","yes","Sternbergtask.osexp","/Users/keelyn/Library/CloudStorage/OneDrive-Personal","no","mono","no","18","no","white","no","yes","768","legacy","20","11","/Users/keelyn/Library/CloudStorage/OneDrive-Personal/KB-subject-3.csv","legacy","8 5 3 7 4 6","Lentiform Loewenfeld","3.3.12","6","y","0","left","right","right","left","NA","685","40385","6276","685","NA","2","legacy","6","1024","2","48000","-16","experiment","3","odd","6","242238","238942","240002","853","121265","240008","113951","864","114988","244249","244934","241023","41263","244249","NA","Sternberg task","30","22948","33","yes","1024"
"91.17647058823529","91.17647058823529","691.5","691.5","black","experiment","legacy","legacy","legacy","0","uniform","1","undefined","1","right","33","33","33","0","0","33","33","0","0","33","33","33","0","33","0","Thu Oct 20 09:44:14 2022","The main experiment item","yes","Sternbergtask.osexp","/Users/keelyn/Library/CloudStorage/OneDrive-Personal","no","mono","no","18","no","white","no","yes","768","legacy","21","11","/Users/keelyn/Library/CloudStorage/OneDrive-Personal/KB-subject-3.csv","legacy","6 7 5 9","Lentiform Loewenfeld","3.3.12","0","n","0","right","right","right","right","NA","563","40385","6276","563","NA","2","legacy","4","1024","2","48000","-16","experiment","3","odd","2","248232","244940","245999","853","121265","246004","113951","864","114988","250244","250808","247017","41263","250244","NA","Sternberg task","31","23511","34","yes","1024"
"91.42857142857143","91.42857142857143","690.8285714285714","690.8285714285714","black","experiment","legacy","legacy","legacy","0","uniform","1","undefined","1","left","34","34","34","0","0","34","34","0","0","34","34","34","0","34","0","Thu Oct 20 09:44:14 2022","The main experiment item","yes","Sternbergtask.osexp","/Users/keelyn/Library/CloudStorage/OneDrive-Personal","no","mono","no","18","no","white","no","yes","768","legacy","22","11","/Users/keelyn/Library/CloudStorage/OneDrive-Personal/KB-subject-3.csv","legacy","4 6 2 5 1","Lentiform Loewenfeld","3.3.12","5","y","0","left","right","right","left","NA","668","40385","6276","668","NA","2","legacy","5","1024","2","48000","-16","experiment","3","odd","1","254114","250813","251880","853","121265","251886","113951","864","114988","256124","256793","252899","41263","256123","NA","Sternberg task","32","24179","35","yes","1024"
"91.66666666666667","91.66666666666667","687.5277777777778","687.5277777777778","black","experiment","legacy","legacy","legacy","0","uniform","1","undefined","1","left","35","35","35","0","0","35","35","0","0","35","35","35","0","35","0","Thu Oct 20 09:44:14 2022","The main experiment item","yes","Sternbergtask.osexp","/Users/keelyn/Library/CloudStorage/OneDrive-Personal","no","mono","no","18","no","white","no","yes","768","legacy","23","11","/Users/keelyn/Library/CloudStorage/OneDrive-Personal/KB-subject-3.csv","legacy","7 6","Lentiform Loewenfeld","3.3.12","2","y","0","left","right","right","left","NA","572","40385","6276","572","NA","2","legacy","2","1024","2","48000","-16","experiment","3","odd","6","260094","256798","257859","853","121265","257865","113951","864","114988","262106","262678","258878","41263","262105","NA","Sternberg task","33","24751","36","yes","1024"
"91.89189189189189","91.89189189189189","686.0540540540541","686.0540540540541","black","experiment","legacy","legacy","legacy","0","uniform","1","undefined","1","left","36","36","36","0","0","36","36","0","0","36","36","36","0","36","0","Thu Oct 20 09:44:14 2022","The main experiment item","yes","Sternbergtask.osexp","/Users/keelyn/Library/CloudStorage/OneDrive-Personal","no","mono","no","18","no","white","no","yes","768","legacy","24","11","/Users/keelyn/Library/CloudStorage/OneDrive-Personal/KB-subject-3.csv","legacy","9 5 8 1","Lentiform Loewenfeld","3.3.12","2","y","0","left","right","right","left","NA","633","40385","6276","633","NA","2","legacy","4","1024","2","48000","-16","experiment","3","odd","5","265977","262684","263745","853","121265","263750","113951","864","114988","267993","268627","264762","41263","267993","NA","Sternberg task","34","25384","37","yes","1024"
"92.10526315789474","92.10526315789474","684.1842105263158","684.1842105263158","black","experiment","legacy","legacy","legacy","0","uniform","1","undefined","1","right","37","37","37","0","0","37","37","0","0","37","37","37","0","37","0","Thu Oct 20 09:44:14 2022","The main experiment item","yes","Sternbergtask.osexp","/Users/keelyn/Library/CloudStorage/OneDrive-Personal","no","mono","no","18","no","white","no","yes","768","legacy","25","11","/Users/keelyn/Library/CloudStorage/OneDrive-Personal/KB-subject-3.csv","legacy","6 9 7 3 8 2","Lentiform Loewenfeld","3.3.12","0","n","0","right","right","right","right","NA","615","40385","6276","615","NA","2","legacy","6","1024","2","48000","-16","experiment","3","odd","5","271930","268632","269694","853","121265","269700","113951","864","114988","273939","274555","270714","41263","273939","NA","Sternberg task","35","25999","38","yes","1024"
"92.3076923076923","92.3076923076923","677.5384615384615","677.5384615384615","black","experiment","legacy","legacy","legacy","0","uniform","1","undefined","1","left","38","38","38","0","0","38","38","0","0","38","38","38","0","38","0","Thu Oct 20 09:44:14 2022","The main experiment item","yes","Sternbergtask.osexp","/Users/keelyn/Library/CloudStorage/OneDrive-Personal","no","mono","no","18","no","white","no","yes","768","legacy","26","11","/Users/keelyn/Library/CloudStorage/OneDrive-Personal/KB-subject-3.csv","legacy","2 8 5 1","Lentiform Loewenfeld","3.3.12","4","y","0","left","right","right","left","NA","425","40385","6276","425","NA","2","legacy","4","1024","2","48000","-16","experiment","3","odd","1","277863","274560","275628","853","121265","275634","113951","864","114988","279878","280303","276647","41263","279877","NA","Sternberg task","36","26424","39","yes","1024"
"92.5","92.5","678.25","678.25","black","experiment","legacy","legacy","legacy","0","uniform","1","undefined","1","right","39","39","39","0","0","39","39","0","0","39","39","39","0","39","0","Thu Oct 20 09:44:14 2022","The main experiment item","yes","Sternbergtask.osexp","/Users/keelyn/Library/CloudStorage/OneDrive-Personal","no","mono","no","18","no","white","no","yes","768","legacy","27","11","/Users/keelyn/Library/CloudStorage/OneDrive-Personal/KB-subject-3.csv","legacy","1","Lentiform Loewenfeld","3.3.12","0","n","0","right","right","right","right","NA","706","40385","6276","706","NA","2","legacy","1","1024","2","48000","-16","experiment","3","odd","7","283594","280308","281362","853","121265","281367","113951","864","114988","285606","286313","282379","41263","285606","NA","Sternberg task","37","27130","40","yes","1024"
"92.6829268292683","92.6829268292683","685.0731707317074","685.0731707317074","black","experiment","legacy","legacy","legacy","0","uniform","1","undefined","1","right","40","40","40","0","0","40","40","0","0","40","40","40","0","40","0","Thu Oct 20 09:44:14 2022","The main experiment item","yes","Sternbergtask.osexp","/Users/keelyn/Library/CloudStorage/OneDrive-Personal","no","mono","no","18","no","white","no","yes","768","legacy","28","11","/Users/keelyn/Library/CloudStorage/OneDrive-Personal/KB-subject-3.csv","legacy","6 3 1 7 9 8","Lentiform Loewenfeld","3.3.12","0","n","0","right","right","right","right","NA","958","40385","6276","958","NA","2","legacy","6","1024","2","48000","-16","experiment","3","odd","4","289615","286318","287381","853","121265","287387","113951","864","114988","291630","292589","288400","41263","291630","NA","Sternberg task","38","28088","41","yes","1024"
"90.47619047619048","90.47619047619048","684.1904761904761","684.1904761904761","black","experiment","legacy","legacy","legacy","0","uniform","0","undefined","0","right","41","41","41","0","0","41","41","0","0","41","41","41","0","41","0","Thu Oct 20 09:44:14 2022","The main experiment item","yes","Sternbergtask.osexp","/Users/keelyn/Library/CloudStorage/OneDrive-Personal","no","mono","no","18","no","white","no","yes","768","legacy","29","11","/Users/keelyn/Library/CloudStorage/OneDrive-Personal/KB-subject-3.csv","legacy","5 2","Lentiform Loewenfeld","3.3.12","0","n","0","left","right","right","left","NA","648","40385","6276","648","NA","2","legacy","2","1024","2","48000","-16","experiment","3","odd","7","295893","292594","293659","853","121265","293665","113951","864","114988","297906","298555","294678","41263","297906","NA","Sternberg task","38","28736","42","yes","1024"
"90.69767441860465","90.69767441860465","684.6279069767442","684.6279069767442","black","experiment","legacy","legacy","legacy","0","uniform","1","undefined","1","right","42","42","42","0","0","42","42","0","0","42","42","42","0","42","0","Thu Oct 20 09:44:14 2022","The main experiment item","yes","Sternbergtask.osexp","/Users/keelyn/Library/CloudStorage/OneDrive-Personal","no","mono","no","18","no","white","no","yes","768","legacy","30","11","/Users/keelyn/Library/CloudStorage/OneDrive-Personal/KB-subject-3.csv","legacy","6 2 9 3 8 4","Lentiform Loewenfeld","3.3.12","0","n","0","right","right","right","right","NA","703","40385","6276","703","NA","2","legacy","6","1024","2","48000","-16","experiment","3","odd","1","301863","292594","299628","853","121265","299634","298560","864","114988","303873","304577","300647","41263","303873","NA","Sternberg task","39","29439","43","yes","1024"
"90.9090909090909","90.9090909090909","683.2727272727273","683.2727272727273","black","experiment","legacy","legacy","legacy","0","uniform","1","undefined","1","right","43","43","43","0","0","43","43","0","0","43","43","43","0","43","0","Thu Oct 20 09:44:14 2022","The main experiment item","yes","Sternbergtask.osexp","/Users/keelyn/Library/CloudStorage/OneDrive-Personal","no","mono","no","18","no","white","no","yes","768","legacy","31","11","/Users/keelyn/Library/CloudStorage/OneDrive-Personal/KB-subject-3.csv","legacy","3 4 9 6 7 8","Lentiform Loewenfeld","3.3.12","0","n","0","right","right","right","right","NA","625","40385","6276","625","NA","2","legacy","6","1024","2","48000","-16","experiment","3","odd","2","307887","304582","305645","853","121265","305651","298560","864","114988","309900","310526","306669","41263","309900","NA","Sternberg task","40","30064","44","yes","1024"
"91.11111111111111","91.11111111111111","683.3777777777777","683.3777777777777","black","experiment","legacy","legacy","legacy","0","uniform","1","undefined","1","right","44","44","44","0","0","44","44","0","0","44","44","44","0","44","0","Thu Oct 20 09:44:14 2022","The main experiment item","yes","Sternbergtask.osexp","/Users/keelyn/Library/CloudStorage/OneDrive-Personal","no","mono","no","18","no","white","no","yes","768","legacy","32","11","/Users/keelyn/Library/CloudStorage/OneDrive-Personal/KB-subject-3.csv","legacy","9 5 3 2 8 6","Lentiform Loewenfeld","3.3.12","0","n","0","right","right","right","right","NA","688","40385","6276","688","NA","2","legacy","6","1024","2","48000","-16","experiment","3","odd","7","313825","310531","311593","853","121265","311598","298560","864","114988","315837","316526","312610","41263","315836","NA","Sternberg task","41","30752","45","yes","1024"
"91.30434782608695","91.30434782608695","683.0217391304348","683.0217391304348","black","experiment","legacy","legacy","legacy","0","uniform","1","undefined","1","left","45","45","45","0","0","45","45","0","0","45","45","45","0","45","0","Thu Oct 20 09:44:14 2022","The main experiment item","yes","Sternbergtask.osexp","/Users/keelyn/Library/CloudStorage/OneDrive-Personal","no","mono","no","18","no","white","no","yes","768","legacy","33","11","/Users/keelyn/Library/CloudStorage/OneDrive-Personal/KB-subject-3.csv","legacy","8 5 4 7 3 1","Lentiform Loewenfeld","3.3.12","2","y","0","left","right","right","left","NA","667","40385","6276","667","NA","2","legacy","6","1024","2","48000","-16","experiment","3","odd","5","319822","316531","317586","853","121265","317591","298560","864","114988","321833","322501","318604","41263","321833","NA","Sternberg task","42","31419","46","yes","1024"
"91.48936170212765","91.48936170212765","679.468085106383","679.468085106383","black","experiment","legacy","legacy","legacy","0","uniform","1","undefined","1","left","46","46","46","0","0","46","46","0","0","46","46","46","0","46","0","Thu Oct 20 09:44:14 2022","The main experiment item","yes","Sternbergtask.osexp","/Users/keelyn/Library/CloudStorage/OneDrive-Personal","no","mono","no","18","no","white","no","yes","768","legacy","34","11","/Users/keelyn/Library/CloudStorage/OneDrive-Personal/KB-subject-3.csv","legacy","7 8 6 3 1","Lentiform Loewenfeld","3.3.12","5","y","0","left","right","right","left","NA","516","40385","6276","516","NA","2","legacy","5","1024","2","48000","-16","experiment","3","odd","1","325804","322506","323567","853","121265","323573","298560","864","114988","327815","328332","324586","41263","327815","NA","Sternberg task","43","31935","47","yes","1024"
"91.66666666666667","91.66666666666667","677.8125","677.8125","black","experiment","legacy","legacy","legacy","0","uniform","1","undefined","1","left","47","47","47","0","0","47","47","0","0","47","47","47","0","47","0","Thu Oct 20 09:44:14 2022","The main experiment item","yes","Sternbergtask.osexp","/Users/keelyn/Library/CloudStorage/OneDrive-Personal","no","mono","no","18","no","white","no","yes","768","legacy","35","11","/Users/keelyn/Library/CloudStorage/OneDrive-Personal/KB-subject-3.csv","legacy","6 1 2","Lentiform Loewenfeld","3.3.12","3","y","0","left","right","right","left","NA","600","40385","6276","600","NA","2","legacy","3","1024","2","48000","-16","experiment","3","odd","2","331625","328337","329391","853","121265","329396","298560","864","114988","333636","334237","330409","41263","333636","NA","Sternberg task","44","32535","48","yes","1024"
"91.83673469387755","91.83673469387755","675.4489795918367","675.4489795918367","black","experiment","legacy","legacy","legacy","0","uniform","1","undefined","1","left","48","48","48","0","0","48","48","0","0","48","48","48","0","48","0","Thu Oct 20 09:44:14 2022","The main experiment item","yes","Sternbergtask.osexp","/Users/keelyn/Library/CloudStorage/OneDrive-Personal","no","mono","no","18","no","white","no","yes","768","legacy","36","11","/Users/keelyn/Library/CloudStorage/OneDrive-Personal/KB-subject-3.csv","legacy","9 5 3 8 4","Lentiform Loewenfeld","3.3.12","1","y","0","left","right","right","left","NA","562","40385","6276","562","NA","2","legacy","5","1024","2","48000","-16","experiment","3","odd","9","337534","334242","335301","853","121265","335307","298560","864","114988","339545","340107","336318","41263","339544","NA","Sternberg task","45","33097","49","yes","1024"
"92","92","673.54","673.54","black","experiment","legacy","legacy","legacy","0","uniform","1","undefined","1","right","49","49","49","0","0","49","49","0","0","49","49","49","0","49","0","Thu Oct 20 09:44:14 2022","The main experiment item","yes","Sternbergtask.osexp","/Users/keelyn/Library/CloudStorage/OneDrive-Personal","no","mono","no","18","no","white","no","yes","768","legacy","37","11","/Users/keelyn/Library/CloudStorage/OneDrive-Personal/KB-subject-3.csv","legacy","6 9 4 5 2","Lentiform Loewenfeld","3.3.12","0","n","0","right","right","right","right","NA","580","40385","6276","580","NA","2","legacy","5","1024","2","48000","-16","experiment","3","odd","1","343407","340112","341171","853","121265","341176","298560","864","114988","345418","345998","342188","41263","345418","NA","Sternberg task","46","33677","50","yes","1024"
"92.15686274509804","92.15686274509804","670.4901960784314","670.4901960784314","black","experiment","legacy","legacy","legacy","0","uniform","1","undefined","1","left","50","50","50","0","0","50","50","0","0","50","50","50","0","50","0","Thu Oct 20 09:44:14 2022","The main experiment item","yes","Sternbergtask.osexp","/Users/keelyn/Library/CloudStorage/OneDrive-Personal","no","mono","no","18","no","white","no","yes","768","legacy","38","11","/Users/keelyn/Library/CloudStorage/OneDrive-Personal/KB-subject-3.csv","legacy","6 2","Lentiform Loewenfeld","3.3.12","1","y","0","left","right","right","left","NA","518","40385","6276","518","NA","2","legacy","2","1024","2","48000","-16","experiment","3","odd","6","349299","346004","347065","853","121265","347071","298560","864","114988","351311","351829","348083","41263","351310","NA","Sternberg task","47","34195","51","yes","1024"
"92.3076923076923","92.3076923076923","667.0192307692307","667.0192307692307","black","experiment","legacy","legacy","legacy","0","uniform","1","undefined","1","left","51","51","51","0","0","51","51","0","0","51","51","51","0","51","0","Thu Oct 20 09:44:14 2022","The main experiment item","yes","Sternbergtask.osexp","/Users/keelyn/Library/CloudStorage/OneDrive-Personal","no","mono","no","18","no","white","no","yes","768","legacy","39","11","/Users/keelyn/Library/CloudStorage/OneDrive-Personal/KB-subject-3.csv","legacy","2 3 7 4","Lentiform Loewenfeld","3.3.12","1","y","0","left","right","right","left","NA","490","40385","6276","490","NA","2","legacy","4","1024","2","48000","-16","experiment","3","odd","2","355129","351834","352896","853","121265","352902","298560","864","114988","357140","357631","353914","41263","357140","NA","Sternberg task","48","34685","52","yes","1024"
"92.45283018867924","92.45283018867924","665.2641509433962","665.2641509433962","black","experiment","legacy","legacy","legacy","0","uniform","1","undefined","1","left","52","52","52","0","0","52","52","0","0","52","52","52","0","52","0","Thu Oct 20 09:44:14 2022","The main experiment item","yes","Sternbergtask.osexp","/Users/keelyn/Library/CloudStorage/OneDrive-Personal","no","mono","no","18","no","white","no","yes","768","legacy","40","11","/Users/keelyn/Library/CloudStorage/OneDrive-Personal/KB-subject-3.csv","legacy","2 5 4 8 7","Lentiform Loewenfeld","3.3.12","3","y","0","left","right","right","left","NA","574","40385","6276","574","NA","2","legacy","5","1024","2","48000","-16","experiment","3","odd","4","360932","357636","358697","853","121265","358703","298560","864","114988","362944","363519","359716","41263","362944","NA","Sternberg task","49","35259","53","yes","1024"
"92.5925925925926","92.5925925925926","661.7777777777778","661.7777777777778","black","experiment","legacy","legacy","legacy","0","uniform","1","undefined","1","left","53","53","53","0","0","53","53","0","0","53","53","53","0","53","0","Thu Oct 20 09:44:14 2022","The main experiment item","yes","Sternbergtask.osexp","/Users/keelyn/Library/CloudStorage/OneDrive-Personal","no","mono","no","18","no","white","no","yes","768","legacy","41","11","/Users/keelyn/Library/CloudStorage/OneDrive-Personal/KB-subject-3.csv","legacy","8","Lentiform Loewenfeld","3.3.12","1","y","0","left","right","right","left","NA","477","40385","6276","477","NA","2","legacy","1","1024","2","48000","-16","experiment","3","odd","8","366818","363524","364584","853","121265","364590","298560","864","114988","368829","369307","365603","41263","368829","NA","Sternberg task","50","35736","54","yes","1024"
"92.72727272727273","92.72727272727273","659.4363636363636","659.4363636363636","black","experiment","legacy","legacy","legacy","0","uniform","1","undefined","1","left","54","54","54","0","0","54","54","0","0","54","54","54","0","54","0","Thu Oct 20 09:44:14 2022","The main experiment item","yes","Sternbergtask.osexp","/Users/keelyn/Library/CloudStorage/OneDrive-Personal","no","mono","no","18","no","white","no","yes","768","legacy","42","11","/Users/keelyn/Library/CloudStorage/OneDrive-Personal/KB-subject-3.csv","legacy","9 3 1 2 5","Lentiform Loewenfeld","3.3.12","4","y","0","left","right","right","left","NA","533","40385","6276","533","NA","2","legacy","5","1024","2","48000","-16","experiment","3","odd","2","372603","369312","370366","853","121265","370372","298560","864","114988","374618","375152","371385","41263","374618","NA","Sternberg task","51","36269","55","yes","1024"
"92.85714285714286","92.85714285714286","655.4642857142857","655.4642857142857","black","experiment","legacy","legacy","legacy","0","uniform","1","undefined","1","left","55","55","55","0","0","55","55","0","0","55","55","55","0","55","0","Thu Oct 20 09:44:14 2022","The main experiment item","yes","Sternbergtask.osexp","/Users/keelyn/Library/CloudStorage/OneDrive-Personal","no","mono","no","18","no","white","no","yes","768","legacy","43","11","/Users/keelyn/Library/CloudStorage/OneDrive-Personal/KB-subject-3.csv","legacy","4 1 5","Lentiform Loewenfeld","3.3.12","2","y","0","left","right","right","left","NA","437","40385","6276","437","NA","2","legacy","3","1024","2","48000","-16","experiment","3","odd","1","378453","375157","376220","853","121265","376226","298560","864","114988","380466","380904","377237","41263","380466","NA","Sternberg task","52","36706","56","yes","1024"
"92.98245614035088","92.98245614035088","654.7017543859649","654.7017543859649","black","experiment","legacy","legacy","legacy","0","uniform","1","undefined","1","right","56","56","56","0","0","56","56","0","0","56","56","56","0","56","0","Thu Oct 20 09:44:14 2022","The main experiment item","yes","Sternbergtask.osexp","/Users/keelyn/Library/CloudStorage/OneDrive-Personal","no","mono","no","18","no","white","no","yes","768","legacy","44","11","/Users/keelyn/Library/CloudStorage/OneDrive-Personal/KB-subject-3.csv","legacy","7 1 5 6 3","Lentiform Loewenfeld","3.3.12","0","n","0","right","right","right","right","NA","612","40385","6276","612","NA","2","legacy","5","1024","2","48000","-16","experiment","3","odd","8","384209","380909","381975","853","121265","381981","298560","864","114988","386221","386834","382994","41263","386221","NA","Sternberg task","53","37318","57","yes","1024"
"93.10344827586206","93.10344827586206","655.8103448275862","655.8103448275862","black","experiment","legacy","legacy","legacy","0","uniform","1","undefined","1","right","57","57","57","0","0","57","57","0","0","57","57","57","0","57","0","Thu Oct 20 09:44:14 2022","The main experiment item","yes","Sternbergtask.osexp","/Users/keelyn/Library/CloudStorage/OneDrive-Personal","no","mono","no","18","no","white","no","yes","768","legacy","45","11","/Users/keelyn/Library/CloudStorage/OneDrive-Personal/KB-subject-3.csv","legacy","2 3 8 5 6 7","Lentiform Loewenfeld","3.3.12","0","n","0","right","right","right","right","NA","719","40385","6276","719","NA","2","legacy","6","1024","2","48000","-16","experiment","3","odd","1","390134","386839","387901","853","121265","387907","298560","864","114988","392147","392866","388919","41263","392147","NA","Sternberg task","54","38037","58","yes","1024"
"93.22033898305085","93.22033898305085","654.271186440678","654.271186440678","black","experiment","legacy","legacy","legacy","0","uniform","1","undefined","1","left","58","58","58","0","0","58","58","0","0","58","58","58","0","58","0","Thu Oct 20 09:44:14 2022","The main experiment item","yes","Sternbergtask.osexp","/Users/keelyn/Library/CloudStorage/OneDrive-Personal","no","mono","no","18","no","white","no","yes","768","legacy","46","11","/Users/keelyn/Library/CloudStorage/OneDrive-Personal/KB-subject-3.csv","legacy","2 3","Lentiform Loewenfeld","3.3.12","1","y","0","left","right","right","left","NA","565","40385","6276","565","NA","2","legacy","2","1024","2","48000","-16","experiment","3","odd","2","396160","392871","393924","853","121265","393929","298560","864","114988","398172","398738","394944","41263","398172","NA","Sternberg task","55","38602","59","yes","1024"
"93.33333333333333","93.33333333333333","650.8333333333334","650.8333333333334","black","experiment","legacy","legacy","legacy","0","uniform","1","undefined","1","right","59","59","59","0","0","59","59","0","0","59","59","59","0","59","0","Thu Oct 20 09:44:14 2022","The main experiment item","yes","Sternbergtask.osexp","/Users/keelyn/Library/CloudStorage/OneDrive-Personal","no","mono","no","18","no","white","no","yes","768","legacy","47","11","/Users/keelyn/Library/CloudStorage/OneDrive-Personal/KB-subject-3.csv","legacy","5 3 2 6 9 8","Lentiform Loewenfeld","3.3.12","0","n","0","right","right","right","right","NA","448","40385","6276","448","NA","2","legacy","6","1024","2","48000","-16","experiment","3","odd","4","402038","398743","399802","853","121265","399808","298560","864","114988","404050","404499","400820","41263","404050","NA","Sternberg task","56","39050","60","yes","1024"
"93.44262295081967","93.44262295081967","653.7704918032787","653.7704918032787","black","experiment","legacy","legacy","legacy","0","uniform","1","undefined","1","right","60","60","60","0","0","60","60","0","0","60","60","60","0","60","0","Thu Oct 20 09:44:14 2022","The main experiment item","yes","Sternbergtask.osexp","/Users/keelyn/Library/CloudStorage/OneDrive-Personal","no","mono","no","18","no","white","no","yes","768","legacy","48","11","/Users/keelyn/Library/CloudStorage/OneDrive-Personal/KB-subject-3.csv","legacy","2 8 9 4 1","Lentiform Loewenfeld","3.3.12","0","n","0","right","right","right","right","NA","830","40385","6276","830","NA","2","legacy","5","1024","2","48000","-16","experiment","3","odd","5","407798","404504","405565","853","121265","405571","298560","864","114988","409809","410640","406583","41263","409809","NA","Sternberg task","57","39880","61","yes","1024"
"93.54838709677419","93.54838709677419","653.5806451612904","653.5806451612904","black","experiment","legacy","legacy","legacy","0","uniform","1","undefined","1","left","61","61","61","0","0","61","61","0","0","61","61","61","0","61","0","Thu Oct 20 09:44:14 2022","The main experiment item","yes","Sternbergtask.osexp","/Users/keelyn/Library/CloudStorage/OneDrive-Personal","no","mono","no","18","no","white","no","yes","768","legacy","49","11","/Users/keelyn/Library/CloudStorage/OneDrive-Personal/KB-subject-3.csv","legacy","2 4 6 9","Lentiform Loewenfeld","3.3.12","3","y","0","left","right","right","left","NA","642","40385","6276","642","NA","2","legacy","4","1024","2","48000","-16","experiment","3","odd","6","413938","410645","411704","853","121265","411710","298560","864","114988","415947","416590","412722","41263","415947","NA","Sternberg task","58","40522","62","yes","1024"
"93.65079365079364","93.65079365079364","650.5873015873016","650.5873015873016","black","experiment","legacy","legacy","legacy","0","uniform","1","undefined","1","right","62","62","62","0","0","62","62","0","0","62","62","62","0","62","0","Thu Oct 20 09:44:14 2022","The main experiment item","yes","Sternbergtask.osexp","/Users/keelyn/Library/CloudStorage/OneDrive-Personal","no","mono","no","18","no","white","no","yes","768","legacy","50","11","/Users/keelyn/Library/CloudStorage/OneDrive-Personal/KB-subject-3.csv","legacy","9","Lentiform Loewenfeld","3.3.12","0","n","0","right","right","right","right","NA","465","40385","6276","465","NA","2","legacy","1","1024","2","48000","-16","experiment","3","odd","6","419888","416595","417648","853","121265","417653","298560","864","114988","421900","422366","418667","41263","421900","NA","Sternberg task","59","40987","63","yes","1024"
"93.75","93.75","650.8125","650.8125","black","experiment","legacy","legacy","legacy","0","uniform","1","undefined","1","left","63","63","63","0","0","63","63","0","0","63","63","63","0","63","0","Thu Oct 20 09:44:14 2022","The main experiment item","yes","Sternbergtask.osexp","/Users/keelyn/Library/CloudStorage/OneDrive-Personal","no","mono","no","18","no","white","no","yes","768","legacy","51","11","/Users/keelyn/Library/CloudStorage/OneDrive-Personal/KB-subject-3.csv","legacy","8 7 3","Lentiform Loewenfeld","3.3.12","1","y","0","left","right","right","left","NA","665","40385","6276","665","NA","2","legacy","3","1024","2","48000","-16","experiment","3","odd","8","425666","422371","423432","853","121265","423438","298560","864","114988","427678","428344","424451","41263","427677","NA","Sternberg task","60","41652","64","yes","1024"
"93.84615384615384","93.84615384615384","650.2153846153847","650.2153846153847","black","experiment","legacy","legacy","legacy","0","uniform","1","undefined","1","left","64","64","64","0","0","64","64","0","0","64","64","64","0","64","0","Thu Oct 20 09:44:14 2022","The main experiment item","yes","Sternbergtask.osexp","/Users/keelyn/Library/CloudStorage/OneDrive-Personal","no","mono","no","18","no","white","no","yes","768","legacy","52","11","/Users/keelyn/Library/CloudStorage/OneDrive-Personal/KB-subject-3.csv","legacy","8 5 1 3 9","Lentiform Loewenfeld","3.3.12","4","y","0","left","right","right","left","NA","612","40385","6276","612","NA","2","legacy","5","1024","2","48000","-16","experiment","3","odd","3","431635","428349","429403","853","121265","429408","298560","864","114988","433646","434259","430420","41263","433646","NA","Sternberg task","61","42264","65","yes","1024"
"93.93939393939394","93.93939393939394","649.4090909090909","649.4090909090909","black","experiment","legacy","legacy","legacy","0","uniform","1","undefined","1","right","65","65","65","0","0","65","65","0","0","65","65","65","0","65","0","Thu Oct 20 09:44:14 2022","The main experiment item","yes","Sternbergtask.osexp","/Users/keelyn/Library/CloudStorage/OneDrive-Personal","no","mono","no","18","no","white","no","yes","768","legacy","53","11","/Users/keelyn/Library/CloudStorage/OneDrive-Personal/KB-subject-3.csv","legacy","3 4 2","Lentiform Loewenfeld","3.3.12","0","n","0","right","right","right","right","NA","597","40385","6276","597","NA","2","legacy","3","1024","2","48000","-16","experiment","3","odd","5","437562","434264","435328","853","121265","435334","298560","864","114988","439573","440170","436347","41263","439573","NA","Sternberg task","62","42861","66","yes","1024"
"94.02985074626865","94.02985074626865","649.5074626865671","649.5074626865671","black","experiment","legacy","legacy","legacy","0","uniform","1","undefined","1","right","66","66","66","0","0","66","66","0","0","66","66","66","0","66","0","Thu Oct 20 09:44:14 2022","The main experiment item","yes","Sternbergtask.osexp","/Users/keelyn/Library/CloudStorage/OneDrive-Personal","no","mono","no","18","no","white","no","yes","768","legacy","54","11","/Users/keelyn/Library/CloudStorage/OneDrive-Personal/KB-subject-3.csv","legacy","7 1","Lentiform Loewenfeld","3.3.12","0","n","0","right","right","right","right","NA","656","40385","6276","656","NA","2","legacy","2","1024","2","48000","-16","experiment","3","odd","8","443469","440175","441236","853","121265","441242","298560","864","114988","445481","446138","442254","41263","445480","NA","Sternberg task","63","43517","67","yes","1024"
"94.11764705882354","94.11764705882354","647.6176470588235","647.6176470588235","black","experiment","legacy","legacy","legacy","0","uniform","1","undefined","1","right","67","67","67","0","0","67","67","0","0","67","67","67","0","67","0","Thu Oct 20 09:44:14 2022","The main experiment item","yes","Sternbergtask.osexp","/Users/keelyn/Library/CloudStorage/OneDrive-Personal","no","mono","no","18","no","white","no","yes","768","legacy","55","11","/Users/keelyn/Library/CloudStorage/OneDrive-Personal/KB-subject-3.csv","legacy","6 8","Lentiform Loewenfeld","3.3.12","0","n","0","right","right","right","right","NA","521","40385","6276","521","NA","2","legacy","2","1024","2","48000","-16","experiment","3","odd","9","449438","446143","447204","853","121265","447210","298560","864","114988","451448","451970","448223","41263","451448","NA","Sternberg task","64","44038","68","yes","1024"
"94.20289855072464","94.20289855072464","649.5507246376811","649.5507246376811","black","experiment","legacy","legacy","legacy","0","uniform","1","undefined","1","right","68","68","68","0","0","68","68","0","0","68","68","68","0","68","0","Thu Oct 20 09:44:14 2022","The main experiment item","yes","Sternbergtask.osexp","/Users/keelyn/Library/CloudStorage/OneDrive-Personal","no","mono","no","18","no","white","no","yes","768","legacy","56","11","/Users/keelyn/Library/CloudStorage/OneDrive-Personal/KB-subject-3.csv","legacy","7 4 2 8 1 9","Lentiform Loewenfeld","3.3.12","0","n","0","right","right","right","right","NA","781","40385","6276","781","NA","2","legacy","6","1024","2","48000","-16","experiment","3","odd","5","455266","451975","453033","853","121265","453038","298560","864","114988","457278","458060","454051","41263","457277","NA","Sternberg task","65","44819","69","yes","1024"
"94.28571428571429","94.28571428571429","649.0285714285715","649.0285714285715","black","experiment","legacy","legacy","legacy","0","uniform","1","undefined","1","left","69","69","69","0","0","69","69","0","0","69","69","69","0","69","0","Thu Oct 20 09:44:14 2022","The main experiment item","yes","Sternbergtask.osexp","/Users/keelyn/Library/CloudStorage/OneDrive-Personal","no","mono","no","18","no","white","no","yes","768","legacy","57","11","/Users/keelyn/Library/CloudStorage/OneDrive-Personal/KB-subject-3.csv","legacy","6 7 9 3 1 2","Lentiform Loewenfeld","3.3.12","1","y","0","left","right","right","left","NA","613","40385","6276","613","NA","2","legacy","6","1024","2","48000","-16","experiment","3","odd","6","461361","458065","459126","853","121265","459132","298560","864","114988","463378","463992","460146","41263","463378","NA","Sternberg task","66","45432","70","yes","1024"
"94.36619718309859","94.36619718309859","646.5633802816901","646.5633802816901","black","experiment","legacy","legacy","legacy","0","uniform","1","undefined","1","left","70","70","70","0","0","70","70","0","0","70","70","70","0","70","0","Thu Oct 20 09:44:14 2022","The main experiment item","yes","Sternbergtask.osexp","/Users/keelyn/Library/CloudStorage/OneDrive-Personal","no","mono","no","18","no","white","no","yes","768","legacy","58","11","/Users/keelyn/Library/CloudStorage/OneDrive-Personal/KB-subject-3.csv","legacy","8 3","Lentiform Loewenfeld","3.3.12","2","y","0","left","right","right","left","NA","474","40385","6276","474","NA","2","legacy","2","1024","2","48000","-16","experiment","3","odd","3","467296","463997","465059","853","121265","465065","298560","864","114988","469307","469782","466078","41263","469307","NA","Sternberg task","67","45906","71","yes","1024"
"94.44444444444444","94.44444444444444","644.4722222222222","644.4722222222222","black","experiment","legacy","legacy","legacy","0","uniform","1","undefined","1","right","71","71","71","0","0","71","71","0","0","71","71","71","0","71","0","Thu Oct 20 09:44:14 2022","The main experiment item","yes","Sternbergtask.osexp","/Users/keelyn/Library/CloudStorage/OneDrive-Personal","no","mono","no","18","no","white","no","yes","768","legacy","59","11","/Users/keelyn/Library/CloudStorage/OneDrive-Personal/KB-subject-3.csv","legacy","7 6 4 8 1 2","Lentiform Loewenfeld","3.3.12","0","n","0","right","right","right","right","NA","496","40385","6276","496","NA","2","legacy","6","1024","2","48000","-16","experiment","3","odd","9","473084","469787","470850","853","121265","470855","298560","864","114988","475098","475595","471869","41263","475098","NA","Sternberg task","68","46402","72","yes","1024"
"94.52054794520548","94.52054794520548","644.013698630137","644.013698630137","black","experiment","legacy","legacy","legacy","0","uniform","1","undefined","1","left","72","72","72","0","0","72","72","0","0","72","72","72","0","72","0","Thu Oct 20 09:44:14 2022","The main experiment item","yes","Sternbergtask.osexp","/Users/keelyn/Library/CloudStorage/OneDrive-Personal","no","mono","no","18","no","white","no","yes","768","legacy","60","11","/Users/keelyn/Library/CloudStorage/OneDrive-Personal/KB-subject-3.csv","legacy","3 4 9 6 2 9","Lentiform Loewenfeld","3.3.12","5","y","0","left","right","right","left","NA","611","40385","6276","611","NA","2","legacy","6","1024","2","48000","-16","experiment","3","odd","2","478893","475600","476660","853","121265","476666","298560","864","114988","480906","481518","477678","41263","480906","NA","Sternberg task","69","47013","73","yes","1024"
"94.5945945945946","94.5945945945946","642.0540540540541","642.0540540540541","black","experiment","legacy","legacy","legacy","0","uniform","1","undefined","1","left","73","73","73","0","0","73","73","0","0","73","73","73","0","73","0","Thu Oct 20 09:44:14 2022","The main experiment item","yes","Sternbergtask.osexp","/Users/keelyn/Library/CloudStorage/OneDrive-Personal","no","mono","no","18","no","white","no","yes","768","legacy","61","11","/Users/keelyn/Library/CloudStorage/OneDrive-Personal/KB-subject-3.csv","legacy","2 4 8 5 1 3","Lentiform Loewenfeld","3.3.12","1","y","0","left","right","right","left","NA","499","40385","6276","499","NA","2","legacy","6","1024","2","48000","-16","experiment","3","odd","2","484821","481523","482585","853","121265","482591","298560","864","114988","486831","487331","483604","41263","486831","NA","Sternberg task","70","47512","74","yes","1024"
"94.66666666666667","94.66666666666667","640.2","640.2","black","experiment","legacy","legacy","legacy","0","uniform","1","undefined","1","left","74","74","74","0","0","74","74","0","0","74","74","74","0","74","0","Thu Oct 20 09:44:14 2022","The main experiment item","yes","Sternbergtask.osexp","/Users/keelyn/Library/CloudStorage/OneDrive-Personal","no","mono","no","18","no","white","no","yes","768","legacy","62","11","/Users/keelyn/Library/CloudStorage/OneDrive-Personal/KB-subject-3.csv","legacy","3 5 9 6 2 4","Lentiform Loewenfeld","3.3.12","1","y","0","left","right","right","left","NA","503","40385","6276","503","NA","2","legacy","6","1024","2","48000","-16","experiment","3","odd","3","490625","487336","488393","853","121265","488398","298560","864","114988","492636","493140","489410","41263","492636","NA","Sternberg task","71","48015","75","yes","1024"
"94.73684210526316","94.73684210526316","638","638","black","experiment","legacy","legacy","legacy","0","uniform","1","undefined","1","left","75","75","75","0","0","75","75","0","0","75","75","75","0","75","0","Thu Oct 20 09:44:14 2022","The main experiment item","yes","Sternbergtask.osexp","/Users/keelyn/Library/CloudStorage/OneDrive-Personal","no","mono","no","18","no","white","no","yes","768","legacy","63","11","/Users/keelyn/Library/CloudStorage/OneDrive-Personal/KB-subject-3.csv","legacy","2 6 1 7 4","Lentiform Loewenfeld","3.3.12","2","y","0","left","right","right","left","NA","473","40385","6276","473","NA","2","legacy","5","1024","2","48000","-16","experiment","3","odd","6","496445","493145","494209","853","121265","494215","298560","864","114988","498457","498931","495228","41263","498457","NA","Sternberg task","72","48488","76","yes","1024"
"94.8051948051948","94.8051948051948","636.987012987013","636.987012987013","black","experiment","legacy","legacy","legacy","0","uniform","1","undefined","1","left","76","76","76","0","0","76","76","0","0","76","76","76","0","76","0","Thu Oct 20 09:44:14 2022","The main experiment item","yes","Sternbergtask.osexp","/Users/keelyn/Library/CloudStorage/OneDrive-Personal","no","mono","no","18","no","white","no","yes","768","legacy","64","11","/Users/keelyn/Library/CloudStorage/OneDrive-Personal/KB-subject-3.csv","legacy","5 7 3 6 2","Lentiform Loewenfeld","3.3.12","5","y","0","left","right","right","left","NA","560","40385","6276","560","NA","2","legacy","5","1024","2","48000","-16","experiment","3","odd","2","502232","498936","499997","853","121265","500003","298560","864","114988","504243","504803","501017","41263","504243","NA","Sternberg task","73","49048","77","yes","1024"
"94.87179487179488","94.87179487179488","636.4487179487179","636.4487179487179","black","experiment","legacy","legacy","legacy","0","uniform","1","undefined","1","left","77","77","77","0","0","77","77","0","0","77","77","77","0","77","0","Thu Oct 20 09:44:14 2022","The main experiment item","yes","Sternbergtask.osexp","/Users/keelyn/Library/CloudStorage/OneDrive-Personal","no","mono","no","18","no","white","no","yes","768","legacy","65","11","/Users/keelyn/Library/CloudStorage/OneDrive-Personal/KB-subject-3.csv","legacy","4 7 6 8 2 3","Lentiform Loewenfeld","3.3.12","6","y","0","left","right","right","left","NA","595","40385","6276","595","NA","2","legacy","6","1024","2","48000","-16","experiment","3","odd","3","508103","504808","505864","853","121265","505869","298560","864","114988","510117","510713","506888","41263","510117","NA","Sternberg task","74","49643","78","yes","1024"
"94.9367088607595","94.9367088607595","634.2025316455696","634.2025316455696","black","experiment","legacy","legacy","legacy","0","uniform","1","undefined","1","right","78","78","78","0","0","78","78","0","0","78","78","78","0","78","0","Thu Oct 20 09:44:14 2022","The main experiment item","yes","Sternbergtask.osexp","/Users/keelyn/Library/CloudStorage/OneDrive-Personal","no","mono","no","18","no","white","no","yes","768","legacy","66","11","/Users/keelyn/Library/CloudStorage/OneDrive-Personal/KB-subject-3.csv","legacy","5 7 3","Lentiform Loewenfeld","3.3.12","0","n","0","right","right","right","right","NA","459","40385","6276","459","NA","2","legacy","3","1024","2","48000","-16","experiment","3","odd","9","514004","510718","511770","853","121265","511775","298560","864","114988","516019","516479","512788","41263","516019","NA","Sternberg task","75","50102","79","yes","1024"
"95","95","634.6375","634.6375","black","experiment","legacy","legacy","legacy","0","uniform","1","undefined","1","left","79","79","79","0","0","79","79","0","0","79","79","79","0","79","0","Thu Oct 20 09:44:14 2022","The main experiment item","yes","Sternbergtask.osexp","/Users/keelyn/Library/CloudStorage/OneDrive-Personal","no","mono","no","18","no","white","no","yes","768","legacy","67","11","/Users/keelyn/Library/CloudStorage/OneDrive-Personal/KB-subject-3.csv","legacy","8 9 6 1","Lentiform Loewenfeld","3.3.12","2","y","0","left","right","right","left","NA","669","40385","6276","669","NA","2","legacy","4","1024","2","48000","-16","experiment","3","odd","9","519783","516484","517545","853","121265","517551","298560","864","114988","521798","522468","518568","41263","521798","NA","Sternberg task","76","50771","80","yes","1024"
"95.06172839506173","95.06172839506173","632.3086419753087","632.3086419753087","black","experiment","legacy","legacy","legacy","0","uniform","1","undefined","1","left","80","80","80","0","0","80","80","0","0","80","80","80","0","80","0","Thu Oct 20 09:44:14 2022","The main experiment item","yes","Sternbergtask.osexp","/Users/keelyn/Library/CloudStorage/OneDrive-Personal","no","mono","no","18","no","white","no","yes","768","legacy","68","11","/Users/keelyn/Library/CloudStorage/OneDrive-Personal/KB-subject-3.csv","legacy","6 7 8 5","Lentiform Loewenfeld","3.3.12","3","y","0","left","right","right","left","NA","446","40385","6276","446","NA","2","legacy","4","1024","2","48000","-16","experiment","3","odd","8","525767","522473","523535","853","121265","523540","298560","864","114988","527779","528226","524552","41263","527779","NA","Sternberg task","77","51217","81","yes","1024"
"95.1219512195122","95.1219512195122","629.8414634146342","629.8414634146342","black","experiment","legacy","legacy","legacy","0","uniform","1","undefined","1","right","81","81","81","0","0","81","81","0","0","81","81","81","0","81","0","Thu Oct 20 09:44:14 2022","The main experiment item","yes","Sternbergtask.osexp","/Users/keelyn/Library/CloudStorage/OneDrive-Personal","no","mono","no","18","no","white","no","yes","768","legacy","69","11","/Users/keelyn/Library/CloudStorage/OneDrive-Personal/KB-subject-3.csv","legacy","7 3 2 8","Lentiform Loewenfeld","3.3.12","0","n","0","right","right","right","right","NA","430","40385","6276","430","NA","2","legacy","4","1024","2","48000","-16","experiment","3","odd","4","531527","528231","529293","853","121265","529299","298560","864","114988","533540","533971","530312","41263","533540","NA","Sternberg task","78","51647","82","yes","1024"
"95.18072289156626","95.18072289156626","628.6867469879518","628.6867469879518","black","experiment","legacy","legacy","legacy","0","uniform","1","undefined","1","left","82","82","82","0","0","82","82","0","0","82","82","82","0","82","0","Thu Oct 20 09:44:14 2022","The main experiment item","yes","Sternbergtask.osexp","/Users/keelyn/Library/CloudStorage/OneDrive-Personal","no","mono","no","18","no","white","no","yes","768","legacy","70","11","/Users/keelyn/Library/CloudStorage/OneDrive-Personal/KB-subject-3.csv","legacy","8 9 5 7 1 6","Lentiform Loewenfeld","3.3.12","4","y","0","left","right","right","left","NA","534","40385","6276","534","NA","2","legacy","6","1024","2","48000","-16","experiment","3","odd","7","537263","533976","535030","853","121265","535035","298560","864","114988","539273","539808","536047","41263","539273","NA","Sternberg task","79","52181","83","yes","1024"
"95.23809523809524","95.23809523809524","627.8571428571429","627.8571428571429","black","experiment","legacy","legacy","legacy","0","uniform","1","undefined","1","right","83","83","83","0","0","83","83","0","0","83","83","83","0","83","0","Thu Oct 20 09:44:14 2022","The main experiment item","yes","Sternbergtask.osexp","/Users/keelyn/Library/CloudStorage/OneDrive-Personal","no","mono","no","18","no","white","no","yes","768","legacy","71","11","/Users/keelyn/Library/CloudStorage/OneDrive-Personal/KB-subject-3.csv","legacy","2 6 4 3 9","Lentiform Loewenfeld","3.3.12","0","n","0","right","right","right","right","NA","559","40385","6276","559","NA","2","legacy","5","1024","2","48000","-16","experiment","3","odd","1","543110","539813","540872","853","121265","540878","298560","864","114988","545122","545682","541890","41263","545122","NA","Sternberg task","80","52740","84","yes","1024"
"95.29411764705883","95.29411764705883","627.5058823529412","627.5058823529412","black","experiment","legacy","legacy","legacy","0","uniform","1","undefined","1","right","84","84","84","0","0","84","84","0","0","84","84","84","0","84","0","Thu Oct 20 09:44:14 2022","The main experiment item","yes","Sternbergtask.osexp","/Users/keelyn/Library/CloudStorage/OneDrive-Personal","no","mono","no","18","no","white","no","yes","768","legacy","72","11","/Users/keelyn/Library/CloudStorage/OneDrive-Personal/KB-subject-3.csv","legacy","2 8 7 9 5 3","Lentiform Loewenfeld","3.3.12","0","n","0","right","right","right","right","NA","598","40385","6276","598","NA","2","legacy","6","1024","2","48000","-16","experiment","3","odd","6","548988","545687","546746","853","121265","546751","298560","864","114988","550998","551597","547770","41263","550998","NA","Sternberg task","81","53338","85","yes","1024"
"95.34883720930233","95.34883720930233","629.5116279069767","629.5116279069767","black","experiment","legacy","legacy","legacy","0","uniform","1","undefined","1","right","85","85","85","0","0","85","85","0","0","85","85","85","0","85","0","Thu Oct 20 09:44:14 2022","The main experiment item","yes","Sternbergtask.osexp","/Users/keelyn/Library/CloudStorage/OneDrive-Personal","no","mono","no","18","no","white","no","yes","768","legacy","73","11","/Users/keelyn/Library/CloudStorage/OneDrive-Personal/KB-subject-3.csv","legacy","9 7 4 5 8","Lentiform Loewenfeld","3.3.12","0","n","0","right","right","right","right","NA","800","40385","6276","800","NA","2","legacy","5","1024","2","48000","-16","experiment","3","odd","6","554902","551602","552663","853","121265","552668","298560","864","114988","556913","557714","553683","41263","556913","NA","Sternberg task","82","54138","86","yes","1024"
"95.40229885057471","95.40229885057471","628.3103448275862","628.3103448275862","black","experiment","legacy","legacy","legacy","0","uniform","1","undefined","1","right","86","86","86","0","0","86","86","0","0","86","86","86","0","86","0","Thu Oct 20 09:44:14 2022","The main experiment item","yes","Sternbergtask.osexp","/Users/keelyn/Library/CloudStorage/OneDrive-Personal","no","mono","no","18","no","white","no","yes","768","legacy","74","11","/Users/keelyn/Library/CloudStorage/OneDrive-Personal/KB-subject-3.csv","legacy","1 3 2 6 9","Lentiform Loewenfeld","3.3.12","0","n","0","right","right","right","right","NA","525","40385","6276","525","NA","2","legacy","5","1024","2","48000","-16","experiment","3","odd","5","561010","557719","558776","853","121265","558781","298560","864","114988","563021","563547","559794","41263","563021","NA","Sternberg task","83","54663","87","yes","1024"
"95.45454545454545","95.45454545454545","626.3977272727273","626.3977272727273","black","experiment","legacy","legacy","legacy","0","uniform","1","undefined","1","left","87","87","87","0","0","87","87","0","0","87","87","87","0","87","0","Thu Oct 20 09:44:14 2022","The main experiment item","yes","Sternbergtask.osexp","/Users/keelyn/Library/CloudStorage/OneDrive-Personal","no","mono","no","18","no","white","no","yes","768","legacy","75","11","/Users/keelyn/Library/CloudStorage/OneDrive-Personal/KB-subject-3.csv","legacy","5 2 9 6 1 7","Lentiform Loewenfeld","3.3.12","3","y","0","left","right","right","left","NA","460","40385","6276","460","NA","2","legacy","6","1024","2","48000","-16","experiment","3","odd","9","566855","563552","564621","853","121265","564627","298560","864","114988","568866","569327","565640","41263","568866","NA","Sternberg task","84","55123","88","yes","1024"
"95.50561797752809","95.50561797752809","626.7640449438202","626.7640449438202","black","experiment","legacy","legacy","legacy","0","uniform","1","undefined","1","left","88","88","88","0","0","88","88","0","0","88","88","88","0","88","0","Thu Oct 20 09:44:14 2022","The main experiment item","yes","Sternbergtask.osexp","/Users/keelyn/Library/CloudStorage/OneDrive-Personal","no","mono","no","18","no","white","no","yes","768","legacy","76","11","/Users/keelyn/Library/CloudStorage/OneDrive-Personal/KB-subject-3.csv","legacy","4 3 2 5 8","Lentiform Loewenfeld","3.3.12","2","y","0","left","right","right","left","NA","659","40385","6276","659","NA","2","legacy","5","1024","2","48000","-16","experiment","3","odd","3","572618","569332","570383","853","121265","570388","298560","864","114988","574629","575289","571402","41263","574629","NA","Sternberg task","85","55782","89","yes","1024"
"95.55555555555556","95.55555555555556","626.4888888888889","626.4888888888889","black","experiment","legacy","legacy","legacy","0","uniform","1","undefined","1","left","89","89","89","0","0","89","89","0","0","89","89","89","0","89","0","Thu Oct 20 09:44:14 2022","The main experiment item","yes","Sternbergtask.osexp","/Users/keelyn/Library/CloudStorage/OneDrive-Personal","no","mono","no","18","no","white","no","yes","768","legacy","77","11","/Users/keelyn/Library/CloudStorage/OneDrive-Personal/KB-subject-3.csv","legacy","3 9 7 6 4","Lentiform Loewenfeld","3.3.12","3","y","0","left","right","right","left","NA","602","40385","6276","602","NA","2","legacy","5","1024","2","48000","-16","experiment","3","odd","7","578589","575294","576355","853","121265","576361","298560","864","114988","580600","581203","577374","41263","580600","NA","Sternberg task","86","56384","90","yes","1024"
"95.6043956043956","95.6043956043956","625.1318681318681","625.1318681318681","black","experiment","legacy","legacy","legacy","0","uniform","1","undefined","1","right","90","90","90","0","0","90","90","0","0","90","90","90","0","90","0","Thu Oct 20 09:44:14 2022","The main experiment item","yes","Sternbergtask.osexp","/Users/keelyn/Library/CloudStorage/OneDrive-Personal","no","mono","no","18","no","white","no","yes","768","legacy","78","11","/Users/keelyn/Library/CloudStorage/OneDrive-Personal/KB-subject-3.csv","legacy","1 8 7","Lentiform Loewenfeld","3.3.12","0","n","0","right","right","right","right","NA","503","40385","6276","503","NA","2","legacy","3","1024","2","48000","-16","experiment","3","odd","4","584505","581208","582272","853","121265","582278","298560","864","114988","586517","587020","583290","41263","586516","NA","Sternberg task","87","56887","91","yes","1024"
"94.56521739130434","94.56521739130434","623.2608695652174","623.2608695652174","black","experiment","legacy","legacy","legacy","0","uniform","0","undefined","0","left","91","91","91","0","0","91","91","0","0","91","91","91","0","91","0","Thu Oct 20 09:44:14 2022","The main experiment item","yes","Sternbergtask.osexp","/Users/keelyn/Library/CloudStorage/OneDrive-Personal","no","mono","no","18","no","white","no","yes","768","legacy","79","11","/Users/keelyn/Library/CloudStorage/OneDrive-Personal/KB-subject-3.csv","legacy","3 9 6 2","Lentiform Loewenfeld","3.3.12","4","y","0","right","right","right","right","NA","453","40385","6276","453","NA","2","legacy","4","1024","2","48000","-16","experiment","3","odd","2","590322","587025","588087","853","121265","588093","298560","864","114988","592333","592787","589106","41263","592333","NA","Sternberg task","87","57340","92","yes","1024"
"94.6236559139785","94.6236559139785","625.1612903225806","625.1612903225806","black","experiment","legacy","legacy","legacy","0","uniform","1","undefined","1","right","92","92","92","0","0","92","92","0","0","92","92","92","0","92","0","Thu Oct 20 09:44:14 2022","The main experiment item","yes","Sternbergtask.osexp","/Users/keelyn/Library/CloudStorage/OneDrive-Personal","no","mono","no","18","no","white","no","yes","768","legacy","80","11","/Users/keelyn/Library/CloudStorage/OneDrive-Personal/KB-subject-3.csv","legacy","8 5 4 2 9 6","Lentiform Loewenfeld","3.3.12","0","n","0","right","right","right","right","NA","800","40385","6276","800","NA","2","legacy","6","1024","2","48000","-16","experiment","3","odd","3","596080","587025","593846","853","121265","593852","592792","864","114988","598091","598892","594864","41263","598091","NA","Sternberg task","88","58140","93","yes","1024"
"94.68085106382979","94.68085106382979","627.0744680851063","627.0744680851063","black","experiment","legacy","legacy","legacy","0","uniform","1","undefined","1","right","93","93","93","0","0","93","93","0","0","93","93","93","0","93","0","Thu Oct 20 09:44:14 2022","The main experiment item","yes","Sternbergtask.osexp","/Users/keelyn/Library/CloudStorage/OneDrive-Personal","no","mono","no","18","no","white","no","yes","768","legacy","81","11","/Users/keelyn/Library/CloudStorage/OneDrive-Personal/KB-subject-3.csv","legacy","8 9","Lentiform Loewenfeld","3.3.12","0","n","0","right","right","right","right","NA","805","40385","6276","805","NA","2","legacy","2","1024","2","48000","-16","experiment","3","odd","5","602195","598897","599958","853","121265","599964","592792","864","114988","604211","605017","600977","41263","604210","NA","Sternberg task","89","58945","94","yes","1024"
"94.73684210526316","94.73684210526316","628.4842105263158","628.4842105263158","black","experiment","legacy","legacy","legacy","0","uniform","1","undefined","1","right","94","94","94","0","0","94","94","0","0","94","94","94","0","94","0","Thu Oct 20 09:44:14 2022","The main experiment item","yes","Sternbergtask.osexp","/Users/keelyn/Library/CloudStorage/OneDrive-Personal","no","mono","no","18","no","white","no","yes","768","legacy","82","11","/Users/keelyn/Library/CloudStorage/OneDrive-Personal/KB-subject-3.csv","legacy","4 8 1 2","Lentiform Loewenfeld","3.3.12","0","n","0","right","right","right","right","NA","761","40385","6276","761","NA","2","legacy","4","1024","2","48000","-16","experiment","3","odd","7","608319","605022","606083","853","121265","606088","592792","864","114988","610330","611092","607103","41263","610330","NA","Sternberg task","90","59706","95","yes","1024"
"94.79166666666667","94.79166666666667","627.71875","627.71875","black","experiment","legacy","legacy","legacy","0","uniform","1","undefined","1","left","95","95","95","0","0","95","95","0","0","95","95","95","0","95","0","Thu Oct 20 09:44:14 2022","The main experiment item","yes","Sternbergtask.osexp","/Users/keelyn/Library/CloudStorage/OneDrive-Personal","no","mono","no","18","no","white","no","yes","768","legacy","83","11","/Users/keelyn/Library/CloudStorage/OneDrive-Personal/KB-subject-3.csv","legacy","9 3 8 2 1 4","Lentiform Loewenfeld","3.3.12","3","y","0","left","right","right","left","NA","555","40385","6276","555","NA","2","legacy","6","1024","2","48000","-16","experiment","3","odd","8","614397","611097","612160","853","121265","612166","592792","864","114988","616412","616968","613179","41263","616412","NA","Sternberg task","91","60261","96","yes","1024"
"94.84536082474227","94.84536082474227","627.4639175257732","627.4639175257732","black","experiment","legacy","legacy","legacy","0","uniform","1","undefined","1","right","96","96","96","0","0","96","96","0","0","96","96","96","0","96","0","Thu Oct 20 09:44:14 2022","The main experiment item","yes","Sternbergtask.osexp","/Users/keelyn/Library/CloudStorage/OneDrive-Personal","no","mono","no","18","no","white","no","yes","768","legacy","84","11","/Users/keelyn/Library/CloudStorage/OneDrive-Personal/KB-subject-3.csv","legacy","6 9 4 5 3 2","Lentiform Loewenfeld","3.3.12","0","n","0","right","right","right","right","NA","603","40385","6276","603","NA","2","legacy","6","1024","2","48000","-16","experiment","3","odd","8","620263","616973","618027","853","121265","618032","592792","864","114988","622273","622877","619044","41263","622273","NA","Sternberg task","92","60864","97","yes","1024"
"94.89795918367346","94.89795918367346","626.6836734693877","626.6836734693877","black","experiment","legacy","legacy","legacy","0","uniform","1","undefined","1","left","97","97","97","0","0","97","97","0","0","97","97","97","0","97","0","Thu Oct 20 09:44:14 2022","The main experiment item","yes","Sternbergtask.osexp","/Users/keelyn/Library/CloudStorage/OneDrive-Personal","no","mono","no","18","no","white","no","yes","768","legacy","85","11","/Users/keelyn/Library/CloudStorage/OneDrive-Personal/KB-subject-3.csv","legacy","5 7 8 2 3 8","Lentiform Loewenfeld","3.3.12","5","y","0","left","right","right","left","NA","551","40385","6276","551","NA","2","legacy","6","1024","2","48000","-16","experiment","3","odd","3","626184","622882","623948","853","121265","623953","592792","864","114988","628197","628749","624965","41263","628197","NA","Sternberg task","93","61415","98","yes","1024"
"94.94949494949495","94.94949494949495","625.8888888888889","625.8888888888889","black","experiment","legacy","legacy","legacy","0","uniform","1","undefined","1","left","98","98","98","0","0","98","98","0","0","98","98","98","0","98","0","Thu Oct 20 09:44:14 2022","The main experiment item","yes","Sternbergtask.osexp","/Users/keelyn/Library/CloudStorage/OneDrive-Personal","no","mono","no","18","no","white","no","yes","768","legacy","86","11","/Users/keelyn/Library/CloudStorage/OneDrive-Personal/KB-subject-3.csv","legacy","3 2 1 4 7","Lentiform Loewenfeld","3.3.12","2","y","0","left","right","right","left","NA","548","40385","6276","548","NA","2","legacy","5","1024","2","48000","-16","experiment","3","odd","2","632051","628754","629816","853","121265","629821","592792","864","114988","634062","634611","630837","41263","634062","NA","Sternberg task","94","61963","99","yes","1024"
"95","95","624.88","624.88","black","experiment","legacy","legacy","legacy","0","uniform","1","undefined","1","right","99","99","99","0","0","99","99","0","0","99","99","99","0","99","0","Thu Oct 20 09:44:14 2022","The main experiment item","yes","Sternbergtask.osexp","/Users/keelyn/Library/CloudStorage/OneDrive-Personal","no","mono","no","18","no","white","no","yes","768","legacy","87","11","/Users/keelyn/Library/CloudStorage/OneDrive-Personal/KB-subject-3.csv","legacy","1 7 5 2","Lentiform Loewenfeld","3.3.12","0","n","0","right","right","right","right","NA","525","40385","6276","525","NA","2","legacy","4","1024","2","48000","-16","experiment","3","odd","3","637918","634616","635684","853","121265","635690","592792","864","114988","639933","640459","636703","41263","639933","NA","Sternberg task","95","62488","100","yes","1024"
"95.04950495049505","95.04950495049505","623.009900990099","623.009900990099","black","experiment","legacy","legacy","legacy","0","uniform","1","undefined","1","right","100","100","100","0","0","100","100","0","0","100","100","100","0","100","0","Thu Oct 20 09:44:14 2022","The main experiment item","yes","Sternbergtask.osexp","/Users/keelyn/Library/CloudStorage/OneDrive-Personal","no","mono","no","18","no","white","no","yes","768","legacy","88","11","/Users/keelyn/Library/CloudStorage/OneDrive-Personal/KB-subject-3.csv","legacy","4 1","Lentiform Loewenfeld","3.3.12","0","n","0","right","right","right","right","NA","436","40385","6276","436","NA","2","legacy","2","1024","2","48000","-16","experiment","3","odd","6","643763","640464","641526","853","121265","641532","592792","864","114988","645776","646213","642545","41263","645776","NA","Sternberg task","96","62924","101","yes","1024"
"95.09803921568627","95.09803921568627","622.6960784313726","622.6960784313726","black","experiment","legacy","legacy","legacy","0","uniform","1","undefined","1","right","101","101","101","0","0","101","101","0","0","101","101","101","0","101","0","Thu Oct 20 09:44:14 2022","The main experiment item","yes","Sternbergtask.osexp","/Users/keelyn/Library/CloudStorage/OneDrive-Personal","no","mono","no","18","no","white","no","yes","768","legacy","89","11","/Users/keelyn/Library/CloudStorage/OneDrive-Personal/KB-subject-3.csv","legacy","1 4 3 6 5","Lentiform Loewenfeld","3.3.12","0","n","0","right","right","right","right","NA","591","40385","6276","591","NA","2","legacy","5","1024","2","48000","-16","experiment","3","odd","8","649508","646218","647275","853","121265","647280","592792","864","114988","651519","652111","648293","41263","651519","NA","Sternberg task","97","63515","102","yes","1024"
"95.14563106796116","95.14563106796116","622.5339805825242","622.5339805825242","black","experiment","legacy","legacy","legacy","0","uniform","1","undefined","1","left","102","102","102","0","0","102","102","0","0","102","102","102","0","102","0","Thu Oct 20 09:44:14 2022","The main experiment item","yes","Sternbergtask.osexp","/Users/keelyn/Library/CloudStorage/OneDrive-Personal","no","mono","no","18","no","white","no","yes","768","legacy","90","11","/Users/keelyn/Library/CloudStorage/OneDrive-Personal/KB-subject-3.csv","legacy","9 1 6 7 8","Lentiform Loewenfeld","3.3.12","1","y","0","left","right","right","left","NA","606","40385","6276","606","NA","2","legacy","5","1024","2","48000","-16","experiment","3","odd","9","655408","652116","653174","853","121265","653180","592792","864","114988","657420","658027","654193","41263","657420","NA","Sternberg task","98","64121","103","yes","1024"
"95.1923076923077","95.1923076923077","622.7115384615385","622.7115384615385","black","experiment","legacy","legacy","legacy","0","uniform","1","undefined","1","left","103","103","103","0","0","103","103","0","0","103","103","103","0","103","0","Thu Oct 20 09:44:14 2022","The main experiment item","yes","Sternbergtask.osexp","/Users/keelyn/Library/CloudStorage/OneDrive-Personal","no","mono","no","18","no","white","no","yes","768","legacy","91","11","/Users/keelyn/Library/CloudStorage/OneDrive-Personal/KB-subject-3.csv","legacy","6 8 9 3 4 9","Lentiform Loewenfeld","3.3.12","5","y","0","left","right","right","left","NA","641","40385","6276","641","NA","2","legacy","6","1024","2","48000","-16","experiment","3","odd","4","661330","658032","659090","853","121265","659095","592792","864","114988","663341","663983","660115","41263","663341","NA","Sternberg task","99","64762","104","yes","1024"
"95.23809523809524","95.23809523809524","624.1142857142858","624.1142857142858","black","experiment","legacy","legacy","legacy","0","uniform","1","undefined","1","left","104","104","104","0","0","104","104","0","0","104","104","104","0","104","0","Thu Oct 20 09:44:14 2022","The main experiment item","yes","Sternbergtask.osexp","/Users/keelyn/Library/CloudStorage/OneDrive-Personal","no","mono","no","18","no","white","no","yes","768","legacy","92","11","/Users/keelyn/Library/CloudStorage/OneDrive-Personal/KB-subject-3.csv","legacy","7 2 3","Lentiform Loewenfeld","3.3.12","3","y","0","left","right","right","left","NA","770","40385","6276","770","NA","2","legacy","3","1024","2","48000","-16","experiment","3","odd","3","667283","663988","665050","853","121265","665055","592792","864","114988","669299","670070","666068","41263","669299","NA","Sternberg task","100","65532","105","yes","1024"
"95.28301886792453","95.28301886792453","623.6792452830189","623.6792452830189","black","experiment","legacy","legacy","legacy","0","uniform","1","undefined","1","right","105","105","105","0","0","105","105","0","0","105","105","105","0","105","0","Thu Oct 20 09:44:14 2022","The main experiment item","yes","Sternbergtask.osexp","/Users/keelyn/Library/CloudStorage/OneDrive-Personal","no","mono","no","18","no","white","no","yes","768","legacy","93","11","/Users/keelyn/Library/CloudStorage/OneDrive-Personal/KB-subject-3.csv","legacy","8 2 1 4 5 9","Lentiform Loewenfeld","3.3.12","0","n","0","right","right","right","right","NA","578","40385","6276","578","NA","2","legacy","6","1024","2","48000","-16","experiment","3","odd","7","673373","670075","671133","853","121265","671138","592792","864","114988","675383","675962","672158","41263","675382","NA","Sternberg task","101","66110","106","yes","1024"
"95.32710280373831","95.32710280373831","622.9065420560747","622.9065420560747","black","experiment","legacy","legacy","legacy","0","uniform","1","undefined","1","right","106","106","106","0","0","106","106","0","0","106","106","106","0","106","0","Thu Oct 20 09:44:14 2022","The main experiment item","yes","Sternbergtask.osexp","/Users/keelyn/Library/CloudStorage/OneDrive-Personal","no","mono","no","18","no","white","no","yes","768","legacy","94","11","/Users/keelyn/Library/CloudStorage/OneDrive-Personal/KB-subject-3.csv","legacy","2 5 1 4","Lentiform Loewenfeld","3.3.12","0","n","0","right","right","right","right","NA","541","40385","6276","541","NA","2","legacy","4","1024","2","48000","-16","experiment","3","odd","6","679262","675967","677028","853","121265","677034","592792","864","114988","681274","681816","678047","41263","681274","NA","Sternberg task","102","66651","107","yes","1024"
"95.37037037037037","95.37037037037037","622.4166666666666","622.4166666666666","black","experiment","legacy","legacy","legacy","0","uniform","1","undefined","1","left","107","107","107","0","0","107","107","0","0","107","107","107","0","107","0","Thu Oct 20 09:44:14 2022","The main experiment item","yes","Sternbergtask.osexp","/Users/keelyn/Library/CloudStorage/OneDrive-Personal","no","mono","no","18","no","white","no","yes","768","legacy","95","11","/Users/keelyn/Library/CloudStorage/OneDrive-Personal/KB-subject-3.csv","legacy","7 4 2 6 3 5","Lentiform Loewenfeld","3.3.12","6","y","0","left","right","right","left","NA","570","40385","6276","570","NA","2","legacy","6","1024","2","48000","-16","experiment","3","odd","5","685119","681821","682883","853","121265","682889","592792","864","114988","687131","687701","683903","41263","687131","NA","Sternberg task","103","67221","108","yes","1024"
"95.41284403669725","95.41284403669725","622","622","black","experiment","legacy","legacy","legacy","0","uniform","1","undefined","1","right","108","108","108","0","0","108","108","0","0","108","108","108","0","108","0","Thu Oct 20 09:44:14 2022","The main experiment item","yes","Sternbergtask.osexp","/Users/keelyn/Library/CloudStorage/OneDrive-Personal","no","mono","no","18","no","white","no","yes","768","legacy","96","11","/Users/keelyn/Library/CloudStorage/OneDrive-Personal/KB-subject-3.csv","legacy","8 4 3 5","Lentiform Loewenfeld","3.3.12","0","n","0","right","right","right","right","NA","577","40385","6276","577","NA","2","legacy","4","1024","2","48000","-16","experiment","3","odd","6","691007","687706","688767","853","121265","688773","592792","864","114988","693019","693596","689785","41263","693019","NA","Sternberg task","104","67798","109","yes","1024"
"95.45454545454545","95.45454545454545","622.5181818181818","622.5181818181818","black","experiment","legacy","legacy","legacy","0","uniform","1","undefined","1","right","109","109","109","0","0","109","109","0","0","109","109","109","0","109","0","Thu Oct 20 09:44:14 2022","The main experiment item","yes","Sternbergtask.osexp","/Users/keelyn/Library/CloudStorage/OneDrive-Personal","no","mono","no","18","no","white","no","yes","768","legacy","97","11","/Users/keelyn/Library/CloudStorage/OneDrive-Personal/KB-subject-3.csv","legacy","2 7 5","Lentiform Loewenfeld","3.3.12","0","n","0","right","right","right","right","NA","679","40385","6276","679","NA","2","legacy","3","1024","2","48000","-16","experiment","3","odd","8","696904","693601","694663","853","121265","694668","592792","864","114988","698916","699596","695689","41263","698916","NA","Sternberg task","105","68477","110","yes","1024"
"95.49549549549549","95.49549549549549","622.8648648648649","622.8648648648649","black","experiment","legacy","legacy","legacy","0","uniform","1","undefined","1","left","110","110","110","0","0","110","110","0","0","110","110","110","0","110","0","Thu Oct 20 09:44:14 2022","The main experiment item","yes","Sternbergtask.osexp","/Users/keelyn/Library/CloudStorage/OneDrive-Personal","no","mono","no","18","no","white","no","yes","768","legacy","98","11","/Users/keelyn/Library/CloudStorage/OneDrive-Personal/KB-subject-3.csv","legacy","5 2 6","Lentiform Loewenfeld","3.3.12","2","y","0","left","right","right","left","NA","661","40385","6276","661","NA","2","legacy","3","1024","2","48000","-16","experiment","3","odd","2","702894","699601","700660","853","121265","700666","592792","864","114988","704905","705567","701679","41263","704905","NA","Sternberg task","106","69138","111","yes","1024"
