"acc","accuracy","average_response_time","avg_rt","background","block","canvas_backend","clock_backend","color_backend","compensation","coordinates","correct","correct_instruction1","correct_keyboard_response","correct_response","count_ISI","count_correctFeedback","count_expSequence","count_experiment","count_experimentLoop","count_fixation","count_incorrectFeedback","count_instruction1","count_instruction2","count_keyboard_response","count_logger","count_memorySet","count_practiceLoop","count_probe","count_thankYou","datetime","description","disable_garbage_collection","experiment_file","experiment_path","font_bold","font_family","font_italic","font_size","font_underline","foreground","form_clicks","fullscreen","height","keyboard_backend","live_row","live_row_practiceLoop","logfile","mouse_backend","numberSet","opensesame_codename","opensesame_version","posInSet","present","repeat_cycle","response","response_instruction1","response_instruction2","response_keyboard_response","response_thankYou","response_time","response_time_instruction1","response_time_instruction2","response_time_keyboard_response","response_time_thankYou","round_decimals","sampler_backend","setSize","sound_buf_size","sound_channels","sound_freq","sound_sample_size","start","subject_nr","subject_parity","target","time_ISI","time_correctFeedback","time_expSequence","time_experiment","time_experimentLoop","time_fixation","time_incorrectFeedback","time_instruction1","time_instruction2","time_keyboard_response","time_logger","time_memorySet","time_practiceLoop","time_probe","time_thankYou","title","total_correct","total_response_time","total_responses","uniform_coordinates","width"
"0","0","2000","2000","black","practice","legacy","legacy","legacy","0","uniform","0","undefined","0","left","0","0","0","0","0","0","0","0","0","0","0","0","0","0","0","Sat Oct 24 14:27:07 2020","The main experiment item","yes","Sterbergtask.osexp","C:\Users\Colton\OneDrive\Desktop","no","mono","no","18","no","white","no","yes","768","legacy","0","0","C:/Users/Colton/OneDrive/Desktop/CS-subject-4-LAB 3.1.csv","legacy","1 7 9 8 5","Lentiform Loewenfeld","3.3.3","4","y","0","None","right","NA","None","NA","2000","76239","NA","2000","NA","2","legacy","5","1024","2","48000","-16","experiment","4","even","8","86721","NA","84505","5640","NA","84510","NA","5651","NA","88727","90727","85515","81894","88727","NA","Sterberg task","0","2000","1","yes","1024"
"0","0","2000.5","2000.5","black","practice","legacy","legacy","legacy","0","uniform","0","undefined","0","left","1","1","1","0","0","1","1","0","0","1","1","1","0","1","0","Sat Oct 24 14:27:07 2020","The main experiment item","yes","Sterbergtask.osexp","C:\Users\Colton\OneDrive\Desktop","no","mono","no","18","no","white","no","yes","768","legacy","1","1","C:/Users/Colton/OneDrive/Desktop/CS-subject-4-LAB 3.1.csv","legacy","2 9 4","Lentiform Loewenfeld","3.3.3","3","y","0","None","right","NA","None","NA","2001","76239","NA","2001","NA","2","legacy","3","1024","2","48000","-16","experiment","4","even","4","94541","NA","92327","5640","NA","92331","91080","5651","NA","96545","98546","93337","81894","96545","NA","Sterberg task","0","4001","2","yes","1024"
"33.333333333333336","33.333333333333336","1668","1668","black","practice","legacy","legacy","legacy","0","uniform","1","undefined","1","right","2","2","2","0","0","2","2","0","0","2","2","2","0","2","0","Sat Oct 24 14:27:07 2020","The main experiment item","yes","Sterbergtask.osexp","C:\Users\Colton\OneDrive\Desktop","no","mono","no","18","no","white","no","yes","768","legacy","2","2","C:/Users/Colton/OneDrive/Desktop/CS-subject-4-LAB 3.1.csv","legacy","2 1","Lentiform Loewenfeld","3.3.3","0","n","0","right","right","NA","right","NA","1003","76239","NA","1003","NA","2","legacy","2","1024","2","48000","-16","experiment","4","even","5","102056","NA","99839","5640","NA","99844","98609","5651","NA","104062","105066","100850","81894","104061","NA","Sterberg task","1","5004","3","yes","1024"
"50","50","1497.5","1497.5","black","practice","legacy","legacy","legacy","0","uniform","1","undefined","1","left","3","3","3","0","0","3","3","0","0","3","3","3","0","3","0","Sat Oct 24 14:27:07 2020","The main experiment item","yes","Sterbergtask.osexp","C:\Users\Colton\OneDrive\Desktop","no","mono","no","18","no","white","no","yes","768","legacy","3","3","C:/Users/Colton/OneDrive/Desktop/CS-subject-4-LAB 3.1.csv","legacy","4 8","Lentiform Loewenfeld","3.3.3","1","y","0","left","right","NA","left","NA","986","76239","NA","986","NA","2","legacy","2","1024","2","48000","-16","experiment","4","even","4","108578","105118","106354","5640","NA","106359","98609","5651","NA","110582","111570","107364","81894","110582","NA","Sterberg task","2","5990","4","yes","1024"
"60","60","1395.8","1395.8","black","practice","legacy","legacy","legacy","0","uniform","1","undefined","1","left","4","4","4","0","0","4","4","0","0","4","4","4","0","4","0","Sat Oct 24 14:27:07 2020","The main experiment item","yes","Sterbergtask.osexp","C:\Users\Colton\OneDrive\Desktop","no","mono","no","18","no","white","no","yes","768","legacy","4","4","C:/Users/Colton/OneDrive/Desktop/CS-subject-4-LAB 3.1.csv","legacy","1 5 2 9","Lentiform Loewenfeld","3.3.3","2","y","0","left","right","NA","left","NA","989","76239","NA","989","NA","2","legacy","4","1024","2","48000","-16","experiment","4","even","5","115057","111596","112841","5640","NA","112846","98609","5651","NA","117063","118054","113852","81894","117062","NA","Sterberg task","3","6979","5","yes","1024"
"66.66666666666667","66.66666666666667","1361.6666666666667","1361.6666666666667","black","practice","legacy","legacy","legacy","0","uniform","1","undefined","1","right","5","5","5","0","0","5","5","0","0","5","5","5","0","5","0","Sat Oct 24 14:27:07 2020","The main experiment item","yes","Sterbergtask.osexp","C:\Users\Colton\OneDrive\Desktop","no","mono","no","18","no","white","no","yes","768","legacy","5","5","C:/Users/Colton/OneDrive/Desktop/CS-subject-4-LAB 3.1.csv","legacy","4 1 5","Lentiform Loewenfeld","3.3.3","0","n","0","right","right","NA","right","NA","1191","76239","NA","1191","NA","2","legacy","3","1024","2","48000","-16","experiment","4","even","2","121558","118107","119343","5640","NA","119348","98609","5651","NA","123562","124755","120353","81894","123562","NA","Sterberg task","4","8170","6","yes","1024"
"57.142857142857146","57.142857142857146","1452.857142857143","1452.857142857143","black","practice","legacy","legacy","legacy","0","uniform","0","undefined","0","right","6","6","6","0","0","6","6","0","0","6","6","6","0","6","0","Sat Oct 24 14:27:07 2020","The main experiment item","yes","Sterbergtask.osexp","C:\Users\Colton\OneDrive\Desktop","no","mono","no","18","no","white","no","yes","768","legacy","6","6","C:/Users/Colton/OneDrive/Desktop/CS-subject-4-LAB 3.1.csv","legacy","5","Lentiform Loewenfeld","3.3.3","0","n","0","None","right","NA","None","NA","2000","76239","NA","2000","NA","2","legacy","1","1024","2","48000","-16","experiment","4","even","3","128262","124808","126044","5640","NA","126049","98609","5651","NA","130270","132270","127055","81894","130269","NA","Sterberg task","4","10170","7","yes","1024"
"62.5","62.5","1385.5","1385.5","black","practice","legacy","legacy","legacy","0","uniform","1","undefined","1","left","7","7","7","0","0","7","7","0","0","7","7","7","0","7","0","Sat Oct 24 14:27:07 2020","The main experiment item","yes","Sterbergtask.osexp","C:\Users\Colton\OneDrive\Desktop","no","mono","no","18","no","white","no","yes","768","legacy","7","7","C:/Users/Colton/OneDrive/Desktop/CS-subject-4-LAB 3.1.csv","legacy","4 3 1 7 9 8","Lentiform Loewenfeld","3.3.3","1","y","0","left","right","NA","left","NA","914","76239","NA","914","NA","2","legacy","6","1024","2","48000","-16","experiment","4","even","4","135768","124808","133551","5640","NA","133556","132308","5651","NA","137773","138688","134562","81894","137773","NA","Sterberg task","5","11084","8","yes","1024"
"66.66666666666667","66.66666666666667","1322.3333333333333","1322.3333333333333","black","practice","legacy","legacy","legacy","0","uniform","1","undefined","1","right","8","8","8","0","0","8","8","0","0","8","8","8","0","8","0","Sat Oct 24 14:27:07 2020","The main experiment item","yes","Sterbergtask.osexp","C:\Users\Colton\OneDrive\Desktop","no","mono","no","18","no","white","no","yes","768","legacy","8","8","C:/Users/Colton/OneDrive/Desktop/CS-subject-4-LAB 3.1.csv","legacy","9 6 7 4 5","Lentiform Loewenfeld","3.3.3","0","n","0","right","right","NA","right","NA","817","76239","NA","817","NA","2","legacy","5","1024","2","48000","-16","experiment","4","even","3","142202","138743","139984","5640","NA","139989","132308","5651","NA","144207","145025","140997","81894","144206","NA","Sterberg task","6","11901","9","yes","1024"
"70","70","1286.9","1286.9","black","practice","legacy","legacy","legacy","0","uniform","1","undefined","1","left","9","9","9","0","0","9","9","0","0","9","9","9","0","9","0","Sat Oct 24 14:27:07 2020","The main experiment item","yes","Sterbergtask.osexp","C:\Users\Colton\OneDrive\Desktop","no","mono","no","18","no","white","no","yes","768","legacy","9","9","C:/Users/Colton/OneDrive/Desktop/CS-subject-4-LAB 3.1.csv","legacy","6","Lentiform Loewenfeld","3.3.3","1","y","0","left","right","NA","left","NA","968","76239","NA","968","NA","2","legacy","1","1024","2","48000","-16","experiment","4","even","6","148570","145086","146343","5640","NA","146348","132308","5651","NA","150576","151546","147359","81894","150576","NA","Sterberg task","7","12869","10","yes","1024"
"72.72727272727273","72.72727272727273","1253.2727272727273","1253.2727272727273","black","practice","legacy","legacy","legacy","0","uniform","1","undefined","1","right","10","10","10","0","0","10","10","0","0","10","10","10","0","10","0","Sat Oct 24 14:27:07 2020","The main experiment item","yes","Sterbergtask.osexp","C:\Users\Colton\OneDrive\Desktop","no","mono","no","18","no","white","no","yes","768","legacy","10","10","C:/Users/Colton/OneDrive/Desktop/CS-subject-4-LAB 3.1.csv","legacy","3 1 9 4","Lentiform Loewenfeld","3.3.3","0","n","0","right","right","NA","right","NA","917","76239","NA","917","NA","2","legacy","4","1024","2","48000","-16","experiment","4","even","6","155027","151574","152812","5640","NA","152816","132308","5651","NA","157033","157952","153822","81894","157032","NA","Sterberg task","8","13786","11","yes","1024"
"75","75","1252.4166666666667","1252.4166666666667","black","practice","legacy","legacy","legacy","0","uniform","1","undefined","1","right","11","11","11","0","0","11","11","0","0","11","11","11","0","11","0","Sat Oct 24 14:27:07 2020","The main experiment item","yes","Sterbergtask.osexp","C:\Users\Colton\OneDrive\Desktop","no","mono","no","18","no","white","no","yes","768","legacy","11","11","C:/Users/Colton/OneDrive/Desktop/CS-subject-4-LAB 3.1.csv","legacy","5 7 8 4 1 2","Lentiform Loewenfeld","3.3.3","0","n","0","right","right","NA","right","NA","1243","76239","NA","1243","NA","2","legacy","6","1024","2","48000","-16","experiment","4","even","6","161446","157975","159218","5640","NA","159223","132308","5651","NA","163451","164695","160234","81894","163451","NA","Sterberg task","9","15029","12","yes","1024"
"76.92307692307692","76.92307692307692","1235.3846153846155","1235.3846153846155","black","experiment","legacy","legacy","legacy","0","uniform","1","undefined","1","left","12","12","12","0","0","12","12","0","0","12","12","12","0","12","0","Sat Oct 24 14:27:07 2020","The main experiment item","yes","Sterbergtask.osexp","C:\Users\Colton\OneDrive\Desktop","no","mono","no","18","no","white","no","yes","768","legacy","0","11","C:/Users/Colton/OneDrive/Desktop/CS-subject-4-LAB 3.1.csv","legacy","6 7 9 3 1 2","Lentiform Loewenfeld","3.3.3","1","y","0","left","right","right","left","NA","1031","76239","7131","1031","NA","2","legacy","6","1024","2","48000","-16","experiment","4","even","6","175463","164752","173249","5640","172974","173253","132308","5651","165840","177467","178500","174258","81894","177467","NA","Sterberg task","10","16060","13","yes","1024"
"78.57142857142857","78.57142857142857","1212.0714285714287","1212.0714285714287","black","experiment","legacy","legacy","legacy","0","uniform","1","undefined","1","right","13","13","13","0","0","13","13","0","0","13","13","13","0","13","0","Sat Oct 24 14:27:07 2020","The main experiment item","yes","Sterbergtask.osexp","C:\Users\Colton\OneDrive\Desktop","no","mono","no","18","no","white","no","yes","768","legacy","1","11","C:/Users/Colton/OneDrive/Desktop/CS-subject-4-LAB 3.1.csv","legacy","2 5 1 4","Lentiform Loewenfeld","3.3.3","0","n","0","right","right","right","right","NA","909","76239","7131","909","NA","2","legacy","4","1024","2","48000","-16","experiment","4","even","6","182007","178552","179793","5640","172974","179798","132308","5651","165840","184011","184922","180802","81894","184011","NA","Sterberg task","11","16969","14","yes","1024"
"80","80","1193.2","1193.2","black","experiment","legacy","legacy","legacy","0","uniform","1","undefined","1","left","14","14","14","0","0","14","14","0","0","14","14","14","0","14","0","Sat Oct 24 14:27:07 2020","The main experiment item","yes","Sterbergtask.osexp","C:\Users\Colton\OneDrive\Desktop","no","mono","no","18","no","white","no","yes","768","legacy","2","11","C:/Users/Colton/OneDrive/Desktop/CS-subject-4-LAB 3.1.csv","legacy","7 1 8 5 6 2","Lentiform Loewenfeld","3.3.3","2","y","0","left","right","right","left","NA","929","76239","7131","929","NA","2","legacy","6","1024","2","48000","-16","experiment","4","even","1","188457","185013","186243","5640","172974","186247","132308","5651","165840","190463","191394","187252","81894","190463","NA","Sterberg task","12","17898","15","yes","1024"
"81.25","81.25","1175.9375","1175.9375","black","experiment","legacy","legacy","legacy","0","uniform","1","undefined","1","left","15","15","15","0","0","15","15","0","0","15","15","15","0","15","0","Sat Oct 24 14:27:07 2020","The main experiment item","yes","Sterbergtask.osexp","C:\Users\Colton\OneDrive\Desktop","no","mono","no","18","no","white","no","yes","768","legacy","3","11","C:/Users/Colton/OneDrive/Desktop/CS-subject-4-LAB 3.1.csv","legacy","4","Lentiform Loewenfeld","3.3.3","1","y","0","left","right","right","left","NA","917","76239","7131","917","NA","2","legacy","1","1024","2","48000","-16","experiment","4","even","4","194891","191431","192675","5640","172974","192680","132308","5651","165840","196896","197815","193685","81894","196896","NA","Sterberg task","13","18815","16","yes","1024"
"82.3529411764706","82.3529411764706","1157.7058823529412","1157.7058823529412","black","experiment","legacy","legacy","legacy","0","uniform","1","undefined","1","left","16","16","16","0","0","16","16","0","0","16","16","16","0","16","0","Sat Oct 24 14:27:07 2020","The main experiment item","yes","Sterbergtask.osexp","C:\Users\Colton\OneDrive\Desktop","no","mono","no","18","no","white","no","yes","768","legacy","4","11","C:/Users/Colton/OneDrive/Desktop/CS-subject-4-LAB 3.1.csv","legacy","2 4 6 9","Lentiform Loewenfeld","3.3.3","3","y","0","left","right","right","left","NA","866","76239","7131","866","NA","2","legacy","4","1024","2","48000","-16","experiment","4","even","6","201334","197876","199119","5640","172974","199124","132308","5651","165840","203340","204209","200129","81894","203340","NA","Sterberg task","14","19681","17","yes","1024"
"83.33333333333333","83.33333333333333","1134.388888888889","1134.388888888889","black","experiment","legacy","legacy","legacy","0","uniform","1","undefined","1","left","17","17","17","0","0","17","17","0","0","17","17","17","0","17","0","Sat Oct 24 14:27:07 2020","The main experiment item","yes","Sterbergtask.osexp","C:\Users\Colton\OneDrive\Desktop","no","mono","no","18","no","white","no","yes","768","legacy","5","11","C:/Users/Colton/OneDrive/Desktop/CS-subject-4-LAB 3.1.csv","legacy","7 1 3","Lentiform Loewenfeld","3.3.3","2","y","0","left","right","right","left","NA","738","76239","7131","738","NA","2","legacy","3","1024","2","48000","-16","experiment","4","even","1","207721","204269","205500","5640","172974","205505","132308","5651","165840","209727","210467","206510","81894","209726","NA","Sterberg task","15","20419","18","yes","1024"
"84.21052631578948","84.21052631578948","1137.157894736842","1137.157894736842","black","experiment","legacy","legacy","legacy","0","uniform","1","undefined","1","right","18","18","18","0","0","18","18","0","0","18","18","18","0","18","0","Sat Oct 24 14:27:07 2020","The main experiment item","yes","Sterbergtask.osexp","C:\Users\Colton\OneDrive\Desktop","no","mono","no","18","no","white","no","yes","768","legacy","6","11","C:/Users/Colton/OneDrive/Desktop/CS-subject-4-LAB 3.1.csv","legacy","1 3 2 6 9","Lentiform Loewenfeld","3.3.3","0","n","0","right","right","right","right","NA","1187","76239","7131","1187","NA","2","legacy","5","1024","2","48000","-16","experiment","4","even","5","213969","210520","211754","5640","172974","211759","132308","5651","165840","215978","217167","212763","81894","215978","NA","Sterberg task","16","21606","19","yes","1024"
"85","85","1128.95","1128.95","black","experiment","legacy","legacy","legacy","0","uniform","1","undefined","1","left","19","19","19","0","0","19","19","0","0","19","19","19","0","19","0","Sat Oct 24 14:27:07 2020","The main experiment item","yes","Sterbergtask.osexp","C:\Users\Colton\OneDrive\Desktop","no","mono","no","18","no","white","no","yes","768","legacy","7","11","C:/Users/Colton/OneDrive/Desktop/CS-subject-4-LAB 3.1.csv","legacy","3 2 1 4 7","Lentiform Loewenfeld","3.3.3","2","y","0","left","right","right","left","NA","973","76239","7131","973","NA","2","legacy","5","1024","2","48000","-16","experiment","4","even","2","220653","217199","218438","5640","172974","218443","132308","5651","165840","222658","223633","219448","81894","222658","NA","Sterberg task","17","22579","20","yes","1024"
"85.71428571428571","85.71428571428571","1117.952380952381","1117.952380952381","black","experiment","legacy","legacy","legacy","0","uniform","1","undefined","1","right","20","20","20","0","0","20","20","0","0","20","20","20","0","20","0","Sat Oct 24 14:27:07 2020","The main experiment item","yes","Sterbergtask.osexp","C:\Users\Colton\OneDrive\Desktop","no","mono","no","18","no","white","no","yes","768","legacy","8","11","C:/Users/Colton/OneDrive/Desktop/CS-subject-4-LAB 3.1.csv","legacy","1","Lentiform Loewenfeld","3.3.3","0","n","0","right","right","right","right","NA","898","76239","7131","898","NA","2","legacy","1","1024","2","48000","-16","experiment","4","even","7","227172","223715","224946","5640","172974","224951","132308","5651","165840","229178","230078","225957","81894","229177","NA","Sterberg task","18","23477","21","yes","1024"
"81.81818181818181","81.81818181818181","1109.2272727272727","1109.2272727272727","black","experiment","legacy","legacy","legacy","0","uniform","0","undefined","0","left","21","21","21","0","0","21","21","0","0","21","21","21","0","21","0","Sat Oct 24 14:27:07 2020","The main experiment item","yes","Sterbergtask.osexp","C:\Users\Colton\OneDrive\Desktop","no","mono","no","18","no","white","no","yes","768","legacy","9","11","C:/Users/Colton/OneDrive/Desktop/CS-subject-4-LAB 3.1.csv","legacy","9 4 2","Lentiform Loewenfeld","3.3.3","1","y","0","right","right","right","right","NA","926","76239","7131","926","NA","2","legacy","3","1024","2","48000","-16","experiment","4","even","9","233592","230133","231369","5640","172974","231374","132308","5651","165840","235598","236526","232379","81894","235598","NA","Sterberg task","18","24403","22","yes","1024"
"82.6086956521739","82.6086956521739","1100.7391304347825","1100.7391304347825","black","experiment","legacy","legacy","legacy","0","uniform","1","undefined","1","left","22","22","22","0","0","22","22","0","0","22","22","22","0","22","0","Sat Oct 24 14:27:07 2020","The main experiment item","yes","Sterbergtask.osexp","C:\Users\Colton\OneDrive\Desktop","no","mono","no","18","no","white","no","yes","768","legacy","10","11","C:/Users/Colton/OneDrive/Desktop/CS-subject-4-LAB 3.1.csv","legacy","9 3 8 2 1 4","Lentiform Loewenfeld","3.3.3","3","y","0","left","right","right","left","NA","914","76239","7131","914","NA","2","legacy","6","1024","2","48000","-16","experiment","4","even","8","240053","230133","237833","5640","172974","237838","236600","5651","165840","242059","242976","238843","81894","242058","NA","Sterberg task","19","25317","23","yes","1024"
"83.33333333333333","83.33333333333333","1086","1086","black","experiment","legacy","legacy","legacy","0","uniform","1","undefined","1","left","23","23","23","0","0","23","23","0","0","23","23","23","0","23","0","Sat Oct 24 14:27:07 2020","The main experiment item","yes","Sterbergtask.osexp","C:\Users\Colton\OneDrive\Desktop","no","mono","no","18","no","white","no","yes","768","legacy","11","11","C:/Users/Colton/OneDrive/Desktop/CS-subject-4-LAB 3.1.csv","legacy","5 7 3 6 2","Lentiform Loewenfeld","3.3.3","5","y","0","left","right","right","left","NA","747","76239","7131","747","NA","2","legacy","5","1024","2","48000","-16","experiment","4","even","2","246485","243035","244271","5640","172974","244275","236600","5651","165840","248490","249240","245280","81894","248490","NA","Sterberg task","20","26064","24","yes","1024"
"84","84","1086.16","1086.16","black","experiment","legacy","legacy","legacy","0","uniform","1","undefined","1","right","24","24","24","0","0","24","24","0","0","24","24","24","0","24","0","Sat Oct 24 14:27:07 2020","The main experiment item","yes","Sterbergtask.osexp","C:\Users\Colton\OneDrive\Desktop","no","mono","no","18","no","white","no","yes","768","legacy","12","11","C:/Users/Colton/OneDrive/Desktop/CS-subject-4-LAB 3.1.csv","legacy","6 3 1 7 9 8","Lentiform Loewenfeld","3.3.3","0","n","0","right","right","right","right","NA","1090","76239","7131","1090","NA","2","legacy","6","1024","2","48000","-16","experiment","4","even","4","252718","249266","250503","5640","172974","250508","236600","5651","165840","254724","255817","251513","81894","254724","NA","Sterberg task","21","27154","25","yes","1024"
"84.61538461538461","84.61538461538461","1073.9615384615386","1073.9615384615386","black","experiment","legacy","legacy","legacy","0","uniform","1","undefined","1","left","25","25","25","0","0","25","25","0","0","25","25","25","0","25","0","Sat Oct 24 14:27:07 2020","The main experiment item","yes","Sterbergtask.osexp","C:\Users\Colton\OneDrive\Desktop","no","mono","no","18","no","white","no","yes","768","legacy","13","11","C:/Users/Colton/OneDrive/Desktop/CS-subject-4-LAB 3.1.csv","legacy","9 1 7 2","Lentiform Loewenfeld","3.3.3","2","y","0","left","right","right","left","NA","769","76239","7131","769","NA","2","legacy","4","1024","2","48000","-16","experiment","4","even","1","259341","255883","257123","5640","172974","257129","236600","5651","165840","261347","262118","258136","81894","261346","NA","Sterberg task","22","27923","26","yes","1024"
"85.18518518518519","85.18518518518519","1063.3333333333333","1063.3333333333333","black","experiment","legacy","legacy","legacy","0","uniform","1","undefined","1","right","26","26","26","0","0","26","26","0","0","26","26","26","0","26","0","Sat Oct 24 14:27:07 2020","The main experiment item","yes","Sterbergtask.osexp","C:\Users\Colton\OneDrive\Desktop","no","mono","no","18","no","white","no","yes","768","legacy","14","11","C:/Users/Colton/OneDrive/Desktop/CS-subject-4-LAB 3.1.csv","legacy","3 4 2","Lentiform Loewenfeld","3.3.3","0","n","0","right","right","right","right","NA","787","76239","7131","787","NA","2","legacy","3","1024","2","48000","-16","experiment","4","even","5","265609","262155","263393","5640","172974","263398","236600","5651","165840","267614","268403","264403","81894","267614","NA","Sterberg task","23","28710","27","yes","1024"
"85.71428571428571","85.71428571428571","1060.2142857142858","1060.2142857142858","black","experiment","legacy","legacy","legacy","0","uniform","1","undefined","1","right","27","27","27","0","0","27","27","0","0","27","27","27","0","27","0","Sat Oct 24 14:27:07 2020","The main experiment item","yes","Sterbergtask.osexp","C:\Users\Colton\OneDrive\Desktop","no","mono","no","18","no","white","no","yes","768","legacy","15","11","C:/Users/Colton/OneDrive/Desktop/CS-subject-4-LAB 3.1.csv","legacy","8 6 3 4 7","Lentiform Loewenfeld","3.3.3","0","n","0","right","right","right","right","NA","976","76239","7131","976","NA","2","legacy","5","1024","2","48000","-16","experiment","4","even","1","271910","268456","269695","5640","172974","269700","236600","5651","165840","273917","274895","270705","81894","273916","NA","Sterberg task","24","29686","28","yes","1024"
"86.20689655172414","86.20689655172414","1051.655172413793","1051.655172413793","black","experiment","legacy","legacy","legacy","0","uniform","1","undefined","1","right","28","28","28","0","0","28","28","0","0","28","28","28","0","28","0","Sat Oct 24 14:27:07 2020","The main experiment item","yes","Sterbergtask.osexp","C:\Users\Colton\OneDrive\Desktop","no","mono","no","18","no","white","no","yes","768","legacy","16","11","C:/Users/Colton/OneDrive/Desktop/CS-subject-4-LAB 3.1.csv","legacy","5 7 3","Lentiform Loewenfeld","3.3.3","0","n","0","right","right","right","right","NA","812","76239","7131","812","NA","2","legacy","3","1024","2","48000","-16","experiment","4","even","9","278404","274956","276187","5640","172974","276192","236600","5651","165840","280410","281225","277198","81894","280409","NA","Sterberg task","25","30498","29","yes","1024"
"86.66666666666667","86.66666666666667","1042.8333333333333","1042.8333333333333","black","experiment","legacy","legacy","legacy","0","uniform","1","undefined","1","left","29","29","29","0","0","29","29","0","0","29","29","29","0","29","0","Sat Oct 24 14:27:07 2020","The main experiment item","yes","Sterbergtask.osexp","C:\Users\Colton\OneDrive\Desktop","no","mono","no","18","no","white","no","yes","768","legacy","17","11","C:/Users/Colton/OneDrive/Desktop/CS-subject-4-LAB 3.1.csv","legacy","7 6","Lentiform Loewenfeld","3.3.3","2","y","0","left","right","right","left","NA","787","76239","7131","787","NA","2","legacy","2","1024","2","48000","-16","experiment","4","even","6","284749","281301","282533","5640","172974","282538","236600","5651","165840","286755","287544","283543","81894","286754","NA","Sterberg task","26","31285","30","yes","1024"
"87.09677419354838","87.09677419354838","1034.0645161290322","1034.0645161290322","black","experiment","legacy","legacy","legacy","0","uniform","1","undefined","1","left","30","30","30","0","0","30","30","0","0","30","30","30","0","30","0","Sat Oct 24 14:27:07 2020","The main experiment item","yes","Sterbergtask.osexp","C:\Users\Colton\OneDrive\Desktop","no","mono","no","18","no","white","no","yes","768","legacy","18","11","C:/Users/Colton/OneDrive/Desktop/CS-subject-4-LAB 3.1.csv","legacy","2 8 5 1","Lentiform Loewenfeld","3.3.3","4","y","0","left","right","right","left","NA","771","76239","7131","771","NA","2","legacy","4","1024","2","48000","-16","experiment","4","even","1","291022","287569","288808","5640","172974","288813","236600","5651","165840","293028","293801","289817","81894","293028","NA","Sterberg task","27","32056","31","yes","1024"
"87.5","87.5","1027.125","1027.125","black","experiment","legacy","legacy","legacy","0","uniform","1","undefined","1","right","31","31","31","0","0","31","31","0","0","31","31","31","0","31","0","Sat Oct 24 14:27:07 2020","The main experiment item","yes","Sterbergtask.osexp","C:\Users\Colton\OneDrive\Desktop","no","mono","no","18","no","white","no","yes","768","legacy","19","11","C:/Users/Colton/OneDrive/Desktop/CS-subject-4-LAB 3.1.csv","legacy","8 4 3 9","Lentiform Loewenfeld","3.3.3","0","n","0","right","right","right","right","NA","812","76239","7131","812","NA","2","legacy","4","1024","2","48000","-16","experiment","4","even","5","297306","293856","295091","5640","172974","295096","236600","5651","165840","299311","300125","296101","81894","299311","NA","Sterberg task","28","32868","32","yes","1024"
"87.87878787878788","87.87878787878788","1022.2121212121212","1022.2121212121212","black","experiment","legacy","legacy","legacy","0","uniform","1","undefined","1","left","32","32","32","0","0","32","32","0","0","32","32","32","0","32","0","Sat Oct 24 14:27:07 2020","The main experiment item","yes","Sterbergtask.osexp","C:\Users\Colton\OneDrive\Desktop","no","mono","no","18","no","white","no","yes","768","legacy","20","11","C:/Users/Colton/OneDrive/Desktop/CS-subject-4-LAB 3.1.csv","legacy","6 7 8 5","Lentiform Loewenfeld","3.3.3","3","y","0","left","right","right","left","NA","865","76239","7131","865","NA","2","legacy","4","1024","2","48000","-16","experiment","4","even","8","303628","300179","301412","5640","172974","301417","236600","5651","165840","305633","306500","302422","81894","305633","NA","Sterberg task","29","33733","33","yes","1024"
"88.23529411764706","88.23529411764706","1020.4117647058823","1020.4117647058823","black","experiment","legacy","legacy","legacy","0","uniform","1","undefined","1","right","33","33","33","0","0","33","33","0","0","33","33","33","0","33","0","Sat Oct 24 14:27:07 2020","The main experiment item","yes","Sterbergtask.osexp","C:\Users\Colton\OneDrive\Desktop","no","mono","no","18","no","white","no","yes","768","legacy","21","11","C:/Users/Colton/OneDrive/Desktop/CS-subject-4-LAB 3.1.csv","legacy","2 8 7 9 5 3","Lentiform Loewenfeld","3.3.3","0","n","0","right","right","right","right","NA","961","76239","7131","961","NA","2","legacy","6","1024","2","48000","-16","experiment","4","even","6","309988","306535","307770","5640","172974","307775","236600","5651","165840","311994","312958","308781","81894","311993","NA","Sterberg task","30","34694","34","yes","1024"
"85.71428571428571","85.71428571428571","1014.5714285714286","1014.5714285714286","black","experiment","legacy","legacy","legacy","0","uniform","0","undefined","0","right","34","34","34","0","0","34","34","0","0","34","34","34","0","34","0","Sat Oct 24 14:27:07 2020","The main experiment item","yes","Sterbergtask.osexp","C:\Users\Colton\OneDrive\Desktop","no","mono","no","18","no","white","no","yes","768","legacy","22","11","C:/Users/Colton/OneDrive/Desktop/CS-subject-4-LAB 3.1.csv","legacy","9","Lentiform Loewenfeld","3.3.3","0","n","0","left","right","right","left","NA","816","76239","7131","816","NA","2","legacy","1","1024","2","48000","-16","experiment","4","even","6","316442","312991","314227","5640","172974","314232","236600","5651","165840","318448","319267","315237","81894","318447","NA","Sterberg task","30","35510","35","yes","1024"
"86.11111111111111","86.11111111111111","1011.9722222222222","1011.9722222222222","black","experiment","legacy","legacy","legacy","0","uniform","1","undefined","1","left","35","35","35","0","0","35","35","0","0","35","35","35","0","35","0","Sat Oct 24 14:27:07 2020","The main experiment item","yes","Sterbergtask.osexp","C:\Users\Colton\OneDrive\Desktop","no","mono","no","18","no","white","no","yes","768","legacy","23","11","C:/Users/Colton/OneDrive/Desktop/CS-subject-4-LAB 3.1.csv","legacy","3 5 7 1","Lentiform Loewenfeld","3.3.3","3","y","0","left","right","right","left","NA","921","76239","7131","921","NA","2","legacy","4","1024","2","48000","-16","experiment","4","even","7","322757","312991","320542","5640","172974","320547","319301","5651","165840","324763","325687","321552","81894","324763","NA","Sterberg task","31","36431","36","yes","1024"
"86.48648648648648","86.48648648648648","1007.4324324324324","1007.4324324324324","black","experiment","legacy","legacy","legacy","0","uniform","1","undefined","1","right","36","36","36","0","0","36","36","0","0","36","36","36","0","36","0","Sat Oct 24 14:27:07 2020","The main experiment item","yes","Sterbergtask.osexp","C:\Users\Colton\OneDrive\Desktop","no","mono","no","18","no","white","no","yes","768","legacy","24","11","C:/Users/Colton/OneDrive/Desktop/CS-subject-4-LAB 3.1.csv","legacy","5 3 8 7 2 4","Lentiform Loewenfeld","3.3.3","0","n","0","right","right","right","right","NA","844","76239","7131","844","NA","2","legacy","6","1024","2","48000","-16","experiment","4","even","9","329202","325746","326982","5640","172974","326987","319301","5651","165840","331207","332054","327996","81894","331207","NA","Sterberg task","32","37275","37","yes","1024"
"86.84210526315789","86.84210526315789","1001.7105263157895","1001.7105263157895","black","experiment","legacy","legacy","legacy","0","uniform","1","undefined","1","left","37","37","37","0","0","37","37","0","0","37","37","37","0","37","0","Sat Oct 24 14:27:07 2020","The main experiment item","yes","Sterbergtask.osexp","C:\Users\Colton\OneDrive\Desktop","no","mono","no","18","no","white","no","yes","768","legacy","25","11","C:/Users/Colton/OneDrive/Desktop/CS-subject-4-LAB 3.1.csv","legacy","6 9 3 1","Lentiform Loewenfeld","3.3.3","4","y","0","left","right","right","left","NA","790","76239","7131","790","NA","2","legacy","4","1024","2","48000","-16","experiment","4","even","1","335569","332117","333349","5640","172974","333355","319301","5651","165840","337578","338371","334364","81894","337577","NA","Sterberg task","33","38065","38","yes","1024"
"87.17948717948718","87.17948717948718","1002.6923076923077","1002.6923076923077","black","experiment","legacy","legacy","legacy","0","uniform","1","undefined","1","left","38","38","38","0","0","38","38","0","0","38","38","38","0","38","0","Sat Oct 24 14:27:07 2020","The main experiment item","yes","Sterbergtask.osexp","C:\Users\Colton\OneDrive\Desktop","no","mono","no","18","no","white","no","yes","768","legacy","26","11","C:/Users/Colton/OneDrive/Desktop/CS-subject-4-LAB 3.1.csv","legacy","5 7 8 2 3 8","Lentiform Loewenfeld","3.3.3","5","y","0","left","right","right","left","NA","1040","76239","7131","1040","NA","2","legacy","6","1024","2","48000","-16","experiment","4","even","3","341867","338402","339646","5640","172974","339651","319301","5651","165840","343876","344919","340656","81894","343876","NA","Sterberg task","34","39105","39","yes","1024"
"87.5","87.5","997.45","997.45","black","experiment","legacy","legacy","legacy","0","uniform","1","undefined","1","right","39","39","39","0","0","39","39","0","0","39","39","39","0","39","0","Sat Oct 24 14:27:07 2020","The main experiment item","yes","Sterbergtask.osexp","C:\Users\Colton\OneDrive\Desktop","no","mono","no","18","no","white","no","yes","768","legacy","27","11","C:/Users/Colton/OneDrive/Desktop/CS-subject-4-LAB 3.1.csv","legacy","5 2","Lentiform Loewenfeld","3.3.3","0","n","0","right","right","right","right","NA","793","76239","7131","793","NA","2","legacy","2","1024","2","48000","-16","experiment","4","even","7","348443","344993","346228","5640","172974","346233","319301","5651","165840","350448","351243","347238","81894","350448","NA","Sterberg task","35","39898","40","yes","1024"
"87.8048780487805","87.8048780487805","992.9756097560976","992.9756097560976","black","experiment","legacy","legacy","legacy","0","uniform","1","undefined","1","left","40","40","40","0","0","40","40","0","0","40","40","40","0","40","0","Sat Oct 24 14:27:07 2020","The main experiment item","yes","Sterbergtask.osexp","C:\Users\Colton\OneDrive\Desktop","no","mono","no","18","no","white","no","yes","768","legacy","28","11","C:/Users/Colton/OneDrive/Desktop/CS-subject-4-LAB 3.1.csv","legacy","8 9 5 6 7","Lentiform Loewenfeld","3.3.3","1","y","0","left","right","right","left","NA","814","76239","7131","814","NA","2","legacy","5","1024","2","48000","-16","experiment","4","even","8","354758","351301","352545","5640","172974","352550","319301","5651","165840","356762","357578","353554","81894","356762","NA","Sterberg task","36","40712","41","yes","1024"
"88.0952380952381","88.0952380952381","985.6666666666666","985.6666666666666","black","experiment","legacy","legacy","legacy","0","uniform","1","undefined","1","left","41","41","41","0","0","41","41","0","0","41","41","41","0","41","0","Sat Oct 24 14:27:07 2020","The main experiment item","yes","Sterbergtask.osexp","C:\Users\Colton\OneDrive\Desktop","no","mono","no","18","no","white","no","yes","768","legacy","29","11","C:/Users/Colton/OneDrive/Desktop/CS-subject-4-LAB 3.1.csv","legacy","9 6 2 4 1","Lentiform Loewenfeld","3.3.3","4","y","0","left","right","right","left","NA","686","76239","7131","686","NA","2","legacy","5","1024","2","48000","-16","experiment","4","even","4","361100","357638","358877","5640","172974","358882","319301","5651","165840","363105","363794","359896","81894","363105","NA","Sterberg task","37","41398","42","yes","1024"
"88.37209302325581","88.37209302325581","984.1395348837209","984.1395348837209","black","experiment","legacy","legacy","legacy","0","uniform","1","undefined","1","right","42","42","42","0","0","42","42","0","0","42","42","42","0","42","0","Sat Oct 24 14:27:07 2020","The main experiment item","yes","Sterbergtask.osexp","C:\Users\Colton\OneDrive\Desktop","no","mono","no","18","no","white","no","yes","768","legacy","30","11","C:/Users/Colton/OneDrive/Desktop/CS-subject-4-LAB 3.1.csv","legacy","1 7 5 2 9","Lentiform Loewenfeld","3.3.3","0","n","0","right","right","right","right","NA","920","76239","7131","920","NA","2","legacy","5","1024","2","48000","-16","experiment","4","even","3","367279","363824","365064","5640","172974","365069","319301","5651","165840","369285","370208","366074","81894","369284","NA","Sterberg task","38","42318","43","yes","1024"
"88.63636363636364","88.63636363636364","982.9090909090909","982.9090909090909","black","experiment","legacy","legacy","legacy","0","uniform","1","undefined","1","right","43","43","43","0","0","43","43","0","0","43","43","43","0","43","0","Sat Oct 24 14:27:07 2020","The main experiment item","yes","Sterbergtask.osexp","C:\Users\Colton\OneDrive\Desktop","no","mono","no","18","no","white","no","yes","768","legacy","31","11","C:/Users/Colton/OneDrive/Desktop/CS-subject-4-LAB 3.1.csv","legacy","4 2 7 6 1 3","Lentiform Loewenfeld","3.3.3","0","n","0","right","right","right","right","NA","930","76239","7131","930","NA","2","legacy","6","1024","2","48000","-16","experiment","4","even","8","373728","370269","371506","5640","172974","371511","319301","5651","165840","375734","376667","372515","81894","375733","NA","Sterberg task","39","43248","44","yes","1024"
"88.88888888888889","88.88888888888889","981.0666666666667","981.0666666666667","black","experiment","legacy","legacy","legacy","0","uniform","1","undefined","1","left","44","44","44","0","0","44","44","0","0","44","44","44","0","44","0","Sat Oct 24 14:27:07 2020","The main experiment item","yes","Sterbergtask.osexp","C:\Users\Colton\OneDrive\Desktop","no","mono","no","18","no","white","no","yes","768","legacy","32","11","C:/Users/Colton/OneDrive/Desktop/CS-subject-4-LAB 3.1.csv","legacy","3 9 7 6 4","Lentiform Loewenfeld","3.3.3","3","y","0","left","right","right","left","NA","900","76239","7131","900","NA","2","legacy","5","1024","2","48000","-16","experiment","4","even","7","380178","376728","377962","5640","172974","377967","319301","5651","165840","382187","383090","378973","81894","382187","NA","Sterberg task","40","44148","45","yes","1024"
"89.1304347826087","89.1304347826087","976.6086956521739","976.6086956521739","black","experiment","legacy","legacy","legacy","0","uniform","1","undefined","1","left","45","45","45","0","0","45","45","0","0","45","45","45","0","45","0","Sat Oct 24 14:27:07 2020","The main experiment item","yes","Sterbergtask.osexp","C:\Users\Colton\OneDrive\Desktop","no","mono","no","18","no","white","no","yes","768","legacy","33","11","C:/Users/Colton/OneDrive/Desktop/CS-subject-4-LAB 3.1.csv","legacy","2 6 1 7 4","Lentiform Loewenfeld","3.3.3","2","y","0","left","right","right","left","NA","776","76239","7131","776","NA","2","legacy","5","1024","2","48000","-16","experiment","4","even","6","386613","383149","384392","5640","172974","384396","319301","5651","165840","388620","389399","385400","81894","388620","NA","Sterberg task","41","44924","46","yes","1024"
"89.36170212765957","89.36170212765957","974.063829787234","974.063829787234","black","experiment","legacy","legacy","legacy","0","uniform","1","undefined","1","right","46","46","46","0","0","46","46","0","0","46","46","46","0","46","0","Sat Oct 24 14:27:07 2020","The main experiment item","yes","Sterbergtask.osexp","C:\Users\Colton\OneDrive\Desktop","no","mono","no","18","no","white","no","yes","768","legacy","34","11","C:/Users/Colton/OneDrive/Desktop/CS-subject-4-LAB 3.1.csv","legacy","1 6 4 3 9 7","Lentiform Loewenfeld","3.3.3","0","n","0","right","right","right","right","NA","857","76239","7131","857","NA","2","legacy","6","1024","2","48000","-16","experiment","4","even","8","392910","389459","390694","5640","172974","390699","319301","5651","165840","394916","395776","391704","81894","394915","NA","Sterberg task","42","45781","47","yes","1024"
"89.58333333333333","89.58333333333333","977.1875","977.1875","black","experiment","legacy","legacy","legacy","0","uniform","1","undefined","1","left","47","47","47","0","0","47","47","0","0","47","47","47","0","47","0","Sat Oct 24 14:27:07 2020","The main experiment item","yes","Sterbergtask.osexp","C:\Users\Colton\OneDrive\Desktop","no","mono","no","18","no","white","no","yes","768","legacy","35","11","C:/Users/Colton/OneDrive/Desktop/CS-subject-4-LAB 3.1.csv","legacy","8","Lentiform Loewenfeld","3.3.3","1","y","0","left","right","right","left","NA","1124","76239","7131","1124","NA","2","legacy","1","1024","2","48000","-16","experiment","4","even","8","399288","395836","397073","5640","172974","397077","319301","5651","165840","401295","402422","398083","81894","401295","NA","Sterberg task","43","46905","48","yes","1024"
"89.79591836734694","89.79591836734694","976.9795918367347","976.9795918367347","black","experiment","legacy","legacy","legacy","0","uniform","1","undefined","1","right","48","48","48","0","0","48","48","0","0","48","48","48","0","48","0","Sat Oct 24 14:27:07 2020","The main experiment item","yes","Sterbergtask.osexp","C:\Users\Colton\OneDrive\Desktop","no","mono","no","18","no","white","no","yes","768","legacy","36","11","C:/Users/Colton/OneDrive/Desktop/CS-subject-4-LAB 3.1.csv","legacy","6 8 4","Lentiform Loewenfeld","3.3.3","0","n","0","right","right","right","right","NA","967","76239","7131","967","NA","2","legacy","3","1024","2","48000","-16","experiment","4","even","1","405961","402509","403746","5640","172974","403751","319301","5651","165840","407969","408939","404756","81894","407969","NA","Sterberg task","44","47872","49","yes","1024"
"90","90","975.86","975.86","black","experiment","legacy","legacy","legacy","0","uniform","1","undefined","1","left","49","49","49","0","0","49","49","0","0","49","49","49","0","49","0","Sat Oct 24 14:27:07 2020","The main experiment item","yes","Sterbergtask.osexp","C:\Users\Colton\OneDrive\Desktop","no","mono","no","18","no","white","no","yes","768","legacy","37","11","C:/Users/Colton/OneDrive/Desktop/CS-subject-4-LAB 3.1.csv","legacy","4 3 2 5 8","Lentiform Loewenfeld","3.3.3","2","y","0","left","right","right","left","NA","921","76239","7131","921","NA","2","legacy","5","1024","2","48000","-16","experiment","4","even","3","412448","408993","410233","5640","172974","410237","319301","5651","165840","414460","415384","411243","81894","414459","NA","Sterberg task","45","48793","50","yes","1024"
"90.19607843137256","90.19607843137256","974.6470588235294","974.6470588235294","black","experiment","legacy","legacy","legacy","0","uniform","1","undefined","1","right","50","50","50","0","0","50","50","0","0","50","50","50","0","50","0","Sat Oct 24 14:27:07 2020","The main experiment item","yes","Sterbergtask.osexp","C:\Users\Colton\OneDrive\Desktop","no","mono","no","18","no","white","no","yes","768","legacy","38","11","C:/Users/Colton/OneDrive/Desktop/CS-subject-4-LAB 3.1.csv","legacy","9 5 3 2 8 6","Lentiform Loewenfeld","3.3.3","0","n","0","right","right","right","right","NA","914","76239","7131","914","NA","2","legacy","6","1024","2","48000","-16","experiment","4","even","7","418890","415437","416674","5640","172974","416679","319301","5651","165840","420895","421812","417684","81894","420895","NA","Sterberg task","46","49707","51","yes","1024"
"90.38461538461539","90.38461538461539","971.8076923076923","971.8076923076923","black","experiment","legacy","legacy","legacy","0","uniform","1","undefined","1","left","51","51","51","0","0","51","51","0","0","51","51","51","0","51","0","Sat Oct 24 14:27:07 2020","The main experiment item","yes","Sterbergtask.osexp","C:\Users\Colton\OneDrive\Desktop","no","mono","no","18","no","white","no","yes","768","legacy","39","11","C:/Users/Colton/OneDrive/Desktop/CS-subject-4-LAB 3.1.csv","legacy","2 4 8 5 1 3","Lentiform Loewenfeld","3.3.3","1","y","0","left","right","right","left","NA","827","76239","7131","827","NA","2","legacy","6","1024","2","48000","-16","experiment","4","even","2","425329","421872","423108","5640","172974","423113","319301","5651","165840","427335","428165","424118","81894","427334","NA","Sterberg task","47","50534","52","yes","1024"
"90.56603773584905","90.56603773584905","973.4150943396227","973.4150943396227","black","experiment","legacy","legacy","legacy","0","uniform","1","undefined","1","right","52","52","52","0","0","52","52","0","0","52","52","52","0","52","0","Sat Oct 24 14:27:07 2020","The main experiment item","yes","Sterbergtask.osexp","C:\Users\Colton\OneDrive\Desktop","no","mono","no","18","no","white","no","yes","768","legacy","40","11","C:/Users/Colton/OneDrive/Desktop/CS-subject-4-LAB 3.1.csv","legacy","5 9 2 3","Lentiform Loewenfeld","3.3.3","0","n","0","right","right","right","right","NA","1057","76239","7131","1057","NA","2","legacy","4","1024","2","48000","-16","experiment","4","even","8","431681","428229","429466","5640","172974","429472","319301","5651","165840","433687","434747","430476","81894","433686","NA","Sterberg task","48","51591","53","yes","1024"
"90.74074074074075","90.74074074074075","970.1111111111111","970.1111111111111","black","experiment","legacy","legacy","legacy","0","uniform","1","undefined","1","left","53","53","53","0","0","53","53","0","0","53","53","53","0","53","0","Sat Oct 24 14:27:07 2020","The main experiment item","yes","Sterbergtask.osexp","C:\Users\Colton\OneDrive\Desktop","no","mono","no","18","no","white","no","yes","768","legacy","41","11","C:/Users/Colton/OneDrive/Desktop/CS-subject-4-LAB 3.1.csv","legacy","7 2 3","Lentiform Loewenfeld","3.3.3","3","y","0","left","right","right","left","NA","795","76239","7131","795","NA","2","legacy","3","1024","2","48000","-16","experiment","4","even","3","438262","434804","436045","5640","172974","436050","319301","5651","165840","440267","441065","437056","81894","440267","NA","Sterberg task","49","52386","54","yes","1024"
"90.9090909090909","90.9090909090909","968.2","968.2","black","experiment","legacy","legacy","legacy","0","uniform","1","undefined","1","right","54","54","54","0","0","54","54","0","0","54","54","54","0","54","0","Sat Oct 24 14:27:07 2020","The main experiment item","yes","Sterbergtask.osexp","C:\Users\Colton\OneDrive\Desktop","no","mono","no","18","no","white","no","yes","768","legacy","42","11","C:/Users/Colton/OneDrive/Desktop/CS-subject-4-LAB 3.1.csv","legacy","8 9","Lentiform Loewenfeld","3.3.3","0","n","0","right","right","right","right","NA","865","76239","7131","865","NA","2","legacy","2","1024","2","48000","-16","experiment","4","even","5","444591","441131","442368","5640","172974","442373","319301","5651","165840","446599","447468","443381","81894","446599","NA","Sterberg task","50","53251","55","yes","1024"
"91.07142857142857","91.07142857142857","968.0714285714286","968.0714285714286","black","experiment","legacy","legacy","legacy","0","uniform","1","undefined","1","right","55","55","55","0","0","55","55","0","0","55","55","55","0","55","0","Sat Oct 24 14:27:07 2020","The main experiment item","yes","Sterbergtask.osexp","C:\Users\Colton\OneDrive\Desktop","no","mono","no","18","no","white","no","yes","768","legacy","43","11","C:/Users/Colton/OneDrive/Desktop/CS-subject-4-LAB 3.1.csv","legacy","4 1","Lentiform Loewenfeld","3.3.3","0","n","0","right","right","right","right","NA","961","76239","7131","961","NA","2","legacy","2","1024","2","48000","-16","experiment","4","even","6","450959","447493","448734","5640","172974","448739","319301","5651","165840","452965","453929","449745","81894","452965","NA","Sterberg task","51","54212","56","yes","1024"
"91.2280701754386","91.2280701754386","967.0526315789474","967.0526315789474","black","experiment","legacy","legacy","legacy","0","uniform","1","undefined","1","left","56","56","56","0","0","56","56","0","0","56","56","56","0","56","0","Sat Oct 24 14:27:07 2020","The main experiment item","yes","Sterbergtask.osexp","C:\Users\Colton\OneDrive\Desktop","no","mono","no","18","no","white","no","yes","768","legacy","44","11","C:/Users/Colton/OneDrive/Desktop/CS-subject-4-LAB 3.1.csv","legacy","8 3","Lentiform Loewenfeld","3.3.3","2","y","0","left","right","right","left","NA","910","76239","7131","910","NA","2","legacy","2","1024","2","48000","-16","experiment","4","even","3","457452","453994","455234","5640","172974","455239","319301","5651","165840","459458","460371","456248","81894","459458","NA","Sterberg task","52","55122","57","yes","1024"
"91.37931034482759","91.37931034482759","967.2758620689655","967.2758620689655","black","experiment","legacy","legacy","legacy","0","uniform","1","undefined","1","left","57","57","57","0","0","57","57","0","0","57","57","57","0","57","0","Sat Oct 24 14:27:07 2020","The main experiment item","yes","Sterbergtask.osexp","C:\Users\Colton\OneDrive\Desktop","no","mono","no","18","no","white","no","yes","768","legacy","45","11","C:/Users/Colton/OneDrive/Desktop/CS-subject-4-LAB 3.1.csv","legacy","4 9 7 8 5 3","Lentiform Loewenfeld","3.3.3","4","y","0","left","right","right","left","NA","980","76239","7131","980","NA","2","legacy","6","1024","2","48000","-16","experiment","4","even","8","463889","460427","461665","5640","172974","461670","319301","5651","165840","465901","466884","462675","81894","465900","NA","Sterberg task","53","56102","58","yes","1024"
"89.83050847457628","89.83050847457628","963.8983050847457","963.8983050847457","black","experiment","legacy","legacy","legacy","0","uniform","0","undefined","0","right","58","58","58","0","0","58","58","0","0","58","58","58","0","58","0","Sat Oct 24 14:27:07 2020","The main experiment item","yes","Sterbergtask.osexp","C:\Users\Colton\OneDrive\Desktop","no","mono","no","18","no","white","no","yes","768","legacy","46","11","C:/Users/Colton/OneDrive/Desktop/CS-subject-4-LAB 3.1.csv","legacy","8 5 4 2 9 6","Lentiform Loewenfeld","3.3.3","0","n","0","left","right","right","left","NA","768","76239","7131","768","NA","2","legacy","6","1024","2","48000","-16","experiment","4","even","3","470389","466938","468174","5640","172974","468179","319301","5651","165840","472394","473166","469183","81894","472394","NA","Sterberg task","53","56870","59","yes","1024"
"90","90","959.2333333333333","959.2333333333333","black","experiment","legacy","legacy","legacy","0","uniform","1","undefined","1","left","59","59","59","0","0","59","59","0","0","59","59","59","0","59","0","Sat Oct 24 14:27:07 2020","The main experiment item","yes","Sterbergtask.osexp","C:\Users\Colton\OneDrive\Desktop","no","mono","no","18","no","white","no","yes","768","legacy","47","11","C:/Users/Colton/OneDrive/Desktop/CS-subject-4-LAB 3.1.csv","legacy","3 4","Lentiform Loewenfeld","3.3.3","1","y","0","left","right","right","left","NA","684","76239","7131","684","NA","2","legacy","2","1024","2","48000","-16","experiment","4","even","3","476680","466938","474466","5640","172974","474470","473229","5651","165840","478687","479375","475475","81894","478686","NA","Sterberg task","54","57554","60","yes","1024"
"90.1639344262295","90.1639344262295","959.4590163934427","959.4590163934427","black","experiment","legacy","legacy","legacy","0","uniform","1","undefined","1","right","60","60","60","0","0","60","60","0","0","60","60","60","0","60","0","Sat Oct 24 14:27:07 2020","The main experiment item","yes","Sterbergtask.osexp","C:\Users\Colton\OneDrive\Desktop","no","mono","no","18","no","white","no","yes","768","legacy","48","11","C:/Users/Colton/OneDrive/Desktop/CS-subject-4-LAB 3.1.csv","legacy","7 3 2 8","Lentiform Loewenfeld","3.3.3","0","n","0","right","right","right","right","NA","973","76239","7131","973","NA","2","legacy","4","1024","2","48000","-16","experiment","4","even","4","482861","479405","480646","5640","172974","480651","473229","5651","165840","484867","485843","481656","81894","484867","NA","Sterberg task","55","58527","61","yes","1024"
"90.3225806451613","90.3225806451613","955.0483870967741","955.0483870967741","black","experiment","legacy","legacy","legacy","0","uniform","1","undefined","1","left","61","61","61","0","0","61","61","0","0","61","61","61","0","61","0","Sat Oct 24 14:27:07 2020","The main experiment item","yes","Sterbergtask.osexp","C:\Users\Colton\OneDrive\Desktop","no","mono","no","18","no","white","no","yes","768","legacy","49","11","C:/Users/Colton/OneDrive/Desktop/CS-subject-4-LAB 3.1.csv","legacy","4 1 5","Lentiform Loewenfeld","3.3.3","2","y","0","left","right","right","left","NA","686","76239","7131","686","NA","2","legacy","3","1024","2","48000","-16","experiment","4","even","1","489362","485906","487147","5640","172974","487152","473229","5651","165840","491369","492058","488157","81894","491368","NA","Sterberg task","56","59213","62","yes","1024"
"90.47619047619048","90.47619047619048","951.2539682539683","951.2539682539683","black","experiment","legacy","legacy","legacy","0","uniform","1","undefined","1","left","62","62","62","0","0","62","62","0","0","62","62","62","0","62","0","Sat Oct 24 14:27:07 2020","The main experiment item","yes","Sterbergtask.osexp","C:\Users\Colton\OneDrive\Desktop","no","mono","no","18","no","white","no","yes","768","legacy","50","11","C:/Users/Colton/OneDrive/Desktop/CS-subject-4-LAB 3.1.csv","legacy","2 3 7 4","Lentiform Loewenfeld","3.3.3","1","y","0","left","right","right","left","NA","716","76239","7131","716","NA","2","legacy","4","1024","2","48000","-16","experiment","4","even","2","495565","492116","493350","5640","172974","493355","473229","5651","165840","497580","498299","494360","81894","497580","NA","Sterberg task","57","59929","63","yes","1024"
"90.625","90.625","950.546875","950.546875","black","experiment","legacy","legacy","legacy","0","uniform","1","undefined","1","right","63","63","63","0","0","63","63","0","0","63","63","63","0","63","0","Sat Oct 24 14:27:07 2020","The main experiment item","yes","Sterbergtask.osexp","C:\Users\Colton\OneDrive\Desktop","no","mono","no","18","no","white","no","yes","768","legacy","51","11","C:/Users/Colton/OneDrive/Desktop/CS-subject-4-LAB 3.1.csv","legacy","1 5 3 2 8","Lentiform Loewenfeld","3.3.3","0","n","0","right","right","right","right","NA","906","76239","7131","906","NA","2","legacy","5","1024","2","48000","-16","experiment","4","even","4","501805","498351","499588","5640","172974","499593","473229","5651","165840","503810","504719","500598","81894","503809","NA","Sterberg task","58","60835","64","yes","1024"
"90.76923076923077","90.76923076923077","951.9846153846154","951.9846153846154","black","experiment","legacy","legacy","legacy","0","uniform","1","undefined","1","right","64","64","64","0","0","64","64","0","0","64","64","64","0","64","0","Sat Oct 24 14:27:07 2020","The main experiment item","yes","Sterbergtask.osexp","C:\Users\Colton\OneDrive\Desktop","no","mono","no","18","no","white","no","yes","768","legacy","52","11","C:/Users/Colton/OneDrive/Desktop/CS-subject-4-LAB 3.1.csv","legacy","7 1 8 4 9 3","Lentiform Loewenfeld","3.3.3","0","n","0","right","right","right","right","NA","1044","76239","7131","1044","NA","2","legacy","6","1024","2","48000","-16","experiment","4","even","6","508208","504750","505992","5640","172974","505997","473229","5651","165840","510214","511261","507002","81894","510213","NA","Sterberg task","59","61879","65","yes","1024"
"90.9090909090909","90.9090909090909","951.1818181818181","951.1818181818181","black","experiment","legacy","legacy","legacy","0","uniform","1","undefined","1","right","65","65","65","0","0","65","65","0","0","65","65","65","0","65","0","Sat Oct 24 14:27:07 2020","The main experiment item","yes","Sterbergtask.osexp","C:\Users\Colton\OneDrive\Desktop","no","mono","no","18","no","white","no","yes","768","legacy","53","11","C:/Users/Colton/OneDrive/Desktop/CS-subject-4-LAB 3.1.csv","legacy","6 7 5 9","Lentiform Loewenfeld","3.3.3","0","n","0","right","right","right","right","NA","899","76239","7131","899","NA","2","legacy","4","1024","2","48000","-16","experiment","4","even","2","514773","511319","512558","5640","172974","512563","473229","5651","165840","516778","517680","513569","81894","516778","NA","Sterberg task","60","62778","66","yes","1024"
"91.04477611940298","91.04477611940298","951.9850746268656","951.9850746268656","black","experiment","legacy","legacy","legacy","0","uniform","1","undefined","1","left","66","66","66","0","0","66","66","0","0","66","66","66","0","66","0","Sat Oct 24 14:27:07 2020","The main experiment item","yes","Sterbergtask.osexp","C:\Users\Colton\OneDrive\Desktop","no","mono","no","18","no","white","no","yes","768","legacy","54","11","C:/Users/Colton/OneDrive/Desktop/CS-subject-4-LAB 3.1.csv","legacy","9 5 3 8 4","Lentiform Loewenfeld","3.3.3","1","y","0","left","right","right","left","NA","1005","76239","7131","1005","NA","2","legacy","5","1024","2","48000","-16","experiment","4","even","9","521163","517707","518948","5640","172974","518953","473229","5651","165840","523169","524178","519958","81894","523169","NA","Sterberg task","61","63783","67","yes","1024"
"91.17647058823529","91.17647058823529","949.75","949.75","black","experiment","legacy","legacy","legacy","0","uniform","1","undefined","1","left","67","67","67","0","0","67","67","0","0","67","67","67","0","67","0","Sat Oct 24 14:27:07 2020","The main experiment item","yes","Sterbergtask.osexp","C:\Users\Colton\OneDrive\Desktop","no","mono","no","18","no","white","no","yes","768","legacy","55","11","C:/Users/Colton/OneDrive/Desktop/CS-subject-4-LAB 3.1.csv","legacy","3 4 9 6 2 9","Lentiform Loewenfeld","3.3.3","5","y","0","left","right","right","left","NA","800","76239","7131","800","NA","2","legacy","6","1024","2","48000","-16","experiment","4","even","2","527695","524240","525475","5640","172974","525480","473229","5651","165840","529701","530505","526486","81894","529701","NA","Sterberg task","62","64583","68","yes","1024"
"91.30434782608695","91.30434782608695","947.1014492753624","947.1014492753624","black","experiment","legacy","legacy","legacy","0","uniform","1","undefined","1","left","68","68","68","0","0","68","68","0","0","68","68","68","0","68","0","Sat Oct 24 14:27:07 2020","The main experiment item","yes","Sterbergtask.osexp","C:\Users\Colton\OneDrive\Desktop","no","mono","no","18","no","white","no","yes","768","legacy","56","11","C:/Users/Colton/OneDrive/Desktop/CS-subject-4-LAB 3.1.csv","legacy","6 2","Lentiform Loewenfeld","3.3.3","1","y","0","left","right","right","left","NA","767","76239","7131","767","NA","2","legacy","2","1024","2","48000","-16","experiment","4","even","6","534013","530563","531797","5640","172974","531801","473229","5651","165840","536020","536790","532807","81894","536020","NA","Sterberg task","63","65350","69","yes","1024"
"91.42857142857143","91.42857142857143","945.9714285714285","945.9714285714285","black","experiment","legacy","legacy","legacy","0","uniform","1","undefined","1","right","69","69","69","0","0","69","69","0","0","69","69","69","0","69","0","Sat Oct 24 14:27:07 2020","The main experiment item","yes","Sterbergtask.osexp","C:\Users\Colton\OneDrive\Desktop","no","mono","no","18","no","white","no","yes","768","legacy","57","11","C:/Users/Colton/OneDrive/Desktop/CS-subject-4-LAB 3.1.csv","legacy","2 8 9 4 1","Lentiform Loewenfeld","3.3.3","0","n","0","right","right","right","right","NA","868","76239","7131","868","NA","2","legacy","5","1024","2","48000","-16","experiment","4","even","5","540306","536851","538084","5640","172974","538089","473229","5651","165840","542311","543183","539102","81894","542311","NA","Sterberg task","64","66218","70","yes","1024"
"91.54929577464789","91.54929577464789","943.887323943662","943.887323943662","black","experiment","legacy","legacy","legacy","0","uniform","1","undefined","1","right","70","70","70","0","0","70","70","0","0","70","70","70","0","70","0","Sat Oct 24 14:27:07 2020","The main experiment item","yes","Sterbergtask.osexp","C:\Users\Colton\OneDrive\Desktop","no","mono","no","18","no","white","no","yes","768","legacy","58","11","C:/Users/Colton/OneDrive/Desktop/CS-subject-4-LAB 3.1.csv","legacy","7 1 5 6 3","Lentiform Loewenfeld","3.3.3","0","n","0","right","right","right","right","NA","798","76239","7131","798","NA","2","legacy","5","1024","2","48000","-16","experiment","4","even","8","546702","543241","544478","5640","172974","544483","473229","5651","165840","548708","549510","545488","81894","548707","NA","Sterberg task","65","67016","71","yes","1024"
"91.66666666666667","91.66666666666667","942.0138888888889","942.0138888888889","black","experiment","legacy","legacy","legacy","0","uniform","1","undefined","1","right","71","71","71","0","0","71","71","0","0","71","71","71","0","71","0","Sat Oct 24 14:27:07 2020","The main experiment item","yes","Sterbergtask.osexp","C:\Users\Colton\OneDrive\Desktop","no","mono","no","18","no","white","no","yes","768","legacy","59","11","C:/Users/Colton/OneDrive/Desktop/CS-subject-4-LAB 3.1.csv","legacy","7 4 2 8 1 9","Lentiform Loewenfeld","3.3.3","0","n","0","right","right","right","right","NA","809","76239","7131","809","NA","2","legacy","6","1024","2","48000","-16","experiment","4","even","5","553054","549603","550838","5640","172974","550843","473229","5651","165840","555061","555874","551848","81894","555060","NA","Sterberg task","66","67825","72","yes","1024"
"91.78082191780823","91.78082191780823","945","945","black","experiment","legacy","legacy","legacy","0","uniform","1","undefined","1","left","72","72","72","0","0","72","72","0","0","72","72","72","0","72","0","Sat Oct 24 14:27:07 2020","The main experiment item","yes","Sterbergtask.osexp","C:\Users\Colton\OneDrive\Desktop","no","mono","no","18","no","white","no","yes","768","legacy","60","11","C:/Users/Colton/OneDrive/Desktop/CS-subject-4-LAB 3.1.csv","legacy","9 3 1 2 5","Lentiform Loewenfeld","3.3.3","4","y","0","left","right","right","left","NA","1160","76239","7131","1160","NA","2","legacy","5","1024","2","48000","-16","experiment","4","even","2","559380","555930","557165","5640","172974","557169","473229","5651","165840","561387","562550","558175","81894","561386","NA","Sterberg task","67","68985","73","yes","1024"
"91.89189189189189","91.89189189189189","943.5135135135135","943.5135135135135","black","experiment","legacy","legacy","legacy","0","uniform","1","undefined","1","right","73","73","73","0","0","73","73","0","0","73","73","73","0","73","0","Sat Oct 24 14:27:07 2020","The main experiment item","yes","Sterbergtask.osexp","C:\Users\Colton\OneDrive\Desktop","no","mono","no","18","no","white","no","yes","768","legacy","61","11","C:/Users/Colton/OneDrive/Desktop/CS-subject-4-LAB 3.1.csv","legacy","5","Lentiform Loewenfeld","3.3.3","0","n","0","right","right","right","right","NA","835","76239","7131","835","NA","2","legacy","1","1024","2","48000","-16","experiment","4","even","8","566064","562608","563841","5640","172974","563846","473229","5651","165840","568070","568909","564851","81894","568069","NA","Sterberg task","68","69820","74","yes","1024"
"92","92","942.08","942.08","black","experiment","legacy","legacy","legacy","0","uniform","1","undefined","1","left","74","74","74","0","0","74","74","0","0","74","74","74","0","74","0","Sat Oct 24 14:27:07 2020","The main experiment item","yes","Sterbergtask.osexp","C:\Users\Colton\OneDrive\Desktop","no","mono","no","18","no","white","no","yes","768","legacy","62","11","C:/Users/Colton/OneDrive/Desktop/CS-subject-4-LAB 3.1.csv","legacy","8 9 5 7 1 6","Lentiform Loewenfeld","3.3.3","4","y","0","left","right","right","left","NA","836","76239","7131","836","NA","2","legacy","6","1024","2","48000","-16","experiment","4","even","7","572414","568963","570198","5640","172974","570203","473229","5651","165840","574420","575260","571208","81894","574419","NA","Sterberg task","69","70656","75","yes","1024"
"92.10526315789474","92.10526315789474","941.9605263157895","941.9605263157895","black","experiment","legacy","legacy","legacy","0","uniform","1","undefined","1","right","75","75","75","0","0","75","75","0","0","75","75","75","0","75","0","Sat Oct 24 14:27:07 2020","The main experiment item","yes","Sterbergtask.osexp","C:\Users\Colton\OneDrive\Desktop","no","mono","no","18","no","white","no","yes","768","legacy","63","11","C:/Users/Colton/OneDrive/Desktop/CS-subject-4-LAB 3.1.csv","legacy","7 8 6 1","Lentiform Loewenfeld","3.3.3","0","n","0","right","right","right","right","NA","933","76239","7131","933","NA","2","legacy","4","1024","2","48000","-16","experiment","4","even","3","578737","575286","576523","5640","172974","576527","473229","5651","165840","580744","581680","577532","81894","580743","NA","Sterberg task","70","71589","76","yes","1024"
"92.20779220779221","92.20779220779221","940.5714285714286","940.5714285714286","black","experiment","legacy","legacy","legacy","0","uniform","1","undefined","1","left","76","76","76","0","0","76","76","0","0","76","76","76","0","76","0","Sat Oct 24 14:27:07 2020","The main experiment item","yes","Sterbergtask.osexp","C:\Users\Colton\OneDrive\Desktop","no","mono","no","18","no","white","no","yes","768","legacy","64","11","C:/Users/Colton/OneDrive/Desktop/CS-subject-4-LAB 3.1.csv","legacy","4 6 2 5 1","Lentiform Loewenfeld","3.3.3","5","y","0","left","right","right","left","NA","835","76239","7131","835","NA","2","legacy","5","1024","2","48000","-16","experiment","4","even","1","585217","581770","583001","5640","172974","583006","473229","5651","165840","587222","588061","584011","81894","587222","NA","Sterberg task","71","72424","77","yes","1024"
"92.3076923076923","92.3076923076923","938.5641025641025","938.5641025641025","black","experiment","legacy","legacy","legacy","0","uniform","1","undefined","1","left","77","77","77","0","0","77","77","0","0","77","77","77","0","77","0","Sat Oct 24 14:27:07 2020","The main experiment item","yes","Sterbergtask.osexp","C:\Users\Colton\OneDrive\Desktop","no","mono","no","18","no","white","no","yes","768","legacy","65","11","C:/Users/Colton/OneDrive/Desktop/CS-subject-4-LAB 3.1.csv","legacy","2 5 4 8 7","Lentiform Loewenfeld","3.3.3","3","y","0","left","right","right","left","NA","784","76239","7131","784","NA","2","legacy","5","1024","2","48000","-16","experiment","4","even","4","591570","588120","589356","5640","172974","589361","473229","5651","165840","593579","594367","590366","81894","593579","NA","Sterberg task","72","73208","78","yes","1024"
"92.40506329113924","92.40506329113924","936.4430379746835","936.4430379746835","black","experiment","legacy","legacy","legacy","0","uniform","1","undefined","1","left","78","78","78","0","0","78","78","0","0","78","78","78","0","78","0","Sat Oct 24 14:27:07 2020","The main experiment item","yes","Sterbergtask.osexp","C:\Users\Colton\OneDrive\Desktop","no","mono","no","18","no","white","no","yes","768","legacy","66","11","C:/Users/Colton/OneDrive/Desktop/CS-subject-4-LAB 3.1.csv","legacy","1 4 9 3 2 5","Lentiform Loewenfeld","3.3.3","3","y","0","left","right","right","left","NA","771","76239","7131","771","NA","2","legacy","6","1024","2","48000","-16","experiment","4","even","9","597870","594420","595654","5640","172974","595658","473229","5651","165840","599874","600648","596664","81894","599874","NA","Sterberg task","73","73979","79","yes","1024"
"92.5","92.5","938.5125","938.5125","black","experiment","legacy","legacy","legacy","0","uniform","1","undefined","1","right","79","79","79","0","0","79","79","0","0","79","79","79","0","79","0","Sat Oct 24 14:27:07 2020","The main experiment item","yes","Sterbergtask.osexp","C:\Users\Colton\OneDrive\Desktop","no","mono","no","18","no","white","no","yes","768","legacy","67","11","C:/Users/Colton/OneDrive/Desktop/CS-subject-4-LAB 3.1.csv","legacy","7 6 4 8 1 2","Lentiform Loewenfeld","3.3.3","0","n","0","right","right","right","right","NA","1102","76239","7131","1102","NA","2","legacy","6","1024","2","48000","-16","experiment","4","even","9","604161","600709","601945","5640","172974","601950","473229","5651","165840","606168","607275","602956","81894","606167","NA","Sterberg task","74","75081","80","yes","1024"
"92.5925925925926","92.5925925925926","937.3333333333334","937.3333333333334","black","experiment","legacy","legacy","legacy","0","uniform","1","undefined","1","left","80","80","80","0","0","80","80","0","0","80","80","80","0","80","0","Sat Oct 24 14:27:07 2020","The main experiment item","yes","Sterbergtask.osexp","C:\Users\Colton\OneDrive\Desktop","no","mono","no","18","no","white","no","yes","768","legacy","68","11","C:/Users/Colton/OneDrive/Desktop/CS-subject-4-LAB 3.1.csv","legacy","3 5 9 6 2 4","Lentiform Loewenfeld","3.3.3","1","y","0","left","right","right","left","NA","843","76239","7131","843","NA","2","legacy","6","1024","2","48000","-16","experiment","4","even","3","610785","607331","608569","5640","172974","608574","473229","5651","165840","612792","613639","609579","81894","612791","NA","Sterberg task","75","75924","81","yes","1024"
"92.6829268292683","92.6829268292683","937.719512195122","937.719512195122","black","experiment","legacy","legacy","legacy","0","uniform","1","undefined","1","right","81","81","81","0","0","81","81","0","0","81","81","81","0","81","0","Sat Oct 24 14:27:07 2020","The main experiment item","yes","Sterbergtask.osexp","C:\Users\Colton\OneDrive\Desktop","no","mono","no","18","no","white","no","yes","768","legacy","69","11","C:/Users/Colton/OneDrive/Desktop/CS-subject-4-LAB 3.1.csv","legacy","1 4 3 6 5","Lentiform Loewenfeld","3.3.3","0","n","0","right","right","right","right","NA","969","76239","7131","969","NA","2","legacy","5","1024","2","48000","-16","experiment","4","even","8","617144","613676","614920","5640","172974","614925","473229","5651","165840","619150","620123","615931","81894","619149","NA","Sterberg task","76","76893","82","yes","1024"
"92.7710843373494","92.7710843373494","937.5180722891566","937.5180722891566","black","experiment","legacy","legacy","legacy","0","uniform","1","undefined","1","left","82","82","82","0","0","82","82","0","0","82","82","82","0","82","0","Sat Oct 24 14:27:07 2020","The main experiment item","yes","Sterbergtask.osexp","C:\Users\Colton\OneDrive\Desktop","no","mono","no","18","no","white","no","yes","768","legacy","70","11","C:/Users/Colton/OneDrive/Desktop/CS-subject-4-LAB 3.1.csv","legacy","2 3","Lentiform Loewenfeld","3.3.3","1","y","0","left","right","right","left","NA","921","76239","7131","921","NA","2","legacy","2","1024","2","48000","-16","experiment","4","even","2","623647","620199","621431","5640","172974","621436","473229","5651","165840","625653","626578","622441","81894","625653","NA","Sterberg task","77","77814","83","yes","1024"
"92.85714285714286","92.85714285714286","935.8214285714286","935.8214285714286","black","experiment","legacy","legacy","legacy","0","uniform","1","undefined","1","left","83","83","83","0","0","83","83","0","0","83","83","83","0","83","0","Sat Oct 24 14:27:07 2020","The main experiment item","yes","Sterbergtask.osexp","C:\Users\Colton\OneDrive\Desktop","no","mono","no","18","no","white","no","yes","768","legacy","71","11","C:/Users/Colton/OneDrive/Desktop/CS-subject-4-LAB 3.1.csv","legacy","3 5 4 7","Lentiform Loewenfeld","3.3.3","1","y","0","left","right","right","left","NA","795","76239","7131","795","NA","2","legacy","4","1024","2","48000","-16","experiment","4","even","3","630079","626632","627865","5640","172974","627870","473229","5651","165840","632085","632884","628874","81894","632085","NA","Sterberg task","78","78609","84","yes","1024"
"92.94117647058823","92.94117647058823","934.4588235294118","934.4588235294118","black","experiment","legacy","legacy","legacy","0","uniform","1","undefined","1","left","84","84","84","0","0","84","84","0","0","84","84","84","0","84","0","Sat Oct 24 14:27:07 2020","The main experiment item","yes","Sterbergtask.osexp","C:\Users\Colton\OneDrive\Desktop","no","mono","no","18","no","white","no","yes","768","legacy","72","11","C:/Users/Colton/OneDrive/Desktop/CS-subject-4-LAB 3.1.csv","legacy","8 9 6 1","Lentiform Loewenfeld","3.3.3","2","y","0","left","right","right","left","NA","820","76239","7131","820","NA","2","legacy","4","1024","2","48000","-16","experiment","4","even","9","636373","632921","634158","5640","172974","634162","473229","5651","165840","638379","639203","635167","81894","638379","NA","Sterberg task","79","79429","85","yes","1024"
"93.02325581395348","93.02325581395348","932.8953488372093","932.8953488372093","black","experiment","legacy","legacy","legacy","0","uniform","1","undefined","1","left","85","85","85","0","0","85","85","0","0","85","85","85","0","85","0","Sat Oct 24 14:27:07 2020","The main experiment item","yes","Sterbergtask.osexp","C:\Users\Colton\OneDrive\Desktop","no","mono","no","18","no","white","no","yes","768","legacy","73","11","C:/Users/Colton/OneDrive/Desktop/CS-subject-4-LAB 3.1.csv","legacy","7 4 2 6 3 5","Lentiform Loewenfeld","3.3.3","6","y","0","left","right","right","left","NA","800","76239","7131","800","NA","2","legacy","6","1024","2","48000","-16","experiment","4","even","5","642709","639255","640490","5640","172974","640495","473229","5651","165840","644715","645519","641500","81894","644714","NA","Sterberg task","80","80229","86","yes","1024"
"93.10344827586206","93.10344827586206","930.7011494252873","930.7011494252873","black","experiment","legacy","legacy","legacy","0","uniform","1","undefined","1","left","86","86","86","0","0","86","86","0","0","86","86","86","0","86","0","Sat Oct 24 14:27:07 2020","The main experiment item","yes","Sterbergtask.osexp","C:\Users\Colton\OneDrive\Desktop","no","mono","no","18","no","white","no","yes","768","legacy","74","11","C:/Users/Colton/OneDrive/Desktop/CS-subject-4-LAB 3.1.csv","legacy","9 5 8 1","Lentiform Loewenfeld","3.3.3","2","y","0","left","right","right","left","NA","742","76239","7131","742","NA","2","legacy","4","1024","2","48000","-16","experiment","4","even","5","649033","645579","646816","5640","172974","646821","473229","5651","165840","651037","651783","647828","81894","651037","NA","Sterberg task","81","80971","87","yes","1024"
"93.18181818181819","93.18181818181819","933.3409090909091","933.3409090909091","black","experiment","legacy","legacy","legacy","0","uniform","1","undefined","1","right","87","87","87","0","0","87","87","0","0","87","87","87","0","87","0","Sat Oct 24 14:27:07 2020","The main experiment item","yes","Sterbergtask.osexp","C:\Users\Colton\OneDrive\Desktop","no","mono","no","18","no","white","no","yes","768","legacy","75","11","C:/Users/Colton/OneDrive/Desktop/CS-subject-4-LAB 3.1.csv","legacy","7 9 1 6","Lentiform Loewenfeld","3.3.3","0","n","0","right","right","right","right","NA","1163","76239","7131","1163","NA","2","legacy","4","1024","2","48000","-16","experiment","4","even","4","655294","651843","653080","5640","172974","653085","473229","5651","165840","657301","658468","654090","81894","657300","NA","Sterberg task","82","82134","88","yes","1024"
"93.25842696629213","93.25842696629213","934.2247191011236","934.2247191011236","black","experiment","legacy","legacy","legacy","0","uniform","1","undefined","1","right","88","88","88","0","0","88","88","0","0","88","88","88","0","88","0","Sat Oct 24 14:27:07 2020","The main experiment item","yes","Sterbergtask.osexp","C:\Users\Colton\OneDrive\Desktop","no","mono","no","18","no","white","no","yes","768","legacy","76","11","C:/Users/Colton/OneDrive/Desktop/CS-subject-4-LAB 3.1.csv","legacy","2 3 8 5 6 7","Lentiform Loewenfeld","3.3.3","0","n","0","right","right","right","right","NA","1012","76239","7131","1012","NA","2","legacy","6","1024","2","48000","-16","experiment","4","even","1","661978","658521","659751","5640","172974","659756","473229","5651","165840","663988","665004","660766","81894","663988","NA","Sterberg task","83","83146","89","yes","1024"
"93.33333333333333","93.33333333333333","933.5","933.5","black","experiment","legacy","legacy","legacy","0","uniform","1","undefined","1","right","89","89","89","0","0","89","89","0","0","89","89","89","0","89","0","Sat Oct 24 14:27:07 2020","The main experiment item","yes","Sterbergtask.osexp","C:\Users\Colton\OneDrive\Desktop","no","mono","no","18","no","white","no","yes","768","legacy","77","11","C:/Users/Colton/OneDrive/Desktop/CS-subject-4-LAB 3.1.csv","legacy","1 6 4","Lentiform Loewenfeld","3.3.3","0","n","0","right","right","right","right","NA","869","76239","7131","869","NA","2","legacy","3","1024","2","48000","-16","experiment","4","even","7","668493","665032","666274","5640","172974","666279","473229","5651","165840","670498","671371","667288","81894","670498","NA","Sterberg task","84","84015","90","yes","1024"
"93.4065934065934","93.4065934065934","932.2087912087912","932.2087912087912","black","experiment","legacy","legacy","legacy","0","uniform","1","undefined","1","right","90","90","90","0","0","90","90","0","0","90","90","90","0","90","0","Sat Oct 24 14:27:07 2020","The main experiment item","yes","Sterbergtask.osexp","C:\Users\Colton\OneDrive\Desktop","no","mono","no","18","no","white","no","yes","768","legacy","78","11","C:/Users/Colton/OneDrive/Desktop/CS-subject-4-LAB 3.1.csv","legacy","7 1","Lentiform Loewenfeld","3.3.3","0","n","0","right","right","right","right","NA","816","76239","7131","816","NA","2","legacy","2","1024","2","48000","-16","experiment","4","even","8","674885","671435","672671","5640","172974","672675","473229","5651","165840","676891","677712","673680","81894","676890","NA","Sterberg task","85","84831","91","yes","1024"
"93.47826086956522","93.47826086956522","932.3695652173913","932.3695652173913","black","experiment","legacy","legacy","legacy","0","uniform","1","undefined","1","left","91","91","91","0","0","91","91","0","0","91","91","91","0","91","0","Sat Oct 24 14:27:07 2020","The main experiment item","yes","Sterbergtask.osexp","C:\Users\Colton\OneDrive\Desktop","no","mono","no","18","no","white","no","yes","768","legacy","79","11","C:/Users/Colton/OneDrive/Desktop/CS-subject-4-LAB 3.1.csv","legacy","5 2 6","Lentiform Loewenfeld","3.3.3","2","y","0","left","right","right","left","NA","947","76239","7131","947","NA","2","legacy","3","1024","2","48000","-16","experiment","4","even","2","681217","677766","679001","5640","172974","679006","473229","5651","165840","683224","684175","680011","81894","683224","NA","Sterberg task","86","85778","92","yes","1024"
"93.54838709677419","93.54838709677419","931.8064516129032","931.8064516129032","black","experiment","legacy","legacy","legacy","0","uniform","1","undefined","1","right","92","92","92","0","0","92","92","0","0","92","92","92","0","92","0","Sat Oct 24 14:27:07 2020","The main experiment item","yes","Sterbergtask.osexp","C:\Users\Colton\OneDrive\Desktop","no","mono","no","18","no","white","no","yes","768","legacy","80","11","C:/Users/Colton/OneDrive/Desktop/CS-subject-4-LAB 3.1.csv","legacy","4 8 1 2","Lentiform Loewenfeld","3.3.3","0","n","0","right","right","right","right","NA","880","76239","7131","880","NA","2","legacy","4","1024","2","48000","-16","experiment","4","even","7","687686","684234","685472","5640","172974","685477","473229","5651","165840","689690","690575","686482","81894","689690","NA","Sterberg task","87","86658","93","yes","1024"
"92.55319148936171","92.55319148936171","935.8829787234042","935.8829787234042","black","experiment","legacy","legacy","legacy","0","uniform","0","undefined","0","right","93","93","93","0","0","93","93","0","0","93","93","93","0","93","0","Sat Oct 24 14:27:07 2020","The main experiment item","yes","Sterbergtask.osexp","C:\Users\Colton\OneDrive\Desktop","no","mono","no","18","no","white","no","yes","768","legacy","81","11","C:/Users/Colton/OneDrive/Desktop/CS-subject-4-LAB 3.1.csv","legacy","5 3 2 6 9 8","Lentiform Loewenfeld","3.3.3","0","n","0","left","right","right","left","NA","1315","76239","7131","1315","NA","2","legacy","6","1024","2","48000","-16","experiment","4","even","4","694090","690634","691869","5640","172974","691874","473229","5651","165840","696097","697417","692883","81894","696096","NA","Sterberg task","87","87973","94","yes","1024"
"92.63157894736842","92.63157894736842","937.0526315789474","937.0526315789474","black","experiment","legacy","legacy","legacy","0","uniform","1","undefined","1","right","94","94","94","0","0","94","94","0","0","94","94","94","0","94","0","Sat Oct 24 14:27:07 2020","The main experiment item","yes","Sterbergtask.osexp","C:\Users\Colton\OneDrive\Desktop","no","mono","no","18","no","white","no","yes","768","legacy","82","11","C:/Users/Colton/OneDrive/Desktop/CS-subject-4-LAB 3.1.csv","legacy","8 2 1 4 5 9","Lentiform Loewenfeld","3.3.3","0","n","0","right","right","right","right","NA","1047","76239","7131","1047","NA","2","legacy","6","1024","2","48000","-16","experiment","4","even","7","700939","690634","698723","5640","172974","698728","697490","5651","165840","702949","704000","699733","81894","702949","NA","Sterberg task","88","89020","95","yes","1024"
"92.70833333333333","92.70833333333333","936.7604166666666","936.7604166666666","black","experiment","legacy","legacy","legacy","0","uniform","1","undefined","1","right","95","95","95","0","0","95","95","0","0","95","95","95","0","95","0","Sat Oct 24 14:27:07 2020","The main experiment item","yes","Sterbergtask.osexp","C:\Users\Colton\OneDrive\Desktop","no","mono","no","18","no","white","no","yes","768","legacy","83","11","C:/Users/Colton/OneDrive/Desktop/CS-subject-4-LAB 3.1.csv","legacy","6 9 4 5 2","Lentiform Loewenfeld","3.3.3","0","n","0","right","right","right","right","NA","909","76239","7131","909","NA","2","legacy","5","1024","2","48000","-16","experiment","4","even","1","707516","704055","705299","5640","172974","705304","697490","5651","165840","709521","710434","706311","81894","709520","NA","Sterberg task","89","89929","96","yes","1024"
"92.78350515463917","92.78350515463917","937.9175257731958","937.9175257731958","black","experiment","legacy","legacy","legacy","0","uniform","1","undefined","1","left","96","96","96","0","0","96","96","0","0","96","96","96","0","96","0","Sat Oct 24 14:27:07 2020","The main experiment item","yes","Sterbergtask.osexp","C:\Users\Colton\OneDrive\Desktop","no","mono","no","18","no","white","no","yes","768","legacy","84","11","C:/Users/Colton/OneDrive/Desktop/CS-subject-4-LAB 3.1.csv","legacy","6 8 9 3 4 9","Lentiform Loewenfeld","3.3.3","5","y","0","left","right","right","left","NA","1049","76239","7131","1049","NA","2","legacy","6","1024","2","48000","-16","experiment","4","even","4","713943","710489","711726","5640","172974","711730","697490","5651","165840","715947","717000","712737","81894","715947","NA","Sterberg task","90","90978","97","yes","1024"
"91.83673469387755","91.83673469387755","941.3367346938776","941.3367346938776","black","experiment","legacy","legacy","legacy","0","uniform","0","undefined","0","right","97","97","97","0","0","97","97","0","0","97","97","97","0","97","0","Sat Oct 24 14:27:07 2020","The main experiment item","yes","Sterbergtask.osexp","C:\Users\Colton\OneDrive\Desktop","no","mono","no","18","no","white","no","yes","768","legacy","85","11","C:/Users/Colton/OneDrive/Desktop/CS-subject-4-LAB 3.1.csv","legacy","6 8","Lentiform Loewenfeld","3.3.3","0","n","0","left","right","right","left","NA","1273","76239","7131","1273","NA","2","legacy","2","1024","2","48000","-16","experiment","4","even","9","720505","717056","718289","5640","172974","718294","697490","5651","165840","722510","723787","719300","81894","722510","NA","Sterberg task","90","92251","98","yes","1024"
"91.91919191919192","91.91919191919192","939.8686868686868","939.8686868686868","black","experiment","legacy","legacy","legacy","0","uniform","1","undefined","1","right","98","98","98","0","0","98","98","0","0","98","98","98","0","98","0","Sat Oct 24 14:27:07 2020","The main experiment item","yes","Sterbergtask.osexp","C:\Users\Colton\OneDrive\Desktop","no","mono","no","18","no","white","no","yes","768","legacy","86","11","C:/Users/Colton/OneDrive/Desktop/CS-subject-4-LAB 3.1.csv","legacy","7 9","Lentiform Loewenfeld","3.3.3","0","n","0","right","right","right","right","NA","796","76239","7131","796","NA","2","legacy","2","1024","2","48000","-16","experiment","4","even","1","727299","717056","725083","5640","172974","725088","723846","5651","165840","729308","730108","726094","81894","729307","NA","Sterberg task","91","93047","99","yes","1024"
"92","92","937.88","937.88","black","experiment","legacy","legacy","legacy","0","uniform","1","undefined","1","right","99","99","99","0","0","99","99","0","0","99","99","99","0","99","0","Sat Oct 24 14:27:07 2020","The main experiment item","yes","Sterbergtask.osexp","C:\Users\Colton\OneDrive\Desktop","no","mono","no","18","no","white","no","yes","768","legacy","87","11","C:/Users/Colton/OneDrive/Desktop/CS-subject-4-LAB 3.1.csv","legacy","1 7 8 3 9","Lentiform Loewenfeld","3.3.3","0","n","0","right","right","right","right","NA","741","76239","7131","741","NA","2","legacy","5","1024","2","48000","-16","experiment","4","even","2","733630","730170","731415","5640","172974","731420","723846","5651","165840","735638","736384","732425","81894","735638","NA","Sterberg task","92","93788","100","yes","1024"
"92.07920792079207","92.07920792079207","936.5247524752475","936.5247524752475","black","experiment","legacy","legacy","legacy","0","uniform","1","undefined","1","right","100","100","100","0","0","100","100","0","0","100","100","100","0","100","0","Sat Oct 24 14:27:07 2020","The main experiment item","yes","Sterbergtask.osexp","C:\Users\Colton\OneDrive\Desktop","no","mono","no","18","no","white","no","yes","768","legacy","88","11","C:/Users/Colton/OneDrive/Desktop/CS-subject-4-LAB 3.1.csv","legacy","3 9 8 1 6 4","Lentiform Loewenfeld","3.3.3","0","n","0","right","right","right","right","NA","801","76239","7131","801","NA","2","legacy","6","1024","2","48000","-16","experiment","4","even","7","739888","736435","737672","5640","172974","737677","723846","5651","165840","741893","742699","738682","81894","741893","NA","Sterberg task","93","94589","101","yes","1024"
"91.17647058823529","91.17647058823529","935.156862745098","935.156862745098","black","experiment","legacy","legacy","legacy","0","uniform","0","undefined","0","left","101","101","101","0","0","101","101","0","0","101","101","101","0","101","0","Sat Oct 24 14:27:07 2020","The main experiment item","yes","Sterbergtask.osexp","C:\Users\Colton\OneDrive\Desktop","no","mono","no","18","no","white","no","yes","768","legacy","89","11","C:/Users/Colton/OneDrive/Desktop/CS-subject-4-LAB 3.1.csv","legacy","8 5 4 7 3 1","Lentiform Loewenfeld","3.3.3","2","y","0","right","right","right","right","NA","797","76239","7131","797","NA","2","legacy","6","1024","2","48000","-16","experiment","4","even","5","746183","742724","743964","5640","172974","743969","723846","5651","165840","748187","748988","744978","81894","748187","NA","Sterberg task","93","95386","102","yes","1024"
"90.29126213592232","90.29126213592232","935.1067961165048","935.1067961165048","black","experiment","legacy","legacy","legacy","0","uniform","0","undefined","0","right","102","102","102","0","0","102","102","0","0","102","102","102","0","102","0","Sat Oct 24 14:27:07 2020","The main experiment item","yes","Sterbergtask.osexp","C:\Users\Colton\OneDrive\Desktop","no","mono","no","18","no","white","no","yes","768","legacy","90","11","C:/Users/Colton/OneDrive/Desktop/CS-subject-4-LAB 3.1.csv","legacy","8 4 3 5","Lentiform Loewenfeld","3.3.3","0","n","0","left","right","right","left","NA","930","76239","7131","930","NA","2","legacy","4","1024","2","48000","-16","experiment","4","even","6","752500","742724","750287","5640","172974","750292","749036","5651","165840","754505","755440","751296","81894","754504","NA","Sterberg task","93","96316","103","yes","1024"
"90.38461538461539","90.38461538461539","938.3461538461538","938.3461538461538","black","experiment","legacy","legacy","legacy","0","uniform","1","undefined","1","right","103","103","103","0","0","103","103","0","0","103","103","103","0","103","0","Sat Oct 24 14:27:07 2020","The main experiment item","yes","Sterbergtask.osexp","C:\Users\Colton\OneDrive\Desktop","no","mono","no","18","no","white","no","yes","768","legacy","91","11","C:/Users/Colton/OneDrive/Desktop/CS-subject-4-LAB 3.1.csv","legacy","6 9 4 5 3 2","Lentiform Loewenfeld","3.3.3","0","n","0","right","right","right","right","NA","1272","76239","7131","1272","NA","2","legacy","6","1024","2","48000","-16","experiment","4","even","8","758996","742724","756783","5640","172974","756788","755540","5651","165840","761001","762278","757793","81894","761001","NA","Sterberg task","94","97588","104","yes","1024"
"90.47619047619048","90.47619047619048","939.6190476190476","939.6190476190476","black","experiment","legacy","legacy","legacy","0","uniform","1","undefined","1","left","104","104","104","0","0","104","104","0","0","104","104","104","0","104","0","Sat Oct 24 14:27:07 2020","The main experiment item","yes","Sterbergtask.osexp","C:\Users\Colton\OneDrive\Desktop","no","mono","no","18","no","white","no","yes","768","legacy","92","11","C:/Users/Colton/OneDrive/Desktop/CS-subject-4-LAB 3.1.csv","legacy","6 5","Lentiform Loewenfeld","3.3.3","2","y","0","left","right","right","left","NA","1072","76239","7131","1072","NA","2","legacy","2","1024","2","48000","-16","experiment","4","even","5","765785","762336","763571","5640","172974","763576","755540","5651","165840","767789","768866","764581","81894","767789","NA","Sterberg task","95","98660","105","yes","1024"
"90.56603773584905","90.56603773584905","938.6603773584906","938.6603773584906","black","experiment","legacy","legacy","legacy","0","uniform","1","undefined","1","left","105","105","105","0","0","105","105","0","0","105","105","105","0","105","0","Sat Oct 24 14:27:07 2020","The main experiment item","yes","Sterbergtask.osexp","C:\Users\Colton\OneDrive\Desktop","no","mono","no","18","no","white","no","yes","768","legacy","93","11","C:/Users/Colton/OneDrive/Desktop/CS-subject-4-LAB 3.1.csv","legacy","8 5 1 3 9","Lentiform Loewenfeld","3.3.3","4","y","0","left","right","right","left","NA","838","76239","7131","838","NA","2","legacy","5","1024","2","48000","-16","experiment","4","even","3","772389","768927","770165","5640","172974","770170","755540","5651","165840","774395","775238","771175","81894","774394","NA","Sterberg task","96","99498","106","yes","1024"
"90.65420560747664","90.65420560747664","938.8504672897196","938.8504672897196","black","experiment","legacy","legacy","legacy","0","uniform","1","undefined","1","left","106","106","106","0","0","106","106","0","0","106","106","106","0","106","0","Sat Oct 24 14:27:07 2020","The main experiment item","yes","Sterbergtask.osexp","C:\Users\Colton\OneDrive\Desktop","no","mono","no","18","no","white","no","yes","768","legacy","94","11","C:/Users/Colton/OneDrive/Desktop/CS-subject-4-LAB 3.1.csv","legacy","7 8 4 6 9 5","Lentiform Loewenfeld","3.3.3","4","y","0","left","right","right","left","NA","959","76239","7131","959","NA","2","legacy","6","1024","2","48000","-16","experiment","4","even","6","778739","775291","776524","5640","172974","776529","755540","5651","165840","780746","781710","777534","81894","780745","NA","Sterberg task","97","100457","107","yes","1024"
"90.74074074074075","90.74074074074075","937.0925925925926","937.0925925925926","black","experiment","legacy","legacy","legacy","0","uniform","1","undefined","1","left","107","107","107","0","0","107","107","0","0","107","107","107","0","107","0","Sat Oct 24 14:27:07 2020","The main experiment item","yes","Sterbergtask.osexp","C:\Users\Colton\OneDrive\Desktop","no","mono","no","18","no","white","no","yes","768","legacy","95","11","C:/Users/Colton/OneDrive/Desktop/CS-subject-4-LAB 3.1.csv","legacy","8 7 3","Lentiform Loewenfeld","3.3.3","1","y","0","left","right","right","left","NA","749","76239","7131","749","NA","2","legacy","3","1024","2","48000","-16","experiment","4","even","8","785257","781799","783043","5640","172974","783048","755540","5651","165840","787264","788018","784053","81894","787263","NA","Sterberg task","98","101206","108","yes","1024"
"90.8256880733945","90.8256880733945","938.7614678899082","938.7614678899082","black","experiment","legacy","legacy","legacy","0","uniform","1","undefined","1","right","108","108","108","0","0","108","108","0","0","108","108","108","0","108","0","Sat Oct 24 14:27:07 2020","The main experiment item","yes","Sterbergtask.osexp","C:\Users\Colton\OneDrive\Desktop","no","mono","no","18","no","white","no","yes","768","legacy","96","11","C:/Users/Colton/OneDrive/Desktop/CS-subject-4-LAB 3.1.csv","legacy","2 8 6 3 1","Lentiform Loewenfeld","3.3.3","0","n","0","right","right","right","right","NA","1119","76239","7131","1119","NA","2","legacy","5","1024","2","48000","-16","experiment","4","even","7","791502","788047","789287","5640","172974","789292","755540","5651","165840","793508","794631","790296","81894","793507","NA","Sterberg task","99","102325","109","yes","1024"
"90.9090909090909","90.9090909090909","939.4090909090909","939.4090909090909","black","experiment","legacy","legacy","legacy","0","uniform","1","undefined","1","right","109","109","109","0","0","109","109","0","0","109","109","109","0","109","0","Sat Oct 24 14:27:07 2020","The main experiment item","yes","Sterbergtask.osexp","C:\Users\Colton\OneDrive\Desktop","no","mono","no","18","no","white","no","yes","768","legacy","97","11","C:/Users/Colton/OneDrive/Desktop/CS-subject-4-LAB 3.1.csv","legacy","4 2 6 9","Lentiform Loewenfeld","3.3.3","0","n","0","right","right","right","right","NA","1010","76239","7131","1010","NA","2","legacy","4","1024","2","48000","-16","experiment","4","even","7","798156","794693","795932","5640","172974","795936","755540","5651","165840","800161","801176","796950","81894","800161","NA","Sterberg task","100","103335","110","yes","1024"
"90.990990990991","90.990990990991","939.2612612612612","939.2612612612612","black","experiment","legacy","legacy","legacy","0","uniform","1","undefined","1","right","110","110","110","0","0","110","110","0","0","110","110","110","0","110","0","Sat Oct 24 14:27:07 2020","The main experiment item","yes","Sterbergtask.osexp","C:\Users\Colton\OneDrive\Desktop","no","mono","no","18","no","white","no","yes","768","legacy","98","11","C:/Users/Colton/OneDrive/Desktop/CS-subject-4-LAB 3.1.csv","legacy","2 7 5","Lentiform Loewenfeld","3.3.3","0","n","0","right","right","right","right","NA","923","76239","7131","923","NA","2","legacy","3","1024","2","48000","-16","experiment","4","even","8","804686","801236","802471","5640","172974","802476","755540","5651","165840","806691","807619","803481","81894","806691","NA","Sterberg task","101","104258","111","yes","1024"
"91.07142857142857","91.07142857142857","939.6339285714286","939.6339285714286","black","experiment","legacy","legacy","legacy","0","uniform","1","undefined","1","left","111","111","111","0","0","111","111","0","0","111","111","111","0","111","0","Sat Oct 24 14:27:07 2020","The main experiment item","yes","Sterbergtask.osexp","C:\Users\Colton\OneDrive\Desktop","no","mono","no","18","no","white","no","yes","768","legacy","99","11","C:/Users/Colton/OneDrive/Desktop/CS-subject-4-LAB 3.1.csv","legacy","4 6 5 8","Lentiform Loewenfeld","3.3.3","1","y","0","left","right","right","left","NA","981","76239","7131","981","NA","2","legacy","4","1024","2","48000","-16","experiment","4","even","4","811119","807671","808903","5640","172974","808908","755540","5651","165840","813124","814110","809914","81894","813124","NA","Sterberg task","102","105239","112","yes","1024"
"91.15044247787611","91.15044247787611","939.6725663716815","939.6725663716815","black","experiment","legacy","legacy","legacy","0","uniform","1","undefined","1","right","112","112","112","0","0","112","112","0","0","112","112","112","0","112","0","Sat Oct 24 14:27:07 2020","The main experiment item","yes","Sterbergtask.osexp","C:\Users\Colton\OneDrive\Desktop","no","mono","no","18","no","white","no","yes","768","legacy","100","11","C:/Users/Colton/OneDrive/Desktop/CS-subject-4-LAB 3.1.csv","legacy","1 7 5 2","Lentiform Loewenfeld","3.3.3","0","n","0","right","right","right","right","NA","944","76239","7131","944","NA","2","legacy","4","1024","2","48000","-16","experiment","4","even","3","817653","814201","815438","5640","172974","815443","755540","5651","165840","819659","820607","816448","81894","819659","NA","Sterberg task","103","106183","113","yes","1024"
"91.2280701754386","91.2280701754386","938.078947368421","938.078947368421","black","experiment","legacy","legacy","legacy","0","uniform","1","undefined","1","right","113","113","113","0","0","113","113","0","0","113","113","113","0","113","0","Sat Oct 24 14:27:07 2020","The main experiment item","yes","Sterbergtask.osexp","C:\Users\Colton\OneDrive\Desktop","no","mono","no","18","no","white","no","yes","768","legacy","101","11","C:/Users/Colton/OneDrive/Desktop/CS-subject-4-LAB 3.1.csv","legacy","2 8 9","Lentiform Loewenfeld","3.3.3","0","n","0","right","right","right","right","NA","758","76239","7131","758","NA","2","legacy","3","1024","2","48000","-16","experiment","4","even","6","824156","820694","821941","5640","172974","821946","755540","5651","165840","826160","826922","822951","81894","826160","NA","Sterberg task","104","106941","114","yes","1024"
"91.30434782608695","91.30434782608695","936.991304347826","936.991304347826","black","experiment","legacy","legacy","legacy","0","uniform","1","undefined","1","left","114","114","114","0","0","114","114","0","0","114","114","114","0","114","0","Sat Oct 24 14:27:07 2020","The main experiment item","yes","Sterbergtask.osexp","C:\Users\Colton\OneDrive\Desktop","no","mono","no","18","no","white","no","yes","768","legacy","102","11","C:/Users/Colton/OneDrive/Desktop/CS-subject-4-LAB 3.1.csv","legacy","7 8 6 3 1","Lentiform Loewenfeld","3.3.3","5","y","0","left","right","right","left","NA","813","76239","7131","813","NA","2","legacy","5","1024","2","48000","-16","experiment","4","even","1","830438","826991","828223","5640","172974","828228","755540","5651","165840","832445","833263","829233","81894","832445","NA","Sterberg task","105","107754","115","yes","1024"
