"acc","accuracy","average_response_time","avg_rt","background","block","canvas_backend","clock_backend","color_backend","compensation","coordinates","correct","correct_instruction1","correct_keyboard_response","correct_response","count_ISI","count_correctFeedback","count_expSequence","count_experiment","count_experimentLoop","count_fixation","count_incorrectFeedback","count_instruction1","count_instructions2","count_keyboard_response","count_logger","count_memorySet","count_practiceLoop","count_probe","count_thankYou","datetime","description","disable_garbage_collection","experiment_file","experiment_path","font_bold","font_family","font_italic","font_size","font_underline","foreground","form_clicks","fullscreen","height","keyboard_backend","live_row","live_row_practiceLoop","logfile","mouse_backend","numberSet","opensesame_codename","opensesame_version","posInSet","present","repeat_cycle","response","response_instruction1","response_instructions2","response_keyboard_response","response_thankYou","response_time","response_time_instruction1","response_time_instructions2","response_time_keyboard_response","response_time_thankYou","round_decimals","sampler_backend","setSize","sound_buf_size","sound_channels","sound_freq","sound_sample_size","start","subject_nr","subject_parity","target","time_ISI","time_correctFeedback","time_expSequence","time_experiment","time_experimentLoop","time_fixation","time_incorrectFeedback","time_instruction1","time_instructions2","time_keyboard_response","time_logger","time_memorySet","time_practiceLoop","time_probe","time_thankYou","title","total_correct","total_response_time","total_responses","uniform_coordinates","width"
"100","100","640","640","black","practice","legacy","legacy","legacy","0","uniform","1","undefined","1","left","0","0","0","0","0","0","0","0","0","0","0","0","0","0","0","Sun Oct 24 16:17:41 2021","The main experiment item","yes","Sternbergtask.osexp","/Users/samonemarks/Desktop","no","mono","no","18","no","white","no","yes","768","legacy","0","0","/Users/samonemarks/Desktop/SM-subject-2.csv","legacy","4 8","Lentiform Loewenfeld","3.3.9","1","y","0","left","left","NA","left","NA","640","2154","NA","640","NA","2","legacy","2","1024","2","48000","-16","experiment","2","even","4","10031","NA","7794","5267","NA","7801","NA","5305","NA","12042","12698","8812","7480","12042","NA","Sternberg task","1","640","1","yes","1024"
"100","100","695","695","black","practice","legacy","legacy","legacy","0","uniform","1","undefined","1","right","1","1","1","0","0","1","1","0","0","1","1","1","0","1","0","Sun Oct 24 16:17:41 2021","The main experiment item","yes","Sternbergtask.osexp","/Users/samonemarks/Desktop","no","mono","no","18","no","white","no","yes","768","legacy","1","1","/Users/samonemarks/Desktop/SM-subject-2.csv","legacy","5 7 8 4 1 2","Lentiform Loewenfeld","3.3.9","0","n","0","right","left","NA","right","NA","750","2154","NA","750","NA","2","legacy","6","1024","2","48000","-16","experiment","2","even","6","16017","12732","13801","5267","NA","13807","NA","5305","NA","18025","18776","14813","7480","18025","NA","Sternberg task","2","1390","2","yes","1024"
"100","100","696.3333333333334","696.3333333333334","black","practice","legacy","legacy","legacy","0","uniform","1","undefined","1","left","2","2","2","0","0","2","2","0","0","2","2","2","0","2","0","Sun Oct 24 16:17:41 2021","The main experiment item","yes","Sternbergtask.osexp","/Users/samonemarks/Desktop","no","mono","no","18","no","white","no","yes","768","legacy","2","2","/Users/samonemarks/Desktop/SM-subject-2.csv","legacy","1 7 9 8 5","Lentiform Loewenfeld","3.3.9","4","y","0","left","left","NA","left","NA","699","2154","NA","699","NA","2","legacy","5","1024","2","48000","-16","experiment","2","even","8","22053","18781","19834","5267","NA","19836","NA","5305","NA","24064","24764","20845","7480","24064","NA","Sternberg task","3","2089","3","yes","1024"
"100","100","675.5","675.5","black","practice","legacy","legacy","legacy","0","uniform","1","undefined","1","left","3","3","3","0","0","3","3","0","0","3","3","3","0","3","0","Sun Oct 24 16:17:41 2021","The main experiment item","yes","Sternbergtask.osexp","/Users/samonemarks/Desktop","no","mono","no","18","no","white","no","yes","768","legacy","3","3","/Users/samonemarks/Desktop/SM-subject-2.csv","legacy","1 5 2 9","Lentiform Loewenfeld","3.3.9","2","y","0","left","left","NA","left","NA","613","2154","NA","613","NA","2","legacy","4","1024","2","48000","-16","experiment","2","even","5","28056","24770","25822","5267","NA","25831","NA","5305","NA","30071","30684","26841","7480","30071","NA","Sternberg task","4","2702","4","yes","1024"
"100","100","652.2","652.2","black","practice","legacy","legacy","legacy","0","uniform","1","undefined","1","right","4","4","4","0","0","4","4","0","0","4","4","4","0","4","0","Sun Oct 24 16:17:41 2021","The main experiment item","yes","Sternbergtask.osexp","/Users/samonemarks/Desktop","no","mono","no","18","no","white","no","yes","768","legacy","4","4","/Users/samonemarks/Desktop/SM-subject-2.csv","legacy","2 1","Lentiform Loewenfeld","3.3.9","0","n","0","right","left","NA","right","NA","559","2154","NA","559","NA","2","legacy","2","1024","2","48000","-16","experiment","2","even","5","33956","30689","31740","5267","NA","31748","NA","5305","NA","35959","36518","32751","7480","35959","NA","Sternberg task","5","3261","5","yes","1024"
"100","100","630.3333333333334","630.3333333333334","black","practice","legacy","legacy","legacy","0","uniform","1","undefined","1","left","5","5","5","0","0","5","5","0","0","5","5","5","0","5","0","Sun Oct 24 16:17:41 2021","The main experiment item","yes","Sternbergtask.osexp","/Users/samonemarks/Desktop","no","mono","no","18","no","white","no","yes","768","legacy","5","5","/Users/samonemarks/Desktop/SM-subject-2.csv","legacy","6","Lentiform Loewenfeld","3.3.9","1","y","0","left","left","NA","left","NA","521","2154","NA","521","NA","2","legacy","1","1024","2","48000","-16","experiment","2","even","6","39785","36523","37576","5267","NA","37579","NA","5305","NA","41788","42309","38581","7480","41787","NA","Sternberg task","6","3782","6","yes","1024"
"85.71428571428571","85.71428571428571","622","622","black","practice","legacy","legacy","legacy","0","uniform","0","undefined","0","left","6","6","6","0","0","6","6","0","0","6","6","6","0","6","0","Sun Oct 24 16:17:41 2021","The main experiment item","yes","Sternbergtask.osexp","/Users/samonemarks/Desktop","no","mono","no","18","no","white","no","yes","768","legacy","6","6","/Users/samonemarks/Desktop/SM-subject-2.csv","legacy","2 9 4","Lentiform Loewenfeld","3.3.9","3","y","0","right","left","NA","right","NA","572","2154","NA","572","NA","2","legacy","3","1024","2","48000","-16","experiment","2","even","4","45573","42314","43366","5267","NA","43368","NA","5305","NA","47576","48149","44370","7480","47576","NA","Sternberg task","6","4354","7","yes","1024"
"87.5","87.5","627.5","627.5","black","practice","legacy","legacy","legacy","0","uniform","1","undefined","1","right","7","7","7","0","0","7","7","0","0","7","7","7","0","7","0","Sun Oct 24 16:17:41 2021","The main experiment item","yes","Sternbergtask.osexp","/Users/samonemarks/Desktop","no","mono","no","18","no","white","no","yes","768","legacy","7","7","/Users/samonemarks/Desktop/SM-subject-2.csv","legacy","9 6 7 4 5","Lentiform Loewenfeld","3.3.9","0","n","0","right","left","NA","right","NA","666","2154","NA","666","NA","2","legacy","5","1024","2","48000","-16","experiment","2","even","3","51414","42314","49205","5267","NA","49207","48153","5305","NA","53417","54084","50210","7480","53416","NA","Sternberg task","7","5020","8","yes","1024"
"88.88888888888889","88.88888888888889","622.7777777777778","622.7777777777778","black","practice","legacy","legacy","legacy","0","uniform","1","undefined","1","left","8","8","8","0","0","8","8","0","0","8","8","8","0","8","0","Sun Oct 24 16:17:41 2021","The main experiment item","yes","Sternbergtask.osexp","/Users/samonemarks/Desktop","no","mono","no","18","no","white","no","yes","768","legacy","8","8","/Users/samonemarks/Desktop/SM-subject-2.csv","legacy","4 3 1 7 9 8","Lentiform Loewenfeld","3.3.9","1","y","0","left","left","NA","left","NA","585","2154","NA","585","NA","2","legacy","6","1024","2","48000","-16","experiment","2","even","4","57347","54088","55140","5267","NA","55142","48153","5305","NA","59350","59936","56144","7480","59350","NA","Sternberg task","8","5605","9","yes","1024"
"90","90","615.5","615.5","black","practice","legacy","legacy","legacy","0","uniform","1","undefined","1","right","9","9","9","0","0","9","9","0","0","9","9","9","0","9","0","Sun Oct 24 16:17:41 2021","The main experiment item","yes","Sternbergtask.osexp","/Users/samonemarks/Desktop","no","mono","no","18","no","white","no","yes","768","legacy","9","9","/Users/samonemarks/Desktop/SM-subject-2.csv","legacy","5","Lentiform Loewenfeld","3.3.9","0","n","0","right","left","NA","right","NA","550","2154","NA","550","NA","2","legacy","1","1024","2","48000","-16","experiment","2","even","3","63201","59941","60993","5267","NA","60995","48153","5305","NA","65204","65755","61997","7480","65203","NA","Sternberg task","9","6155","10","yes","1024"
"90.9090909090909","90.9090909090909","610.8181818181819","610.8181818181819","black","practice","legacy","legacy","legacy","0","uniform","1","undefined","1","right","10","10","10","0","0","10","10","0","0","10","10","10","0","10","0","Sun Oct 24 16:17:41 2021","The main experiment item","yes","Sternbergtask.osexp","/Users/samonemarks/Desktop","no","mono","no","18","no","white","no","yes","768","legacy","10","10","/Users/samonemarks/Desktop/SM-subject-2.csv","legacy","4 1 5","Lentiform Loewenfeld","3.3.9","0","n","0","right","left","NA","right","NA","564","2154","NA","564","NA","2","legacy","3","1024","2","48000","-16","experiment","2","even","2","69019","65759","66812","5267","NA","66814","48153","5305","NA","71023","71588","67816","7480","71023","NA","Sternberg task","10","6719","11","yes","1024"
"91.66666666666667","91.66666666666667","635.5","635.5","black","practice","legacy","legacy","legacy","0","uniform","1","undefined","1","right","11","11","11","0","0","11","11","0","0","11","11","11","0","11","0","Sun Oct 24 16:17:41 2021","The main experiment item","yes","Sternbergtask.osexp","/Users/samonemarks/Desktop","no","mono","no","18","no","white","no","yes","768","legacy","11","11","/Users/samonemarks/Desktop/SM-subject-2.csv","legacy","3 1 9 4","Lentiform Loewenfeld","3.3.9","0","n","0","right","left","NA","right","NA","907","2154","NA","907","NA","2","legacy","4","1024","2","48000","-16","experiment","2","even","6","74854","71593","72645","5267","NA","72647","48153","5305","NA","76856","77764","73650","7480","76856","NA","Sternberg task","11","7626","12","yes","1024"
"92.3076923076923","92.3076923076923","628.6923076923077","628.6923076923077","black","experiment","legacy","legacy","legacy","0","uniform","1","undefined","1","left","12","12","12","0","0","12","12","0","0","12","12","12","0","12","0","Sun Oct 24 16:17:41 2021","The main experiment item","yes","Sternbergtask.osexp","/Users/samonemarks/Desktop","no","mono","no","18","no","white","no","yes","768","legacy","0","11","/Users/samonemarks/Desktop/SM-subject-2.csv","legacy","4 6 5 8","Lentiform Loewenfeld","3.3.9","1","y","0","left","left","left","left","NA","547","2154","36201","547","NA","2","legacy","4","1024","2","48000","-16","experiment","2","even","4","117261","77769","115052","5267","114997","115055","48153","5305","78795","119263","119810","116057","7480","119263","NA","Sternberg task","12","8173","13","yes","1024"
"92.85714285714286","92.85714285714286","621.0714285714286","621.0714285714286","black","experiment","legacy","legacy","legacy","0","uniform","1","undefined","1","right","13","13","13","0","0","13","13","0","0","13","13","13","0","13","0","Sun Oct 24 16:17:41 2021","The main experiment item","yes","Sternbergtask.osexp","/Users/samonemarks/Desktop","no","mono","no","18","no","white","no","yes","768","legacy","1","11","/Users/samonemarks/Desktop/SM-subject-2.csv","legacy","7 8 6 1","Lentiform Loewenfeld","3.3.9","0","n","0","right","left","left","right","NA","522","2154","36201","522","NA","2","legacy","4","1024","2","48000","-16","experiment","2","even","3","123076","119816","120868","5267","114997","120871","48153","5305","78795","125079","125602","121873","7480","125079","NA","Sternberg task","13","8695","14","yes","1024"
"93.33333333333333","93.33333333333333","605.8666666666667","605.8666666666667","black","experiment","legacy","legacy","legacy","0","uniform","1","undefined","1","left","14","14","14","0","0","14","14","0","0","14","14","14","0","14","0","Sun Oct 24 16:17:41 2021","The main experiment item","yes","Sternbergtask.osexp","/Users/samonemarks/Desktop","no","mono","no","18","no","white","no","yes","768","legacy","2","11","/Users/samonemarks/Desktop/SM-subject-2.csv","legacy","8 5 1 3 9","Lentiform Loewenfeld","3.3.9","4","y","0","left","left","left","left","NA","393","2154","36201","393","NA","2","legacy","5","1024","2","48000","-16","experiment","2","even","3","128866","125606","126658","5267","114997","126660","48153","5305","78795","130868","131262","127662","7480","130868","NA","Sternberg task","14","9088","15","yes","1024"
"87.5","87.5","609.75","609.75","black","experiment","legacy","legacy","legacy","0","uniform","0","undefined","0","left","15","15","15","0","0","15","15","0","0","15","15","15","0","15","0","Sun Oct 24 16:17:41 2021","The main experiment item","yes","Sternbergtask.osexp","/Users/samonemarks/Desktop","no","mono","no","18","no","white","no","yes","768","legacy","3","11","/Users/samonemarks/Desktop/SM-subject-2.csv","legacy","9 1 6 7 8","Lentiform Loewenfeld","3.3.9","1","y","0","right","left","left","right","NA","668","2154","36201","668","NA","2","legacy","5","1024","2","48000","-16","experiment","2","even","9","134526","131266","132319","5267","114997","132321","48153","5305","78795","136529","137198","133323","7480","136529","NA","Sternberg task","14","9756","16","yes","1024"
"88.23529411764706","88.23529411764706","619.0588235294117","619.0588235294117","black","experiment","legacy","legacy","legacy","0","uniform","1","undefined","1","right","16","16","16","0","0","16","16","0","0","16","16","16","0","16","0","Sun Oct 24 16:17:41 2021","The main experiment item","yes","Sternbergtask.osexp","/Users/samonemarks/Desktop","no","mono","no","18","no","white","no","yes","768","legacy","4","11","/Users/samonemarks/Desktop/SM-subject-2.csv","legacy","1 3 2 6 9","Lentiform Loewenfeld","3.3.9","0","n","0","right","left","left","right","NA","768","2154","36201","768","NA","2","legacy","5","1024","2","48000","-16","experiment","2","even","5","140460","131266","138253","5267","114997","138255","137201","5305","78795","142462","143231","139257","7480","142462","NA","Sternberg task","15","10524","17","yes","1024"
"88.88888888888889","88.88888888888889","609.5","609.5","black","experiment","legacy","legacy","legacy","0","uniform","1","undefined","1","left","17","17","17","0","0","17","17","0","0","17","17","17","0","17","0","Sun Oct 24 16:17:41 2021","The main experiment item","yes","Sternbergtask.osexp","/Users/samonemarks/Desktop","no","mono","no","18","no","white","no","yes","768","legacy","5","11","/Users/samonemarks/Desktop/SM-subject-2.csv","legacy","2 3","Lentiform Loewenfeld","3.3.9","1","y","0","left","left","left","left","NA","447","2154","36201","447","NA","2","legacy","2","1024","2","48000","-16","experiment","2","even","2","146494","143235","144287","5267","114997","144289","137201","5305","78795","148497","148945","145291","7480","148497","NA","Sternberg task","16","10971","18","yes","1024"
"89.47368421052632","89.47368421052632","600.1578947368421","600.1578947368421","black","experiment","legacy","legacy","legacy","0","uniform","1","undefined","1","right","18","18","18","0","0","18","18","0","0","18","18","18","0","18","0","Sun Oct 24 16:17:41 2021","The main experiment item","yes","Sternbergtask.osexp","/Users/samonemarks/Desktop","no","mono","no","18","no","white","no","yes","768","legacy","6","11","/Users/samonemarks/Desktop/SM-subject-2.csv","legacy","5 2","Lentiform Loewenfeld","3.3.9","0","n","0","right","left","left","right","NA","432","2154","36201","432","NA","2","legacy","2","1024","2","48000","-16","experiment","2","even","7","152210","148949","150003","5267","114997","150005","137201","5305","78795","154212","154645","151007","7480","154212","NA","Sternberg task","17","11403","19","yes","1024"
"90","90","600.15","600.15","black","experiment","legacy","legacy","legacy","0","uniform","1","undefined","1","left","19","19","19","0","0","19","19","0","0","19","19","19","0","19","0","Sun Oct 24 16:17:41 2021","The main experiment item","yes","Sternbergtask.osexp","/Users/samonemarks/Desktop","no","mono","no","18","no","white","no","yes","768","legacy","7","11","/Users/samonemarks/Desktop/SM-subject-2.csv","legacy","3 5 7 1","Lentiform Loewenfeld","3.3.9","3","y","0","left","left","left","left","NA","600","2154","36201","600","NA","2","legacy","4","1024","2","48000","-16","experiment","2","even","7","157910","154649","155703","5267","114997","155705","137201","5305","78795","159912","160513","156707","7480","159912","NA","Sternberg task","18","12003","20","yes","1024"
"90.47619047619048","90.47619047619048","602","602","black","experiment","legacy","legacy","legacy","0","uniform","1","undefined","1","right","20","20","20","0","0","20","20","0","0","20","20","20","0","20","0","Sun Oct 24 16:17:41 2021","The main experiment item","yes","Sternbergtask.osexp","/Users/samonemarks/Desktop","no","mono","no","18","no","white","no","yes","768","legacy","8","11","/Users/samonemarks/Desktop/SM-subject-2.csv","legacy","6 9 4 5 2","Lentiform Loewenfeld","3.3.9","0","n","0","right","left","left","right","NA","639","2154","36201","639","NA","2","legacy","5","1024","2","48000","-16","experiment","2","even","1","163779","160517","161571","5267","114997","161573","137201","5305","78795","165781","166421","162575","7480","165781","NA","Sternberg task","19","12642","21","yes","1024"
"90.9090909090909","90.9090909090909","610.8181818181819","610.8181818181819","black","experiment","legacy","legacy","legacy","0","uniform","1","undefined","1","right","21","21","21","0","0","21","21","0","0","21","21","21","0","21","0","Sun Oct 24 16:17:41 2021","The main experiment item","yes","Sternbergtask.osexp","/Users/samonemarks/Desktop","no","mono","no","18","no","white","no","yes","768","legacy","9","11","/Users/samonemarks/Desktop/SM-subject-2.csv","legacy","5 3 8 7 2 4","Lentiform Loewenfeld","3.3.9","0","n","0","right","left","left","right","NA","796","2154","36201","796","NA","2","legacy","6","1024","2","48000","-16","experiment","2","even","9","169685","166425","167478","5267","114997","167480","137201","5305","78795","171688","172485","168482","7480","171688","NA","Sternberg task","20","13438","22","yes","1024"
"91.30434782608695","91.30434782608695","614.9130434782609","614.9130434782609","black","experiment","legacy","legacy","legacy","0","uniform","1","undefined","1","left","22","22","22","0","0","22","22","0","0","22","22","22","0","22","0","Sun Oct 24 16:17:41 2021","The main experiment item","yes","Sternbergtask.osexp","/Users/samonemarks/Desktop","no","mono","no","18","no","white","no","yes","768","legacy","10","11","/Users/samonemarks/Desktop/SM-subject-2.csv","legacy","5 7 8 2 3 8","Lentiform Loewenfeld","3.3.9","5","y","0","left","left","left","left","NA","705","2154","36201","705","NA","2","legacy","6","1024","2","48000","-16","experiment","2","even","3","175750","172490","173541","5267","114997","173544","137201","5305","78795","177752","178458","174546","7480","177752","NA","Sternberg task","21","14143","23","yes","1024"
"87.5","87.5","618.4166666666666","618.4166666666666","black","experiment","legacy","legacy","legacy","0","uniform","0","undefined","0","right","23","23","23","0","0","23","23","0","0","23","23","23","0","23","0","Sun Oct 24 16:17:41 2021","The main experiment item","yes","Sternbergtask.osexp","/Users/samonemarks/Desktop","no","mono","no","18","no","white","no","yes","768","legacy","11","11","/Users/samonemarks/Desktop/SM-subject-2.csv","legacy","8 5 7 3 6","Lentiform Loewenfeld","3.3.9","0","n","0","left","left","left","left","NA","699","2154","36201","699","NA","2","legacy","5","1024","2","48000","-16","experiment","2","even","9","181721","178461","179513","5267","114997","179516","137201","5305","78795","183724","184424","180518","7480","183724","NA","Sternberg task","21","14842","24","yes","1024"
"88","88","626.48","626.48","black","experiment","legacy","legacy","legacy","0","uniform","1","undefined","1","left","24","24","24","0","0","24","24","0","0","24","24","24","0","24","0","Sun Oct 24 16:17:41 2021","The main experiment item","yes","Sternbergtask.osexp","/Users/samonemarks/Desktop","no","mono","no","18","no","white","no","yes","768","legacy","12","11","/Users/samonemarks/Desktop/SM-subject-2.csv","legacy","7 8 6 3 1","Lentiform Loewenfeld","3.3.9","5","y","0","left","left","left","left","NA","820","2154","36201","820","NA","2","legacy","5","1024","2","48000","-16","experiment","2","even","1","187687","178461","185480","5267","114997","185482","184428","5305","78795","189690","190510","186484","7480","189690","NA","Sternberg task","22","15662","25","yes","1024"
"88.46153846153847","88.46153846153847","621.3461538461538","621.3461538461538","black","experiment","legacy","legacy","legacy","0","uniform","1","undefined","1","right","25","25","25","0","0","25","25","0","0","25","25","25","0","25","0","Sun Oct 24 16:17:41 2021","The main experiment item","yes","Sternbergtask.osexp","/Users/samonemarks/Desktop","no","mono","no","18","no","white","no","yes","768","legacy","13","11","/Users/samonemarks/Desktop/SM-subject-2.csv","legacy","7 1","Lentiform Loewenfeld","3.3.9","0","n","0","right","left","left","right","NA","493","2154","36201","493","NA","2","legacy","2","1024","2","48000","-16","experiment","2","even","8","193775","190515","191567","5267","114997","191569","184428","5305","78795","195778","196272","192572","7480","195778","NA","Sternberg task","23","16155","26","yes","1024"
"85.18518518518519","85.18518518518519","615.7407407407408","615.7407407407408","black","experiment","legacy","legacy","legacy","0","uniform","0","undefined","0","right","26","26","26","0","0","26","26","0","0","26","26","26","0","26","0","Sun Oct 24 16:17:41 2021","The main experiment item","yes","Sternbergtask.osexp","/Users/samonemarks/Desktop","no","mono","no","18","no","white","no","yes","768","legacy","14","11","/Users/samonemarks/Desktop/SM-subject-2.csv","legacy","2 8 9 4 1","Lentiform Loewenfeld","3.3.9","0","n","0","left","left","left","left","NA","470","2154","36201","470","NA","2","legacy","5","1024","2","48000","-16","experiment","2","even","5","199534","196276","197326","5267","114997","197329","184428","5305","78795","201536","202007","198331","7480","201536","NA","Sternberg task","23","16625","27","yes","1024"
"85.71428571428571","85.71428571428571","617.8571428571429","617.8571428571429","black","experiment","legacy","legacy","legacy","0","uniform","1","undefined","1","left","27","27","27","0","0","27","27","0","0","27","27","27","0","27","0","Sun Oct 24 16:17:41 2021","The main experiment item","yes","Sternbergtask.osexp","/Users/samonemarks/Desktop","no","mono","no","18","no","white","no","yes","768","legacy","15","11","/Users/samonemarks/Desktop/SM-subject-2.csv","legacy","4 7 6 8 2 3","Lentiform Loewenfeld","3.3.9","6","y","0","left","left","left","left","NA","675","2154","36201","675","NA","2","legacy","6","1024","2","48000","-16","experiment","2","even","3","205271","196276","203064","5267","114997","203066","202011","5305","78795","207274","207950","204068","7480","207274","NA","Sternberg task","24","17300","28","yes","1024"
"86.20689655172414","86.20689655172414","618.7931034482758","618.7931034482758","black","experiment","legacy","legacy","legacy","0","uniform","1","undefined","1","left","28","28","28","0","0","28","28","0","0","28","28","28","0","28","0","Sun Oct 24 16:17:41 2021","The main experiment item","yes","Sternbergtask.osexp","/Users/samonemarks/Desktop","no","mono","no","18","no","white","no","yes","768","legacy","16","11","/Users/samonemarks/Desktop/SM-subject-2.csv","legacy","6 8 9 3 4 9","Lentiform Loewenfeld","3.3.9","5","y","0","left","left","left","left","NA","645","2154","36201","645","NA","2","legacy","6","1024","2","48000","-16","experiment","2","even","4","211215","207954","209007","5267","114997","209009","202011","5305","78795","213217","213862","210011","7480","213217","NA","Sternberg task","25","17945","29","yes","1024"
"86.66666666666667","86.66666666666667","614.8666666666667","614.8666666666667","black","experiment","legacy","legacy","legacy","0","uniform","1","undefined","1","left","29","29","29","0","0","29","29","0","0","29","29","29","0","29","0","Sun Oct 24 16:17:41 2021","The main experiment item","yes","Sternbergtask.osexp","/Users/samonemarks/Desktop","no","mono","no","18","no","white","no","yes","768","legacy","17","11","/Users/samonemarks/Desktop/SM-subject-2.csv","legacy","9 4 2","Lentiform Loewenfeld","3.3.9","1","y","0","left","left","left","left","NA","501","2154","36201","501","NA","2","legacy","3","1024","2","48000","-16","experiment","2","even","9","217127","213868","214919","5267","114997","214922","202011","5305","78795","219130","219632","215924","7480","219130","NA","Sternberg task","26","18446","30","yes","1024"
"87.09677419354838","87.09677419354838","613.4516129032259","613.4516129032259","black","experiment","legacy","legacy","legacy","0","uniform","1","undefined","1","left","30","30","30","0","0","30","30","0","0","30","30","30","0","30","0","Sun Oct 24 16:17:41 2021","The main experiment item","yes","Sternbergtask.osexp","/Users/samonemarks/Desktop","no","mono","no","18","no","white","no","yes","768","legacy","18","11","/Users/samonemarks/Desktop/SM-subject-2.csv","legacy","9 1 7 2","Lentiform Loewenfeld","3.3.9","2","y","0","left","left","left","left","NA","571","2154","36201","571","NA","2","legacy","4","1024","2","48000","-16","experiment","2","even","1","222897","219636","220688","5267","114997","220691","202011","5305","78795","224899","225471","221693","7480","224899","NA","Sternberg task","27","19017","31","yes","1024"
"87.5","87.5","610.25","610.25","black","experiment","legacy","legacy","legacy","0","uniform","1","undefined","1","left","31","31","31","0","0","31","31","0","0","31","31","31","0","31","0","Sun Oct 24 16:17:41 2021","The main experiment item","yes","Sternbergtask.osexp","/Users/samonemarks/Desktop","no","mono","no","18","no","white","no","yes","768","legacy","19","11","/Users/samonemarks/Desktop/SM-subject-2.csv","legacy","8 7 3","Lentiform Loewenfeld","3.3.9","1","y","0","left","left","left","left","NA","511","2154","36201","511","NA","2","legacy","3","1024","2","48000","-16","experiment","2","even","8","228736","225476","226528","5267","114997","226530","202011","5305","78795","230739","231251","227533","7480","230739","NA","Sternberg task","28","19528","32","yes","1024"
"84.84848484848484","84.84848484848484","609.7878787878788","609.7878787878788","black","experiment","legacy","legacy","legacy","0","uniform","0","undefined","0","right","32","32","32","0","0","32","32","0","0","32","32","32","0","32","0","Sun Oct 24 16:17:41 2021","The main experiment item","yes","Sternbergtask.osexp","/Users/samonemarks/Desktop","no","mono","no","18","no","white","no","yes","768","legacy","20","11","/Users/samonemarks/Desktop/SM-subject-2.csv","legacy","8 6 3 4 7","Lentiform Loewenfeld","3.3.9","0","n","0","left","left","left","left","NA","595","2154","36201","595","NA","2","legacy","5","1024","2","48000","-16","experiment","2","even","1","234516","231255","232307","5267","114997","232310","202011","5305","78795","236519","237115","233312","7480","236518","NA","Sternberg task","28","20123","33","yes","1024"
"85.29411764705883","85.29411764705883","649.5","649.5","black","experiment","legacy","legacy","legacy","0","uniform","1","undefined","1","left","33","33","33","0","0","33","33","0","0","33","33","33","0","33","0","Sun Oct 24 16:17:41 2021","The main experiment item","yes","Sternbergtask.osexp","/Users/samonemarks/Desktop","no","mono","no","18","no","white","no","yes","768","legacy","21","11","/Users/samonemarks/Desktop/SM-subject-2.csv","legacy","9 3 1 2 5","Lentiform Loewenfeld","3.3.9","4","y","0","left","left","left","left","NA","1960","2154","36201","1960","NA","2","legacy","5","1024","2","48000","-16","experiment","2","even","2","240378","231255","238171","5267","114997","238173","237119","5305","78795","242381","244342","239175","7480","242381","NA","Sternberg task","29","22083","34","yes","1024"
"85.71428571428571","85.71428571428571","652.6857142857143","652.6857142857143","black","experiment","legacy","legacy","legacy","0","uniform","1","undefined","1","right","34","34","34","0","0","34","34","0","0","34","34","34","0","34","0","Sun Oct 24 16:17:41 2021","The main experiment item","yes","Sternbergtask.osexp","/Users/samonemarks/Desktop","no","mono","no","18","no","white","no","yes","768","legacy","22","11","/Users/samonemarks/Desktop/SM-subject-2.csv","legacy","8 5 4 2 9 6","Lentiform Loewenfeld","3.3.9","0","n","0","right","left","left","right","NA","761","2154","36201","761","NA","2","legacy","6","1024","2","48000","-16","experiment","2","even","3","247606","244346","245398","5267","114997","245401","237119","5305","78795","249608","250370","246403","7480","249608","NA","Sternberg task","30","22844","35","yes","1024"
"86.11111111111111","86.11111111111111","645.8888888888889","645.8888888888889","black","experiment","legacy","legacy","legacy","0","uniform","1","undefined","1","left","35","35","35","0","0","35","35","0","0","35","35","35","0","35","0","Sun Oct 24 16:17:41 2021","The main experiment item","yes","Sternbergtask.osexp","/Users/samonemarks/Desktop","no","mono","no","18","no","white","no","yes","768","legacy","23","11","/Users/samonemarks/Desktop/SM-subject-2.csv","legacy","7 2 3","Lentiform Loewenfeld","3.3.9","3","y","0","left","left","left","left","NA","408","2154","36201","408","NA","2","legacy","3","1024","2","48000","-16","experiment","2","even","3","253633","250375","251426","5267","114997","251428","237119","5305","78795","255636","256044","252430","7480","255636","NA","Sternberg task","31","23252","36","yes","1024"
"83.78378378378379","83.78378378378379","648.1891891891892","648.1891891891892","black","experiment","legacy","legacy","legacy","0","uniform","0","undefined","0","right","36","36","36","0","0","36","36","0","0","36","36","36","0","36","0","Sun Oct 24 16:17:41 2021","The main experiment item","yes","Sternbergtask.osexp","/Users/samonemarks/Desktop","no","mono","no","18","no","white","no","yes","768","legacy","24","11","/Users/samonemarks/Desktop/SM-subject-2.csv","legacy","1 6 4 3 9 7","Lentiform Loewenfeld","3.3.9","0","n","0","left","left","left","left","NA","731","2154","36201","731","NA","2","legacy","6","1024","2","48000","-16","experiment","2","even","8","259308","256048","257101","5267","114997","257103","237119","5305","78795","261311","262043","258105","7480","261311","NA","Sternberg task","31","23983","37","yes","1024"
"84.21052631578948","84.21052631578948","648.5263157894736","648.5263157894736","black","experiment","legacy","legacy","legacy","0","uniform","1","undefined","1","right","37","37","37","0","0","37","37","0","0","37","37","37","0","37","0","Sun Oct 24 16:17:41 2021","The main experiment item","yes","Sternbergtask.osexp","/Users/samonemarks/Desktop","no","mono","no","18","no","white","no","yes","768","legacy","25","11","/Users/samonemarks/Desktop/SM-subject-2.csv","legacy","2 6 4 3 9","Lentiform Loewenfeld","3.3.9","0","n","0","right","left","left","right","NA","661","2154","36201","661","NA","2","legacy","5","1024","2","48000","-16","experiment","2","even","1","265308","256048","263100","5267","114997","263102","262048","5305","78795","267311","267973","264104","7480","267311","NA","Sternberg task","32","24644","38","yes","1024"
"84.61538461538461","84.61538461538461","656.3076923076923","656.3076923076923","black","experiment","legacy","legacy","legacy","0","uniform","1","undefined","1","right","38","38","38","0","0","38","38","0","0","38","38","38","0","38","0","Sun Oct 24 16:17:41 2021","The main experiment item","yes","Sternbergtask.osexp","/Users/samonemarks/Desktop","no","mono","no","18","no","white","no","yes","768","legacy","26","11","/Users/samonemarks/Desktop/SM-subject-2.csv","legacy","7 1 5 6 3","Lentiform Loewenfeld","3.3.9","0","n","0","right","left","left","right","NA","952","2154","36201","952","NA","2","legacy","5","1024","2","48000","-16","experiment","2","even","8","271241","267977","269032","5267","114997","269035","262048","5305","78795","273243","274195","270037","7480","273243","NA","Sternberg task","33","25596","39","yes","1024"
"85","85","655.85","655.85","black","experiment","legacy","legacy","legacy","0","uniform","1","undefined","1","right","39","39","39","0","0","39","39","0","0","39","39","39","0","39","0","Sun Oct 24 16:17:41 2021","The main experiment item","yes","Sternbergtask.osexp","/Users/samonemarks/Desktop","no","mono","no","18","no","white","no","yes","768","legacy","27","11","/Users/samonemarks/Desktop/SM-subject-2.csv","legacy","1 4 3 6 5","Lentiform Loewenfeld","3.3.9","0","n","0","right","left","left","right","NA","638","2154","36201","638","NA","2","legacy","5","1024","2","48000","-16","experiment","2","even","8","277460","274200","275253","5267","114997","275255","262048","5305","78795","279463","280102","276258","7480","279462","NA","Sternberg task","34","26234","40","yes","1024"
"85.36585365853658","85.36585365853658","658.1219512195122","658.1219512195122","black","experiment","legacy","legacy","legacy","0","uniform","1","undefined","1","left","40","40","40","0","0","40","40","0","0","40","40","40","0","40","0","Sun Oct 24 16:17:41 2021","The main experiment item","yes","Sternbergtask.osexp","/Users/samonemarks/Desktop","no","mono","no","18","no","white","no","yes","768","legacy","28","11","/Users/samonemarks/Desktop/SM-subject-2.csv","legacy","2 6 1 7 4","Lentiform Loewenfeld","3.3.9","2","y","0","left","left","left","left","NA","749","2154","36201","749","NA","2","legacy","5","1024","2","48000","-16","experiment","2","even","6","283365","280105","281156","5267","114997","281159","262048","5305","78795","285367","286117","282161","7480","285367","NA","Sternberg task","35","26983","41","yes","1024"
"85.71428571428571","85.71428571428571","662.5952380952381","662.5952380952381","black","experiment","legacy","legacy","legacy","0","uniform","1","undefined","1","left","41","41","41","0","0","41","41","0","0","41","41","41","0","41","0","Sun Oct 24 16:17:41 2021","The main experiment item","yes","Sternbergtask.osexp","/Users/samonemarks/Desktop","no","mono","no","18","no","white","no","yes","768","legacy","29","11","/Users/samonemarks/Desktop/SM-subject-2.csv","legacy","7 8 4 6 9 5","Lentiform Loewenfeld","3.3.9","4","y","0","left","left","left","left","NA","846","2154","36201","846","NA","2","legacy","6","1024","2","48000","-16","experiment","2","even","6","289381","286121","287174","5267","114997","287176","262048","5305","78795","291384","292231","288178","7480","291383","NA","Sternberg task","36","27829","42","yes","1024"
"83.72093023255815","83.72093023255815","666.2558139534884","666.2558139534884","black","experiment","legacy","legacy","legacy","0","uniform","0","undefined","0","right","42","42","42","0","0","42","42","0","0","42","42","42","0","42","0","Sun Oct 24 16:17:41 2021","The main experiment item","yes","Sternbergtask.osexp","/Users/samonemarks/Desktop","no","mono","no","18","no","white","no","yes","768","legacy","30","11","/Users/samonemarks/Desktop/SM-subject-2.csv","legacy","7 6 4 8 1 2","Lentiform Loewenfeld","3.3.9","0","n","0","left","left","left","left","NA","820","2154","36201","820","NA","2","legacy","6","1024","2","48000","-16","experiment","2","even","9","295495","292236","293287","5267","114997","293289","262048","5305","78795","297498","298319","294291","7480","297498","NA","Sternberg task","36","28649","43","yes","1024"
"84.0909090909091","84.0909090909091","667.6818181818181","667.6818181818181","black","experiment","legacy","legacy","legacy","0","uniform","1","undefined","1","right","43","43","43","0","0","43","43","0","0","43","43","43","0","43","0","Sun Oct 24 16:17:41 2021","The main experiment item","yes","Sternbergtask.osexp","/Users/samonemarks/Desktop","no","mono","no","18","no","white","no","yes","768","legacy","31","11","/Users/samonemarks/Desktop/SM-subject-2.csv","legacy","7 9","Lentiform Loewenfeld","3.3.9","0","n","0","right","left","left","right","NA","729","2154","36201","729","NA","2","legacy","2","1024","2","48000","-16","experiment","2","even","1","301582","292236","299375","5267","114997","299377","298324","5305","78795","303585","304315","300379","7480","303585","NA","Sternberg task","37","29378","44","yes","1024"
"84.44444444444444","84.44444444444444","668.2444444444444","668.2444444444444","black","experiment","legacy","legacy","legacy","0","uniform","1","undefined","1","right","44","44","44","0","0","44","44","0","0","44","44","44","0","44","0","Sun Oct 24 16:17:41 2021","The main experiment item","yes","Sternbergtask.osexp","/Users/samonemarks/Desktop","no","mono","no","18","no","white","no","yes","768","legacy","32","11","/Users/samonemarks/Desktop/SM-subject-2.csv","legacy","6 9 5","Lentiform Loewenfeld","3.3.9","0","n","0","right","left","left","right","NA","693","2154","36201","693","NA","2","legacy","3","1024","2","48000","-16","experiment","2","even","8","307584","304320","305376","5267","114997","305378","298324","5305","78795","309586","310280","306380","7480","309586","NA","Sternberg task","38","30071","45","yes","1024"
"84.78260869565217","84.78260869565217","666.6521739130435","666.6521739130435","black","experiment","legacy","legacy","legacy","0","uniform","1","undefined","1","left","45","45","45","0","0","45","45","0","0","45","45","45","0","45","0","Sun Oct 24 16:17:41 2021","The main experiment item","yes","Sternbergtask.osexp","/Users/samonemarks/Desktop","no","mono","no","18","no","white","no","yes","768","legacy","33","11","/Users/samonemarks/Desktop/SM-subject-2.csv","legacy","4 9 7 8 5 3","Lentiform Loewenfeld","3.3.9","4","y","0","left","left","left","left","NA","595","2154","36201","595","NA","2","legacy","6","1024","2","48000","-16","experiment","2","even","8","313545","310285","311338","5267","114997","311340","298324","5305","78795","315548","316144","312342","7480","315547","NA","Sternberg task","39","30666","46","yes","1024"
"85.1063829787234","85.1063829787234","666.1914893617021","666.1914893617021","black","experiment","legacy","legacy","legacy","0","uniform","1","undefined","1","right","46","46","46","0","0","46","46","0","0","46","46","46","0","46","0","Sun Oct 24 16:17:41 2021","The main experiment item","yes","Sternbergtask.osexp","/Users/samonemarks/Desktop","no","mono","no","18","no","white","no","yes","768","legacy","34","11","/Users/samonemarks/Desktop/SM-subject-2.csv","legacy","5","Lentiform Loewenfeld","3.3.9","0","n","0","right","left","left","right","NA","645","2154","36201","645","NA","2","legacy","1","1024","2","48000","-16","experiment","2","even","8","319408","316148","317199","5267","114997","317202","298324","5305","78795","321410","322056","318204","7480","321410","NA","Sternberg task","40","31311","47","yes","1024"
"85.41666666666667","85.41666666666667","668.5","668.5","black","experiment","legacy","legacy","legacy","0","uniform","1","undefined","1","right","47","47","47","0","0","47","47","0","0","47","47","47","0","47","0","Sun Oct 24 16:17:41 2021","The main experiment item","yes","Sternbergtask.osexp","/Users/samonemarks/Desktop","no","mono","no","18","no","white","no","yes","768","legacy","35","11","/Users/samonemarks/Desktop/SM-subject-2.csv","legacy","9 8 2 7 4","Lentiform Loewenfeld","3.3.9","0","n","0","right","left","left","right","NA","777","2154","36201","777","NA","2","legacy","5","1024","2","48000","-16","experiment","2","even","5","325319","322061","323113","5267","114997","323115","298324","5305","78795","327322","328100","324117","7480","327322","NA","Sternberg task","41","32088","48","yes","1024"
"85.71428571428571","85.71428571428571","668.0408163265306","668.0408163265306","black","experiment","legacy","legacy","legacy","0","uniform","1","undefined","1","right","48","48","48","0","0","48","48","0","0","48","48","48","0","48","0","Sun Oct 24 16:17:41 2021","The main experiment item","yes","Sternbergtask.osexp","/Users/samonemarks/Desktop","no","mono","no","18","no","white","no","yes","768","legacy","36","11","/Users/samonemarks/Desktop/SM-subject-2.csv","legacy","5 7 3","Lentiform Loewenfeld","3.3.9","0","n","0","right","left","left","right","NA","646","2154","36201","646","NA","2","legacy","3","1024","2","48000","-16","experiment","2","even","9","331365","328104","329156","5267","114997","329159","298324","5305","78795","333367","334014","330161","7480","333367","NA","Sternberg task","42","32734","49","yes","1024"
"86","86","665.1","665.1","black","experiment","legacy","legacy","legacy","0","uniform","1","undefined","1","right","49","49","49","0","0","49","49","0","0","49","49","49","0","49","0","Sun Oct 24 16:17:41 2021","The main experiment item","yes","Sternbergtask.osexp","/Users/samonemarks/Desktop","no","mono","no","18","no","white","no","yes","768","legacy","37","11","/Users/samonemarks/Desktop/SM-subject-2.csv","legacy","6 3 1 7 9 8","Lentiform Loewenfeld","3.3.9","0","n","0","right","left","left","right","NA","521","2154","36201","521","NA","2","legacy","6","1024","2","48000","-16","experiment","2","even","4","337278","334019","335071","5267","114997","335073","298324","5305","78795","339281","339803","336075","7480","339281","NA","Sternberg task","43","33255","50","yes","1024"
"86.27450980392157","86.27450980392157","661.7647058823529","661.7647058823529","black","experiment","legacy","legacy","legacy","0","uniform","1","undefined","1","left","50","50","50","0","0","50","50","0","0","50","50","50","0","50","0","Sun Oct 24 16:17:41 2021","The main experiment item","yes","Sternbergtask.osexp","/Users/samonemarks/Desktop","no","mono","no","18","no","white","no","yes","768","legacy","38","11","/Users/samonemarks/Desktop/SM-subject-2.csv","legacy","5 2 6","Lentiform Loewenfeld","3.3.9","2","y","0","left","left","left","left","NA","495","2154","36201","495","NA","2","legacy","3","1024","2","48000","-16","experiment","2","even","2","343073","339808","340865","5267","114997","340868","298324","5305","78795","345076","345572","341870","7480","345076","NA","Sternberg task","44","33750","51","yes","1024"
"86.53846153846153","86.53846153846153","661.0961538461538","661.0961538461538","black","experiment","legacy","legacy","legacy","0","uniform","1","undefined","1","right","51","51","51","0","0","51","51","0","0","51","51","51","0","51","0","Sun Oct 24 16:17:41 2021","The main experiment item","yes","Sternbergtask.osexp","/Users/samonemarks/Desktop","no","mono","no","18","no","white","no","yes","768","legacy","39","11","/Users/samonemarks/Desktop/SM-subject-2.csv","legacy","3 9 8 1 6 4","Lentiform Loewenfeld","3.3.9","0","n","0","right","left","left","right","NA","627","2154","36201","627","NA","2","legacy","6","1024","2","48000","-16","experiment","2","even","7","348836","345577","346629","5267","114997","346632","298324","5305","78795","350839","351467","347634","7480","350839","NA","Sternberg task","45","34377","52","yes","1024"
"86.79245283018868","86.79245283018868","661.4716981132076","661.4716981132076","black","experiment","legacy","legacy","legacy","0","uniform","1","undefined","1","right","52","52","52","0","0","52","52","0","0","52","52","52","0","52","0","Sun Oct 24 16:17:41 2021","The main experiment item","yes","Sternbergtask.osexp","/Users/samonemarks/Desktop","no","mono","no","18","no","white","no","yes","768","legacy","40","11","/Users/samonemarks/Desktop/SM-subject-2.csv","legacy","9 7 4 5 8","Lentiform Loewenfeld","3.3.9","0","n","0","right","left","left","right","NA","681","2154","36201","681","NA","2","legacy","5","1024","2","48000","-16","experiment","2","even","6","354731","351471","352524","5267","114997","352526","298324","5305","78795","356734","357416","353528","7480","356734","NA","Sternberg task","46","35058","53","yes","1024"
"87.03703703703704","87.03703703703704","662.3703703703703","662.3703703703703","black","experiment","legacy","legacy","legacy","0","uniform","1","undefined","1","right","53","53","53","0","0","53","53","0","0","53","53","53","0","53","0","Sun Oct 24 16:17:41 2021","The main experiment item","yes","Sternbergtask.osexp","/Users/samonemarks/Desktop","no","mono","no","18","no","white","no","yes","768","legacy","41","11","/Users/samonemarks/Desktop/SM-subject-2.csv","legacy","1 4 9 3","Lentiform Loewenfeld","3.3.9","0","n","0","right","left","left","right","NA","710","2154","36201","710","NA","2","legacy","4","1024","2","48000","-16","experiment","2","even","5","360680","357421","358473","5267","114997","358475","298324","5305","78795","362682","363393","359477","7480","362682","NA","Sternberg task","47","35768","54","yes","1024"
"87.27272727272727","87.27272727272727","661.2181818181818","661.2181818181818","black","experiment","legacy","legacy","legacy","0","uniform","1","undefined","1","right","54","54","54","0","0","54","54","0","0","54","54","54","0","54","0","Sun Oct 24 16:17:41 2021","The main experiment item","yes","Sternbergtask.osexp","/Users/samonemarks/Desktop","no","mono","no","18","no","white","no","yes","768","legacy","42","11","/Users/samonemarks/Desktop/SM-subject-2.csv","legacy","7 4 2 8 1 9","Lentiform Loewenfeld","3.3.9","0","n","0","right","left","left","right","NA","599","2154","36201","599","NA","2","legacy","6","1024","2","48000","-16","experiment","2","even","5","366659","363397","364452","5267","114997","364454","298324","5305","78795","368661","369261","365456","7480","368661","NA","Sternberg task","48","36367","55","yes","1024"
"85.71428571428571","85.71428571428571","662.25","662.25","black","experiment","legacy","legacy","legacy","0","uniform","0","undefined","0","left","55","55","55","0","0","55","55","0","0","55","55","55","0","55","0","Sun Oct 24 16:17:41 2021","The main experiment item","yes","Sternbergtask.osexp","/Users/samonemarks/Desktop","no","mono","no","18","no","white","no","yes","768","legacy","43","11","/Users/samonemarks/Desktop/SM-subject-2.csv","legacy","5 7 3 6 2","Lentiform Loewenfeld","3.3.9","5","y","0","right","left","left","right","NA","719","2154","36201","719","NA","2","legacy","5","1024","2","48000","-16","experiment","2","even","2","372524","369265","370317","5267","114997","370319","298324","5305","78795","374527","375247","371321","7480","374526","NA","Sternberg task","48","37086","56","yes","1024"
"85.96491228070175","85.96491228070175","665.6491228070175","665.6491228070175","black","experiment","legacy","legacy","legacy","0","uniform","1","undefined","1","left","56","56","56","0","0","56","56","0","0","56","56","56","0","56","0","Sun Oct 24 16:17:41 2021","The main experiment item","yes","Sternbergtask.osexp","/Users/samonemarks/Desktop","no","mono","no","18","no","white","no","yes","768","legacy","44","11","/Users/samonemarks/Desktop/SM-subject-2.csv","legacy","6 7 8 5","Lentiform Loewenfeld","3.3.9","3","y","0","left","left","left","left","NA","856","2154","36201","856","NA","2","legacy","4","1024","2","48000","-16","experiment","2","even","8","378509","369265","376301","5267","114997","376304","375251","5305","78795","380511","381368","377306","7480","380511","NA","Sternberg task","49","37942","57","yes","1024"
"86.20689655172414","86.20689655172414","667.8793103448276","667.8793103448276","black","experiment","legacy","legacy","legacy","0","uniform","1","undefined","1","left","57","57","57","0","0","57","57","0","0","57","57","57","0","57","0","Sun Oct 24 16:17:41 2021","The main experiment item","yes","Sternbergtask.osexp","/Users/samonemarks/Desktop","no","mono","no","18","no","white","no","yes","768","legacy","45","11","/Users/samonemarks/Desktop/SM-subject-2.csv","legacy","9 6 2 4 1","Lentiform Loewenfeld","3.3.9","4","y","0","left","left","left","left","NA","795","2154","36201","795","NA","2","legacy","5","1024","2","48000","-16","experiment","2","even","4","384633","381373","382425","5267","114997","382427","375251","5305","78795","386636","387432","383430","7480","386635","NA","Sternberg task","50","38737","58","yes","1024"
"86.44067796610169","86.44067796610169","668.2203389830509","668.2203389830509","black","experiment","legacy","legacy","legacy","0","uniform","1","undefined","1","right","58","58","58","0","0","58","58","0","0","58","58","58","0","58","0","Sun Oct 24 16:17:41 2021","The main experiment item","yes","Sternbergtask.osexp","/Users/samonemarks/Desktop","no","mono","no","18","no","white","no","yes","768","legacy","46","11","/Users/samonemarks/Desktop/SM-subject-2.csv","legacy","8 9","Lentiform Loewenfeld","3.3.9","0","n","0","right","left","left","right","NA","688","2154","36201","688","NA","2","legacy","2","1024","2","48000","-16","experiment","2","even","5","390698","387437","388489","5267","114997","388492","375251","5305","78795","392701","393391","389494","7480","392700","NA","Sternberg task","51","39425","59","yes","1024"
"86.66666666666667","86.66666666666667","666.3333333333334","666.3333333333334","black","experiment","legacy","legacy","legacy","0","uniform","1","undefined","1","left","59","59","59","0","0","59","59","0","0","59","59","59","0","59","0","Sun Oct 24 16:17:41 2021","The main experiment item","yes","Sternbergtask.osexp","/Users/samonemarks/Desktop","no","mono","no","18","no","white","no","yes","768","legacy","47","11","/Users/samonemarks/Desktop/SM-subject-2.csv","legacy","6 7 9 3 1 2","Lentiform Loewenfeld","3.3.9","1","y","0","left","left","left","left","NA","555","2154","36201","555","NA","2","legacy","6","1024","2","48000","-16","experiment","2","even","6","396663","393395","394455","5267","114997","394459","375251","5305","78795","398665","399221","395461","7480","398665","NA","Sternberg task","52","39980","60","yes","1024"
"86.88524590163935","86.88524590163935","666.4262295081967","666.4262295081967","black","experiment","legacy","legacy","legacy","0","uniform","1","undefined","1","left","60","60","60","0","0","60","60","0","0","60","60","60","0","60","0","Sun Oct 24 16:17:41 2021","The main experiment item","yes","Sternbergtask.osexp","/Users/samonemarks/Desktop","no","mono","no","18","no","white","no","yes","768","legacy","48","11","/Users/samonemarks/Desktop/SM-subject-2.csv","legacy","7","Lentiform Loewenfeld","3.3.9","1","y","0","left","left","left","left","NA","672","2154","36201","672","NA","2","legacy","1","1024","2","48000","-16","experiment","2","even","7","402488","399226","400280","5267","114997","400282","375251","5305","78795","404491","405164","401284","7480","404491","NA","Sternberg task","53","40652","61","yes","1024"
"87.09677419354838","87.09677419354838","667.1129032258065","667.1129032258065","black","experiment","legacy","legacy","legacy","0","uniform","1","undefined","1","left","61","61","61","0","0","61","61","0","0","61","61","61","0","61","0","Sun Oct 24 16:17:41 2021","The main experiment item","yes","Sternbergtask.osexp","/Users/samonemarks/Desktop","no","mono","no","18","no","white","no","yes","768","legacy","49","11","/Users/samonemarks/Desktop/SM-subject-2.csv","legacy","6 5","Lentiform Loewenfeld","3.3.9","2","y","0","left","left","left","left","NA","709","2154","36201","709","NA","2","legacy","2","1024","2","48000","-16","experiment","2","even","5","408424","405167","406218","5267","114997","406220","375251","5305","78795","410427","411137","407222","7480","410427","NA","Sternberg task","54","41361","62","yes","1024"
"87.3015873015873","87.3015873015873","666.3015873015873","666.3015873015873","black","experiment","legacy","legacy","legacy","0","uniform","1","undefined","1","left","62","62","62","0","0","62","62","0","0","62","62","62","0","62","0","Sun Oct 24 16:17:41 2021","The main experiment item","yes","Sternbergtask.osexp","/Users/samonemarks/Desktop","no","mono","no","18","no","white","no","yes","768","legacy","50","11","/Users/samonemarks/Desktop/SM-subject-2.csv","legacy","9 3 8 2 1 4","Lentiform Loewenfeld","3.3.9","3","y","0","left","left","left","left","NA","616","2154","36201","616","NA","2","legacy","6","1024","2","48000","-16","experiment","2","even","8","414402","411142","412195","5267","114997","412197","375251","5305","78795","416404","417021","413199","7480","416404","NA","Sternberg task","55","41977","63","yes","1024"
"87.5","87.5","668.4375","668.4375","black","experiment","legacy","legacy","legacy","0","uniform","1","undefined","1","left","63","63","63","0","0","63","63","0","0","63","63","63","0","63","0","Sun Oct 24 16:17:41 2021","The main experiment item","yes","Sternbergtask.osexp","/Users/samonemarks/Desktop","no","mono","no","18","no","white","no","yes","768","legacy","51","11","/Users/samonemarks/Desktop/SM-subject-2.csv","legacy","4 3 2 5 8","Lentiform Loewenfeld","3.3.9","2","y","0","left","left","left","left","NA","803","2154","36201","803","NA","2","legacy","5","1024","2","48000","-16","experiment","2","even","3","420284","417025","418076","5267","114997","418079","375251","5305","78795","422287","423090","419081","7480","422287","NA","Sternberg task","56","42780","64","yes","1024"
"87.6923076923077","87.6923076923077","666.3538461538461","666.3538461538461","black","experiment","legacy","legacy","legacy","0","uniform","1","undefined","1","left","64","64","64","0","0","64","64","0","0","64","64","64","0","64","0","Sun Oct 24 16:17:41 2021","The main experiment item","yes","Sternbergtask.osexp","/Users/samonemarks/Desktop","no","mono","no","18","no","white","no","yes","768","legacy","52","11","/Users/samonemarks/Desktop/SM-subject-2.csv","legacy","4 6 2 5 1","Lentiform Loewenfeld","3.3.9","5","y","0","left","left","left","left","NA","533","2154","36201","533","NA","2","legacy","5","1024","2","48000","-16","experiment","2","even","1","426354","423095","424147","5267","114997","424149","375251","5305","78795","428356","428890","425151","7480","428356","NA","Sternberg task","57","43313","65","yes","1024"
"87.87878787878788","87.87878787878788","662.4242424242424","662.4242424242424","black","experiment","legacy","legacy","legacy","0","uniform","1","undefined","1","left","65","65","65","0","0","65","65","0","0","65","65","65","0","65","0","Sun Oct 24 16:17:41 2021","The main experiment item","yes","Sternbergtask.osexp","/Users/samonemarks/Desktop","no","mono","no","18","no","white","no","yes","768","legacy","53","11","/Users/samonemarks/Desktop/SM-subject-2.csv","legacy","7 6","Lentiform Loewenfeld","3.3.9","2","y","0","left","left","left","left","NA","407","2154","36201","407","NA","2","legacy","2","1024","2","48000","-16","experiment","2","even","6","432153","428894","429946","5267","114997","429949","375251","5305","78795","434156","434564","430951","7480","434156","NA","Sternberg task","58","43720","66","yes","1024"
"86.56716417910448","86.56716417910448","661.4179104477612","661.4179104477612","black","experiment","legacy","legacy","legacy","0","uniform","0","undefined","0","left","66","66","66","0","0","66","66","0","0","66","66","66","0","66","0","Sun Oct 24 16:17:41 2021","The main experiment item","yes","Sternbergtask.osexp","/Users/samonemarks/Desktop","no","mono","no","18","no","white","no","yes","768","legacy","54","11","/Users/samonemarks/Desktop/SM-subject-2.csv","legacy","1 4 9 3 2 5","Lentiform Loewenfeld","3.3.9","3","y","0","right","left","left","right","NA","595","2154","36201","595","NA","2","legacy","6","1024","2","48000","-16","experiment","2","even","9","437829","434569","435621","5267","114997","435624","375251","5305","78795","439832","440428","436626","7480","439832","NA","Sternberg task","58","44315","67","yes","1024"
"85.29411764705883","85.29411764705883","663.4117647058823","663.4117647058823","black","experiment","legacy","legacy","legacy","0","uniform","0","undefined","0","right","67","67","67","0","0","67","67","0","0","67","67","67","0","67","0","Sun Oct 24 16:17:41 2021","The main experiment item","yes","Sternbergtask.osexp","/Users/samonemarks/Desktop","no","mono","no","18","no","white","no","yes","768","legacy","55","11","/Users/samonemarks/Desktop/SM-subject-2.csv","legacy","1 7 5 2 9","Lentiform Loewenfeld","3.3.9","0","n","0","left","left","left","left","NA","797","2154","36201","797","NA","2","legacy","5","1024","2","48000","-16","experiment","2","even","3","443692","434569","441485","5267","114997","441487","440433","5305","78795","445695","446493","442489","7480","445695","NA","Sternberg task","58","45112","68","yes","1024"
"85.5072463768116","85.5072463768116","660.927536231884","660.927536231884","black","experiment","legacy","legacy","legacy","0","uniform","1","undefined","1","right","68","68","68","0","0","68","68","0","0","68","68","68","0","68","0","Sun Oct 24 16:17:41 2021","The main experiment item","yes","Sternbergtask.osexp","/Users/samonemarks/Desktop","no","mono","no","18","no","white","no","yes","768","legacy","56","11","/Users/samonemarks/Desktop/SM-subject-2.csv","legacy","3 4 2","Lentiform Loewenfeld","3.3.9","0","n","0","right","left","left","right","NA","492","2154","36201","492","NA","2","legacy","3","1024","2","48000","-16","experiment","2","even","5","449757","434569","447549","5267","114997","447551","446497","5305","78795","451759","452252","448553","7480","451759","NA","Sternberg task","59","45604","69","yes","1024"
"85.71428571428571","85.71428571428571","668.6857142857143","668.6857142857143","black","experiment","legacy","legacy","legacy","0","uniform","1","undefined","1","right","69","69","69","0","0","69","69","0","0","69","69","69","0","69","0","Sun Oct 24 16:17:41 2021","The main experiment item","yes","Sternbergtask.osexp","/Users/samonemarks/Desktop","no","mono","no","18","no","white","no","yes","768","legacy","57","11","/Users/samonemarks/Desktop/SM-subject-2.csv","legacy","1 8 7","Lentiform Loewenfeld","3.3.9","0","n","0","right","left","left","right","NA","1204","2154","36201","1204","NA","2","legacy","3","1024","2","48000","-16","experiment","2","even","4","455524","452257","453314","5267","114997","453317","446497","5305","78795","457527","458732","454320","7480","457527","NA","Sternberg task","60","46808","70","yes","1024"
"85.91549295774648","85.91549295774648","668.112676056338","668.112676056338","black","experiment","legacy","legacy","legacy","0","uniform","1","undefined","1","right","70","70","70","0","0","70","70","0","0","70","70","70","0","70","0","Sun Oct 24 16:17:41 2021","The main experiment item","yes","Sternbergtask.osexp","/Users/samonemarks/Desktop","no","mono","no","18","no","white","no","yes","768","legacy","58","11","/Users/samonemarks/Desktop/SM-subject-2.csv","legacy","6 8","Lentiform Loewenfeld","3.3.9","0","n","0","right","left","left","right","NA","628","2154","36201","628","NA","2","legacy","2","1024","2","48000","-16","experiment","2","even","9","461996","458737","459788","5267","114997","459791","446497","5305","78795","463999","464628","460793","7480","463999","NA","Sternberg task","61","47436","71","yes","1024"
"86.11111111111111","86.11111111111111","669.1666666666666","669.1666666666666","black","experiment","legacy","legacy","legacy","0","uniform","1","undefined","1","left","71","71","71","0","0","71","71","0","0","71","71","71","0","71","0","Sun Oct 24 16:17:41 2021","The main experiment item","yes","Sternbergtask.osexp","/Users/samonemarks/Desktop","no","mono","no","18","no","white","no","yes","768","legacy","59","11","/Users/samonemarks/Desktop/SM-subject-2.csv","legacy","4 1 8 7 5","Lentiform Loewenfeld","3.3.9","3","y","0","left","left","left","left","NA","744","2154","36201","744","NA","2","legacy","5","1024","2","48000","-16","experiment","2","even","8","467893","464633","465686","5267","114997","465688","446497","5305","78795","469896","470641","466690","7480","469896","NA","Sternberg task","62","48180","72","yes","1024"
"86.3013698630137","86.3013698630137","668.1780821917808","668.1780821917808","black","experiment","legacy","legacy","legacy","0","uniform","1","undefined","1","left","72","72","72","0","0","72","72","0","0","72","72","72","0","72","0","Sun Oct 24 16:17:41 2021","The main experiment item","yes","Sternbergtask.osexp","/Users/samonemarks/Desktop","no","mono","no","18","no","white","no","yes","768","legacy","60","11","/Users/samonemarks/Desktop/SM-subject-2.csv","legacy","8 9 6 1","Lentiform Loewenfeld","3.3.9","2","y","0","left","left","left","left","NA","597","2154","36201","597","NA","2","legacy","4","1024","2","48000","-16","experiment","2","even","9","473905","470645","471696","5267","114997","471698","446497","5305","78795","475907","476505","472701","7480","475907","NA","Sternberg task","63","48777","73","yes","1024"
"86.48648648648648","86.48648648648648","665.6081081081081","665.6081081081081","black","experiment","legacy","legacy","legacy","0","uniform","1","undefined","1","left","73","73","73","0","0","73","73","0","0","73","73","73","0","73","0","Sun Oct 24 16:17:41 2021","The main experiment item","yes","Sternbergtask.osexp","/Users/samonemarks/Desktop","no","mono","no","18","no","white","no","yes","768","legacy","61","11","/Users/samonemarks/Desktop/SM-subject-2.csv","legacy","2 4 8 5 1 3","Lentiform Loewenfeld","3.3.9","1","y","0","left","left","left","left","NA","478","2154","36201","478","NA","2","legacy","6","1024","2","48000","-16","experiment","2","even","2","479768","476510","477561","5267","114997","477563","446497","5305","78795","481771","482250","478565","7480","481771","NA","Sternberg task","64","49255","74","yes","1024"
"86.66666666666667","86.66666666666667","664.08","664.08","black","experiment","legacy","legacy","legacy","0","uniform","1","undefined","1","left","74","74","74","0","0","74","74","0","0","74","74","74","0","74","0","Sun Oct 24 16:17:41 2021","The main experiment item","yes","Sternbergtask.osexp","/Users/samonemarks/Desktop","no","mono","no","18","no","white","no","yes","768","legacy","62","11","/Users/samonemarks/Desktop/SM-subject-2.csv","legacy","6 2","Lentiform Loewenfeld","3.3.9","1","y","0","left","left","left","left","NA","551","2154","36201","551","NA","2","legacy","2","1024","2","48000","-16","experiment","2","even","6","485514","482254","483305","5267","114997","483307","446497","5305","78795","487516","488068","484310","7480","487516","NA","Sternberg task","65","49806","75","yes","1024"
"86.84210526315789","86.84210526315789","663.828947368421","663.828947368421","black","experiment","legacy","legacy","legacy","0","uniform","1","undefined","1","right","75","75","75","0","0","75","75","0","0","75","75","75","0","75","0","Sun Oct 24 16:17:41 2021","The main experiment item","yes","Sternbergtask.osexp","/Users/samonemarks/Desktop","no","mono","no","18","no","white","no","yes","768","legacy","63","11","/Users/samonemarks/Desktop/SM-subject-2.csv","legacy","7 3 2 8","Lentiform Loewenfeld","3.3.9","0","n","0","right","left","left","right","NA","645","2154","36201","645","NA","2","legacy","4","1024","2","48000","-16","experiment","2","even","4","491332","488073","489125","5267","114997","489127","446497","5305","78795","493335","493981","490129","7480","493335","NA","Sternberg task","66","50451","76","yes","1024"
"87.01298701298701","87.01298701298701","663.1688311688312","663.1688311688312","black","experiment","legacy","legacy","legacy","0","uniform","1","undefined","1","right","76","76","76","0","0","76","76","0","0","76","76","76","0","76","0","Sun Oct 24 16:17:41 2021","The main experiment item","yes","Sternbergtask.osexp","/Users/samonemarks/Desktop","no","mono","no","18","no","white","no","yes","768","legacy","64","11","/Users/samonemarks/Desktop/SM-subject-2.csv","legacy","9 5 3 2 8 6","Lentiform Loewenfeld","3.3.9","0","n","0","right","left","left","right","NA","613","2154","36201","613","NA","2","legacy","6","1024","2","48000","-16","experiment","2","even","7","497246","493986","495038","5267","114997","495040","446497","5305","78795","499248","499862","496042","7480","499248","NA","Sternberg task","67","51064","77","yes","1024"
"87.17948717948718","87.17948717948718","661.5","661.5","black","experiment","legacy","legacy","legacy","0","uniform","1","undefined","1","right","77","77","77","0","0","77","77","0","0","77","77","77","0","77","0","Sun Oct 24 16:17:41 2021","The main experiment item","yes","Sternbergtask.osexp","/Users/samonemarks/Desktop","no","mono","no","18","no","white","no","yes","768","legacy","65","11","/Users/samonemarks/Desktop/SM-subject-2.csv","legacy","9","Lentiform Loewenfeld","3.3.9","0","n","0","right","left","left","right","NA","533","2154","36201","533","NA","2","legacy","1","1024","2","48000","-16","experiment","2","even","6","503129","499867","500919","5267","114997","500922","446497","5305","78795","505132","505666","501925","7480","505132","NA","Sternberg task","68","51597","78","yes","1024"
"87.34177215189874","87.34177215189874","661.1392405063291","661.1392405063291","black","experiment","legacy","legacy","legacy","0","uniform","1","undefined","1","right","78","78","78","0","0","78","78","0","0","78","78","78","0","78","0","Sun Oct 24 16:17:41 2021","The main experiment item","yes","Sternbergtask.osexp","/Users/samonemarks/Desktop","no","mono","no","18","no","white","no","yes","768","legacy","66","11","/Users/samonemarks/Desktop/SM-subject-2.csv","legacy","1 4 9 2 5","Lentiform Loewenfeld","3.3.9","0","n","0","right","left","left","right","NA","633","2154","36201","633","NA","2","legacy","5","1024","2","48000","-16","experiment","2","even","7","508930","505671","506722","5267","114997","506724","446497","5305","78795","510932","511566","507726","7480","510932","NA","Sternberg task","69","52230","79","yes","1024"
"87.5","87.5","660.45","660.45","black","experiment","legacy","legacy","legacy","0","uniform","1","undefined","1","right","79","79","79","0","0","79","79","0","0","79","79","79","0","79","0","Sun Oct 24 16:17:41 2021","The main experiment item","yes","Sternbergtask.osexp","/Users/samonemarks/Desktop","no","mono","no","18","no","white","no","yes","768","legacy","67","11","/Users/samonemarks/Desktop/SM-subject-2.csv","legacy","4 8 1 2","Lentiform Loewenfeld","3.3.9","0","n","0","right","left","left","right","NA","606","2154","36201","606","NA","2","legacy","4","1024","2","48000","-16","experiment","2","even","7","514830","511571","512623","5267","114997","512625","446497","5305","78795","516833","517440","513627","7480","516833","NA","Sternberg task","70","52836","80","yes","1024"
"87.65432098765432","87.65432098765432","659.7530864197531","659.7530864197531","black","experiment","legacy","legacy","legacy","0","uniform","1","undefined","1","right","80","80","80","0","0","80","80","0","0","80","80","80","0","80","0","Sun Oct 24 16:17:41 2021","The main experiment item","yes","Sternbergtask.osexp","/Users/samonemarks/Desktop","no","mono","no","18","no","white","no","yes","768","legacy","68","11","/Users/samonemarks/Desktop/SM-subject-2.csv","legacy","7 1 8 4 9 3","Lentiform Loewenfeld","3.3.9","0","n","0","right","left","left","right","NA","604","2154","36201","604","NA","2","legacy","6","1024","2","48000","-16","experiment","2","even","6","520704","517444","518497","5267","114997","518499","446497","5305","78795","522707","523312","519501","7480","522707","NA","Sternberg task","71","53440","81","yes","1024"
"87.8048780487805","87.8048780487805","659.5243902439024","659.5243902439024","black","experiment","legacy","legacy","legacy","0","uniform","1","undefined","1","left","81","81","81","0","0","81","81","0","0","81","81","81","0","81","0","Sun Oct 24 16:17:41 2021","The main experiment item","yes","Sternbergtask.osexp","/Users/samonemarks/Desktop","no","mono","no","18","no","white","no","yes","768","legacy","69","11","/Users/samonemarks/Desktop/SM-subject-2.csv","legacy","8 9 5 7 1 6","Lentiform Loewenfeld","3.3.9","4","y","0","left","left","left","left","NA","641","2154","36201","641","NA","2","legacy","6","1024","2","48000","-16","experiment","2","even","7","526575","523317","524369","5267","114997","524371","446497","5305","78795","528578","529220","525373","7480","528578","NA","Sternberg task","72","54081","82","yes","1024"
"87.95180722891567","87.95180722891567","659.3855421686746","659.3855421686746","black","experiment","legacy","legacy","legacy","0","uniform","1","undefined","1","left","82","82","82","0","0","82","82","0","0","82","82","82","0","82","0","Sun Oct 24 16:17:41 2021","The main experiment item","yes","Sternbergtask.osexp","/Users/samonemarks/Desktop","no","mono","no","18","no","white","no","yes","768","legacy","70","11","/Users/samonemarks/Desktop/SM-subject-2.csv","legacy","7 1 8 5 6 2","Lentiform Loewenfeld","3.3.9","2","y","0","left","left","left","left","NA","648","2154","36201","648","NA","2","legacy","6","1024","2","48000","-16","experiment","2","even","1","532484","529224","530276","5267","114997","530278","446497","5305","78795","534487","535136","531280","7480","534486","NA","Sternberg task","73","54729","83","yes","1024"
"88.0952380952381","88.0952380952381","658.0833333333334","658.0833333333334","black","experiment","legacy","legacy","legacy","0","uniform","1","undefined","1","left","83","83","83","0","0","83","83","0","0","83","83","83","0","83","0","Sun Oct 24 16:17:41 2021","The main experiment item","yes","Sternbergtask.osexp","/Users/samonemarks/Desktop","no","mono","no","18","no","white","no","yes","768","legacy","71","11","/Users/samonemarks/Desktop/SM-subject-2.csv","legacy","2 5 4 8 7","Lentiform Loewenfeld","3.3.9","3","y","0","left","left","left","left","NA","550","2154","36201","550","NA","2","legacy","5","1024","2","48000","-16","experiment","2","even","4","538400","535141","536193","5267","114997","536195","446497","5305","78795","540403","540954","537197","7480","540403","NA","Sternberg task","74","55279","84","yes","1024"
"88.23529411764706","88.23529411764706","656.8352941176471","656.8352941176471","black","experiment","legacy","legacy","legacy","0","uniform","1","undefined","1","right","84","84","84","0","0","84","84","0","0","84","84","84","0","84","0","Sun Oct 24 16:17:41 2021","The main experiment item","yes","Sternbergtask.osexp","/Users/samonemarks/Desktop","no","mono","no","18","no","white","no","yes","768","legacy","72","11","/Users/samonemarks/Desktop/SM-subject-2.csv","legacy","8 4 3 9","Lentiform Loewenfeld","3.3.9","0","n","0","right","left","left","right","NA","552","2154","36201","552","NA","2","legacy","4","1024","2","48000","-16","experiment","2","even","5","544218","540958","542010","5267","114997","542012","446497","5305","78795","546220","546773","543014","7480","546220","NA","Sternberg task","75","55831","85","yes","1024"
"88.37209302325581","88.37209302325581","656.1395348837209","656.1395348837209","black","experiment","legacy","legacy","legacy","0","uniform","1","undefined","1","left","85","85","85","0","0","85","85","0","0","85","85","85","0","85","0","Sun Oct 24 16:17:41 2021","The main experiment item","yes","Sternbergtask.osexp","/Users/samonemarks/Desktop","no","mono","no","18","no","white","no","yes","768","legacy","73","11","/Users/samonemarks/Desktop/SM-subject-2.csv","legacy","4 1 5","Lentiform Loewenfeld","3.3.9","2","y","0","left","left","left","left","NA","597","2154","36201","597","NA","2","legacy","3","1024","2","48000","-16","experiment","2","even","1","550036","546777","547829","5267","114997","547831","446497","5305","78795","552040","552638","548833","7480","552039","NA","Sternberg task","76","56428","86","yes","1024"
"88.50574712643679","88.50574712643679","657","657","black","experiment","legacy","legacy","legacy","0","uniform","1","undefined","1","right","86","86","86","0","0","86","86","0","0","86","86","86","0","86","0","Sun Oct 24 16:17:41 2021","The main experiment item","yes","Sternbergtask.osexp","/Users/samonemarks/Desktop","no","mono","no","18","no","white","no","yes","768","legacy","74","11","/Users/samonemarks/Desktop/SM-subject-2.csv","legacy","1 7 5 2","Lentiform Loewenfeld","3.3.9","0","n","0","right","left","left","right","NA","731","2154","36201","731","NA","2","legacy","4","1024","2","48000","-16","experiment","2","even","3","555903","552643","553695","5267","114997","553697","446497","5305","78795","557906","558639","554700","7480","557906","NA","Sternberg task","77","57159","87","yes","1024"
"88.63636363636364","88.63636363636364","658.5227272727273","658.5227272727273","black","experiment","legacy","legacy","legacy","0","uniform","1","undefined","1","left","87","87","87","0","0","87","87","0","0","87","87","87","0","87","0","Sun Oct 24 16:17:41 2021","The main experiment item","yes","Sternbergtask.osexp","/Users/samonemarks/Desktop","no","mono","no","18","no","white","no","yes","768","legacy","75","11","/Users/samonemarks/Desktop/SM-subject-2.csv","legacy","6 9 7 4 5 1","Lentiform Loewenfeld","3.3.9","2","y","0","left","left","left","left","NA","791","2154","36201","791","NA","2","legacy","6","1024","2","48000","-16","experiment","2","even","9","561901","558643","559695","5267","114997","559697","446497","5305","78795","563905","564697","560699","7480","563904","NA","Sternberg task","78","57950","88","yes","1024"
"88.76404494382022","88.76404494382022","659.8426966292135","659.8426966292135","black","experiment","legacy","legacy","legacy","0","uniform","1","undefined","1","left","88","88","88","0","0","88","88","0","0","88","88","88","0","88","0","Sun Oct 24 16:17:41 2021","The main experiment item","yes","Sternbergtask.osexp","/Users/samonemarks/Desktop","no","mono","no","18","no","white","no","yes","768","legacy","76","11","/Users/samonemarks/Desktop/SM-subject-2.csv","legacy","2 3 7 4","Lentiform Loewenfeld","3.3.9","1","y","0","left","left","left","left","NA","776","2154","36201","776","NA","2","legacy","4","1024","2","48000","-16","experiment","2","even","2","567960","564702","565753","5267","114997","565755","446497","5305","78795","569962","570739","566757","7480","569962","NA","Sternberg task","79","58726","89","yes","1024"
"88.88888888888889","88.88888888888889","659.6888888888889","659.6888888888889","black","experiment","legacy","legacy","legacy","0","uniform","1","undefined","1","right","89","89","89","0","0","89","89","0","0","89","89","89","0","89","0","Sun Oct 24 16:17:41 2021","The main experiment item","yes","Sternbergtask.osexp","/Users/samonemarks/Desktop","no","mono","no","18","no","white","no","yes","768","legacy","77","11","/Users/samonemarks/Desktop/SM-subject-2.csv","legacy","1","Lentiform Loewenfeld","3.3.9","0","n","0","right","left","left","right","NA","646","2154","36201","646","NA","2","legacy","1","1024","2","48000","-16","experiment","2","even","7","574009","570744","571802","5267","114997","571804","446497","5305","78795","576012","576659","572806","7480","576012","NA","Sternberg task","80","59372","90","yes","1024"
"89.01098901098901","89.01098901098901","658.5714285714286","658.5714285714286","black","experiment","legacy","legacy","legacy","0","uniform","1","undefined","1","right","90","90","90","0","0","90","90","0","0","90","90","90","0","90","0","Sun Oct 24 16:17:41 2021","The main experiment item","yes","Sternbergtask.osexp","/Users/samonemarks/Desktop","no","mono","no","18","no","white","no","yes","768","legacy","78","11","/Users/samonemarks/Desktop/SM-subject-2.csv","legacy","2 8 9","Lentiform Loewenfeld","3.3.9","0","n","0","right","left","left","right","NA","558","2154","36201","558","NA","2","legacy","3","1024","2","48000","-16","experiment","2","even","6","579924","576664","577715","5267","114997","577718","446497","5305","78795","581926","582485","578721","7480","581926","NA","Sternberg task","81","59930","91","yes","1024"
"89.1304347826087","89.1304347826087","657.7173913043479","657.7173913043479","black","experiment","legacy","legacy","legacy","0","uniform","1","undefined","1","left","91","91","91","0","0","91","91","0","0","91","91","91","0","91","0","Sun Oct 24 16:17:41 2021","The main experiment item","yes","Sternbergtask.osexp","/Users/samonemarks/Desktop","no","mono","no","18","no","white","no","yes","768","legacy","79","11","/Users/samonemarks/Desktop/SM-subject-2.csv","legacy","6 9 3 1","Lentiform Loewenfeld","3.3.9","4","y","0","left","left","left","left","NA","580","2154","36201","580","NA","2","legacy","4","1024","2","48000","-16","experiment","2","even","1","585749","582490","583542","5267","114997","583544","446497","5305","78795","587752","588333","584546","7480","587752","NA","Sternberg task","82","60510","92","yes","1024"
"89.24731182795699","89.24731182795699","657.236559139785","657.236559139785","black","experiment","legacy","legacy","legacy","0","uniform","1","undefined","1","right","92","92","92","0","0","92","92","0","0","92","92","92","0","92","0","Sun Oct 24 16:17:41 2021","The main experiment item","yes","Sternbergtask.osexp","/Users/samonemarks/Desktop","no","mono","no","18","no","white","no","yes","768","legacy","80","11","/Users/samonemarks/Desktop/SM-subject-2.csv","legacy","5 9 2 3","Lentiform Loewenfeld","3.3.9","0","n","0","right","left","left","right","NA","613","2154","36201","613","NA","2","legacy","4","1024","2","48000","-16","experiment","2","even","8","591597","588337","589389","5267","114997","589391","446497","5305","78795","593599","594213","590393","7480","593599","NA","Sternberg task","83","61123","93","yes","1024"
"89.36170212765957","89.36170212765957","655.1276595744681","655.1276595744681","black","experiment","legacy","legacy","legacy","0","uniform","1","undefined","1","left","93","93","93","0","0","93","93","0","0","93","93","93","0","93","0","Sun Oct 24 16:17:41 2021","The main experiment item","yes","Sternbergtask.osexp","/Users/samonemarks/Desktop","no","mono","no","18","no","white","no","yes","768","legacy","81","11","/Users/samonemarks/Desktop/SM-subject-2.csv","legacy","3 5 9 6 2 4","Lentiform Loewenfeld","3.3.9","1","y","0","left","left","left","left","NA","459","2154","36201","459","NA","2","legacy","6","1024","2","48000","-16","experiment","2","even","3","597478","594217","595270","5267","114997","595273","446497","5305","78795","599481","599941","596275","7480","599481","NA","Sternberg task","84","61582","94","yes","1024"
"89.47368421052632","89.47368421052632","655.1052631578947","655.1052631578947","black","experiment","legacy","legacy","legacy","0","uniform","1","undefined","1","right","94","94","94","0","0","94","94","0","0","94","94","94","0","94","0","Sun Oct 24 16:17:41 2021","The main experiment item","yes","Sternbergtask.osexp","/Users/samonemarks/Desktop","no","mono","no","18","no","white","no","yes","768","legacy","82","11","/Users/samonemarks/Desktop/SM-subject-2.csv","legacy","2 5 1 4","Lentiform Loewenfeld","3.3.9","0","n","0","right","left","left","right","NA","653","2154","36201","653","NA","2","legacy","4","1024","2","48000","-16","experiment","2","even","6","603206","599946","600997","5267","114997","601000","446497","5305","78795","605208","605862","602002","7480","605208","NA","Sternberg task","85","62235","95","yes","1024"
"89.58333333333333","89.58333333333333","653.4375","653.4375","black","experiment","legacy","legacy","legacy","0","uniform","1","undefined","1","left","95","95","95","0","0","95","95","0","0","95","95","95","0","95","0","Sun Oct 24 16:17:41 2021","The main experiment item","yes","Sternbergtask.osexp","/Users/samonemarks/Desktop","no","mono","no","18","no","white","no","yes","768","legacy","83","11","/Users/samonemarks/Desktop/SM-subject-2.csv","legacy","3 4 9 6 2 9","Lentiform Loewenfeld","3.3.9","5","y","0","left","left","left","left","NA","495","2154","36201","495","NA","2","legacy","6","1024","2","48000","-16","experiment","2","even","2","609127","605867","606920","5267","114997","606922","446497","5305","78795","611130","611626","607924","7480","611130","NA","Sternberg task","86","62730","96","yes","1024"
"88.65979381443299","88.65979381443299","652.6288659793814","652.6288659793814","black","experiment","legacy","legacy","legacy","0","uniform","0","undefined","0","left","96","96","96","0","0","96","96","0","0","96","96","96","0","96","0","Sun Oct 24 16:17:41 2021","The main experiment item","yes","Sternbergtask.osexp","/Users/samonemarks/Desktop","no","mono","no","18","no","white","no","yes","768","legacy","84","11","/Users/samonemarks/Desktop/SM-subject-2.csv","legacy","8 5 3 7 4 6","Lentiform Loewenfeld","3.3.9","6","y","0","right","left","left","right","NA","575","2154","36201","575","NA","2","legacy","6","1024","2","48000","-16","experiment","2","even","6","614890","611631","612682","5267","114997","612684","446497","5305","78795","616892","617468","613686","7480","616892","NA","Sternberg task","86","63305","97","yes","1024"
"88.77551020408163","88.77551020408163","652.0612244897959","652.0612244897959","black","experiment","legacy","legacy","legacy","0","uniform","1","undefined","1","right","97","97","97","0","0","97","97","0","0","97","97","97","0","97","0","Sun Oct 24 16:17:41 2021","The main experiment item","yes","Sternbergtask.osexp","/Users/samonemarks/Desktop","no","mono","no","18","no","white","no","yes","768","legacy","85","11","/Users/samonemarks/Desktop/SM-subject-2.csv","legacy","1 6 4","Lentiform Loewenfeld","3.3.9","0","n","0","right","left","left","right","NA","597","2154","36201","597","NA","2","legacy","3","1024","2","48000","-16","experiment","2","even","7","620732","611631","618524","5267","114997","618526","617472","5305","78795","622735","623333","619529","7480","622735","NA","Sternberg task","87","63902","98","yes","1024"
"88.88888888888889","88.88888888888889","654.6464646464647","654.6464646464647","black","experiment","legacy","legacy","legacy","0","uniform","1","undefined","1","right","98","98","98","0","0","98","98","0","0","98","98","98","0","98","0","Sun Oct 24 16:17:41 2021","The main experiment item","yes","Sternbergtask.osexp","/Users/samonemarks/Desktop","no","mono","no","18","no","white","no","yes","768","legacy","86","11","/Users/samonemarks/Desktop/SM-subject-2.csv","legacy","2 8 7 9 5 3","Lentiform Loewenfeld","3.3.9","0","n","0","right","left","left","right","NA","908","2154","36201","908","NA","2","legacy","6","1024","2","48000","-16","experiment","2","even","6","626597","623338","624389","5267","114997","624392","617472","5305","78795","628600","629509","625394","7480","628600","NA","Sternberg task","88","64810","99","yes","1024"
"89","89","654.11","654.11","black","experiment","legacy","legacy","legacy","0","uniform","1","undefined","1","left","99","99","99","0","0","99","99","0","0","99","99","99","0","99","0","Sun Oct 24 16:17:41 2021","The main experiment item","yes","Sternbergtask.osexp","/Users/samonemarks/Desktop","no","mono","no","18","no","white","no","yes","768","legacy","87","11","/Users/samonemarks/Desktop/SM-subject-2.csv","legacy","3 2 1 4 7","Lentiform Loewenfeld","3.3.9","2","y","0","left","left","left","left","NA","601","2154","36201","601","NA","2","legacy","5","1024","2","48000","-16","experiment","2","even","2","632772","629513","630565","5267","114997","630567","617472","5305","78795","634775","635377","631569","7480","634775","NA","Sternberg task","89","65411","100","yes","1024"
"89.10891089108911","89.10891089108911","652.5346534653465","652.5346534653465","black","experiment","legacy","legacy","legacy","0","uniform","1","undefined","1","right","100","100","100","0","0","100","100","0","0","100","100","100","0","100","0","Sun Oct 24 16:17:41 2021","The main experiment item","yes","Sternbergtask.osexp","/Users/samonemarks/Desktop","no","mono","no","18","no","white","no","yes","768","legacy","88","11","/Users/samonemarks/Desktop/SM-subject-2.csv","legacy","2 7 5","Lentiform Loewenfeld","3.3.9","0","n","0","right","left","left","right","NA","495","2154","36201","495","NA","2","legacy","3","1024","2","48000","-16","experiment","2","even","8","638641","635381","636433","5267","114997","636435","617472","5305","78795","640643","641139","637437","7480","640643","NA","Sternberg task","90","65906","101","yes","1024"
"89.2156862745098","89.2156862745098","651.7058823529412","651.7058823529412","black","experiment","legacy","legacy","legacy","0","uniform","1","undefined","1","right","101","101","101","0","0","101","101","0","0","101","101","101","0","101","0","Sun Oct 24 16:17:41 2021","The main experiment item","yes","Sternbergtask.osexp","/Users/samonemarks/Desktop","no","mono","no","18","no","white","no","yes","768","legacy","89","11","/Users/samonemarks/Desktop/SM-subject-2.csv","legacy","8 2 1 4 5 9","Lentiform Loewenfeld","3.3.9","0","n","0","right","left","left","right","NA","568","2154","36201","568","NA","2","legacy","6","1024","2","48000","-16","experiment","2","even","7","644399","641143","642193","5267","114997","642195","617472","5305","78795","646402","646971","643197","7480","646402","NA","Sternberg task","91","66474","102","yes","1024"
"89.32038834951456","89.32038834951456","650.747572815534","650.747572815534","black","experiment","legacy","legacy","legacy","0","uniform","1","undefined","1","left","102","102","102","0","0","102","102","0","0","102","102","102","0","102","0","Sun Oct 24 16:17:41 2021","The main experiment item","yes","Sternbergtask.osexp","/Users/samonemarks/Desktop","no","mono","no","18","no","white","no","yes","768","legacy","90","11","/Users/samonemarks/Desktop/SM-subject-2.csv","legacy","2 4 6 9","Lentiform Loewenfeld","3.3.9","3","y","0","left","left","left","left","NA","553","2154","36201","553","NA","2","legacy","4","1024","2","48000","-16","experiment","2","even","6","650236","646976","648029","5267","114997","648031","617472","5305","78795","652239","652793","649033","7480","652239","NA","Sternberg task","92","67027","103","yes","1024"
"88.46153846153847","88.46153846153847","651.2211538461538","651.2211538461538","black","experiment","legacy","legacy","legacy","0","uniform","0","undefined","0","left","103","103","103","0","0","103","103","0","0","103","103","103","0","103","0","Sun Oct 24 16:17:41 2021","The main experiment item","yes","Sternbergtask.osexp","/Users/samonemarks/Desktop","no","mono","no","18","no","white","no","yes","768","legacy","91","11","/Users/samonemarks/Desktop/SM-subject-2.csv","legacy","8 1 6","Lentiform Loewenfeld","3.3.9","3","y","0","right","left","left","right","NA","700","2154","36201","700","NA","2","legacy","3","1024","2","48000","-16","experiment","2","even","6","656057","652798","653849","5267","114997","653851","617472","5305","78795","658060","658761","654854","7480","658060","NA","Sternberg task","92","67727","104","yes","1024"
"87.61904761904762","87.61904761904762","653.4857142857143","653.4857142857143","black","experiment","legacy","legacy","legacy","0","uniform","0","undefined","0","right","104","104","104","0","0","104","104","0","0","104","104","104","0","104","0","Sun Oct 24 16:17:41 2021","The main experiment item","yes","Sternbergtask.osexp","/Users/samonemarks/Desktop","no","mono","no","18","no","white","no","yes","768","legacy","92","11","/Users/samonemarks/Desktop/SM-subject-2.csv","legacy","6 2 9 3 8 4","Lentiform Loewenfeld","3.3.9","0","n","0","left","left","left","left","NA","889","2154","36201","889","NA","2","legacy","6","1024","2","48000","-16","experiment","2","even","1","662027","652798","659818","5267","114997","659821","658766","5305","78795","664030","664920","660823","7480","664030","NA","Sternberg task","92","68616","105","yes","1024"
"87.73584905660377","87.73584905660377","651.5566037735849","651.5566037735849","black","experiment","legacy","legacy","legacy","0","uniform","1","undefined","1","left","105","105","105","0","0","105","105","0","0","105","105","105","0","105","0","Sun Oct 24 16:17:41 2021","The main experiment item","yes","Sternbergtask.osexp","/Users/samonemarks/Desktop","no","mono","no","18","no","white","no","yes","768","legacy","93","11","/Users/samonemarks/Desktop/SM-subject-2.csv","legacy","8 9 5 6 7","Lentiform Loewenfeld","3.3.9","1","y","0","left","left","left","left","NA","449","2154","36201","449","NA","2","legacy","5","1024","2","48000","-16","experiment","2","even","8","668183","652798","665975","5267","114997","665978","664924","5305","78795","670186","670637","666980","7480","670186","NA","Sternberg task","93","69065","106","yes","1024"
"87.85046728971963","87.85046728971963","654.6915887850467","654.6915887850467","black","experiment","legacy","legacy","legacy","0","uniform","1","undefined","1","right","106","106","106","0","0","106","106","0","0","106","106","106","0","106","0","Sun Oct 24 16:17:41 2021","The main experiment item","yes","Sternbergtask.osexp","/Users/samonemarks/Desktop","no","mono","no","18","no","white","no","yes","768","legacy","94","11","/Users/samonemarks/Desktop/SM-subject-2.csv","legacy","4 2 7 6 1 3","Lentiform Loewenfeld","3.3.9","0","n","0","right","left","left","right","NA","987","2154","36201","987","NA","2","legacy","6","1024","2","48000","-16","experiment","2","even","8","673901","670642","671692","5267","114997","671695","664924","5305","78795","675903","676891","672697","7480","675903","NA","Sternberg task","94","70052","107","yes","1024"
"87.96296296296296","87.96296296296296","655.7777777777778","655.7777777777778","black","experiment","legacy","legacy","legacy","0","uniform","1","undefined","1","right","107","107","107","0","0","107","107","0","0","107","107","107","0","107","0","Sun Oct 24 16:17:41 2021","The main experiment item","yes","Sternbergtask.osexp","/Users/samonemarks/Desktop","no","mono","no","18","no","white","no","yes","768","legacy","95","11","/Users/samonemarks/Desktop/SM-subject-2.csv","legacy","6 9 4 5 3 2","Lentiform Loewenfeld","3.3.9","0","n","0","right","left","left","right","NA","772","2154","36201","772","NA","2","legacy","6","1024","2","48000","-16","experiment","2","even","8","680154","676895","677947","5267","114997","677949","664924","5305","78795","682157","682931","678951","7480","682157","NA","Sternberg task","95","70824","108","yes","1024"
"88.07339449541284","88.07339449541284","655.9082568807339","655.9082568807339","black","experiment","legacy","legacy","legacy","0","uniform","1","undefined","1","left","108","108","108","0","0","108","108","0","0","108","108","108","0","108","0","Sun Oct 24 16:17:41 2021","The main experiment item","yes","Sternbergtask.osexp","/Users/samonemarks/Desktop","no","mono","no","18","no","white","no","yes","768","legacy","96","11","/Users/samonemarks/Desktop/SM-subject-2.csv","legacy","8 3","Lentiform Loewenfeld","3.3.9","2","y","0","left","left","left","left","NA","670","2154","36201","670","NA","2","legacy","2","1024","2","48000","-16","experiment","2","even","3","686194","682935","683986","5267","114997","683988","664924","5305","78795","688197","688868","684990","7480","688196","NA","Sternberg task","96","71494","109","yes","1024"
"88.18181818181819","88.18181818181819","655.3090909090909","655.3090909090909","black","experiment","legacy","legacy","legacy","0","uniform","1","undefined","1","right","109","109","109","0","0","109","109","0","0","109","109","109","0","109","0","Sun Oct 24 16:17:41 2021","The main experiment item","yes","Sternbergtask.osexp","/Users/samonemarks/Desktop","no","mono","no","18","no","white","no","yes","768","legacy","97","11","/Users/samonemarks/Desktop/SM-subject-2.csv","legacy","6 7 5 9","Lentiform Loewenfeld","3.3.9","0","n","0","right","left","left","right","NA","590","2154","36201","590","NA","2","legacy","4","1024","2","48000","-16","experiment","2","even","2","692132","688872","689924","5267","114997","689926","664924","5305","78795","694135","694726","690928","7480","694134","NA","Sternberg task","97","72084","110","yes","1024"
"88.28828828828829","88.28828828828829","657.072072072072","657.072072072072","black","experiment","legacy","legacy","legacy","0","uniform","1","undefined","1","right","110","110","110","0","0","110","110","0","0","110","110","110","0","110","0","Sun Oct 24 16:17:41 2021","The main experiment item","yes","Sternbergtask.osexp","/Users/samonemarks/Desktop","no","mono","no","18","no","white","no","yes","768","legacy","98","11","/Users/samonemarks/Desktop/SM-subject-2.csv","legacy","2 3 8 5 6 7","Lentiform Loewenfeld","3.3.9","0","n","0","right","left","left","right","NA","851","2154","36201","851","NA","2","legacy","6","1024","2","48000","-16","experiment","2","even","1","697991","694731","695783","5267","114997","695785","664924","5305","78795","699993","700845","696787","7480","699993","NA","Sternberg task","98","72935","111","yes","1024"
"88.39285714285714","88.39285714285714","656.5446428571429","656.5446428571429","black","experiment","legacy","legacy","legacy","0","uniform","1","undefined","1","left","111","111","111","0","0","111","111","0","0","111","111","111","0","111","0","Sun Oct 24 16:17:41 2021","The main experiment item","yes","Sternbergtask.osexp","/Users/samonemarks/Desktop","no","mono","no","18","no","white","no","yes","768","legacy","99","11","/Users/samonemarks/Desktop/SM-subject-2.csv","legacy","3 5 4 7","Lentiform Loewenfeld","3.3.9","1","y","0","left","left","left","left","NA","598","2154","36201","598","NA","2","legacy","4","1024","2","48000","-16","experiment","2","even","3","704109","700849","701902","5267","114997","701904","664924","5305","78795","706112","706711","702906","7480","706111","NA","Sternberg task","99","73533","112","yes","1024"
"88.49557522123894","88.49557522123894","656.3097345132743","656.3097345132743","black","experiment","legacy","legacy","legacy","0","uniform","1","undefined","1","right","112","112","112","0","0","112","112","0","0","112","112","112","0","112","0","Sun Oct 24 16:17:41 2021","The main experiment item","yes","Sternbergtask.osexp","/Users/samonemarks/Desktop","no","mono","no","18","no","white","no","yes","768","legacy","100","11","/Users/samonemarks/Desktop/SM-subject-2.csv","legacy","4 2 6 9","Lentiform Loewenfeld","3.3.9","0","n","0","right","left","left","right","NA","630","2154","36201","630","NA","2","legacy","4","1024","2","48000","-16","experiment","2","even","7","709973","706715","707767","5267","114997","707769","664924","5305","78795","711976","712607","708771","7480","711976","NA","Sternberg task","100","74163","113","yes","1024"
"88.59649122807018","88.59649122807018","653.7982456140351","653.7982456140351","black","experiment","legacy","legacy","legacy","0","uniform","1","undefined","1","left","113","113","113","0","0","113","113","0","0","113","113","113","0","113","0","Sun Oct 24 16:17:41 2021","The main experiment item","yes","Sternbergtask.osexp","/Users/samonemarks/Desktop","no","mono","no","18","no","white","no","yes","768","legacy","101","11","/Users/samonemarks/Desktop/SM-subject-2.csv","legacy","3 9 6 2","Lentiform Loewenfeld","3.3.9","4","y","0","left","left","left","left","NA","370","2154","36201","370","NA","2","legacy","4","1024","2","48000","-16","experiment","2","even","2","715872","712612","713665","5267","114997","713667","664924","5305","78795","717874","718245","714669","7480","717874","NA","Sternberg task","101","74533","114","yes","1024"
"88.69565217391305","88.69565217391305","655.3217391304348","655.3217391304348","black","experiment","legacy","legacy","legacy","0","uniform","1","undefined","1","left","114","114","114","0","0","114","114","0","0","114","114","114","0","114","0","Sun Oct 24 16:17:41 2021","The main experiment item","yes","Sternbergtask.osexp","/Users/samonemarks/Desktop","no","mono","no","18","no","white","no","yes","768","legacy","102","11","/Users/samonemarks/Desktop/SM-subject-2.csv","legacy","9 5 8 1","Lentiform Loewenfeld","3.3.9","2","y","0","left","left","left","left","NA","829","2154","36201","829","NA","2","legacy","4","1024","2","48000","-16","experiment","2","even","5","721511","718250","719302","5267","114997","719305","664924","5305","78795","723513","724343","720307","7480","723513","NA","Sternberg task","102","75362","115","yes","1024"
"88.79310344827586","88.79310344827586","654.6206896551724","654.6206896551724","black","experiment","legacy","legacy","legacy","0","uniform","1","undefined","1","right","115","115","115","0","0","115","115","0","0","115","115","115","0","115","0","Sun Oct 24 16:17:41 2021","The main experiment item","yes","Sternbergtask.osexp","/Users/samonemarks/Desktop","no","mono","no","18","no","white","no","yes","768","legacy","103","11","/Users/samonemarks/Desktop/SM-subject-2.csv","legacy","8 4 3 5","Lentiform Loewenfeld","3.3.9","0","n","0","right","left","left","right","NA","574","2154","36201","574","NA","2","legacy","4","1024","2","48000","-16","experiment","2","even","6","727607","724348","725399","5267","114997","725402","664924","5305","78795","729610","730185","726404","7480","729610","NA","Sternberg task","103","75936","116","yes","1024"
"88.88888888888889","88.88888888888889","652.2222222222222","652.2222222222222","black","experiment","legacy","legacy","legacy","0","uniform","1","undefined","1","left","116","116","116","0","0","116","116","0","0","116","116","116","0","116","0","Sun Oct 24 16:17:41 2021","The main experiment item","yes","Sternbergtask.osexp","/Users/samonemarks/Desktop","no","mono","no","18","no","white","no","yes","768","legacy","104","11","/Users/samonemarks/Desktop/SM-subject-2.csv","legacy","4","Lentiform Loewenfeld","3.3.9","1","y","0","left","left","left","left","NA","374","2154","36201","374","NA","2","legacy","1","1024","2","48000","-16","experiment","2","even","4","733449","730190","731242","5267","114997","731244","664924","5305","78795","735451","735826","732246","7480","735451","NA","Sternberg task","104","76310","117","yes","1024"
"88.13559322033899","88.13559322033899","652.7796610169491","652.7796610169491","black","experiment","legacy","legacy","legacy","0","uniform","0","undefined","0","left","117","117","117","0","0","117","117","0","0","117","117","117","0","117","0","Sun Oct 24 16:17:41 2021","The main experiment item","yes","Sternbergtask.osexp","/Users/samonemarks/Desktop","no","mono","no","18","no","white","no","yes","768","legacy","105","11","/Users/samonemarks/Desktop/SM-subject-2.csv","legacy","8 5 4 7 3 1","Lentiform Loewenfeld","3.3.9","2","y","0","right","left","left","right","NA","718","2154","36201","718","NA","2","legacy","6","1024","2","48000","-16","experiment","2","even","5","739112","735831","736903","5267","114997","736907","664924","5305","78795","741115","741834","737909","7480","741115","NA","Sternberg task","104","77028","118","yes","1024"
"88.23529411764706","88.23529411764706","650.5042016806723","650.5042016806723","black","experiment","legacy","legacy","legacy","0","uniform","1","undefined","1","right","118","118","118","0","0","118","118","0","0","118","118","118","0","118","0","Sun Oct 24 16:17:41 2021","The main experiment item","yes","Sternbergtask.osexp","/Users/samonemarks/Desktop","no","mono","no","18","no","white","no","yes","768","legacy","106","11","/Users/samonemarks/Desktop/SM-subject-2.csv","legacy","4 1","Lentiform Loewenfeld","3.3.9","0","n","0","right","left","left","right","NA","382","2154","36201","382","NA","2","legacy","2","1024","2","48000","-16","experiment","2","even","6","745098","735831","742891","5267","114997","742893","741839","5305","78795","747100","747483","743895","7480","747100","NA","Sternberg task","105","77410","119","yes","1024"
