"acc","accuracy","average_response_time","avg_rt","background","block","canvas_backend","clock_backend","color_backend","compensation","coordinates","correct","correct_instruction1","correct_keyboard_response","correct_response","count_ExpSequence","count_Fixation","count_ISI","count_MemorySet","count_PracticeLoop","count_Probe","count_correctFeedback","count_experiment","count_experimentLoop","count_getting_started","count_incorrectFeedback","count_instruction1","count_instructions2","count_keyboard_response","count_logger","count_thankYou","count_welcome","datetime","description","disable_garbage_collection","experiment_file","experiment_path","font_bold","font_family","font_italic","font_size","font_underline","foreground","form_clicks","fullscreen","height","keyboard_backend","live_row","live_row_PracticeLoop","logfile","mouse_backend","numberSet","opensesame_codename","opensesame_version","posInSet","present","repeat_cycle","response","response_instruction1","response_instructions2","response_keyboard_response","response_thankYou","response_time","response_time_instruction1","response_time_instructions2","response_time_keyboard_response","response_time_thankYou","response_time_welcome","response_welcome","round_decimals","sampler_backend","setSize","sound_buf_size","sound_channels","sound_freq","sound_sample_size","start","subject_nr","subject_parity","target","time_ExpSequence","time_Fixation","time_ISI","time_MemorySet","time_PracticeLoop","time_Probe","time_correctFeedback","time_experiment","time_experimentLoop","time_getting_started","time_incorrectFeedback","time_instruction1","time_instructions2","time_keyboard_response","time_logger","time_thankYou","time_welcome","title","total_correct","total_response_time","total_responses","uniform_coordinates","width"
"100","100","577","577","black","practice","legacy","legacy","legacy","0","uniform","1","undefined","1","right","0","0","0","0","0","0","0","0","0","NA","0","0","0","0","0","0","NA","Mon Oct 17 19:48:27 2022","The main experiment item","yes","Lab 3.1.osexp","C:\Users\joey.knofczynski\Downloads","no","mono","no","18","no","white","no","yes","768","legacy","0","0","C:/Users/joey.knofczynski/Downloads/MC-subject-4.csv","legacy","5","Lentiform Loewenfeld","3.3.12","0","n","0","right","left","NA","right","NA","577","1462","NA","577","NA","NA","NA","2","legacy","1","1024","2","48000","-16","experiment","4","even","3","4243","4245","6454","5249","3997","8455","NA","2527","NA","NA","NA","2534","NA","8456","9034","NA","NA","Sternberg Task","1","577","1","yes","1024"
"100","100","527","527","black","practice","legacy","legacy","legacy","0","uniform","1","undefined","1","left","1","1","1","1","0","1","1","0","0","NA","1","0","0","1","1","0","NA","Mon Oct 17 19:48:27 2022","The main experiment item","yes","Lab 3.1.osexp","C:\Users\joey.knofczynski\Downloads","no","mono","no","18","no","white","no","yes","768","legacy","1","1","C:/Users/joey.knofczynski/Downloads/MC-subject-4.csv","legacy","1 7 9 8 5","Lentiform Loewenfeld","3.3.12","4","y","0","left","left","NA","left","NA","477","1462","NA","477","NA","NA","NA","2","legacy","5","1024","2","48000","-16","experiment","4","even","8","10131","10135","12342","11137","3997","14343","9058","2527","NA","NA","NA","2534","NA","14343","14820","NA","NA","Sternberg Task","2","1054","2","yes","1024"
"100","100","477.6666666666667","477.6666666666667","black","practice","legacy","legacy","legacy","0","uniform","1","undefined","1","right","2","2","2","2","0","2","2","0","0","NA","2","0","0","2","2","0","NA","Mon Oct 17 19:48:27 2022","The main experiment item","yes","Lab 3.1.osexp","C:\Users\joey.knofczynski\Downloads","no","mono","no","18","no","white","no","yes","768","legacy","2","2","C:/Users/joey.knofczynski/Downloads/MC-subject-4.csv","legacy","2 1","Lentiform Loewenfeld","3.3.12","0","n","0","right","left","NA","right","NA","379","1462","NA","379","NA","NA","NA","2","legacy","2","1024","2","48000","-16","experiment","4","even","5","15891","15894","18104","16899","3997","20106","14824","2527","NA","NA","NA","2534","NA","20106","20485","NA","NA","Sternberg Task","3","1433","3","yes","1024"
"100","100","453.25","453.25","black","practice","legacy","legacy","legacy","0","uniform","1","undefined","1","left","3","3","3","3","0","3","3","0","0","NA","3","0","0","3","3","0","NA","Mon Oct 17 19:48:27 2022","The main experiment item","yes","Lab 3.1.osexp","C:\Users\joey.knofczynski\Downloads","no","mono","no","18","no","white","no","yes","768","legacy","3","3","C:/Users/joey.knofczynski/Downloads/MC-subject-4.csv","legacy","6","Lentiform Loewenfeld","3.3.12","1","y","0","left","left","NA","left","NA","380","1462","NA","380","NA","NA","NA","2","legacy","1","1024","2","48000","-16","experiment","4","even","6","21554","21557","23764","22560","3997","25765","20490","2527","NA","NA","NA","2534","NA","25766","26147","NA","NA","Sternberg Task","4","1813","4","yes","1024"
"100","100","462.2","462.2","black","practice","legacy","legacy","legacy","0","uniform","1","undefined","1","left","4","4","4","4","0","4","4","0","0","NA","4","0","0","4","4","0","NA","Mon Oct 17 19:48:27 2022","The main experiment item","yes","Lab 3.1.osexp","C:\Users\joey.knofczynski\Downloads","no","mono","no","18","no","white","no","yes","768","legacy","4","4","C:/Users/joey.knofczynski/Downloads/MC-subject-4.csv","legacy","4 3 1 7 9 8","Lentiform Loewenfeld","3.3.12","1","y","0","left","left","NA","left","NA","498","1462","NA","498","NA","NA","NA","2","legacy","6","1024","2","48000","-16","experiment","4","even","4","27215","27217","29423","28219","3997","31424","26151","2527","NA","NA","NA","2534","NA","31424","31923","NA","NA","Sternberg Task","5","2311","5","yes","1024"
"100","100","454.5","454.5","black","practice","legacy","legacy","legacy","0","uniform","1","undefined","1","left","5","5","5","5","0","5","5","0","0","NA","5","0","0","5","5","0","NA","Mon Oct 17 19:48:27 2022","The main experiment item","yes","Lab 3.1.osexp","C:\Users\joey.knofczynski\Downloads","no","mono","no","18","no","white","no","yes","768","legacy","5","5","C:/Users/joey.knofczynski/Downloads/MC-subject-4.csv","legacy","1 5 2 9","Lentiform Loewenfeld","3.3.12","2","y","0","left","left","NA","left","NA","416","1462","NA","416","NA","NA","NA","2","legacy","4","1024","2","48000","-16","experiment","4","even","5","32991","32993","35201","33997","3997","37202","31927","2527","NA","NA","NA","2534","NA","37202","37619","NA","NA","Sternberg Task","6","2727","6","yes","1024"
"100","100","461.85714285714283","461.85714285714283","black","practice","legacy","legacy","legacy","0","uniform","1","undefined","1","right","6","6","6","6","0","6","6","0","0","NA","6","0","0","6","6","0","NA","Mon Oct 17 19:48:27 2022","The main experiment item","yes","Lab 3.1.osexp","C:\Users\joey.knofczynski\Downloads","no","mono","no","18","no","white","no","yes","768","legacy","6","6","C:/Users/joey.knofczynski/Downloads/MC-subject-4.csv","legacy","5 7 8 4 1 2","Lentiform Loewenfeld","3.3.12","0","n","0","right","left","NA","right","NA","506","1462","NA","506","NA","NA","NA","2","legacy","6","1024","2","48000","-16","experiment","4","even","6","38683","38686","40890","39687","3997","42892","37623","2527","NA","NA","NA","2534","NA","42892","43399","NA","NA","Sternberg Task","7","3233","7","yes","1024"
"100","100","458.5","458.5","black","practice","legacy","legacy","legacy","0","uniform","1","undefined","1","left","7","7","7","7","0","7","7","0","0","NA","7","0","0","7","7","0","NA","Mon Oct 17 19:48:27 2022","The main experiment item","yes","Lab 3.1.osexp","C:\Users\joey.knofczynski\Downloads","no","mono","no","18","no","white","no","yes","768","legacy","7","7","C:/Users/joey.knofczynski/Downloads/MC-subject-4.csv","legacy","4 8","Lentiform Loewenfeld","3.3.12","1","y","0","left","left","NA","left","NA","435","1462","NA","435","NA","NA","NA","2","legacy","2","1024","2","48000","-16","experiment","4","even","4","44464","44467","46676","45470","3997","48676","43403","2527","NA","NA","NA","2534","NA","48676","49112","NA","NA","Sternberg Task","8","3668","8","yes","1024"
"100","100","454.22222222222223","454.22222222222223","black","practice","legacy","legacy","legacy","0","uniform","1","undefined","1","right","8","8","8","8","0","8","8","0","0","NA","8","0","0","8","8","0","NA","Mon Oct 17 19:48:27 2022","The main experiment item","yes","Lab 3.1.osexp","C:\Users\joey.knofczynski\Downloads","no","mono","no","18","no","white","no","yes","768","legacy","8","8","C:/Users/joey.knofczynski/Downloads/MC-subject-4.csv","legacy","4 1 5","Lentiform Loewenfeld","3.3.12","0","n","0","right","left","NA","right","NA","420","1462","NA","420","NA","NA","NA","2","legacy","3","1024","2","48000","-16","experiment","4","even","2","50181","50184","52392","51186","3997","54393","49116","2527","NA","NA","NA","2534","NA","54393","54814","NA","NA","Sternberg Task","9","4088","9","yes","1024"
"100","100","459.3","459.3","black","practice","legacy","legacy","legacy","0","uniform","1","undefined","1","right","9","9","9","9","0","9","9","0","0","NA","9","0","0","9","9","0","NA","Mon Oct 17 19:48:27 2022","The main experiment item","yes","Lab 3.1.osexp","C:\Users\joey.knofczynski\Downloads","no","mono","no","18","no","white","no","yes","768","legacy","9","9","C:/Users/joey.knofczynski/Downloads/MC-subject-4.csv","legacy","9 6 7 4 5","Lentiform Loewenfeld","3.3.12","0","n","0","right","left","NA","right","NA","505","1462","NA","505","NA","NA","NA","2","legacy","5","1024","2","48000","-16","experiment","4","even","3","55883","55885","58093","56888","3997","60094","54819","2527","NA","NA","NA","2534","NA","60095","60601","NA","NA","Sternberg Task","10","4593","10","yes","1024"
"100","100","468.8181818181818","468.8181818181818","black","practice","legacy","legacy","legacy","0","uniform","1","undefined","1","left","10","10","10","10","0","10","10","0","0","NA","10","0","0","10","10","0","NA","Mon Oct 17 19:48:27 2022","The main experiment item","yes","Lab 3.1.osexp","C:\Users\joey.knofczynski\Downloads","no","mono","no","18","no","white","no","yes","768","legacy","10","10","C:/Users/joey.knofczynski/Downloads/MC-subject-4.csv","legacy","2 9 4","Lentiform Loewenfeld","3.3.12","3","y","0","left","left","NA","left","NA","564","1462","NA","564","NA","NA","NA","2","legacy","3","1024","2","48000","-16","experiment","4","even","4","61665","61668","63874","62669","3997","65875","60605","2527","NA","NA","NA","2534","NA","65875","66440","NA","NA","Sternberg Task","11","5157","11","yes","1024"
"100","100","462.8333333333333","462.8333333333333","black","practice","legacy","legacy","legacy","0","uniform","1","undefined","1","right","11","11","11","11","0","11","11","0","0","NA","11","0","0","11","11","0","NA","Mon Oct 17 19:48:27 2022","The main experiment item","yes","Lab 3.1.osexp","C:\Users\joey.knofczynski\Downloads","no","mono","no","18","no","white","no","yes","768","legacy","11","11","C:/Users/joey.knofczynski/Downloads/MC-subject-4.csv","legacy","3 1 9 4","Lentiform Loewenfeld","3.3.12","0","n","0","right","left","NA","right","NA","397","1462","NA","397","NA","NA","NA","2","legacy","4","1024","2","48000","-16","experiment","4","even","6","67506","67508","69716","68512","3997","71717","66444","2527","NA","NA","NA","2534","NA","71718","72116","NA","NA","Sternberg Task","12","5554","12","yes","1024"
"100","100","485.7692307692308","485.7692307692308","black","experiment","legacy","legacy","legacy","0","uniform","1","undefined","1","right","12","12","12","12","0","12","12","0","0","NA","12","0","0","12","12","0","NA","Mon Oct 17 19:48:27 2022","The main experiment item","yes","Lab 3.1.osexp","C:\Users\joey.knofczynski\Downloads","no","mono","no","18","no","white","no","yes","768","legacy","0","11","C:/Users/joey.knofczynski/Downloads/MC-subject-4.csv","legacy","7 6 4 8 1 2","Lentiform Loewenfeld","3.3.12","0","n","0","right","left","left","right","NA","761","1462","651","761","NA","NA","NA","2","legacy","6","1024","2","48000","-16","experiment","4","even","9","73850","73852","76059","74855","3997","78061","72120","2527","73791","NA","NA","2534","73140","78062","78824","NA","NA","Sternberg Task","13","6315","13","yes","1024"
"100","100","491.07142857142856","491.07142857142856","black","experiment","legacy","legacy","legacy","0","uniform","1","undefined","1","left","13","13","13","13","0","13","13","0","0","NA","13","0","0","13","13","0","NA","Mon Oct 17 19:48:27 2022","The main experiment item","yes","Lab 3.1.osexp","C:\Users\joey.knofczynski\Downloads","no","mono","no","18","no","white","no","yes","768","legacy","1","11","C:/Users/joey.knofczynski/Downloads/MC-subject-4.csv","legacy","7 8 6 3 1","Lentiform Loewenfeld","3.3.12","5","y","0","left","left","left","left","NA","560","1462","651","560","NA","NA","NA","2","legacy","5","1024","2","48000","-16","experiment","4","even","1","79897","79900","82106","80902","3997","84107","78829","2527","73791","NA","NA","2534","73140","84108","84670","NA","NA","Sternberg Task","14","6875","14","yes","1024"
"100","100","490.8666666666667","490.8666666666667","black","experiment","legacy","legacy","legacy","0","uniform","1","undefined","1","right","14","14","14","14","0","14","14","0","0","NA","14","0","0","14","14","0","NA","Mon Oct 17 19:48:27 2022","The main experiment item","yes","Lab 3.1.osexp","C:\Users\joey.knofczynski\Downloads","no","mono","no","18","no","white","no","yes","768","legacy","2","11","C:/Users/joey.knofczynski/Downloads/MC-subject-4.csv","legacy","6 2 9 3 8 4","Lentiform Loewenfeld","3.3.12","0","n","0","right","left","left","right","NA","488","1462","651","488","NA","NA","NA","2","legacy","6","1024","2","48000","-16","experiment","4","even","1","85735","85740","87947","86743","3997","89949","84673","2527","73791","NA","NA","2534","73140","89949","90437","NA","NA","Sternberg Task","15","7363","15","yes","1024"
"100","100","487.875","487.875","black","experiment","legacy","legacy","legacy","0","uniform","1","undefined","1","right","15","15","15","15","0","15","15","0","0","NA","15","0","0","15","15","0","NA","Mon Oct 17 19:48:27 2022","The main experiment item","yes","Lab 3.1.osexp","C:\Users\joey.knofczynski\Downloads","no","mono","no","18","no","white","no","yes","768","legacy","3","11","C:/Users/joey.knofczynski/Downloads/MC-subject-4.csv","legacy","2 8 7 9 5 3","Lentiform Loewenfeld","3.3.12","0","n","0","right","left","left","right","NA","443","1462","651","443","NA","NA","NA","2","legacy","6","1024","2","48000","-16","experiment","4","even","6","91502","91505","93711","92507","3997","95713","90441","2527","73791","NA","NA","2534","73140","95713","96157","NA","NA","Sternberg Task","16","7806","16","yes","1024"
"100","100","484.2352941176471","484.2352941176471","black","experiment","legacy","legacy","legacy","0","uniform","1","undefined","1","left","16","16","16","16","0","16","16","0","0","NA","16","0","0","16","16","0","NA","Mon Oct 17 19:48:27 2022","The main experiment item","yes","Lab 3.1.osexp","C:\Users\joey.knofczynski\Downloads","no","mono","no","18","no","white","no","yes","768","legacy","4","11","C:/Users/joey.knofczynski/Downloads/MC-subject-4.csv","legacy","6 7 9 3 1 2","Lentiform Loewenfeld","3.3.12","1","y","0","left","left","left","left","NA","426","1462","651","426","NA","NA","NA","2","legacy","6","1024","2","48000","-16","experiment","4","even","6","97226","97228","99433","98232","3997","101434","96161","2527","73791","NA","NA","2534","73140","101434","101862","NA","NA","Sternberg Task","17","8232","17","yes","1024"
"100","100","480.3333333333333","480.3333333333333","black","experiment","legacy","legacy","legacy","0","uniform","1","undefined","1","right","17","17","17","17","0","17","17","0","0","NA","17","0","0","17","17","0","NA","Mon Oct 17 19:48:27 2022","The main experiment item","yes","Lab 3.1.osexp","C:\Users\joey.knofczynski\Downloads","no","mono","no","18","no","white","no","yes","768","legacy","5","11","C:/Users/joey.knofczynski/Downloads/MC-subject-4.csv","legacy","1 7 5 2","Lentiform Loewenfeld","3.3.12","0","n","0","right","left","left","right","NA","414","1462","651","414","NA","NA","NA","2","legacy","4","1024","2","48000","-16","experiment","4","even","3","102930","102933","105140","103936","3997","107141","101866","2527","73791","NA","NA","2534","73140","107141","107557","NA","NA","Sternberg Task","18","8646","18","yes","1024"
"100","100","485.3157894736842","485.3157894736842","black","experiment","legacy","legacy","legacy","0","uniform","1","undefined","1","right","18","18","18","18","0","18","18","0","0","NA","18","0","0","18","18","0","NA","Mon Oct 17 19:48:27 2022","The main experiment item","yes","Lab 3.1.osexp","C:\Users\joey.knofczynski\Downloads","no","mono","no","18","no","white","no","yes","768","legacy","6","11","C:/Users/joey.knofczynski/Downloads/MC-subject-4.csv","legacy","1 4 9 2 5","Lentiform Loewenfeld","3.3.12","0","n","0","right","left","left","right","NA","575","1462","651","575","NA","NA","NA","2","legacy","5","1024","2","48000","-16","experiment","4","even","7","108625","108628","110837","109632","3997","112839","107562","2527","73791","NA","NA","2534","73140","112839","113415","NA","NA","Sternberg Task","19","9221","19","yes","1024"
"95","95","484.8","484.8","black","experiment","legacy","legacy","legacy","0","uniform","0","undefined","0","left","19","19","19","19","0","19","19","0","0","NA","19","0","0","19","19","0","NA","Mon Oct 17 19:48:27 2022","The main experiment item","yes","Lab 3.1.osexp","C:\Users\joey.knofczynski\Downloads","no","mono","no","18","no","white","no","yes","768","legacy","7","11","C:/Users/joey.knofczynski/Downloads/MC-subject-4.csv","legacy","8 5 1 3 9","Lentiform Loewenfeld","3.3.12","4","y","0","right","left","left","right","NA","475","1462","651","475","NA","NA","NA","2","legacy","5","1024","2","48000","-16","experiment","4","even","3","114480","114482","116688","115485","3997","118689","113419","2527","73791","NA","NA","2534","73140","118689","119165","NA","NA","Sternberg Task","19","9696","20","yes","1024"
"95.23809523809524","95.23809523809524","483.9047619047619","483.9047619047619","black","experiment","legacy","legacy","legacy","0","uniform","1","undefined","1","left","20","20","20","20","0","20","20","0","0","NA","20","0","0","20","20","0","NA","Mon Oct 17 19:48:27 2022","The main experiment item","yes","Lab 3.1.osexp","C:\Users\joey.knofczynski\Downloads","no","mono","no","18","no","white","no","yes","768","legacy","8","11","C:/Users/joey.knofczynski/Downloads/MC-subject-4.csv","legacy","3 9 7 6 4","Lentiform Loewenfeld","3.3.12","3","y","0","left","left","left","left","NA","466","1462","651","466","NA","NA","NA","2","legacy","5","1024","2","48000","-16","experiment","4","even","7","120231","120234","122440","121236","3997","124442","113419","2527","73791","NA","119169","2534","73140","124442","124909","NA","NA","Sternberg Task","20","10162","21","yes","1024"
"95.45454545454545","95.45454545454545","480.04545454545456","480.04545454545456","black","experiment","legacy","legacy","legacy","0","uniform","1","undefined","1","left","21","21","21","21","0","21","21","0","0","NA","21","0","0","21","21","0","NA","Mon Oct 17 19:48:27 2022","The main experiment item","yes","Lab 3.1.osexp","C:\Users\joey.knofczynski\Downloads","no","mono","no","18","no","white","no","yes","768","legacy","9","11","C:/Users/joey.knofczynski/Downloads/MC-subject-4.csv","legacy","6 5","Lentiform Loewenfeld","3.3.12","2","y","0","left","left","left","left","NA","399","1462","651","399","NA","NA","NA","2","legacy","2","1024","2","48000","-16","experiment","4","even","5","125980","125983","128188","126984","3997","130190","124913","2527","73791","NA","119169","2534","73140","130190","130590","NA","NA","Sternberg Task","21","10561","22","yes","1024"
"95.65217391304348","95.65217391304348","480.9130434782609","480.9130434782609","black","experiment","legacy","legacy","legacy","0","uniform","1","undefined","1","right","22","22","22","22","0","22","22","0","0","NA","22","0","0","22","22","0","NA","Mon Oct 17 19:48:27 2022","The main experiment item","yes","Lab 3.1.osexp","C:\Users\joey.knofczynski\Downloads","no","mono","no","18","no","white","no","yes","768","legacy","10","11","C:/Users/joey.knofczynski/Downloads/MC-subject-4.csv","legacy","7 1","Lentiform Loewenfeld","3.3.12","0","n","0","right","left","left","right","NA","500","1462","651","500","NA","NA","NA","2","legacy","2","1024","2","48000","-16","experiment","4","even","8","131655","131658","133865","132661","3997","135868","130594","2527","73791","NA","119169","2534","73140","135868","136369","NA","NA","Sternberg Task","22","11061","23","yes","1024"
"95.83333333333333","95.83333333333333","479.5","479.5","black","experiment","legacy","legacy","legacy","0","uniform","1","undefined","1","right","23","23","23","23","0","23","23","0","0","NA","23","0","0","23","23","0","NA","Mon Oct 17 19:48:27 2022","The main experiment item","yes","Lab 3.1.osexp","C:\Users\joey.knofczynski\Downloads","no","mono","no","18","no","white","no","yes","768","legacy","11","11","C:/Users/joey.knofczynski/Downloads/MC-subject-4.csv","legacy","1 6 4 3 9 7","Lentiform Loewenfeld","3.3.12","0","n","0","right","left","left","right","NA","447","1462","651","447","NA","NA","NA","2","legacy","6","1024","2","48000","-16","experiment","4","even","8","137435","137439","139644","138440","3997","141645","136373","2527","73791","NA","119169","2534","73140","141645","142093","NA","NA","Sternberg Task","23","11508","24","yes","1024"
"96","96","481.2","481.2","black","experiment","legacy","legacy","legacy","0","uniform","1","undefined","1","right","24","24","24","24","0","24","24","0","0","NA","24","0","0","24","24","0","NA","Mon Oct 17 19:48:27 2022","The main experiment item","yes","Lab 3.1.osexp","C:\Users\joey.knofczynski\Downloads","no","mono","no","18","no","white","no","yes","768","legacy","12","11","C:/Users/joey.knofczynski/Downloads/MC-subject-4.csv","legacy","1 7 8 3 9","Lentiform Loewenfeld","3.3.12","0","n","0","right","left","left","right","NA","522","1462","651","522","NA","NA","NA","2","legacy","5","1024","2","48000","-16","experiment","4","even","2","143170","143174","145380","144177","3997","147383","142098","2527","73791","NA","119169","2534","73140","147383","147907","NA","NA","Sternberg Task","24","12030","25","yes","1024"
"96.15384615384616","96.15384615384616","478.61538461538464","478.61538461538464","black","experiment","legacy","legacy","legacy","0","uniform","1","undefined","1","left","25","25","25","25","0","25","25","0","0","NA","25","0","0","25","25","0","NA","Mon Oct 17 19:48:27 2022","The main experiment item","yes","Lab 3.1.osexp","C:\Users\joey.knofczynski\Downloads","no","mono","no","18","no","white","no","yes","768","legacy","13","11","C:/Users/joey.knofczynski/Downloads/MC-subject-4.csv","legacy","3 5 7 1","Lentiform Loewenfeld","3.3.12","3","y","0","left","left","left","left","NA","414","1462","651","414","NA","NA","NA","2","legacy","4","1024","2","48000","-16","experiment","4","even","7","148975","148982","151188","149984","3997","153190","147911","2527","73791","NA","119169","2534","73140","153190","153605","NA","NA","Sternberg Task","25","12444","26","yes","1024"
"96.29629629629629","96.29629629629629","477.7037037037037","477.7037037037037","black","experiment","legacy","legacy","legacy","0","uniform","1","undefined","1","right","26","26","26","26","0","26","26","0","0","NA","26","0","0","26","26","0","NA","Mon Oct 17 19:48:27 2022","The main experiment item","yes","Lab 3.1.osexp","C:\Users\joey.knofczynski\Downloads","no","mono","no","18","no","white","no","yes","768","legacy","14","11","C:/Users/joey.knofczynski/Downloads/MC-subject-4.csv","legacy","4 2 7 6 1 3","Lentiform Loewenfeld","3.3.12","0","n","0","right","left","left","right","NA","454","1462","651","454","NA","NA","NA","2","legacy","6","1024","2","48000","-16","experiment","4","even","8","154674","154676","156883","155678","3997","158886","153609","2527","73791","NA","119169","2534","73140","158886","159341","NA","NA","Sternberg Task","26","12898","27","yes","1024"
"96.42857142857143","96.42857142857143","479.89285714285717","479.89285714285717","black","experiment","legacy","legacy","legacy","0","uniform","1","undefined","1","left","27","27","27","27","0","27","27","0","0","NA","27","0","0","27","27","0","NA","Mon Oct 17 19:48:27 2022","The main experiment item","yes","Lab 3.1.osexp","C:\Users\joey.knofczynski\Downloads","no","mono","no","18","no","white","no","yes","768","legacy","15","11","C:/Users/joey.knofczynski/Downloads/MC-subject-4.csv","legacy","6 9 3 1","Lentiform Loewenfeld","3.3.12","4","y","0","left","left","left","left","NA","539","1462","651","539","NA","NA","NA","2","legacy","4","1024","2","48000","-16","experiment","4","even","1","160411","160413","162620","161415","3997","164622","159345","2527","73791","NA","119169","2534","73140","164622","165161","NA","NA","Sternberg Task","27","13437","28","yes","1024"
"93.10344827586206","93.10344827586206","476.9310344827586","476.9310344827586","black","experiment","legacy","legacy","legacy","0","uniform","0","undefined","0","left","28","28","28","28","0","28","28","0","0","NA","28","0","0","28","28","0","NA","Mon Oct 17 19:48:27 2022","The main experiment item","yes","Lab 3.1.osexp","C:\Users\joey.knofczynski\Downloads","no","mono","no","18","no","white","no","yes","768","legacy","16","11","C:/Users/joey.knofczynski/Downloads/MC-subject-4.csv","legacy","7 2 3","Lentiform Loewenfeld","3.3.12","3","y","0","right","left","left","right","NA","394","1462","651","394","NA","NA","NA","2","legacy","3","1024","2","48000","-16","experiment","4","even","3","166230","166233","168438","167234","3997","170440","165166","2527","73791","NA","119169","2534","73140","170440","170835","NA","NA","Sternberg Task","27","13831","29","yes","1024"
"93.33333333333333","93.33333333333333","473.9","473.9","black","experiment","legacy","legacy","legacy","0","uniform","1","undefined","1","left","29","29","29","29","0","29","29","0","0","NA","29","0","0","29","29","0","NA","Mon Oct 17 19:48:27 2022","The main experiment item","yes","Lab 3.1.osexp","C:\Users\joey.knofczynski\Downloads","no","mono","no","18","no","white","no","yes","768","legacy","17","11","C:/Users/joey.knofczynski/Downloads/MC-subject-4.csv","legacy","2 3","Lentiform Loewenfeld","3.3.12","1","y","0","left","left","left","left","NA","386","1462","651","386","NA","NA","NA","2","legacy","2","1024","2","48000","-16","experiment","4","even","2","171900","171902","174108","172903","3997","176110","165166","2527","73791","NA","170839","2534","73140","176110","176497","NA","NA","Sternberg Task","28","14217","30","yes","1024"
"93.54838709677419","93.54838709677419","471.2903225806452","471.2903225806452","black","experiment","legacy","legacy","legacy","0","uniform","1","undefined","1","left","30","30","30","30","0","30","30","0","0","NA","30","0","0","30","30","0","NA","Mon Oct 17 19:48:27 2022","The main experiment item","yes","Lab 3.1.osexp","C:\Users\joey.knofczynski\Downloads","no","mono","no","18","no","white","no","yes","768","legacy","18","11","C:/Users/joey.knofczynski/Downloads/MC-subject-4.csv","legacy","6 9 7 4 5 1","Lentiform Loewenfeld","3.3.12","2","y","0","left","left","left","left","NA","393","1462","651","393","NA","NA","NA","2","legacy","6","1024","2","48000","-16","experiment","4","even","9","177565","177571","179778","178573","3997","181779","176502","2527","73791","NA","170839","2534","73140","181779","182172","NA","NA","Sternberg Task","29","14610","31","yes","1024"
"93.75","93.75","469.90625","469.90625","black","experiment","legacy","legacy","legacy","0","uniform","1","undefined","1","left","31","31","31","31","0","31","31","0","0","NA","31","0","0","31","31","0","NA","Mon Oct 17 19:48:27 2022","The main experiment item","yes","Lab 3.1.osexp","C:\Users\joey.knofczynski\Downloads","no","mono","no","18","no","white","no","yes","768","legacy","19","11","C:/Users/joey.knofczynski/Downloads/MC-subject-4.csv","legacy","9 5 3 8 4","Lentiform Loewenfeld","3.3.12","1","y","0","left","left","left","left","NA","427","1462","651","427","NA","NA","NA","2","legacy","5","1024","2","48000","-16","experiment","4","even","9","183242","183245","185451","184247","3997","187452","182178","2527","73791","NA","170839","2534","73140","187452","187880","NA","NA","Sternberg Task","30","15037","32","yes","1024"
"93.93939393939394","93.93939393939394","471.57575757575756","471.57575757575756","black","experiment","legacy","legacy","legacy","0","uniform","1","undefined","1","right","32","32","32","32","0","32","32","0","0","NA","32","0","0","32","32","0","NA","Mon Oct 17 19:48:27 2022","The main experiment item","yes","Lab 3.1.osexp","C:\Users\joey.knofczynski\Downloads","no","mono","no","18","no","white","no","yes","768","legacy","20","11","C:/Users/joey.knofczynski/Downloads/MC-subject-4.csv","legacy","4 8 1 2","Lentiform Loewenfeld","3.3.12","0","n","0","right","left","left","right","NA","525","1462","651","525","NA","NA","NA","2","legacy","4","1024","2","48000","-16","experiment","4","even","7","188950","188955","191162","189957","3997","193163","187886","2527","73791","NA","170839","2534","73140","193163","193689","NA","NA","Sternberg Task","31","15562","33","yes","1024"
"94.11764705882354","94.11764705882354","469.61764705882354","469.61764705882354","black","experiment","legacy","legacy","legacy","0","uniform","1","undefined","1","left","33","33","33","33","0","33","33","0","0","NA","33","0","0","33","33","0","NA","Mon Oct 17 19:48:27 2022","The main experiment item","yes","Lab 3.1.osexp","C:\Users\joey.knofczynski\Downloads","no","mono","no","18","no","white","no","yes","768","legacy","21","11","C:/Users/joey.knofczynski/Downloads/MC-subject-4.csv","legacy","9 3 1 2 5","Lentiform Loewenfeld","3.3.12","4","y","0","left","left","left","left","NA","405","1462","651","405","NA","NA","NA","2","legacy","5","1024","2","48000","-16","experiment","4","even","2","194759","194762","196968","195763","3997","198970","193693","2527","73791","NA","170839","2534","73140","198970","199376","NA","NA","Sternberg Task","32","15967","34","yes","1024"
"94.28571428571429","94.28571428571429","470.51428571428573","470.51428571428573","black","experiment","legacy","legacy","legacy","0","uniform","1","undefined","1","right","34","34","34","34","0","34","34","0","0","NA","34","0","0","34","34","0","NA","Mon Oct 17 19:48:27 2022","The main experiment item","yes","Lab 3.1.osexp","C:\Users\joey.knofczynski\Downloads","no","mono","no","18","no","white","no","yes","768","legacy","22","11","C:/Users/joey.knofczynski/Downloads/MC-subject-4.csv","legacy","2 5 1 4","Lentiform Loewenfeld","3.3.12","0","n","0","right","left","left","right","NA","501","1462","651","501","NA","NA","NA","2","legacy","4","1024","2","48000","-16","experiment","4","even","6","200443","200446","202652","201448","3997","204653","199380","2527","73791","NA","170839","2534","73140","204653","205154","NA","NA","Sternberg Task","33","16468","35","yes","1024"
"94.44444444444444","94.44444444444444","471.75","471.75","black","experiment","legacy","legacy","legacy","0","uniform","1","undefined","1","left","35","35","35","35","0","35","35","0","0","NA","35","0","0","35","35","0","NA","Mon Oct 17 19:48:27 2022","The main experiment item","yes","Lab 3.1.osexp","C:\Users\joey.knofczynski\Downloads","no","mono","no","18","no","white","no","yes","768","legacy","23","11","C:/Users/joey.knofczynski/Downloads/MC-subject-4.csv","legacy","3 5 9 6 2 4","Lentiform Loewenfeld","3.3.12","1","y","0","left","left","left","left","NA","515","1462","651","515","NA","NA","NA","2","legacy","6","1024","2","48000","-16","experiment","4","even","3","206224","206226","208432","207228","3997","210434","205159","2527","73791","NA","170839","2534","73140","210434","210950","NA","NA","Sternberg Task","34","16983","36","yes","1024"
"94.5945945945946","94.5945945945946","470.1621621621622","470.1621621621622","black","experiment","legacy","legacy","legacy","0","uniform","1","undefined","1","left","36","36","36","36","0","36","36","0","0","NA","36","0","0","36","36","0","NA","Mon Oct 17 19:48:27 2022","The main experiment item","yes","Lab 3.1.osexp","C:\Users\joey.knofczynski\Downloads","no","mono","no","18","no","white","no","yes","768","legacy","24","11","C:/Users/joey.knofczynski/Downloads/MC-subject-4.csv","legacy","4 9 7 8 5 3","Lentiform Loewenfeld","3.3.12","4","y","0","left","left","left","left","NA","413","1462","651","413","NA","NA","NA","2","legacy","6","1024","2","48000","-16","experiment","4","even","8","212021","212024","214233","213028","3997","216235","210955","2527","73791","NA","170839","2534","73140","216235","216650","NA","NA","Sternberg Task","35","17396","37","yes","1024"
"94.73684210526316","94.73684210526316","473.7368421052632","473.7368421052632","black","experiment","legacy","legacy","legacy","0","uniform","1","undefined","1","right","37","37","37","37","0","37","37","0","0","NA","37","0","0","37","37","0","NA","Mon Oct 17 19:48:27 2022","The main experiment item","yes","Lab 3.1.osexp","C:\Users\joey.knofczynski\Downloads","no","mono","no","18","no","white","no","yes","768","legacy","25","11","C:/Users/joey.knofczynski/Downloads/MC-subject-4.csv","legacy","6 7 5 9","Lentiform Loewenfeld","3.3.12","0","n","0","right","left","left","right","NA","606","1462","651","606","NA","NA","NA","2","legacy","4","1024","2","48000","-16","experiment","4","even","2","217721","217724","219931","218726","3997","221933","216654","2527","73791","NA","170839","2534","73140","221933","222541","NA","NA","Sternberg Task","36","18002","38","yes","1024"
"92.3076923076923","92.3076923076923","475.02564102564105","475.02564102564105","black","experiment","legacy","legacy","legacy","0","uniform","0","undefined","0","left","38","38","38","38","0","38","38","0","0","NA","38","0","0","38","38","0","NA","Mon Oct 17 19:48:27 2022","The main experiment item","yes","Lab 3.1.osexp","C:\Users\joey.knofczynski\Downloads","no","mono","no","18","no","white","no","yes","768","legacy","26","11","C:/Users/joey.knofczynski/Downloads/MC-subject-4.csv","legacy","9 5 8 1","Lentiform Loewenfeld","3.3.12","2","y","0","right","left","left","right","NA","524","1462","651","524","NA","NA","NA","2","legacy","4","1024","2","48000","-16","experiment","4","even","5","223605","223608","225813","224609","3997","227814","222545","2527","73791","NA","170839","2534","73140","227814","228340","NA","NA","Sternberg Task","36","18526","39","yes","1024"
"92.5","92.5","477.15","477.15","black","experiment","legacy","legacy","legacy","0","uniform","1","undefined","1","right","39","39","39","39","0","39","39","0","0","NA","39","0","0","39","39","0","NA","Mon Oct 17 19:48:27 2022","The main experiment item","yes","Lab 3.1.osexp","C:\Users\joey.knofczynski\Downloads","no","mono","no","18","no","white","no","yes","768","legacy","27","11","C:/Users/joey.knofczynski/Downloads/MC-subject-4.csv","legacy","8 9","Lentiform Loewenfeld","3.3.12","0","n","0","right","left","left","right","NA","560","1462","651","560","NA","NA","NA","2","legacy","2","1024","2","48000","-16","experiment","4","even","5","229405","229410","231619","230414","3997","233621","222545","2527","73791","NA","228343","2534","73140","233621","234183","NA","NA","Sternberg Task","37","19086","40","yes","1024"
"92.6829268292683","92.6829268292683","480.5609756097561","480.5609756097561","black","experiment","legacy","legacy","legacy","0","uniform","1","undefined","1","left","40","40","40","40","0","40","40","0","0","NA","40","0","0","40","40","0","NA","Mon Oct 17 19:48:27 2022","The main experiment item","yes","Lab 3.1.osexp","C:\Users\joey.knofczynski\Downloads","no","mono","no","18","no","white","no","yes","768","legacy","28","11","C:/Users/joey.knofczynski/Downloads/MC-subject-4.csv","legacy","3 9 6 2","Lentiform Loewenfeld","3.3.12","4","y","0","left","left","left","left","NA","617","1462","651","617","NA","NA","NA","2","legacy","4","1024","2","48000","-16","experiment","4","even","2","235251","235254","237462","236257","3997","239463","234188","2527","73791","NA","228343","2534","73140","239463","240080","NA","NA","Sternberg Task","38","19703","41","yes","1024"
"92.85714285714286","92.85714285714286","485.57142857142856","485.57142857142856","black","experiment","legacy","legacy","legacy","0","uniform","1","undefined","1","left","41","41","41","41","0","41","41","0","0","NA","41","0","0","41","41","0","NA","Mon Oct 17 19:48:27 2022","The main experiment item","yes","Lab 3.1.osexp","C:\Users\joey.knofczynski\Downloads","no","mono","no","18","no","white","no","yes","768","legacy","29","11","C:/Users/joey.knofczynski/Downloads/MC-subject-4.csv","legacy","3 2 1 4 7","Lentiform Loewenfeld","3.3.12","2","y","0","left","left","left","left","NA","691","1462","651","691","NA","NA","NA","2","legacy","5","1024","2","48000","-16","experiment","4","even","2","241149","241155","243360","242158","3997","245362","240085","2527","73791","NA","228343","2534","73140","245362","246054","NA","NA","Sternberg Task","39","20394","42","yes","1024"
"93.02325581395348","93.02325581395348","487.6279069767442","487.6279069767442","black","experiment","legacy","legacy","legacy","0","uniform","1","undefined","1","right","42","42","42","42","0","42","42","0","0","NA","42","0","0","42","42","0","NA","Mon Oct 17 19:48:27 2022","The main experiment item","yes","Lab 3.1.osexp","C:\Users\joey.knofczynski\Downloads","no","mono","no","18","no","white","no","yes","768","legacy","30","11","C:/Users/joey.knofczynski/Downloads/MC-subject-4.csv","legacy","1 3 2 6 9","Lentiform Loewenfeld","3.3.12","0","n","0","right","left","left","right","NA","574","1462","651","574","NA","NA","NA","2","legacy","5","1024","2","48000","-16","experiment","4","even","5","247120","247123","249332","248127","3997","251333","246059","2527","73791","NA","228343","2534","73140","251334","251909","NA","NA","Sternberg Task","40","20968","43","yes","1024"
"93.18181818181819","93.18181818181819","486.3181818181818","486.3181818181818","black","experiment","legacy","legacy","legacy","0","uniform","1","undefined","1","right","43","43","43","43","0","43","43","0","0","NA","43","0","0","43","43","0","NA","Mon Oct 17 19:48:27 2022","The main experiment item","yes","Lab 3.1.osexp","C:\Users\joey.knofczynski\Downloads","no","mono","no","18","no","white","no","yes","768","legacy","31","11","C:/Users/joey.knofczynski/Downloads/MC-subject-4.csv","legacy","5","Lentiform Loewenfeld","3.3.12","0","n","0","right","left","left","right","NA","430","1462","651","430","NA","NA","NA","2","legacy","1","1024","2","48000","-16","experiment","4","even","8","252973","252976","255185","253980","3997","257187","251913","2527","73791","NA","228343","2534","73140","257187","257617","NA","NA","Sternberg Task","41","21398","44","yes","1024"
"93.33333333333333","93.33333333333333","489.4888888888889","489.4888888888889","black","experiment","legacy","legacy","legacy","0","uniform","1","undefined","1","right","44","44","44","44","0","44","44","0","0","NA","44","0","0","44","44","0","NA","Mon Oct 17 19:48:27 2022","The main experiment item","yes","Lab 3.1.osexp","C:\Users\joey.knofczynski\Downloads","no","mono","no","18","no","white","no","yes","768","legacy","32","11","C:/Users/joey.knofczynski/Downloads/MC-subject-4.csv","legacy","2 3 8 5 6 7","Lentiform Loewenfeld","3.3.12","0","n","0","right","left","left","right","NA","629","1462","651","629","NA","NA","NA","2","legacy","6","1024","2","48000","-16","experiment","4","even","1","258684","258687","260891","259688","3997","262892","257622","2527","73791","NA","228343","2534","73140","262892","263522","NA","NA","Sternberg Task","42","22027","45","yes","1024"
"93.47826086956522","93.47826086956522","488.95652173913044","488.95652173913044","black","experiment","legacy","legacy","legacy","0","uniform","1","undefined","1","left","45","45","45","45","0","45","45","0","0","NA","45","0","0","45","45","0","NA","Mon Oct 17 19:48:27 2022","The main experiment item","yes","Lab 3.1.osexp","C:\Users\joey.knofczynski\Downloads","no","mono","no","18","no","white","no","yes","768","legacy","33","11","C:/Users/joey.knofczynski/Downloads/MC-subject-4.csv","legacy","2 8 5 1","Lentiform Loewenfeld","3.3.12","4","y","0","left","left","left","left","NA","465","1462","651","465","NA","NA","NA","2","legacy","4","1024","2","48000","-16","experiment","4","even","1","264595","264597","266805","265600","3997","268807","263531","2527","73791","NA","228343","2534","73140","268807","269273","NA","NA","Sternberg Task","43","22492","46","yes","1024"
"93.61702127659575","93.61702127659575","487.1489361702128","487.1489361702128","black","experiment","legacy","legacy","legacy","0","uniform","1","undefined","1","left","46","46","46","46","0","46","46","0","0","NA","46","0","0","46","46","0","NA","Mon Oct 17 19:48:27 2022","The main experiment item","yes","Lab 3.1.osexp","C:\Users\joey.knofczynski\Downloads","no","mono","no","18","no","white","no","yes","768","legacy","34","11","C:/Users/joey.knofczynski/Downloads/MC-subject-4.csv","legacy","3 4","Lentiform Loewenfeld","3.3.12","1","y","0","left","left","left","left","NA","404","1462","651","404","NA","NA","NA","2","legacy","2","1024","2","48000","-16","experiment","4","even","3","270338","270340","272543","271342","3997","274546","269278","2527","73791","NA","228343","2534","73140","274546","274951","NA","NA","Sternberg Task","44","22896","47","yes","1024"
"93.75","93.75","485.7291666666667","485.7291666666667","black","experiment","legacy","legacy","legacy","0","uniform","1","undefined","1","left","47","47","47","47","0","47","47","0","0","NA","47","0","0","47","47","0","NA","Mon Oct 17 19:48:27 2022","The main experiment item","yes","Lab 3.1.osexp","C:\Users\joey.knofczynski\Downloads","no","mono","no","18","no","white","no","yes","768","legacy","35","11","C:/Users/joey.knofczynski/Downloads/MC-subject-4.csv","legacy","2 4 8 5 1 3","Lentiform Loewenfeld","3.3.12","1","y","0","left","left","left","left","NA","419","1462","651","419","NA","NA","NA","2","legacy","6","1024","2","48000","-16","experiment","4","even","2","276017","276019","278226","277023","3997","280228","274955","2527","73791","NA","228343","2534","73140","280228","280648","NA","NA","Sternberg Task","45","23315","48","yes","1024"
"93.87755102040816","93.87755102040816","483.51020408163265","483.51020408163265","black","experiment","legacy","legacy","legacy","0","uniform","1","undefined","1","left","48","48","48","48","0","48","48","0","0","NA","48","0","0","48","48","0","NA","Mon Oct 17 19:48:27 2022","The main experiment item","yes","Lab 3.1.osexp","C:\Users\joey.knofczynski\Downloads","no","mono","no","18","no","white","no","yes","768","legacy","36","11","C:/Users/joey.knofczynski/Downloads/MC-subject-4.csv","legacy","8","Lentiform Loewenfeld","3.3.12","1","y","0","left","left","left","left","NA","377","1462","651","377","NA","NA","NA","2","legacy","1","1024","2","48000","-16","experiment","4","even","8","281713","281715","283920","282717","3997","285922","280653","2527","73791","NA","228343","2534","73140","285922","286301","NA","NA","Sternberg Task","46","23692","49","yes","1024"
"94","94","488.1","488.1","black","experiment","legacy","legacy","legacy","0","uniform","1","undefined","1","left","49","49","49","49","0","49","49","0","0","NA","49","0","0","49","49","0","NA","Mon Oct 17 19:48:27 2022","The main experiment item","yes","Lab 3.1.osexp","C:\Users\joey.knofczynski\Downloads","no","mono","no","18","no","white","no","yes","768","legacy","37","11","C:/Users/joey.knofczynski/Downloads/MC-subject-4.csv","legacy","8 5 3 7 4 6","Lentiform Loewenfeld","3.3.12","6","y","0","left","left","left","left","NA","713","1462","651","713","NA","NA","NA","2","legacy","6","1024","2","48000","-16","experiment","4","even","6","287367","287370","289574","288372","3997","291575","286305","2527","73791","NA","228343","2534","73140","291575","292289","NA","NA","Sternberg Task","47","24405","50","yes","1024"
"94.11764705882354","94.11764705882354","489.05882352941177","489.05882352941177","black","experiment","legacy","legacy","legacy","0","uniform","1","undefined","1","right","50","50","50","50","0","50","50","0","0","NA","50","0","0","50","50","0","NA","Mon Oct 17 19:48:27 2022","The main experiment item","yes","Lab 3.1.osexp","C:\Users\joey.knofczynski\Downloads","no","mono","no","18","no","white","no","yes","768","legacy","38","11","C:/Users/joey.knofczynski/Downloads/MC-subject-4.csv","legacy","3 9 1","Lentiform Loewenfeld","3.3.12","0","n","0","right","left","left","right","NA","537","1462","651","537","NA","NA","NA","2","legacy","3","1024","2","48000","-16","experiment","4","even","7","293358","293361","295566","294363","3997","297568","292293","2527","73791","NA","228343","2534","73140","297568","298106","NA","NA","Sternberg Task","48","24942","51","yes","1024"
"94.23076923076923","94.23076923076923","497.5769230769231","497.5769230769231","black","experiment","legacy","legacy","legacy","0","uniform","1","undefined","1","right","51","51","51","51","0","51","51","0","0","NA","51","0","0","51","51","0","NA","Mon Oct 17 19:48:27 2022","The main experiment item","yes","Lab 3.1.osexp","C:\Users\joey.knofczynski\Downloads","no","mono","no","18","no","white","no","yes","768","legacy","39","11","C:/Users/joey.knofczynski/Downloads/MC-subject-4.csv","legacy","6 9 7 3 8 2","Lentiform Loewenfeld","3.3.12","0","n","0","right","left","left","right","NA","932","1462","651","932","NA","NA","NA","2","legacy","6","1024","2","48000","-16","experiment","4","even","5","299173","299176","301381","300178","3997","303384","298110","2527","73791","NA","228343","2534","73140","303384","304317","NA","NA","Sternberg Task","49","25874","52","yes","1024"
"94.33962264150944","94.33962264150944","498.188679245283","498.188679245283","black","experiment","legacy","legacy","legacy","0","uniform","1","undefined","1","right","52","52","52","52","0","52","52","0","0","NA","52","0","0","52","52","0","NA","Mon Oct 17 19:48:27 2022","The main experiment item","yes","Lab 3.1.osexp","C:\Users\joey.knofczynski\Downloads","no","mono","no","18","no","white","no","yes","768","legacy","40","11","C:/Users/joey.knofczynski/Downloads/MC-subject-4.csv","legacy","8 4 3 9","Lentiform Loewenfeld","3.3.12","0","n","0","right","left","left","right","NA","530","1462","651","530","NA","NA","NA","2","legacy","4","1024","2","48000","-16","experiment","4","even","5","305385","305387","307594","306389","3997","309595","304321","2527","73791","NA","228343","2534","73140","309595","310127","NA","NA","Sternberg Task","50","26404","53","yes","1024"
"94.44444444444444","94.44444444444444","496.962962962963","496.962962962963","black","experiment","legacy","legacy","legacy","0","uniform","1","undefined","1","right","53","53","53","53","0","53","53","0","0","NA","53","0","0","53","53","0","NA","Mon Oct 17 19:48:27 2022","The main experiment item","yes","Lab 3.1.osexp","C:\Users\joey.knofczynski\Downloads","no","mono","no","18","no","white","no","yes","768","legacy","41","11","C:/Users/joey.knofczynski/Downloads/MC-subject-4.csv","legacy","5 7 3","Lentiform Loewenfeld","3.3.12","0","n","0","right","left","left","right","NA","432","1462","651","432","NA","NA","NA","2","legacy","3","1024","2","48000","-16","experiment","4","even","9","311193","311196","313402","312198","3997","315405","310132","2527","73791","NA","228343","2534","73140","315405","315839","NA","NA","Sternberg Task","51","26836","54","yes","1024"
"94.54545454545455","94.54545454545455","496.2909090909091","496.2909090909091","black","experiment","legacy","legacy","legacy","0","uniform","1","undefined","1","left","54","54","54","54","0","54","54","0","0","NA","54","0","0","54","54","0","NA","Mon Oct 17 19:48:27 2022","The main experiment item","yes","Lab 3.1.osexp","C:\Users\joey.knofczynski\Downloads","no","mono","no","18","no","white","no","yes","768","legacy","42","11","C:/Users/joey.knofczynski/Downloads/MC-subject-4.csv","legacy","2 4 6 9","Lentiform Loewenfeld","3.3.12","3","y","0","left","left","left","left","NA","460","1462","651","460","NA","NA","NA","2","legacy","4","1024","2","48000","-16","experiment","4","even","6","316910","316912","319119","317914","3997","321120","315844","2527","73791","NA","228343","2534","73140","321120","321581","NA","NA","Sternberg Task","52","27296","55","yes","1024"
"94.64285714285714","94.64285714285714","504.10714285714283","504.10714285714283","black","experiment","legacy","legacy","legacy","0","uniform","1","undefined","1","right","55","55","55","55","0","55","55","0","0","NA","55","0","0","55","55","0","NA","Mon Oct 17 19:48:27 2022","The main experiment item","yes","Lab 3.1.osexp","C:\Users\joey.knofczynski\Downloads","no","mono","no","18","no","white","no","yes","768","legacy","43","11","C:/Users/joey.knofczynski/Downloads/MC-subject-4.csv","legacy","4 1","Lentiform Loewenfeld","3.3.12","0","n","0","right","left","left","right","NA","934","1462","651","934","NA","NA","NA","2","legacy","2","1024","2","48000","-16","experiment","4","even","6","322652","322657","324865","323659","3997","326867","321586","2527","73791","NA","228343","2534","73140","326867","327802","NA","NA","Sternberg Task","53","28230","56","yes","1024"
"94.73684210526316","94.73684210526316","502.3333333333333","502.3333333333333","black","experiment","legacy","legacy","legacy","0","uniform","1","undefined","1","left","56","56","56","56","0","56","56","0","0","NA","56","0","0","56","56","0","NA","Mon Oct 17 19:48:27 2022","The main experiment item","yes","Lab 3.1.osexp","C:\Users\joey.knofczynski\Downloads","no","mono","no","18","no","white","no","yes","768","legacy","44","11","C:/Users/joey.knofczynski/Downloads/MC-subject-4.csv","legacy","6 2","Lentiform Loewenfeld","3.3.12","1","y","0","left","left","left","left","NA","403","1462","651","403","NA","NA","NA","2","legacy","2","1024","2","48000","-16","experiment","4","even","6","328868","328871","331078","329873","3997","333080","327805","2527","73791","NA","228343","2534","73140","333080","333485","NA","NA","Sternberg Task","54","28633","57","yes","1024"
"94.82758620689656","94.82758620689656","502.8103448275862","502.8103448275862","black","experiment","legacy","legacy","legacy","0","uniform","1","undefined","1","left","57","57","57","57","0","57","57","0","0","NA","57","0","0","57","57","0","NA","Mon Oct 17 19:48:27 2022","The main experiment item","yes","Lab 3.1.osexp","C:\Users\joey.knofczynski\Downloads","no","mono","no","18","no","white","no","yes","768","legacy","45","11","C:/Users/joey.knofczynski/Downloads/MC-subject-4.csv","legacy","4 6 5 8","Lentiform Loewenfeld","3.3.12","1","y","0","left","left","left","left","NA","530","1462","651","530","NA","NA","NA","2","legacy","4","1024","2","48000","-16","experiment","4","even","4","334568","334571","336776","335572","3997","338778","333491","2527","73791","NA","228343","2534","73140","338778","339309","NA","NA","Sternberg Task","55","29163","58","yes","1024"
"94.91525423728814","94.91525423728814","501.52542372881356","501.52542372881356","black","experiment","legacy","legacy","legacy","0","uniform","1","undefined","1","left","58","58","58","58","0","58","58","0","0","NA","58","0","0","58","58","0","NA","Mon Oct 17 19:48:27 2022","The main experiment item","yes","Lab 3.1.osexp","C:\Users\joey.knofczynski\Downloads","no","mono","no","18","no","white","no","yes","768","legacy","46","11","C:/Users/joey.knofczynski/Downloads/MC-subject-4.csv","legacy","7 6","Lentiform Loewenfeld","3.3.12","2","y","0","left","left","left","left","NA","427","1462","651","427","NA","NA","NA","2","legacy","2","1024","2","48000","-16","experiment","4","even","6","340377","340381","342588","341382","3997","344590","339314","2527","73791","NA","228343","2534","73140","344590","345017","NA","NA","Sternberg Task","56","29590","59","yes","1024"
"95","95","502.1","502.1","black","experiment","legacy","legacy","legacy","0","uniform","1","undefined","1","left","59","59","59","59","0","59","59","0","0","NA","59","0","0","59","59","0","NA","Mon Oct 17 19:48:27 2022","The main experiment item","yes","Lab 3.1.osexp","C:\Users\joey.knofczynski\Downloads","no","mono","no","18","no","white","no","yes","768","legacy","47","11","C:/Users/joey.knofczynski/Downloads/MC-subject-4.csv","legacy","4 7 6 8 2 3","Lentiform Loewenfeld","3.3.12","6","y","0","left","left","left","left","NA","536","1462","651","536","NA","NA","NA","2","legacy","6","1024","2","48000","-16","experiment","4","even","3","346098","346103","348309","347105","3997","350310","345022","2527","73791","NA","228343","2534","73140","350310","350847","NA","NA","Sternberg Task","57","30126","60","yes","1024"
"95.08196721311475","95.08196721311475","501.59016393442624","501.59016393442624","black","experiment","legacy","legacy","legacy","0","uniform","1","undefined","1","right","60","60","60","60","0","60","60","0","0","NA","60","0","0","60","60","0","NA","Mon Oct 17 19:48:27 2022","The main experiment item","yes","Lab 3.1.osexp","C:\Users\joey.knofczynski\Downloads","no","mono","no","18","no","white","no","yes","768","legacy","48","11","C:/Users/joey.knofczynski/Downloads/MC-subject-4.csv","legacy","8 6 3 4 7","Lentiform Loewenfeld","3.3.12","0","n","0","right","left","left","right","NA","471","1462","651","471","NA","NA","NA","2","legacy","5","1024","2","48000","-16","experiment","4","even","1","351914","351917","354123","352919","3997","356125","350852","2527","73791","NA","228343","2534","73140","356125","356597","NA","NA","Sternberg Task","58","30597","61","yes","1024"
"95.16129032258064","95.16129032258064","501.7741935483871","501.7741935483871","black","experiment","legacy","legacy","legacy","0","uniform","1","undefined","1","right","61","61","61","61","0","61","61","0","0","NA","61","0","0","61","61","0","NA","Mon Oct 17 19:48:27 2022","The main experiment item","yes","Lab 3.1.osexp","C:\Users\joey.knofczynski\Downloads","no","mono","no","18","no","white","no","yes","768","legacy","49","11","C:/Users/joey.knofczynski/Downloads/MC-subject-4.csv","legacy","6 9 4 5 2","Lentiform Loewenfeld","3.3.12","0","n","0","right","left","left","right","NA","513","1462","651","513","NA","NA","NA","2","legacy","5","1024","2","48000","-16","experiment","4","even","1","357663","357665","359869","358667","3997","361870","356602","2527","73791","NA","228343","2534","73140","361871","362385","NA","NA","Sternberg Task","59","31110","62","yes","1024"
"95.23809523809524","95.23809523809524","501.85714285714283","501.85714285714283","black","experiment","legacy","legacy","legacy","0","uniform","1","undefined","1","left","62","62","62","62","0","62","62","0","0","NA","62","0","0","62","62","0","NA","Mon Oct 17 19:48:27 2022","The main experiment item","yes","Lab 3.1.osexp","C:\Users\joey.knofczynski\Downloads","no","mono","no","18","no","white","no","yes","768","legacy","50","11","C:/Users/joey.knofczynski/Downloads/MC-subject-4.csv","legacy","9 6 2 4 1","Lentiform Loewenfeld","3.3.12","4","y","0","left","left","left","left","NA","507","1462","651","507","NA","NA","NA","2","legacy","5","1024","2","48000","-16","experiment","4","even","4","363455","363458","365664","364459","3997","367665","362391","2527","73791","NA","228343","2534","73140","367665","368173","NA","NA","Sternberg Task","60","31617","63","yes","1024"
"95.3125","95.3125","500.234375","500.234375","black","experiment","legacy","legacy","legacy","0","uniform","1","undefined","1","left","63","63","63","63","0","63","63","0","0","NA","63","0","0","63","63","0","NA","Mon Oct 17 19:48:27 2022","The main experiment item","yes","Lab 3.1.osexp","C:\Users\joey.knofczynski\Downloads","no","mono","no","18","no","white","no","yes","768","legacy","51","11","C:/Users/joey.knofczynski/Downloads/MC-subject-4.csv","legacy","4 1 8 7 5","Lentiform Loewenfeld","3.3.12","3","y","0","left","left","left","left","NA","398","1462","651","398","NA","NA","NA","2","legacy","5","1024","2","48000","-16","experiment","4","even","8","369238","369241","371446","370243","3997","373447","368177","2527","73791","NA","228343","2534","73140","373447","373846","NA","NA","Sternberg Task","61","32015","64","yes","1024"
"95.38461538461539","95.38461538461539","498.5692307692308","498.5692307692308","black","experiment","legacy","legacy","legacy","0","uniform","1","undefined","1","left","64","64","64","64","0","64","64","0","0","NA","64","0","0","64","64","0","NA","Mon Oct 17 19:48:27 2022","The main experiment item","yes","Lab 3.1.osexp","C:\Users\joey.knofczynski\Downloads","no","mono","no","18","no","white","no","yes","768","legacy","52","11","C:/Users/joey.knofczynski/Downloads/MC-subject-4.csv","legacy","9 4 2","Lentiform Loewenfeld","3.3.12","1","y","0","left","left","left","left","NA","392","1462","651","392","NA","NA","NA","2","legacy","3","1024","2","48000","-16","experiment","4","even","9","374913","374916","377121","375918","3997","379122","373850","2527","73791","NA","228343","2534","73140","379122","379515","NA","NA","Sternberg Task","62","32407","65","yes","1024"
"95.45454545454545","95.45454545454545","496.8636363636364","496.8636363636364","black","experiment","legacy","legacy","legacy","0","uniform","1","undefined","1","left","65","65","65","65","0","65","65","0","0","NA","65","0","0","65","65","0","NA","Mon Oct 17 19:48:27 2022","The main experiment item","yes","Lab 3.1.osexp","C:\Users\joey.knofczynski\Downloads","no","mono","no","18","no","white","no","yes","768","legacy","53","11","C:/Users/joey.knofczynski/Downloads/MC-subject-4.csv","legacy","8 7 3","Lentiform Loewenfeld","3.3.12","1","y","0","left","left","left","left","NA","386","1462","651","386","NA","NA","NA","2","legacy","3","1024","2","48000","-16","experiment","4","even","8","380584","380588","382795","381590","3997","384797","379520","2527","73791","NA","228343","2534","73140","384797","385186","NA","NA","Sternberg Task","63","32793","66","yes","1024"
"95.5223880597015","95.5223880597015","498.65671641791045","498.65671641791045","black","experiment","legacy","legacy","legacy","0","uniform","1","undefined","1","right","66","66","66","66","0","66","66","0","0","NA","66","0","0","66","66","0","NA","Mon Oct 17 19:48:27 2022","The main experiment item","yes","Lab 3.1.osexp","C:\Users\joey.knofczynski\Downloads","no","mono","no","18","no","white","no","yes","768","legacy","54","11","C:/Users/joey.knofczynski/Downloads/MC-subject-4.csv","legacy","8 5 7 3 6","Lentiform Loewenfeld","3.3.12","0","n","0","right","left","left","right","NA","617","1462","651","617","NA","NA","NA","2","legacy","5","1024","2","48000","-16","experiment","4","even","9","386252","386256","388463","387258","3997","390464","385191","2527","73791","NA","228343","2534","73140","390464","391082","NA","NA","Sternberg Task","64","33410","67","yes","1024"
"95.58823529411765","95.58823529411765","497.8382352941176","497.8382352941176","black","experiment","legacy","legacy","legacy","0","uniform","1","undefined","1","left","67","67","67","67","0","67","67","0","0","NA","67","0","0","67","67","0","NA","Mon Oct 17 19:48:27 2022","The main experiment item","yes","Lab 3.1.osexp","C:\Users\joey.knofczynski\Downloads","no","mono","no","18","no","white","no","yes","768","legacy","55","11","C:/Users/joey.knofczynski/Downloads/MC-subject-4.csv","legacy","8 9 5 7 1 6","Lentiform Loewenfeld","3.3.12","4","y","0","left","left","left","left","NA","443","1462","651","443","NA","NA","NA","2","legacy","6","1024","2","48000","-16","experiment","4","even","7","392158","392162","394369","393164","3997","396371","391087","2527","73791","NA","228343","2534","73140","396371","396815","NA","NA","Sternberg Task","65","33853","68","yes","1024"
"95.65217391304348","95.65217391304348","501.1449275362319","501.1449275362319","black","experiment","legacy","legacy","legacy","0","uniform","1","undefined","1","right","68","68","68","68","0","68","68","0","0","NA","68","0","0","68","68","0","NA","Mon Oct 17 19:48:27 2022","The main experiment item","yes","Lab 3.1.osexp","C:\Users\joey.knofczynski\Downloads","no","mono","no","18","no","white","no","yes","768","legacy","56","11","C:/Users/joey.knofczynski/Downloads/MC-subject-4.csv","legacy","1 5 3 2 8","Lentiform Loewenfeld","3.3.12","0","n","0","right","left","left","right","NA","726","1462","651","726","NA","NA","NA","2","legacy","5","1024","2","48000","-16","experiment","4","even","4","397882","397885","400091","398887","3997","402094","396821","2527","73791","NA","228343","2534","73140","402094","402821","NA","NA","Sternberg Task","66","34579","69","yes","1024"
"95.71428571428571","95.71428571428571","501.64285714285717","501.64285714285717","black","experiment","legacy","legacy","legacy","0","uniform","1","undefined","1","right","69","69","69","69","0","69","69","0","0","NA","69","0","0","69","69","0","NA","Mon Oct 17 19:48:27 2022","The main experiment item","yes","Lab 3.1.osexp","C:\Users\joey.knofczynski\Downloads","no","mono","no","18","no","white","no","yes","768","legacy","57","11","C:/Users/joey.knofczynski/Downloads/MC-subject-4.csv","legacy","8 4 3 5","Lentiform Loewenfeld","3.3.12","0","n","0","right","left","left","right","NA","536","1462","651","536","NA","NA","NA","2","legacy","4","1024","2","48000","-16","experiment","4","even","6","403889","403894","406099","404895","3997","408101","402825","2527","73791","NA","228343","2534","73140","408101","408638","NA","NA","Sternberg Task","67","35115","70","yes","1024"
"95.77464788732394","95.77464788732394","500.6056338028169","500.6056338028169","black","experiment","legacy","legacy","legacy","0","uniform","1","undefined","1","right","70","70","70","70","0","70","70","0","0","NA","70","0","0","70","70","0","NA","Mon Oct 17 19:48:27 2022","The main experiment item","yes","Lab 3.1.osexp","C:\Users\joey.knofczynski\Downloads","no","mono","no","18","no","white","no","yes","768","legacy","58","11","C:/Users/joey.knofczynski/Downloads/MC-subject-4.csv","legacy","7 8 6 1","Lentiform Loewenfeld","3.3.12","0","n","0","right","left","left","right","NA","428","1462","651","428","NA","NA","NA","2","legacy","4","1024","2","48000","-16","experiment","4","even","3","409706","409709","411915","410710","3997","413917","408642","2527","73791","NA","228343","2534","73140","413918","414347","NA","NA","Sternberg Task","68","35543","71","yes","1024"
"95.83333333333333","95.83333333333333","500.6111111111111","500.6111111111111","black","experiment","legacy","legacy","legacy","0","uniform","1","undefined","1","left","71","71","71","71","0","71","71","0","0","NA","71","0","0","71","71","0","NA","Mon Oct 17 19:48:27 2022","The main experiment item","yes","Lab 3.1.osexp","C:\Users\joey.knofczynski\Downloads","no","mono","no","18","no","white","no","yes","768","legacy","59","11","C:/Users/joey.knofczynski/Downloads/MC-subject-4.csv","legacy","7 8 4 6 9 5","Lentiform Loewenfeld","3.3.12","4","y","0","left","left","left","left","NA","501","1462","651","501","NA","NA","NA","2","legacy","6","1024","2","48000","-16","experiment","4","even","6","415421","415424","417630","416426","3997","419632","414352","2527","73791","NA","228343","2534","73140","419632","420134","NA","NA","Sternberg Task","69","36044","72","yes","1024"
"95.89041095890411","95.89041095890411","500.26027397260276","500.26027397260276","black","experiment","legacy","legacy","legacy","0","uniform","1","undefined","1","right","72","72","72","72","0","72","72","0","0","NA","72","0","0","72","72","0","NA","Mon Oct 17 19:48:27 2022","The main experiment item","yes","Lab 3.1.osexp","C:\Users\joey.knofczynski\Downloads","no","mono","no","18","no","white","no","yes","768","legacy","60","11","C:/Users/joey.knofczynski/Downloads/MC-subject-4.csv","legacy","2 6 4 3 9","Lentiform Loewenfeld","3.3.12","0","n","0","right","left","left","right","NA","475","1462","651","475","NA","NA","NA","2","legacy","5","1024","2","48000","-16","experiment","4","even","1","421206","421209","423416","422211","3997","425417","420138","2527","73791","NA","228343","2534","73140","425419","425894","NA","NA","Sternberg Task","70","36519","73","yes","1024"
"95.94594594594595","95.94594594594595","499.5","499.5","black","experiment","legacy","legacy","legacy","0","uniform","1","undefined","1","left","73","73","73","73","0","73","73","0","0","NA","73","0","0","73","73","0","NA","Mon Oct 17 19:48:27 2022","The main experiment item","yes","Lab 3.1.osexp","C:\Users\joey.knofczynski\Downloads","no","mono","no","18","no","white","no","yes","768","legacy","61","11","C:/Users/joey.knofczynski/Downloads/MC-subject-4.csv","legacy","2 5 4 8 7","Lentiform Loewenfeld","3.3.12","3","y","0","left","left","left","left","NA","444","1462","651","444","NA","NA","NA","2","legacy","5","1024","2","48000","-16","experiment","4","even","4","426965","426968","429173","427970","3997","431177","425899","2527","73791","NA","228343","2534","73140","431177","431622","NA","NA","Sternberg Task","71","36963","74","yes","1024"
"96","96","501.48","501.48","black","experiment","legacy","legacy","legacy","0","uniform","1","undefined","1","right","74","74","74","74","0","74","74","0","0","NA","74","0","0","74","74","0","NA","Mon Oct 17 19:48:27 2022","The main experiment item","yes","Lab 3.1.osexp","C:\Users\joey.knofczynski\Downloads","no","mono","no","18","no","white","no","yes","768","legacy","62","11","C:/Users/joey.knofczynski/Downloads/MC-subject-4.csv","legacy","7 1 8 4 9 3","Lentiform Loewenfeld","3.3.12","0","n","0","right","left","left","right","NA","648","1462","651","648","NA","NA","NA","2","legacy","6","1024","2","48000","-16","experiment","4","even","6","432687","432690","434896","433692","3997","436897","431626","2527","73791","NA","228343","2534","73140","436898","437547","NA","NA","Sternberg Task","72","37611","75","yes","1024"
"96.05263157894737","96.05263157894737","503.25","503.25","black","experiment","legacy","legacy","legacy","0","uniform","1","undefined","1","right","75","75","75","75","0","75","75","0","0","NA","75","0","0","75","75","0","NA","Mon Oct 17 19:48:27 2022","The main experiment item","yes","Lab 3.1.osexp","C:\Users\joey.knofczynski\Downloads","no","mono","no","18","no","white","no","yes","768","legacy","63","11","C:/Users/joey.knofczynski/Downloads/MC-subject-4.csv","legacy","1 7 5 2 9","Lentiform Loewenfeld","3.3.12","0","n","0","right","left","left","right","NA","636","1462","651","636","NA","NA","NA","2","legacy","5","1024","2","48000","-16","experiment","4","even","3","438633","438637","440841","439638","3997","442842","437551","2527","73791","NA","228343","2534","73140","442842","443479","NA","NA","Sternberg Task","73","38247","76","yes","1024"
"96.1038961038961","96.1038961038961","502.84415584415586","502.84415584415586","black","experiment","legacy","legacy","legacy","0","uniform","1","undefined","1","right","76","76","76","76","0","76","76","0","0","NA","76","0","0","76","76","0","NA","Mon Oct 17 19:48:27 2022","The main experiment item","yes","Lab 3.1.osexp","C:\Users\joey.knofczynski\Downloads","no","mono","no","18","no","white","no","yes","768","legacy","64","11","C:/Users/joey.knofczynski/Downloads/MC-subject-4.csv","legacy","5 9 2 3","Lentiform Loewenfeld","3.3.12","0","n","0","right","left","left","right","NA","472","1462","651","472","NA","NA","NA","2","legacy","4","1024","2","48000","-16","experiment","4","even","8","444545","444548","446753","445550","3997","448754","443483","2527","73791","NA","228343","2534","73140","448754","449226","NA","NA","Sternberg Task","74","38719","77","yes","1024"
"96.15384615384616","96.15384615384616","501.9230769230769","501.9230769230769","black","experiment","legacy","legacy","legacy","0","uniform","1","undefined","1","left","77","77","77","77","0","77","77","0","0","NA","77","0","0","77","77","0","NA","Mon Oct 17 19:48:27 2022","The main experiment item","yes","Lab 3.1.osexp","C:\Users\joey.knofczynski\Downloads","no","mono","no","18","no","white","no","yes","768","legacy","65","11","C:/Users/joey.knofczynski/Downloads/MC-subject-4.csv","legacy","2 6 1 7 4","Lentiform Loewenfeld","3.3.12","2","y","0","left","left","left","left","NA","431","1462","651","431","NA","NA","NA","2","legacy","5","1024","2","48000","-16","experiment","4","even","6","450293","450296","452503","451298","3997","454505","449231","2527","73791","NA","228343","2534","73140","454505","454938","NA","NA","Sternberg Task","75","39150","78","yes","1024"
"96.20253164556962","96.20253164556962","501","501","black","experiment","legacy","legacy","legacy","0","uniform","1","undefined","1","right","78","78","78","78","0","78","78","0","0","NA","78","0","0","78","78","0","NA","Mon Oct 17 19:48:27 2022","The main experiment item","yes","Lab 3.1.osexp","C:\Users\joey.knofczynski\Downloads","no","mono","no","18","no","white","no","yes","768","legacy","66","11","C:/Users/joey.knofczynski/Downloads/MC-subject-4.csv","legacy","3 4 2","Lentiform Loewenfeld","3.3.12","0","n","0","right","left","left","right","NA","429","1462","651","429","NA","NA","NA","2","legacy","3","1024","2","48000","-16","experiment","4","even","5","456005","456008","458214","457010","3997","460217","454942","2527","73791","NA","228343","2534","73140","460217","460647","NA","NA","Sternberg Task","76","39579","79","yes","1024"
"96.25","96.25","500.05","500.05","black","experiment","legacy","legacy","legacy","0","uniform","1","undefined","1","left","79","79","79","79","0","79","79","0","0","NA","79","0","0","79","79","0","NA","Mon Oct 17 19:48:27 2022","The main experiment item","yes","Lab 3.1.osexp","C:\Users\joey.knofczynski\Downloads","no","mono","no","18","no","white","no","yes","768","legacy","67","11","C:/Users/joey.knofczynski/Downloads/MC-subject-4.csv","legacy","9 3 8 2 1 4","Lentiform Loewenfeld","3.3.12","3","y","0","left","left","left","left","NA","425","1462","651","425","NA","NA","NA","2","legacy","6","1024","2","48000","-16","experiment","4","even","8","461713","461719","463926","462722","3997","465927","460651","2527","73791","NA","228343","2534","73140","465928","466355","NA","NA","Sternberg Task","77","40004","80","yes","1024"
"96.29629629629629","96.29629629629629","500.85185185185185","500.85185185185185","black","experiment","legacy","legacy","legacy","0","uniform","1","undefined","1","right","80","80","80","80","0","80","80","0","0","NA","80","0","0","80","80","0","NA","Mon Oct 17 19:48:27 2022","The main experiment item","yes","Lab 3.1.osexp","C:\Users\joey.knofczynski\Downloads","no","mono","no","18","no","white","no","yes","768","legacy","68","11","C:/Users/joey.knofczynski/Downloads/MC-subject-4.csv","legacy","7 3 2 8","Lentiform Loewenfeld","3.3.12","0","n","0","right","left","left","right","NA","565","1462","651","565","NA","NA","NA","2","legacy","4","1024","2","48000","-16","experiment","4","even","4","467424","467427","469633","468429","3997","471634","466360","2527","73791","NA","228343","2534","73140","471634","472201","NA","NA","Sternberg Task","78","40569","81","yes","1024"
"96.34146341463415","96.34146341463415","500.0975609756098","500.0975609756098","black","experiment","legacy","legacy","legacy","0","uniform","1","undefined","1","left","81","81","81","81","0","81","81","0","0","NA","81","0","0","81","81","0","NA","Mon Oct 17 19:48:27 2022","The main experiment item","yes","Lab 3.1.osexp","C:\Users\joey.knofczynski\Downloads","no","mono","no","18","no","white","no","yes","768","legacy","69","11","C:/Users/joey.knofczynski/Downloads/MC-subject-4.csv","legacy","3 5 4 7","Lentiform Loewenfeld","3.3.12","1","y","0","left","left","left","left","NA","439","1462","651","439","NA","NA","NA","2","legacy","4","1024","2","48000","-16","experiment","4","even","3","473269","473272","475479","474274","3997","477480","472206","2527","73791","NA","228343","2534","73140","477480","477922","NA","NA","Sternberg Task","79","41008","82","yes","1024"
"96.3855421686747","96.3855421686747","499.27710843373495","499.27710843373495","black","experiment","legacy","legacy","legacy","0","uniform","1","undefined","1","left","82","82","82","82","0","82","82","0","0","NA","82","0","0","82","82","0","NA","Mon Oct 17 19:48:27 2022","The main experiment item","yes","Lab 3.1.osexp","C:\Users\joey.knofczynski\Downloads","no","mono","no","18","no","white","no","yes","768","legacy","70","11","C:/Users/joey.knofczynski/Downloads/MC-subject-4.csv","legacy","4 3 2 5 8","Lentiform Loewenfeld","3.3.12","2","y","0","left","left","left","left","NA","432","1462","651","432","NA","NA","NA","2","legacy","5","1024","2","48000","-16","experiment","4","even","3","478988","478991","481194","479993","3997","483196","477927","2527","73791","NA","228343","2534","73140","483196","483629","NA","NA","Sternberg Task","80","41440","83","yes","1024"
"96.42857142857143","96.42857142857143","500.7261904761905","500.7261904761905","black","experiment","legacy","legacy","legacy","0","uniform","1","undefined","1","right","83","83","83","83","0","83","83","0","0","NA","83","0","0","83","83","0","NA","Mon Oct 17 19:48:27 2022","The main experiment item","yes","Lab 3.1.osexp","C:\Users\joey.knofczynski\Downloads","no","mono","no","18","no","white","no","yes","768","legacy","71","11","C:/Users/joey.knofczynski/Downloads/MC-subject-4.csv","legacy","5 3 8 7 2 4","Lentiform Loewenfeld","3.3.12","0","n","0","right","left","left","right","NA","621","1462","651","621","NA","NA","NA","2","legacy","6","1024","2","48000","-16","experiment","4","even","9","484700","484704","486909","485705","3997","488910","483633","2527","73791","NA","228343","2534","73140","488910","489532","NA","NA","Sternberg Task","81","42061","84","yes","1024"
"96.47058823529412","96.47058823529412","502.2705882352941","502.2705882352941","black","experiment","legacy","legacy","legacy","0","uniform","1","undefined","1","left","84","84","84","84","0","84","84","0","0","NA","84","0","0","84","84","0","NA","Mon Oct 17 19:48:27 2022","The main experiment item","yes","Lab 3.1.osexp","C:\Users\joey.knofczynski\Downloads","no","mono","no","18","no","white","no","yes","768","legacy","72","11","C:/Users/joey.knofczynski/Downloads/MC-subject-4.csv","legacy","7 1 8 5 6 2","Lentiform Loewenfeld","3.3.12","2","y","0","left","left","left","left","NA","632","1462","651","632","NA","NA","NA","2","legacy","6","1024","2","48000","-16","experiment","4","even","1","490602","490605","492812","491607","3997","494813","489538","2527","73791","NA","228343","2534","73140","494813","495447","NA","NA","Sternberg Task","82","42693","85","yes","1024"
"96.51162790697674","96.51162790697674","504.4418604651163","504.4418604651163","black","experiment","legacy","legacy","legacy","0","uniform","1","undefined","1","right","85","85","85","85","0","85","85","0","0","NA","85","0","0","85","85","0","NA","Mon Oct 17 19:48:27 2022","The main experiment item","yes","Lab 3.1.osexp","C:\Users\joey.knofczynski\Downloads","no","mono","no","18","no","white","no","yes","768","legacy","73","11","C:/Users/joey.knofczynski/Downloads/MC-subject-4.csv","legacy","6 8 4","Lentiform Loewenfeld","3.3.12","0","n","0","right","left","left","right","NA","689","1462","651","689","NA","NA","NA","2","legacy","3","1024","2","48000","-16","experiment","4","even","1","496521","496526","498730","497527","3997","500732","495455","2527","73791","NA","228343","2534","73140","500732","501423","NA","NA","Sternberg Task","83","43382","86","yes","1024"
"96.55172413793103","96.55172413793103","503.55172413793105","503.55172413793105","black","experiment","legacy","legacy","legacy","0","uniform","1","undefined","1","left","86","86","86","86","0","86","86","0","0","NA","86","0","0","86","86","0","NA","Mon Oct 17 19:48:27 2022","The main experiment item","yes","Lab 3.1.osexp","C:\Users\joey.knofczynski\Downloads","no","mono","no","18","no","white","no","yes","768","legacy","74","11","C:/Users/joey.knofczynski/Downloads/MC-subject-4.csv","legacy","7","Lentiform Loewenfeld","3.3.12","1","y","0","left","left","left","left","NA","427","1462","651","427","NA","NA","NA","2","legacy","1","1024","2","48000","-16","experiment","4","even","7","502490","502494","504700","503495","3997","506701","501427","2527","73791","NA","228343","2534","73140","506701","507129","NA","NA","Sternberg Task","84","43809","87","yes","1024"
"95.45454545454545","95.45454545454545","505.70454545454544","505.70454545454544","black","experiment","legacy","legacy","legacy","0","uniform","0","undefined","0","left","87","87","87","87","0","87","87","0","0","NA","87","0","0","87","87","0","NA","Mon Oct 17 19:48:27 2022","The main experiment item","yes","Lab 3.1.osexp","C:\Users\joey.knofczynski\Downloads","no","mono","no","18","no","white","no","yes","768","legacy","75","11","C:/Users/joey.knofczynski/Downloads/MC-subject-4.csv","legacy","5 7 3 6 2","Lentiform Loewenfeld","3.3.12","5","y","0","right","left","left","right","NA","693","1462","651","693","NA","NA","NA","2","legacy","5","1024","2","48000","-16","experiment","4","even","2","508199","508201","510409","509205","3997","512411","507135","2527","73791","NA","228343","2534","73140","512411","513108","NA","NA","Sternberg Task","84","44502","88","yes","1024"
"95.50561797752809","95.50561797752809","506.9438202247191","506.9438202247191","black","experiment","legacy","legacy","legacy","0","uniform","1","undefined","1","right","88","88","88","88","0","88","88","0","0","NA","88","0","0","88","88","0","NA","Mon Oct 17 19:48:27 2022","The main experiment item","yes","Lab 3.1.osexp","C:\Users\joey.knofczynski\Downloads","no","mono","no","18","no","white","no","yes","768","legacy","76","11","C:/Users/joey.knofczynski/Downloads/MC-subject-4.csv","legacy","2 7 5","Lentiform Loewenfeld","3.3.12","0","n","0","right","left","left","right","NA","616","1462","651","616","NA","NA","NA","2","legacy","3","1024","2","48000","-16","experiment","4","even","8","514176","514179","516385","515180","3997","518387","507135","2527","73791","NA","513113","2534","73140","518387","519006","NA","NA","Sternberg Task","85","45118","89","yes","1024"
"95.55555555555556","95.55555555555556","506.1","506.1","black","experiment","legacy","legacy","legacy","0","uniform","1","undefined","1","left","89","89","89","89","0","89","89","0","0","NA","89","0","0","89","89","0","NA","Mon Oct 17 19:48:27 2022","The main experiment item","yes","Lab 3.1.osexp","C:\Users\joey.knofczynski\Downloads","no","mono","no","18","no","white","no","yes","768","legacy","77","11","C:/Users/joey.knofczynski/Downloads/MC-subject-4.csv","legacy","9 1 7 2","Lentiform Loewenfeld","3.3.12","2","y","0","left","left","left","left","NA","431","1462","651","431","NA","NA","NA","2","legacy","4","1024","2","48000","-16","experiment","4","even","1","520075","520078","522284","521081","3997","524286","519010","2527","73791","NA","513113","2534","73140","524286","524719","NA","NA","Sternberg Task","86","45549","90","yes","1024"
"95.6043956043956","95.6043956043956","506.0659340659341","506.0659340659341","black","experiment","legacy","legacy","legacy","0","uniform","1","undefined","1","right","90","90","90","90","0","90","90","0","0","NA","90","0","0","90","90","0","NA","Mon Oct 17 19:48:27 2022","The main experiment item","yes","Lab 3.1.osexp","C:\Users\joey.knofczynski\Downloads","no","mono","no","18","no","white","no","yes","768","legacy","78","11","C:/Users/joey.knofczynski/Downloads/MC-subject-4.csv","legacy","9 5 3 2 8 6","Lentiform Loewenfeld","3.3.12","0","n","0","right","left","left","right","NA","503","1462","651","503","NA","NA","NA","2","legacy","6","1024","2","48000","-16","experiment","4","even","7","525790","525793","527998","526795","3997","530001","524723","2527","73791","NA","513113","2534","73140","530001","530505","NA","NA","Sternberg Task","87","46052","91","yes","1024"
"95.65217391304348","95.65217391304348","504.8695652173913","504.8695652173913","black","experiment","legacy","legacy","legacy","0","uniform","1","undefined","1","left","91","91","91","91","0","91","91","0","0","NA","91","0","0","91","91","0","NA","Mon Oct 17 19:48:27 2022","The main experiment item","yes","Lab 3.1.osexp","C:\Users\joey.knofczynski\Downloads","no","mono","no","18","no","white","no","yes","768","legacy","79","11","C:/Users/joey.knofczynski/Downloads/MC-subject-4.csv","legacy","4","Lentiform Loewenfeld","3.3.12","1","y","0","left","left","left","left","NA","396","1462","651","396","NA","NA","NA","2","legacy","1","1024","2","48000","-16","experiment","4","even","4","531577","531582","533789","532585","3997","535790","530509","2527","73791","NA","513113","2534","73140","535790","536187","NA","NA","Sternberg Task","88","46448","92","yes","1024"
"95.6989247311828","95.6989247311828","504.03225806451616","504.03225806451616","black","experiment","legacy","legacy","legacy","0","uniform","1","undefined","1","right","92","92","92","92","0","92","92","0","0","NA","92","0","0","92","92","0","NA","Mon Oct 17 19:48:27 2022","The main experiment item","yes","Lab 3.1.osexp","C:\Users\joey.knofczynski\Downloads","no","mono","no","18","no","white","no","yes","768","legacy","80","11","C:/Users/joey.knofczynski/Downloads/MC-subject-4.csv","legacy","2 8 6 3 1","Lentiform Loewenfeld","3.3.12","0","n","0","right","left","left","right","NA","427","1462","651","427","NA","NA","NA","2","legacy","5","1024","2","48000","-16","experiment","4","even","7","537258","537261","539467","538264","3997","541469","536191","2527","73791","NA","513113","2534","73140","541469","541897","NA","NA","Sternberg Task","89","46875","93","yes","1024"
"95.74468085106383","95.74468085106383","503.6276595744681","503.6276595744681","black","experiment","legacy","legacy","legacy","0","uniform","1","undefined","1","right","93","93","93","93","0","93","93","0","0","NA","93","0","0","93","93","0","NA","Mon Oct 17 19:48:27 2022","The main experiment item","yes","Lab 3.1.osexp","C:\Users\joey.knofczynski\Downloads","no","mono","no","18","no","white","no","yes","768","legacy","81","11","C:/Users/joey.knofczynski/Downloads/MC-subject-4.csv","legacy","2 8 9 4 1","Lentiform Loewenfeld","3.3.12","0","n","0","right","left","left","right","NA","466","1462","651","466","NA","NA","NA","2","legacy","5","1024","2","48000","-16","experiment","4","even","5","542965","542968","545173","543970","3997","547175","541901","2527","73791","NA","513113","2534","73140","547175","547643","NA","NA","Sternberg Task","90","47341","94","yes","1024"
"95.78947368421052","95.78947368421052","502.5157894736842","502.5157894736842","black","experiment","legacy","legacy","legacy","0","uniform","1","undefined","1","right","94","94","94","94","0","94","94","0","0","NA","94","0","0","94","94","0","NA","Mon Oct 17 19:48:27 2022","The main experiment item","yes","Lab 3.1.osexp","C:\Users\joey.knofczynski\Downloads","no","mono","no","18","no","white","no","yes","768","legacy","82","11","C:/Users/joey.knofczynski/Downloads/MC-subject-4.csv","legacy","7 9","Lentiform Loewenfeld","3.3.12","0","n","0","right","left","left","right","NA","398","1462","651","398","NA","NA","NA","2","legacy","2","1024","2","48000","-16","experiment","4","even","1","548709","548714","550920","549715","3997","552921","547648","2527","73791","NA","513113","2534","73140","552921","553321","NA","NA","Sternberg Task","91","47739","95","yes","1024"
"95.83333333333333","95.83333333333333","505.2395833333333","505.2395833333333","black","experiment","legacy","legacy","legacy","0","uniform","1","undefined","1","left","95","95","95","95","0","95","95","0","0","NA","95","0","0","95","95","0","NA","Mon Oct 17 19:48:27 2022","The main experiment item","yes","Lab 3.1.osexp","C:\Users\joey.knofczynski\Downloads","no","mono","no","18","no","white","no","yes","768","legacy","83","11","C:/Users/joey.knofczynski/Downloads/MC-subject-4.csv","legacy","8 5 4 7 3 1","Lentiform Loewenfeld","3.3.12","2","y","0","left","left","left","left","NA","764","1462","651","764","NA","NA","NA","2","legacy","6","1024","2","48000","-16","experiment","4","even","5","554387","554390","556597","555393","3997","558598","553326","2527","73791","NA","513113","2534","73140","558598","559363","NA","NA","Sternberg Task","92","48503","96","yes","1024"
"95.87628865979381","95.87628865979381","504.88659793814435","504.88659793814435","black","experiment","legacy","legacy","legacy","0","uniform","1","undefined","1","right","96","96","96","96","0","96","96","0","0","NA","96","0","0","96","96","0","NA","Mon Oct 17 19:48:27 2022","The main experiment item","yes","Lab 3.1.osexp","C:\Users\joey.knofczynski\Downloads","no","mono","no","18","no","white","no","yes","768","legacy","84","11","C:/Users/joey.knofczynski/Downloads/MC-subject-4.csv","legacy","7 9 1 6","Lentiform Loewenfeld","3.3.12","0","n","0","right","left","left","right","NA","471","1462","651","471","NA","NA","NA","2","legacy","4","1024","2","48000","-16","experiment","4","even","4","560432","560435","562642","561437","3997","564644","559368","2527","73791","NA","513113","2534","73140","564644","565116","NA","NA","Sternberg Task","93","48974","97","yes","1024"
"95.91836734693878","95.91836734693878","503.9387755102041","503.9387755102041","black","experiment","legacy","legacy","legacy","0","uniform","1","undefined","1","right","97","97","97","97","0","97","97","0","0","NA","97","0","0","97","97","0","NA","Mon Oct 17 19:48:27 2022","The main experiment item","yes","Lab 3.1.osexp","C:\Users\joey.knofczynski\Downloads","no","mono","no","18","no","white","no","yes","768","legacy","85","11","C:/Users/joey.knofczynski/Downloads/MC-subject-4.csv","legacy","1 8 7","Lentiform Loewenfeld","3.3.12","0","n","0","right","left","left","right","NA","412","1462","651","412","NA","NA","NA","2","legacy","3","1024","2","48000","-16","experiment","4","even","4","566187","566190","568396","567191","3997","570398","565121","2527","73791","NA","513113","2534","73140","570398","570811","NA","NA","Sternberg Task","94","49386","98","yes","1024"
"95.95959595959596","95.95959595959596","503.55555555555554","503.55555555555554","black","experiment","legacy","legacy","legacy","0","uniform","1","undefined","1","right","98","98","98","98","0","98","98","0","0","NA","98","0","0","98","98","0","NA","Mon Oct 17 19:48:27 2022","The main experiment item","yes","Lab 3.1.osexp","C:\Users\joey.knofczynski\Downloads","no","mono","no","18","no","white","no","yes","768","legacy","86","11","C:/Users/joey.knofczynski/Downloads/MC-subject-4.csv","legacy","1 6 4","Lentiform Loewenfeld","3.3.12","0","n","0","right","left","left","right","NA","466","1462","651","466","NA","NA","NA","2","legacy","3","1024","2","48000","-16","experiment","4","even","7","571879","571882","574087","572883","3997","576090","570815","2527","73791","NA","513113","2534","73140","576090","576557","NA","NA","Sternberg Task","95","49852","99","yes","1024"
"96","96","504.5","504.5","black","experiment","legacy","legacy","legacy","0","uniform","1","undefined","1","left","99","99","99","99","0","99","99","0","0","NA","99","0","0","99","99","0","NA","Mon Oct 17 19:48:27 2022","The main experiment item","yes","Lab 3.1.osexp","C:\Users\joey.knofczynski\Downloads","no","mono","no","18","no","white","no","yes","768","legacy","87","11","C:/Users/joey.knofczynski/Downloads/MC-subject-4.csv","legacy","1 4 9 3 2 5","Lentiform Loewenfeld","3.3.12","3","y","0","left","left","left","left","NA","598","1462","651","598","NA","NA","NA","2","legacy","6","1024","2","48000","-16","experiment","4","even","9","577625","577628","579834","578630","3997","581836","576562","2527","73791","NA","513113","2534","73140","581836","582435","NA","NA","Sternberg Task","96","50450","100","yes","1024"
"96.03960396039604","96.03960396039604","504.84158415841586","504.84158415841586","black","experiment","legacy","legacy","legacy","0","uniform","1","undefined","1","left","100","100","100","100","0","100","100","0","0","NA","100","0","0","100","100","0","NA","Mon Oct 17 19:48:27 2022","The main experiment item","yes","Lab 3.1.osexp","C:\Users\joey.knofczynski\Downloads","no","mono","no","18","no","white","no","yes","768","legacy","88","11","C:/Users/joey.knofczynski/Downloads/MC-subject-4.csv","legacy","7 4 2 6 3 5","Lentiform Loewenfeld","3.3.12","6","y","0","left","left","left","left","NA","539","1462","651","539","NA","NA","NA","2","legacy","6","1024","2","48000","-16","experiment","4","even","5","583502","583505","585713","584508","3997","587714","582440","2527","73791","NA","513113","2534","73140","587714","588254","NA","NA","Sternberg Task","97","50989","101","yes","1024"
"96.07843137254902","96.07843137254902","503.8235294117647","503.8235294117647","black","experiment","legacy","legacy","legacy","0","uniform","1","undefined","1","left","101","101","101","101","0","101","101","0","0","NA","101","0","0","101","101","0","NA","Mon Oct 17 19:48:27 2022","The main experiment item","yes","Lab 3.1.osexp","C:\Users\joey.knofczynski\Downloads","no","mono","no","18","no","white","no","yes","768","legacy","89","11","C:/Users/joey.knofczynski/Downloads/MC-subject-4.csv","legacy","5 2 6","Lentiform Loewenfeld","3.3.12","2","y","0","left","left","left","left","NA","401","1462","651","401","NA","NA","NA","2","legacy","3","1024","2","48000","-16","experiment","4","even","2","589319","589325","591532","590327","3997","593533","588258","2527","73791","NA","513113","2534","73140","593533","593935","NA","NA","Sternberg Task","98","51390","102","yes","1024"
"96.11650485436893","96.11650485436893","502.90291262135923","502.90291262135923","black","experiment","legacy","legacy","legacy","0","uniform","1","undefined","1","left","102","102","102","102","0","102","102","0","0","NA","102","0","0","102","102","0","NA","Mon Oct 17 19:48:27 2022","The main experiment item","yes","Lab 3.1.osexp","C:\Users\joey.knofczynski\Downloads","no","mono","no","18","no","white","no","yes","768","legacy","90","11","C:/Users/joey.knofczynski/Downloads/MC-subject-4.csv","legacy","8 3","Lentiform Loewenfeld","3.3.12","2","y","0","left","left","left","left","NA","409","1462","651","409","NA","NA","NA","2","legacy","2","1024","2","48000","-16","experiment","4","even","3","595004","595007","597214","596010","3997","599215","593940","2527","73791","NA","513113","2534","73140","599215","599625","NA","NA","Sternberg Task","99","51799","103","yes","1024"
"96.15384615384616","96.15384615384616","502.1442307692308","502.1442307692308","black","experiment","legacy","legacy","legacy","0","uniform","1","undefined","1","left","103","103","103","103","0","103","103","0","0","NA","103","0","0","103","103","0","NA","Mon Oct 17 19:48:27 2022","The main experiment item","yes","Lab 3.1.osexp","C:\Users\joey.knofczynski\Downloads","no","mono","no","18","no","white","no","yes","768","legacy","91","11","C:/Users/joey.knofczynski/Downloads/MC-subject-4.csv","legacy","5 2 9 6 1 7","Lentiform Loewenfeld","3.3.12","3","y","0","left","left","left","left","NA","424","1462","651","424","NA","NA","NA","2","legacy","6","1024","2","48000","-16","experiment","4","even","9","600691","600693","602900","601697","3997","604902","599629","2527","73791","NA","513113","2534","73140","604902","605327","NA","NA","Sternberg Task","100","52223","104","yes","1024"
"96.19047619047619","96.19047619047619","502.7047619047619","502.7047619047619","black","experiment","legacy","legacy","legacy","0","uniform","1","undefined","1","right","104","104","104","104","0","104","104","0","0","NA","104","0","0","104","104","0","NA","Mon Oct 17 19:48:27 2022","The main experiment item","yes","Lab 3.1.osexp","C:\Users\joey.knofczynski\Downloads","no","mono","no","18","no","white","no","yes","768","legacy","92","11","C:/Users/joey.knofczynski/Downloads/MC-subject-4.csv","legacy","9 7 4 5 8","Lentiform Loewenfeld","3.3.12","0","n","0","right","left","left","right","NA","561","1462","651","561","NA","NA","NA","2","legacy","5","1024","2","48000","-16","experiment","4","even","6","606395","606398","608606","607402","3997","610607","605330","2527","73791","NA","513113","2534","73140","610608","611170","NA","NA","Sternberg Task","101","52784","105","yes","1024"
"96.22641509433963","96.22641509433963","506.57547169811323","506.57547169811323","black","experiment","legacy","legacy","legacy","0","uniform","1","undefined","1","right","105","105","105","105","0","105","105","0","0","NA","105","0","0","105","105","0","NA","Mon Oct 17 19:48:27 2022","The main experiment item","yes","Lab 3.1.osexp","C:\Users\joey.knofczynski\Downloads","no","mono","no","18","no","white","no","yes","768","legacy","93","11","C:/Users/joey.knofczynski/Downloads/MC-subject-4.csv","legacy","1 4 3 6 5","Lentiform Loewenfeld","3.3.12","0","n","0","right","left","left","right","NA","913","1462","651","913","NA","NA","NA","2","legacy","5","1024","2","48000","-16","experiment","4","even","8","612236","612238","614445","613240","3997","616446","611174","2527","73791","NA","513113","2534","73140","616446","617360","NA","NA","Sternberg Task","102","53697","106","yes","1024"
"96.26168224299066","96.26168224299066","505.69158878504675","505.69158878504675","black","experiment","legacy","legacy","legacy","0","uniform","1","undefined","1","left","106","106","106","106","0","106","106","0","0","NA","106","0","0","106","106","0","NA","Mon Oct 17 19:48:27 2022","The main experiment item","yes","Lab 3.1.osexp","C:\Users\joey.knofczynski\Downloads","no","mono","no","18","no","white","no","yes","768","legacy","94","11","C:/Users/joey.knofczynski/Downloads/MC-subject-4.csv","legacy","6 1 2","Lentiform Loewenfeld","3.3.12","3","y","0","left","left","left","left","NA","412","1462","651","412","NA","NA","NA","2","legacy","3","1024","2","48000","-16","experiment","4","even","2","618428","618430","620636","619431","3997","622637","617365","2527","73791","NA","513113","2534","73140","622637","623049","NA","NA","Sternberg Task","103","54109","107","yes","1024"
"96.29629629629629","96.29629629629629","505.77777777777777","505.77777777777777","black","experiment","legacy","legacy","legacy","0","uniform","1","undefined","1","right","107","107","107","107","0","107","107","0","0","NA","107","0","0","107","107","0","NA","Mon Oct 17 19:48:27 2022","The main experiment item","yes","Lab 3.1.osexp","C:\Users\joey.knofczynski\Downloads","no","mono","no","18","no","white","no","yes","768","legacy","95","11","C:/Users/joey.knofczynski/Downloads/MC-subject-4.csv","legacy","1 4 9 3","Lentiform Loewenfeld","3.3.12","0","n","0","right","left","left","right","NA","515","1462","651","515","NA","NA","NA","2","legacy","4","1024","2","48000","-16","experiment","4","even","5","624116","624123","626329","625126","3997","628330","623053","2527","73791","NA","513113","2534","73140","628330","628846","NA","NA","Sternberg Task","104","54624","108","yes","1024"
"96.3302752293578","96.3302752293578","509.1651376146789","509.1651376146789","black","experiment","legacy","legacy","legacy","0","uniform","1","undefined","1","left","108","108","108","108","0","108","108","0","0","NA","108","0","0","108","108","0","NA","Mon Oct 17 19:48:27 2022","The main experiment item","yes","Lab 3.1.osexp","C:\Users\joey.knofczynski\Downloads","no","mono","no","18","no","white","no","yes","768","legacy","96","11","C:/Users/joey.knofczynski/Downloads/MC-subject-4.csv","legacy","3 4 9 6 2 9","Lentiform Loewenfeld","3.3.12","5","y","0","left","left","left","left","NA","875","1462","651","875","NA","NA","NA","2","legacy","6","1024","2","48000","-16","experiment","4","even","2","629915","629918","632124","630919","3997","634127","628856","2527","73791","NA","513113","2534","73140","634127","635004","NA","NA","Sternberg Task","105","55499","109","yes","1024"
"96.36363636363636","96.36363636363636","509.3818181818182","509.3818181818182","black","experiment","legacy","legacy","legacy","0","uniform","1","undefined","1","right","109","109","109","109","0","109","109","0","0","NA","109","0","0","109","109","0","NA","Mon Oct 17 19:48:27 2022","The main experiment item","yes","Lab 3.1.osexp","C:\Users\joey.knofczynski\Downloads","no","mono","no","18","no","white","no","yes","768","legacy","97","11","C:/Users/joey.knofczynski/Downloads/MC-subject-4.csv","legacy","8 5 4 2 9 6","Lentiform Loewenfeld","3.3.12","0","n","0","right","left","left","right","NA","533","1462","651","533","NA","NA","NA","2","legacy","6","1024","2","48000","-16","experiment","4","even","3","636076","636079","638286","637082","3997","640288","635009","2527","73791","NA","513113","2534","73140","640288","640823","NA","NA","Sternberg Task","106","56032","110","yes","1024"
"96.3963963963964","96.3963963963964","509.3063063063063","509.3063063063063","black","experiment","legacy","legacy","legacy","0","uniform","1","undefined","1","right","110","110","110","110","0","110","110","0","0","NA","110","0","0","110","110","0","NA","Mon Oct 17 19:48:27 2022","The main experiment item","yes","Lab 3.1.osexp","C:\Users\joey.knofczynski\Downloads","no","mono","no","18","no","white","no","yes","768","legacy","98","11","C:/Users/joey.knofczynski/Downloads/MC-subject-4.csv","legacy","3 4 9 6 7 8","Lentiform Loewenfeld","3.3.12","0","n","0","right","left","left","right","NA","501","1462","651","501","NA","NA","NA","2","legacy","6","1024","2","48000","-16","experiment","4","even","2","641887","641889","644096","642892","3997","646098","640826","2527","73791","NA","513113","2534","73140","646098","646601","NA","NA","Sternberg Task","107","56533","111","yes","1024"
"96.42857142857143","96.42857142857143","508.5357142857143","508.5357142857143","black","experiment","legacy","legacy","legacy","0","uniform","1","undefined","1","right","111","111","111","111","0","111","111","0","0","NA","111","0","0","111","111","0","NA","Mon Oct 17 19:48:27 2022","The main experiment item","yes","Lab 3.1.osexp","C:\Users\joey.knofczynski\Downloads","no","mono","no","18","no","white","no","yes","768","legacy","99","11","C:/Users/joey.knofczynski/Downloads/MC-subject-4.csv","legacy","1","Lentiform Loewenfeld","3.3.12","0","n","0","right","left","left","right","NA","423","1462","651","423","NA","NA","NA","2","legacy","1","1024","2","48000","-16","experiment","4","even","7","647677","647679","649885","648680","3997","651886","646605","2527","73791","NA","513113","2534","73140","651886","652310","NA","NA","Sternberg Task","108","56956","112","yes","1024"
"96.46017699115045","96.46017699115045","508.50442477876106","508.50442477876106","black","experiment","legacy","legacy","legacy","0","uniform","1","undefined","1","left","112","112","112","112","0","112","112","0","0","NA","112","0","0","112","112","0","NA","Mon Oct 17 19:48:27 2022","The main experiment item","yes","Lab 3.1.osexp","C:\Users\joey.knofczynski\Downloads","no","mono","no","18","no","white","no","yes","768","legacy","100","11","C:/Users/joey.knofczynski/Downloads/MC-subject-4.csv","legacy","5 7 8 2 3 8","Lentiform Loewenfeld","3.3.12","5","y","0","left","left","left","left","NA","505","1462","651","505","NA","NA","NA","2","legacy","6","1024","2","48000","-16","experiment","4","even","3","653380","653383","655587","654384","3997","657588","652315","2527","73791","NA","513113","2534","73140","657588","658095","NA","NA","Sternberg Task","109","57461","113","yes","1024"
