"acc","accuracy","average_response_time","avg_rt","background","block","canvas_backend","clock_backend","color_backend","compensation","coordinates","correct","correct_instruction1","correct_keyboard_response","correct_response","count_ExpSequence","count_Fixation","count_ISI","count_MemorySet","count_PracticeLoop","count_Probe","count_correctFeedback","count_experiment","count_experimentLoop","count_getting_started","count_incorrectFeedback","count_instruction1","count_instructions2","count_keyboard_response","count_logger","count_thankYou","count_welcome","datetime","description","disable_garbage_collection","experiment_file","experiment_path","font_bold","font_family","font_italic","font_size","font_underline","foreground","form_clicks","fullscreen","height","keyboard_backend","live_row","live_row_PracticeLoop","logfile","mouse_backend","numberSet","opensesame_codename","opensesame_version","posInSet","present","repeat_cycle","response","response_instruction1","response_instructions2","response_keyboard_response","response_thankYou","response_time","response_time_instruction1","response_time_instructions2","response_time_keyboard_response","response_time_thankYou","response_time_welcome","response_welcome","round_decimals","sampler_backend","setSize","sound_buf_size","sound_channels","sound_freq","sound_sample_size","start","subject_nr","subject_parity","target","time_ExpSequence","time_Fixation","time_ISI","time_MemorySet","time_PracticeLoop","time_Probe","time_correctFeedback","time_experiment","time_experimentLoop","time_getting_started","time_incorrectFeedback","time_instruction1","time_instructions2","time_keyboard_response","time_logger","time_thankYou","time_welcome","title","total_correct","total_response_time","total_responses","uniform_coordinates","width"
"100","100","539","539","black","practice","legacy","legacy","legacy","0","uniform","1","undefined","1","right","0","0","0","0","0","0","0","0","0","NA","0","0","0","0","0","0","NA","Mon Oct 17 19:31:52 2022","The main experiment item","yes","Lab 3.1.osexp","C:\Users\joey.knofczynski\Downloads","no","mono","no","18","no","white","no","yes","768","legacy","0","0","C:/Users/joey.knofczynski/Downloads/MC-subject-3.csv","legacy","3 1 9 4","Lentiform Loewenfeld","3.3.12","0","n","0","right","right","NA","right","NA","539","5037","NA","539","NA","NA","NA","2","legacy","4","1024","2","48000","-16","experiment","3","odd","6","7442","7445","9650","8446","7051","11651","NA","2007","NA","NA","NA","2014","NA","11652","12192","NA","NA","Sternberg Task","1","539","1","yes","1024"
"100","100","487.5","487.5","black","practice","legacy","legacy","legacy","0","uniform","1","undefined","1","right","1","1","1","1","0","1","1","0","0","NA","1","0","0","1","1","0","NA","Mon Oct 17 19:31:52 2022","The main experiment item","yes","Lab 3.1.osexp","C:\Users\joey.knofczynski\Downloads","no","mono","no","18","no","white","no","yes","768","legacy","1","1","C:/Users/joey.knofczynski/Downloads/MC-subject-3.csv","legacy","4 1 5","Lentiform Loewenfeld","3.3.12","0","n","0","right","right","NA","right","NA","436","5037","NA","436","NA","NA","NA","2","legacy","3","1024","2","48000","-16","experiment","3","odd","2","13297","13299","15503","14301","7051","17505","12219","2007","NA","NA","NA","2014","NA","17505","17942","NA","NA","Sternberg Task","2","975","2","yes","1024"
"100","100","468.3333333333333","468.3333333333333","black","practice","legacy","legacy","legacy","0","uniform","1","undefined","1","right","2","2","2","2","0","2","2","0","0","NA","2","0","0","2","2","0","NA","Mon Oct 17 19:31:52 2022","The main experiment item","yes","Lab 3.1.osexp","C:\Users\joey.knofczynski\Downloads","no","mono","no","18","no","white","no","yes","768","legacy","2","2","C:/Users/joey.knofczynski/Downloads/MC-subject-3.csv","legacy","2 1","Lentiform Loewenfeld","3.3.12","0","n","0","right","right","NA","right","NA","430","5037","NA","430","NA","NA","NA","2","legacy","2","1024","2","48000","-16","experiment","3","odd","5","19012","19016","21223","20020","7051","23226","17947","2007","NA","NA","NA","2014","NA","23226","23658","NA","NA","Sternberg Task","3","1405","3","yes","1024"
"100","100","483.25","483.25","black","practice","legacy","legacy","legacy","0","uniform","1","undefined","1","left","3","3","3","3","0","3","3","0","0","NA","3","0","0","3","3","0","NA","Mon Oct 17 19:31:52 2022","The main experiment item","yes","Lab 3.1.osexp","C:\Users\joey.knofczynski\Downloads","no","mono","no","18","no","white","no","yes","768","legacy","3","3","C:/Users/joey.knofczynski/Downloads/MC-subject-3.csv","legacy","1 7 9 8 5","Lentiform Loewenfeld","3.3.12","4","y","0","left","right","NA","left","NA","528","5037","NA","528","NA","NA","NA","2","legacy","5","1024","2","48000","-16","experiment","3","odd","8","24727","24730","26936","25730","7051","28938","23663","2007","NA","NA","NA","2014","NA","28938","29467","NA","NA","Sternberg Task","4","1933","4","yes","1024"
"100","100","475.8","475.8","black","practice","legacy","legacy","legacy","0","uniform","1","undefined","1","right","4","4","4","4","0","4","4","0","0","NA","4","0","0","4","4","0","NA","Mon Oct 17 19:31:52 2022","The main experiment item","yes","Lab 3.1.osexp","C:\Users\joey.knofczynski\Downloads","no","mono","no","18","no","white","no","yes","768","legacy","4","4","C:/Users/joey.knofczynski/Downloads/MC-subject-3.csv","legacy","5 7 8 4 1 2","Lentiform Loewenfeld","3.3.12","0","n","0","right","right","NA","right","NA","446","5037","NA","446","NA","NA","NA","2","legacy","6","1024","2","48000","-16","experiment","3","odd","6","30532","30535","32742","31537","7051","34743","29472","2007","NA","NA","NA","2014","NA","34743","35190","NA","NA","Sternberg Task","5","2379","5","yes","1024"
"100","100","453","453","black","practice","legacy","legacy","legacy","0","uniform","1","undefined","1","left","5","5","5","5","0","5","5","0","0","NA","5","0","0","5","5","0","NA","Mon Oct 17 19:31:52 2022","The main experiment item","yes","Lab 3.1.osexp","C:\Users\joey.knofczynski\Downloads","no","mono","no","18","no","white","no","yes","768","legacy","5","5","C:/Users/joey.knofczynski/Downloads/MC-subject-3.csv","legacy","4 8","Lentiform Loewenfeld","3.3.12","1","y","0","left","right","NA","left","NA","339","5037","NA","339","NA","NA","NA","2","legacy","2","1024","2","48000","-16","experiment","3","odd","4","36257","36260","38467","37264","7051","40471","35195","2007","NA","NA","NA","2014","NA","40471","40812","NA","NA","Sternberg Task","6","2718","6","yes","1024"
"100","100","445.7142857142857","445.7142857142857","black","practice","legacy","legacy","legacy","0","uniform","1","undefined","1","right","6","6","6","6","0","6","6","0","0","NA","6","0","0","6","6","0","NA","Mon Oct 17 19:31:52 2022","The main experiment item","yes","Lab 3.1.osexp","C:\Users\joey.knofczynski\Downloads","no","mono","no","18","no","white","no","yes","768","legacy","6","6","C:/Users/joey.knofczynski/Downloads/MC-subject-3.csv","legacy","5","Lentiform Loewenfeld","3.3.12","0","n","0","right","right","NA","right","NA","402","5037","NA","402","NA","NA","NA","2","legacy","1","1024","2","48000","-16","experiment","3","odd","3","41878","41880","44088","42883","7051","46091","40817","2007","NA","NA","NA","2014","NA","46091","46494","NA","NA","Sternberg Task","7","3120","7","yes","1024"
"100","100","436.75","436.75","black","practice","legacy","legacy","legacy","0","uniform","1","undefined","1","left","7","7","7","7","0","7","7","0","0","NA","7","0","0","7","7","0","NA","Mon Oct 17 19:31:52 2022","The main experiment item","yes","Lab 3.1.osexp","C:\Users\joey.knofczynski\Downloads","no","mono","no","18","no","white","no","yes","768","legacy","7","7","C:/Users/joey.knofczynski/Downloads/MC-subject-3.csv","legacy","1 5 2 9","Lentiform Loewenfeld","3.3.12","2","y","0","left","right","NA","left","NA","374","5037","NA","374","NA","NA","NA","2","legacy","4","1024","2","48000","-16","experiment","3","odd","5","47562","47564","49770","48565","7051","51772","46498","2007","NA","NA","NA","2014","NA","51772","52147","NA","NA","Sternberg Task","8","3494","8","yes","1024"
"100","100","437","437","black","practice","legacy","legacy","legacy","0","uniform","1","undefined","1","left","8","8","8","8","0","8","8","0","0","NA","8","0","0","8","8","0","NA","Mon Oct 17 19:31:52 2022","The main experiment item","yes","Lab 3.1.osexp","C:\Users\joey.knofczynski\Downloads","no","mono","no","18","no","white","no","yes","768","legacy","8","8","C:/Users/joey.knofczynski/Downloads/MC-subject-3.csv","legacy","4 3 1 7 9 8","Lentiform Loewenfeld","3.3.12","1","y","0","left","right","NA","left","NA","439","5037","NA","439","NA","NA","NA","2","legacy","6","1024","2","48000","-16","experiment","3","odd","4","53214","53217","55423","54221","7051","57425","52152","2007","NA","NA","NA","2014","NA","57425","57866","NA","NA","Sternberg Task","9","3933","9","yes","1024"
"100","100","428.8","428.8","black","practice","legacy","legacy","legacy","0","uniform","1","undefined","1","left","9","9","9","9","0","9","9","0","0","NA","9","0","0","9","9","0","NA","Mon Oct 17 19:31:52 2022","The main experiment item","yes","Lab 3.1.osexp","C:\Users\joey.knofczynski\Downloads","no","mono","no","18","no","white","no","yes","768","legacy","9","9","C:/Users/joey.knofczynski/Downloads/MC-subject-3.csv","legacy","6","Lentiform Loewenfeld","3.3.12","1","y","0","left","right","NA","left","NA","355","5037","NA","355","NA","NA","NA","2","legacy","1","1024","2","48000","-16","experiment","3","odd","6","58942","58944","61150","59946","7051","63152","57871","2007","NA","NA","NA","2014","NA","63152","63508","NA","NA","Sternberg Task","10","4288","10","yes","1024"
"100","100","431","431","black","practice","legacy","legacy","legacy","0","uniform","1","undefined","1","right","10","10","10","10","0","10","10","0","0","NA","10","0","0","10","10","0","NA","Mon Oct 17 19:31:52 2022","The main experiment item","yes","Lab 3.1.osexp","C:\Users\joey.knofczynski\Downloads","no","mono","no","18","no","white","no","yes","768","legacy","10","10","C:/Users/joey.knofczynski/Downloads/MC-subject-3.csv","legacy","9 6 7 4 5","Lentiform Loewenfeld","3.3.12","0","n","0","right","right","NA","right","NA","453","5037","NA","453","NA","NA","NA","2","legacy","5","1024","2","48000","-16","experiment","3","odd","3","64573","64577","66784","65579","7051","68785","63512","2007","NA","NA","NA","2014","NA","68785","69239","NA","NA","Sternberg Task","11","4741","11","yes","1024"
"91.66666666666667","91.66666666666667","427.1666666666667","427.1666666666667","black","practice","legacy","legacy","legacy","0","uniform","0","undefined","0","left","11","11","11","11","0","11","11","0","0","NA","11","0","0","11","11","0","NA","Mon Oct 17 19:31:52 2022","The main experiment item","yes","Lab 3.1.osexp","C:\Users\joey.knofczynski\Downloads","no","mono","no","18","no","white","no","yes","768","legacy","11","11","C:/Users/joey.knofczynski/Downloads/MC-subject-3.csv","legacy","2 9 4","Lentiform Loewenfeld","3.3.12","3","y","0","right","right","NA","right","NA","385","5037","NA","385","NA","NA","NA","2","legacy","3","1024","2","48000","-16","experiment","3","odd","4","70306","70308","72512","71309","7051","74514","69243","2007","NA","NA","NA","2014","NA","74514","74900","NA","NA","Sternberg Task","11","5126","12","yes","1024"
"92.3076923076923","92.3076923076923","428.0769230769231","428.0769230769231","black","experiment","legacy","legacy","legacy","0","uniform","1","undefined","1","right","12","12","12","12","0","12","12","0","0","NA","12","0","0","12","12","0","NA","Mon Oct 17 19:31:52 2022","The main experiment item","yes","Lab 3.1.osexp","C:\Users\joey.knofczynski\Downloads","no","mono","no","18","no","white","no","yes","768","legacy","0","11","C:/Users/joey.knofczynski/Downloads/MC-subject-3.csv","legacy","7 3 2 8","Lentiform Loewenfeld","3.3.12","0","n","0","right","right","left","right","NA","439","5037","3140","439","NA","NA","NA","2","legacy","4","1024","2","48000","-16","experiment","3","odd","4","79137","79139","81343","80141","7051","83344","69243","2007","79070","NA","74905","2014","75929","83345","83786","NA","NA","Sternberg Task","12","5565","13","yes","1024"
"92.85714285714286","92.85714285714286","424.57142857142856","424.57142857142856","black","experiment","legacy","legacy","legacy","0","uniform","1","undefined","1","left","13","13","13","13","0","13","13","0","0","NA","13","0","0","13","13","0","NA","Mon Oct 17 19:31:52 2022","The main experiment item","yes","Lab 3.1.osexp","C:\Users\joey.knofczynski\Downloads","no","mono","no","18","no","white","no","yes","768","legacy","1","11","C:/Users/joey.knofczynski/Downloads/MC-subject-3.csv","legacy","3 5 4 7","Lentiform Loewenfeld","3.3.12","1","y","0","left","right","left","left","NA","379","5037","3140","379","NA","NA","NA","2","legacy","4","1024","2","48000","-16","experiment","3","odd","3","84857","84859","87063","85861","7051","89064","83790","2007","79070","NA","74905","2014","75929","89064","89444","NA","NA","Sternberg Task","13","5944","14","yes","1024"
"93.33333333333333","93.33333333333333","421.4","421.4","black","experiment","legacy","legacy","legacy","0","uniform","1","undefined","1","left","14","14","14","14","0","14","14","0","0","NA","14","0","0","14","14","0","NA","Mon Oct 17 19:31:52 2022","The main experiment item","yes","Lab 3.1.osexp","C:\Users\joey.knofczynski\Downloads","no","mono","no","18","no","white","no","yes","768","legacy","2","11","C:/Users/joey.knofczynski/Downloads/MC-subject-3.csv","legacy","8 7 3","Lentiform Loewenfeld","3.3.12","1","y","0","left","right","left","left","NA","377","5037","3140","377","NA","NA","NA","2","legacy","3","1024","2","48000","-16","experiment","3","odd","8","90510","90513","92720","91515","7051","94722","89448","2007","79070","NA","74905","2014","75929","94722","95099","NA","NA","Sternberg Task","14","6321","15","yes","1024"
"93.75","93.75","428.625","428.625","black","experiment","legacy","legacy","legacy","0","uniform","1","undefined","1","right","15","15","15","15","0","15","15","0","0","NA","15","0","0","15","15","0","NA","Mon Oct 17 19:31:52 2022","The main experiment item","yes","Lab 3.1.osexp","C:\Users\joey.knofczynski\Downloads","no","mono","no","18","no","white","no","yes","768","legacy","3","11","C:/Users/joey.knofczynski/Downloads/MC-subject-3.csv","legacy","3 4 9 6 7 8","Lentiform Loewenfeld","3.3.12","0","n","0","right","right","left","right","NA","537","5037","3140","537","NA","NA","NA","2","legacy","6","1024","2","48000","-16","experiment","3","odd","2","96166","96173","98379","97174","7051","100381","95104","2007","79070","NA","74905","2014","75929","100381","100918","NA","NA","Sternberg Task","15","6858","16","yes","1024"
"94.11764705882354","94.11764705882354","435.47058823529414","435.47058823529414","black","experiment","legacy","legacy","legacy","0","uniform","1","undefined","1","right","16","16","16","16","0","16","16","0","0","NA","16","0","0","16","16","0","NA","Mon Oct 17 19:31:52 2022","The main experiment item","yes","Lab 3.1.osexp","C:\Users\joey.knofczynski\Downloads","no","mono","no","18","no","white","no","yes","768","legacy","4","11","C:/Users/joey.knofczynski/Downloads/MC-subject-3.csv","legacy","8 2 1 4 5 9","Lentiform Loewenfeld","3.3.12","0","n","0","right","right","left","right","NA","545","5037","3140","545","NA","NA","NA","2","legacy","6","1024","2","48000","-16","experiment","3","odd","7","101987","101995","104201","102996","7051","106202","100923","2007","79070","NA","74905","2014","75929","106202","106749","NA","NA","Sternberg Task","16","7403","17","yes","1024"
"94.44444444444444","94.44444444444444","436.27777777777777","436.27777777777777","black","experiment","legacy","legacy","legacy","0","uniform","1","undefined","1","right","17","17","17","17","0","17","17","0","0","NA","17","0","0","17","17","0","NA","Mon Oct 17 19:31:52 2022","The main experiment item","yes","Lab 3.1.osexp","C:\Users\joey.knofczynski\Downloads","no","mono","no","18","no","white","no","yes","768","legacy","5","11","C:/Users/joey.knofczynski/Downloads/MC-subject-3.csv","legacy","6 3 1 7 9 8","Lentiform Loewenfeld","3.3.12","0","n","0","right","right","left","right","NA","450","5037","3140","450","NA","NA","NA","2","legacy","6","1024","2","48000","-16","experiment","3","odd","4","107819","107822","110027","108823","7051","112029","106754","2007","79070","NA","74905","2014","75929","112029","112480","NA","NA","Sternberg Task","17","7853","18","yes","1024"
"94.73684210526316","94.73684210526316","438","438","black","experiment","legacy","legacy","legacy","0","uniform","1","undefined","1","right","18","18","18","18","0","18","18","0","0","NA","18","0","0","18","18","0","NA","Mon Oct 17 19:31:52 2022","The main experiment item","yes","Lab 3.1.osexp","C:\Users\joey.knofczynski\Downloads","no","mono","no","18","no","white","no","yes","768","legacy","6","11","C:/Users/joey.knofczynski/Downloads/MC-subject-3.csv","legacy","8 6 3 4 7","Lentiform Loewenfeld","3.3.12","0","n","0","right","right","left","right","NA","469","5037","3140","469","NA","NA","NA","2","legacy","5","1024","2","48000","-16","experiment","3","odd","1","113546","113548","115754","114550","7051","117756","112485","2007","79070","NA","74905","2014","75929","117756","118226","NA","NA","Sternberg Task","18","8322","19","yes","1024"
"95","95","436.05","436.05","black","experiment","legacy","legacy","legacy","0","uniform","1","undefined","1","right","19","19","19","19","0","19","19","0","0","NA","19","0","0","19","19","0","NA","Mon Oct 17 19:31:52 2022","The main experiment item","yes","Lab 3.1.osexp","C:\Users\joey.knofczynski\Downloads","no","mono","no","18","no","white","no","yes","768","legacy","7","11","C:/Users/joey.knofczynski/Downloads/MC-subject-3.csv","legacy","4 8 1 2","Lentiform Loewenfeld","3.3.12","0","n","0","right","right","left","right","NA","399","5037","3140","399","NA","NA","NA","2","legacy","4","1024","2","48000","-16","experiment","3","odd","7","119295","119298","121505","120301","7051","123508","118233","2007","79070","NA","74905","2014","75929","123508","123908","NA","NA","Sternberg Task","19","8721","20","yes","1024"
"90.47619047619048","90.47619047619048","436.8095238095238","436.8095238095238","black","experiment","legacy","legacy","legacy","0","uniform","0","undefined","0","left","20","20","20","20","0","20","20","0","0","NA","20","0","0","20","20","0","NA","Mon Oct 17 19:31:52 2022","The main experiment item","yes","Lab 3.1.osexp","C:\Users\joey.knofczynski\Downloads","no","mono","no","18","no","white","no","yes","768","legacy","8","11","C:/Users/joey.knofczynski/Downloads/MC-subject-3.csv","legacy","8 5 1 3 9","Lentiform Loewenfeld","3.3.12","4","y","0","right","right","left","right","NA","452","5037","3140","452","NA","NA","NA","2","legacy","5","1024","2","48000","-16","experiment","3","odd","3","124976","124978","127187","125981","7051","129190","123912","2007","79070","NA","74905","2014","75929","129190","129643","NA","NA","Sternberg Task","19","9173","21","yes","1024"
"90.9090909090909","90.9090909090909","435.22727272727275","435.22727272727275","black","experiment","legacy","legacy","legacy","0","uniform","1","undefined","1","left","21","21","21","21","0","21","21","0","0","NA","21","0","0","21","21","0","NA","Mon Oct 17 19:31:52 2022","The main experiment item","yes","Lab 3.1.osexp","C:\Users\joey.knofczynski\Downloads","no","mono","no","18","no","white","no","yes","768","legacy","9","11","C:/Users/joey.knofczynski/Downloads/MC-subject-3.csv","legacy","2 3","Lentiform Loewenfeld","3.3.12","1","y","0","left","right","left","left","NA","402","5037","3140","402","NA","NA","NA","2","legacy","2","1024","2","48000","-16","experiment","3","odd","2","130710","130713","132920","131715","7051","134921","123912","2007","79070","NA","129647","2014","75929","134921","135324","NA","NA","Sternberg Task","20","9575","22","yes","1024"
"86.95652173913044","86.95652173913044","437.69565217391306","437.69565217391306","black","experiment","legacy","legacy","legacy","0","uniform","0","undefined","0","left","22","22","22","22","0","22","22","0","0","NA","22","0","0","22","22","0","NA","Mon Oct 17 19:31:52 2022","The main experiment item","yes","Lab 3.1.osexp","C:\Users\joey.knofczynski\Downloads","no","mono","no","18","no","white","no","yes","768","legacy","10","11","C:/Users/joey.knofczynski/Downloads/MC-subject-3.csv","legacy","8 5 3 7 4 6","Lentiform Loewenfeld","3.3.12","6","y","0","right","right","left","right","NA","492","5037","3140","492","NA","NA","NA","2","legacy","6","1024","2","48000","-16","experiment","3","odd","6","136390","136392","138598","137394","7051","140600","135327","2007","79070","NA","129647","2014","75929","140600","141093","NA","NA","Sternberg Task","20","10067","23","yes","1024"
"87.5","87.5","453.5","453.5","black","experiment","legacy","legacy","legacy","0","uniform","1","undefined","1","right","23","23","23","23","0","23","23","0","0","NA","23","0","0","23","23","0","NA","Mon Oct 17 19:31:52 2022","The main experiment item","yes","Lab 3.1.osexp","C:\Users\joey.knofczynski\Downloads","no","mono","no","18","no","white","no","yes","768","legacy","11","11","C:/Users/joey.knofczynski/Downloads/MC-subject-3.csv","legacy","1 3 2 6 9","Lentiform Loewenfeld","3.3.12","0","n","0","right","right","left","right","NA","817","5037","3140","817","NA","NA","NA","2","legacy","5","1024","2","48000","-16","experiment","3","odd","5","142159","142162","144369","143165","7051","146370","135327","2007","79070","NA","141097","2014","75929","146370","147188","NA","NA","Sternberg Task","21","10884","24","yes","1024"
"88","88","454.56","454.56","black","experiment","legacy","legacy","legacy","0","uniform","1","undefined","1","right","24","24","24","24","0","24","24","0","0","NA","24","0","0","24","24","0","NA","Mon Oct 17 19:31:52 2022","The main experiment item","yes","Lab 3.1.osexp","C:\Users\joey.knofczynski\Downloads","no","mono","no","18","no","white","no","yes","768","legacy","12","11","C:/Users/joey.knofczynski/Downloads/MC-subject-3.csv","legacy","9 8 2 7 4","Lentiform Loewenfeld","3.3.12","0","n","0","right","right","left","right","NA","480","5037","3140","480","NA","NA","NA","2","legacy","5","1024","2","48000","-16","experiment","3","odd","5","148256","148259","150463","149261","7051","152464","147192","2007","79070","NA","141097","2014","75929","152464","152945","NA","NA","Sternberg Task","22","11364","25","yes","1024"
"88.46153846153847","88.46153846153847","458.38461538461536","458.38461538461536","black","experiment","legacy","legacy","legacy","0","uniform","1","undefined","1","left","25","25","25","25","0","25","25","0","0","NA","25","0","0","25","25","0","NA","Mon Oct 17 19:31:52 2022","The main experiment item","yes","Lab 3.1.osexp","C:\Users\joey.knofczynski\Downloads","no","mono","no","18","no","white","no","yes","768","legacy","13","11","C:/Users/joey.knofczynski/Downloads/MC-subject-3.csv","legacy","6 9 3 1","Lentiform Loewenfeld","3.3.12","4","y","0","left","right","left","left","NA","554","5037","3140","554","NA","NA","NA","2","legacy","4","1024","2","48000","-16","experiment","3","odd","1","154010","154014","156219","155015","7051","158220","152949","2007","79070","NA","141097","2014","75929","158220","158775","NA","NA","Sternberg Task","23","11918","26","yes","1024"
"88.88888888888889","88.88888888888889","457.8888888888889","457.8888888888889","black","experiment","legacy","legacy","legacy","0","uniform","1","undefined","1","left","26","26","26","26","0","26","26","0","0","NA","26","0","0","26","26","0","NA","Mon Oct 17 19:31:52 2022","The main experiment item","yes","Lab 3.1.osexp","C:\Users\joey.knofczynski\Downloads","no","mono","no","18","no","white","no","yes","768","legacy","14","11","C:/Users/joey.knofczynski/Downloads/MC-subject-3.csv","legacy","2 8 5 1","Lentiform Loewenfeld","3.3.12","4","y","0","left","right","left","left","NA","445","5037","3140","445","NA","NA","NA","2","legacy","4","1024","2","48000","-16","experiment","3","odd","1","159840","159842","162051","160846","7051","164053","158780","2007","79070","NA","141097","2014","75929","164053","164499","NA","NA","Sternberg Task","24","12363","27","yes","1024"
"89.28571428571429","89.28571428571429","455.64285714285717","455.64285714285717","black","experiment","legacy","legacy","legacy","0","uniform","1","undefined","1","left","27","27","27","27","0","27","27","0","0","NA","27","0","0","27","27","0","NA","Mon Oct 17 19:31:52 2022","The main experiment item","yes","Lab 3.1.osexp","C:\Users\joey.knofczynski\Downloads","no","mono","no","18","no","white","no","yes","768","legacy","15","11","C:/Users/joey.knofczynski/Downloads/MC-subject-3.csv","legacy","8 1 6","Lentiform Loewenfeld","3.3.12","3","y","0","left","right","left","left","NA","395","5037","3140","395","NA","NA","NA","2","legacy","3","1024","2","48000","-16","experiment","3","odd","6","165578","165584","167792","166585","7051","169794","164504","2007","79070","NA","141097","2014","75929","169794","170190","NA","NA","Sternberg Task","25","12758","28","yes","1024"
"89.65517241379311","89.65517241379311","456.0689655172414","456.0689655172414","black","experiment","legacy","legacy","legacy","0","uniform","1","undefined","1","left","28","28","28","28","0","28","28","0","0","NA","28","0","0","28","28","0","NA","Mon Oct 17 19:31:52 2022","The main experiment item","yes","Lab 3.1.osexp","C:\Users\joey.knofczynski\Downloads","no","mono","no","18","no","white","no","yes","768","legacy","16","11","C:/Users/joey.knofczynski/Downloads/MC-subject-3.csv","legacy","7 4 2 6 3 5","Lentiform Loewenfeld","3.3.12","6","y","0","left","right","left","left","NA","468","5037","3140","468","NA","NA","NA","2","legacy","6","1024","2","48000","-16","experiment","3","odd","5","171258","171261","173468","172265","7051","175471","170195","2007","79070","NA","141097","2014","75929","175471","175940","NA","NA","Sternberg Task","26","13226","29","yes","1024"
"86.66666666666667","86.66666666666667","466.9","466.9","black","experiment","legacy","legacy","legacy","0","uniform","0","undefined","0","right","29","29","29","29","0","29","29","0","0","NA","29","0","0","29","29","0","NA","Mon Oct 17 19:31:52 2022","The main experiment item","yes","Lab 3.1.osexp","C:\Users\joey.knofczynski\Downloads","no","mono","no","18","no","white","no","yes","768","legacy","17","11","C:/Users/joey.knofczynski/Downloads/MC-subject-3.csv","legacy","6 9 4 5 3 2","Lentiform Loewenfeld","3.3.12","0","n","0","left","right","left","left","NA","781","5037","3140","781","NA","NA","NA","2","legacy","6","1024","2","48000","-16","experiment","3","odd","8","177021","177024","179231","178027","7051","181232","175945","2007","79070","NA","141097","2014","75929","181232","182014","NA","NA","Sternberg Task","26","14007","30","yes","1024"
"87.09677419354838","87.09677419354838","467.93548387096774","467.93548387096774","black","experiment","legacy","legacy","legacy","0","uniform","1","undefined","1","left","30","30","30","30","0","30","30","0","0","NA","30","0","0","30","30","0","NA","Mon Oct 17 19:31:52 2022","The main experiment item","yes","Lab 3.1.osexp","C:\Users\joey.knofczynski\Downloads","no","mono","no","18","no","white","no","yes","768","legacy","18","11","C:/Users/joey.knofczynski/Downloads/MC-subject-3.csv","legacy","4 7 6 8 2 3","Lentiform Loewenfeld","3.3.12","6","y","0","left","right","left","left","NA","499","5037","3140","499","NA","NA","NA","2","legacy","6","1024","2","48000","-16","experiment","3","odd","3","183081","183088","185293","184089","7051","187294","175945","2007","79070","NA","182019","2014","75929","187294","187794","NA","NA","Sternberg Task","27","14506","31","yes","1024"
"87.5","87.5","466.84375","466.84375","black","experiment","legacy","legacy","legacy","0","uniform","1","undefined","1","left","31","31","31","31","0","31","31","0","0","NA","31","0","0","31","31","0","NA","Mon Oct 17 19:31:52 2022","The main experiment item","yes","Lab 3.1.osexp","C:\Users\joey.knofczynski\Downloads","no","mono","no","18","no","white","no","yes","768","legacy","19","11","C:/Users/joey.knofczynski/Downloads/MC-subject-3.csv","legacy","8 3","Lentiform Loewenfeld","3.3.12","2","y","0","left","right","left","left","NA","433","5037","3140","433","NA","NA","NA","2","legacy","2","1024","2","48000","-16","experiment","3","odd","3","188859","188865","191071","189868","7051","193073","187798","2007","79070","NA","182019","2014","75929","193073","193507","NA","NA","Sternberg Task","28","14939","32","yes","1024"
"87.87878787878788","87.87878787878788","468.24242424242425","468.24242424242425","black","experiment","legacy","legacy","legacy","0","uniform","1","undefined","1","left","32","32","32","32","0","32","32","0","0","NA","32","0","0","32","32","0","NA","Mon Oct 17 19:31:52 2022","The main experiment item","yes","Lab 3.1.osexp","C:\Users\joey.knofczynski\Downloads","no","mono","no","18","no","white","no","yes","768","legacy","20","11","C:/Users/joey.knofczynski/Downloads/MC-subject-3.csv","legacy","9 5 3 8 4","Lentiform Loewenfeld","3.3.12","1","y","0","left","right","left","left","NA","513","5037","3140","513","NA","NA","NA","2","legacy","5","1024","2","48000","-16","experiment","3","odd","9","194577","194581","196788","195584","7051","198791","193512","2007","79070","NA","182019","2014","75929","198791","199305","NA","NA","Sternberg Task","29","15452","33","yes","1024"
"88.23529411764706","88.23529411764706","470.52941176470586","470.52941176470586","black","experiment","legacy","legacy","legacy","0","uniform","1","undefined","1","right","33","33","33","33","0","33","33","0","0","NA","33","0","0","33","33","0","NA","Mon Oct 17 19:31:52 2022","The main experiment item","yes","Lab 3.1.osexp","C:\Users\joey.knofczynski\Downloads","no","mono","no","18","no","white","no","yes","768","legacy","21","11","C:/Users/joey.knofczynski/Downloads/MC-subject-3.csv","legacy","3 9 1","Lentiform Loewenfeld","3.3.12","0","n","0","right","right","left","right","NA","546","5037","3140","546","NA","NA","NA","2","legacy","3","1024","2","48000","-16","experiment","3","odd","7","200370","200375","202579","201376","7051","204581","199308","2007","79070","NA","182019","2014","75929","204581","205129","NA","NA","Sternberg Task","30","15998","34","yes","1024"
"88.57142857142857","88.57142857142857","472.8857142857143","472.8857142857143","black","experiment","legacy","legacy","legacy","0","uniform","1","undefined","1","right","34","34","34","34","0","34","34","0","0","NA","34","0","0","34","34","0","NA","Mon Oct 17 19:31:52 2022","The main experiment item","yes","Lab 3.1.osexp","C:\Users\joey.knofczynski\Downloads","no","mono","no","18","no","white","no","yes","768","legacy","22","11","C:/Users/joey.knofczynski/Downloads/MC-subject-3.csv","legacy","9","Lentiform Loewenfeld","3.3.12","0","n","0","right","right","left","right","NA","553","5037","3140","553","NA","NA","NA","2","legacy","1","1024","2","48000","-16","experiment","3","odd","6","206192","206194","208402","207196","7051","210404","205133","2007","79070","NA","182019","2014","75929","210404","210958","NA","NA","Sternberg Task","31","16551","35","yes","1024"
"88.88888888888889","88.88888888888889","473.44444444444446","473.44444444444446","black","experiment","legacy","legacy","legacy","0","uniform","1","undefined","1","right","35","35","35","35","0","35","35","0","0","NA","35","0","0","35","35","0","NA","Mon Oct 17 19:31:52 2022","The main experiment item","yes","Lab 3.1.osexp","C:\Users\joey.knofczynski\Downloads","no","mono","no","18","no","white","no","yes","768","legacy","23","11","C:/Users/joey.knofczynski/Downloads/MC-subject-3.csv","legacy","6 8","Lentiform Loewenfeld","3.3.12","0","n","0","right","right","left","right","NA","493","5037","3140","493","NA","NA","NA","2","legacy","2","1024","2","48000","-16","experiment","3","odd","9","212037","212040","214247","213043","7051","216248","210963","2007","79070","NA","182019","2014","75929","216248","216741","NA","NA","Sternberg Task","32","17044","36","yes","1024"
"89.1891891891892","89.1891891891892","472.56756756756755","472.56756756756755","black","experiment","legacy","legacy","legacy","0","uniform","1","undefined","1","left","36","36","36","36","0","36","36","0","0","NA","36","0","0","36","36","0","NA","Mon Oct 17 19:31:52 2022","The main experiment item","yes","Lab 3.1.osexp","C:\Users\joey.knofczynski\Downloads","no","mono","no","18","no","white","no","yes","768","legacy","24","11","C:/Users/joey.knofczynski/Downloads/MC-subject-3.csv","legacy","7 8 4 6 9 5","Lentiform Loewenfeld","3.3.12","4","y","0","left","right","left","left","NA","441","5037","3140","441","NA","NA","NA","2","legacy","6","1024","2","48000","-16","experiment","3","odd","6","217810","217812","220021","218816","7051","222023","216746","2007","79070","NA","182019","2014","75929","222023","222466","NA","NA","Sternberg Task","33","17485","37","yes","1024"
"89.47368421052632","89.47368421052632","471.1578947368421","471.1578947368421","black","experiment","legacy","legacy","legacy","0","uniform","1","undefined","1","left","37","37","37","37","0","37","37","0","0","NA","37","0","0","37","37","0","NA","Mon Oct 17 19:31:52 2022","The main experiment item","yes","Lab 3.1.osexp","C:\Users\joey.knofczynski\Downloads","no","mono","no","18","no","white","no","yes","768","legacy","25","11","C:/Users/joey.knofczynski/Downloads/MC-subject-3.csv","legacy","6 7 8 5","Lentiform Loewenfeld","3.3.12","3","y","0","left","right","left","left","NA","419","5037","3140","419","NA","NA","NA","2","legacy","4","1024","2","48000","-16","experiment","3","odd","8","223538","223541","225746","224542","7051","227747","222471","2007","79070","NA","182019","2014","75929","227747","228167","NA","NA","Sternberg Task","34","17904","38","yes","1024"
"89.74358974358974","89.74358974358974","471.20512820512823","471.20512820512823","black","experiment","legacy","legacy","legacy","0","uniform","1","undefined","1","right","38","38","38","38","0","38","38","0","0","NA","38","0","0","38","38","0","NA","Mon Oct 17 19:31:52 2022","The main experiment item","yes","Lab 3.1.osexp","C:\Users\joey.knofczynski\Downloads","no","mono","no","18","no","white","no","yes","768","legacy","26","11","C:/Users/joey.knofczynski/Downloads/MC-subject-3.csv","legacy","1 4 9 2 5","Lentiform Loewenfeld","3.3.12","0","n","0","right","right","left","right","NA","473","5037","3140","473","NA","NA","NA","2","legacy","5","1024","2","48000","-16","experiment","3","odd","7","229242","229245","231450","230247","7051","233451","228175","2007","79070","NA","182019","2014","75929","233452","233926","NA","NA","Sternberg Task","35","18377","39","yes","1024"
"90","90","471.175","471.175","black","experiment","legacy","legacy","legacy","0","uniform","1","undefined","1","right","39","39","39","39","0","39","39","0","0","NA","39","0","0","39","39","0","NA","Mon Oct 17 19:31:52 2022","The main experiment item","yes","Lab 3.1.osexp","C:\Users\joey.knofczynski\Downloads","no","mono","no","18","no","white","no","yes","768","legacy","27","11","C:/Users/joey.knofczynski/Downloads/MC-subject-3.csv","legacy","1 7 5 2","Lentiform Loewenfeld","3.3.12","0","n","0","right","right","left","right","NA","470","5037","3140","470","NA","NA","NA","2","legacy","4","1024","2","48000","-16","experiment","3","odd","3","234994","234996","237203","236000","7051","239205","233931","2007","79070","NA","182019","2014","75929","239206","239677","NA","NA","Sternberg Task","36","18847","40","yes","1024"
"87.8048780487805","87.8048780487805","470.390243902439","470.390243902439","black","experiment","legacy","legacy","legacy","0","uniform","0","undefined","0","left","40","40","40","40","0","40","40","0","0","NA","40","0","0","40","40","0","NA","Mon Oct 17 19:31:52 2022","The main experiment item","yes","Lab 3.1.osexp","C:\Users\joey.knofczynski\Downloads","no","mono","no","18","no","white","no","yes","768","legacy","28","11","C:/Users/joey.knofczynski/Downloads/MC-subject-3.csv","legacy","5 7 3 6 2","Lentiform Loewenfeld","3.3.12","5","y","0","right","right","left","right","NA","439","5037","3140","439","NA","NA","NA","2","legacy","5","1024","2","48000","-16","experiment","3","odd","2","240742","240744","242953","241748","7051","244954","239681","2007","79070","NA","182019","2014","75929","244954","245394","NA","NA","Sternberg Task","36","19286","41","yes","1024"
"88.0952380952381","88.0952380952381","470.64285714285717","470.64285714285717","black","experiment","legacy","legacy","legacy","0","uniform","1","undefined","1","right","41","41","41","41","0","41","41","0","0","NA","41","0","0","41","41","0","NA","Mon Oct 17 19:31:52 2022","The main experiment item","yes","Lab 3.1.osexp","C:\Users\joey.knofczynski\Downloads","no","mono","no","18","no","white","no","yes","768","legacy","29","11","C:/Users/joey.knofczynski/Downloads/MC-subject-3.csv","legacy","1 5 3 2 8","Lentiform Loewenfeld","3.3.12","0","n","0","right","right","left","right","NA","481","5037","3140","481","NA","NA","NA","2","legacy","5","1024","2","48000","-16","experiment","3","odd","4","246462","246464","248671","247466","7051","250673","239681","2007","79070","NA","245400","2014","75929","250673","251155","NA","NA","Sternberg Task","37","19767","42","yes","1024"
"88.37209302325581","88.37209302325581","468.51162790697674","468.51162790697674","black","experiment","legacy","legacy","legacy","0","uniform","1","undefined","1","left","42","42","42","42","0","42","42","0","0","NA","42","0","0","42","42","0","NA","Mon Oct 17 19:31:52 2022","The main experiment item","yes","Lab 3.1.osexp","C:\Users\joey.knofczynski\Downloads","no","mono","no","18","no","white","no","yes","768","legacy","30","11","C:/Users/joey.knofczynski/Downloads/MC-subject-3.csv","legacy","9 4 2","Lentiform Loewenfeld","3.3.12","1","y","0","left","right","left","left","NA","379","5037","3140","379","NA","NA","NA","2","legacy","3","1024","2","48000","-16","experiment","3","odd","9","252220","252223","254431","253227","7051","256432","251159","2007","79070","NA","245400","2014","75929","256432","256811","NA","NA","Sternberg Task","38","20146","43","yes","1024"
"88.63636363636364","88.63636363636364","468.40909090909093","468.40909090909093","black","experiment","legacy","legacy","legacy","0","uniform","1","undefined","1","right","43","43","43","43","0","43","43","0","0","NA","43","0","0","43","43","0","NA","Mon Oct 17 19:31:52 2022","The main experiment item","yes","Lab 3.1.osexp","C:\Users\joey.knofczynski\Downloads","no","mono","no","18","no","white","no","yes","768","legacy","31","11","C:/Users/joey.knofczynski/Downloads/MC-subject-3.csv","legacy","7 1 5 6 3","Lentiform Loewenfeld","3.3.12","0","n","0","right","right","left","right","NA","464","5037","3140","464","NA","NA","NA","2","legacy","5","1024","2","48000","-16","experiment","3","odd","8","257875","257877","260082","258879","7051","262084","256816","2007","79070","NA","245400","2014","75929","262084","262549","NA","NA","Sternberg Task","39","20610","44","yes","1024"
"88.88888888888889","88.88888888888889","467.4888888888889","467.4888888888889","black","experiment","legacy","legacy","legacy","0","uniform","1","undefined","1","right","44","44","44","44","0","44","44","0","0","NA","44","0","0","44","44","0","NA","Mon Oct 17 19:31:52 2022","The main experiment item","yes","Lab 3.1.osexp","C:\Users\joey.knofczynski\Downloads","no","mono","no","18","no","white","no","yes","768","legacy","32","11","C:/Users/joey.knofczynski/Downloads/MC-subject-3.csv","legacy","5 7 3","Lentiform Loewenfeld","3.3.12","0","n","0","right","right","left","right","NA","427","5037","3140","427","NA","NA","NA","2","legacy","3","1024","2","48000","-16","experiment","3","odd","9","263614","263617","265825","264621","7051","267828","262554","2007","79070","NA","245400","2014","75929","267828","268256","NA","NA","Sternberg Task","40","21037","45","yes","1024"
"89.1304347826087","89.1304347826087","479.67391304347825","479.67391304347825","black","experiment","legacy","legacy","legacy","0","uniform","1","undefined","1","left","45","45","45","45","0","45","45","0","0","NA","45","0","0","45","45","0","NA","Mon Oct 17 19:31:52 2022","The main experiment item","yes","Lab 3.1.osexp","C:\Users\joey.knofczynski\Downloads","no","mono","no","18","no","white","no","yes","768","legacy","33","11","C:/Users/joey.knofczynski/Downloads/MC-subject-3.csv","legacy","3 4 9 6 2 9","Lentiform Loewenfeld","3.3.12","5","y","0","left","right","left","left","NA","1028","5037","3140","1028","NA","NA","NA","2","legacy","6","1024","2","48000","-16","experiment","3","odd","2","269328","269331","271537","270333","7051","273539","268261","2007","79070","NA","245400","2014","75929","273539","274568","NA","NA","Sternberg Task","41","22065","46","yes","1024"
"89.36170212765957","89.36170212765957","479.21276595744683","479.21276595744683","black","experiment","legacy","legacy","legacy","0","uniform","1","undefined","1","left","46","46","46","46","0","46","46","0","0","NA","46","0","0","46","46","0","NA","Mon Oct 17 19:31:52 2022","The main experiment item","yes","Lab 3.1.osexp","C:\Users\joey.knofczynski\Downloads","no","mono","no","18","no","white","no","yes","768","legacy","34","11","C:/Users/joey.knofczynski/Downloads/MC-subject-3.csv","legacy","2 3 7 4","Lentiform Loewenfeld","3.3.12","1","y","0","left","right","left","left","NA","458","5037","3140","458","NA","NA","NA","2","legacy","4","1024","2","48000","-16","experiment","3","odd","2","275638","275641","277850","276645","7051","279852","274574","2007","79070","NA","245400","2014","75929","279852","280311","NA","NA","Sternberg Task","42","22523","47","yes","1024"
"89.58333333333333","89.58333333333333","480.3958333333333","480.3958333333333","black","experiment","legacy","legacy","legacy","0","uniform","1","undefined","1","right","47","47","47","47","0","47","47","0","0","NA","47","0","0","47","47","0","NA","Mon Oct 17 19:31:52 2022","The main experiment item","yes","Lab 3.1.osexp","C:\Users\joey.knofczynski\Downloads","no","mono","no","18","no","white","no","yes","768","legacy","35","11","C:/Users/joey.knofczynski/Downloads/MC-subject-3.csv","legacy","1 7 5 2 9","Lentiform Loewenfeld","3.3.12","0","n","0","right","right","left","right","NA","536","5037","3140","536","NA","NA","NA","2","legacy","5","1024","2","48000","-16","experiment","3","odd","3","281379","281382","283588","282383","7051","285590","280315","2007","79070","NA","245400","2014","75929","285590","286126","NA","NA","Sternberg Task","43","23059","48","yes","1024"
"89.79591836734694","89.79591836734694","483.2857142857143","483.2857142857143","black","experiment","legacy","legacy","legacy","0","uniform","1","undefined","1","right","48","48","48","48","0","48","48","0","0","NA","48","0","0","48","48","0","NA","Mon Oct 17 19:31:52 2022","The main experiment item","yes","Lab 3.1.osexp","C:\Users\joey.knofczynski\Downloads","no","mono","no","18","no","white","no","yes","768","legacy","36","11","C:/Users/joey.knofczynski/Downloads/MC-subject-3.csv","legacy","9 7 4 5 8","Lentiform Loewenfeld","3.3.12","0","n","0","right","right","left","right","NA","622","5037","3140","622","NA","NA","NA","2","legacy","5","1024","2","48000","-16","experiment","3","odd","6","287195","287198","289403","288200","7051","291405","286131","2007","79070","NA","245400","2014","75929","291405","292028","NA","NA","Sternberg Task","44","23681","49","yes","1024"
"90","90","484.36","484.36","black","experiment","legacy","legacy","legacy","0","uniform","1","undefined","1","right","49","49","49","49","0","49","49","0","0","NA","49","0","0","49","49","0","NA","Mon Oct 17 19:31:52 2022","The main experiment item","yes","Lab 3.1.osexp","C:\Users\joey.knofczynski\Downloads","no","mono","no","18","no","white","no","yes","768","legacy","37","11","C:/Users/joey.knofczynski/Downloads/MC-subject-3.csv","legacy","4 2 7 6 1 3","Lentiform Loewenfeld","3.3.12","0","n","0","right","right","left","right","NA","537","5037","3140","537","NA","NA","NA","2","legacy","6","1024","2","48000","-16","experiment","3","odd","8","293095","293097","295305","294099","7051","297307","292032","2007","79070","NA","245400","2014","75929","297307","297845","NA","NA","Sternberg Task","45","24218","50","yes","1024"
"90.19607843137256","90.19607843137256","484.6470588235294","484.6470588235294","black","experiment","legacy","legacy","legacy","0","uniform","1","undefined","1","right","50","50","50","50","0","50","50","0","0","NA","50","0","0","50","50","0","NA","Mon Oct 17 19:31:52 2022","The main experiment item","yes","Lab 3.1.osexp","C:\Users\joey.knofczynski\Downloads","no","mono","no","18","no","white","no","yes","768","legacy","38","11","C:/Users/joey.knofczynski/Downloads/MC-subject-3.csv","legacy","6 2 9 3 8 4","Lentiform Loewenfeld","3.3.12","0","n","0","right","right","left","right","NA","499","5037","3140","499","NA","NA","NA","2","legacy","6","1024","2","48000","-16","experiment","3","odd","1","298909","298914","301123","299918","7051","303124","297849","2007","79070","NA","245400","2014","75929","303124","303624","NA","NA","Sternberg Task","46","24717","51","yes","1024"
"90.38461538461539","90.38461538461539","483.21153846153845","483.21153846153845","black","experiment","legacy","legacy","legacy","0","uniform","1","undefined","1","left","51","51","51","51","0","51","51","0","0","NA","51","0","0","51","51","0","NA","Mon Oct 17 19:31:52 2022","The main experiment item","yes","Lab 3.1.osexp","C:\Users\joey.knofczynski\Downloads","no","mono","no","18","no","white","no","yes","768","legacy","39","11","C:/Users/joey.knofczynski/Downloads/MC-subject-3.csv","legacy","7 1 3","Lentiform Loewenfeld","3.3.12","2","y","0","left","right","left","left","NA","410","5037","3140","410","NA","NA","NA","2","legacy","3","1024","2","48000","-16","experiment","3","odd","1","304691","304693","306895","305694","7051","308897","303628","2007","79070","NA","245400","2014","75929","308897","309308","NA","NA","Sternberg Task","47","25127","52","yes","1024"
"90.56603773584905","90.56603773584905","482.39622641509436","482.39622641509436","black","experiment","legacy","legacy","legacy","0","uniform","1","undefined","1","right","52","52","52","52","0","52","52","0","0","NA","52","0","0","52","52","0","NA","Mon Oct 17 19:31:52 2022","The main experiment item","yes","Lab 3.1.osexp","C:\Users\joey.knofczynski\Downloads","no","mono","no","18","no","white","no","yes","768","legacy","40","11","C:/Users/joey.knofczynski/Downloads/MC-subject-3.csv","legacy","1 4 9 3","Lentiform Loewenfeld","3.3.12","0","n","0","right","right","left","right","NA","440","5037","3140","440","NA","NA","NA","2","legacy","4","1024","2","48000","-16","experiment","3","odd","5","310372","310375","312581","311378","7051","314582","309313","2007","79070","NA","245400","2014","75929","314583","315025","NA","NA","Sternberg Task","48","25567","53","yes","1024"
"90.74074074074075","90.74074074074075","479.8888888888889","479.8888888888889","black","experiment","legacy","legacy","legacy","0","uniform","1","undefined","1","left","53","53","53","53","0","53","53","0","0","NA","53","0","0","53","53","0","NA","Mon Oct 17 19:31:52 2022","The main experiment item","yes","Lab 3.1.osexp","C:\Users\joey.knofczynski\Downloads","no","mono","no","18","no","white","no","yes","768","legacy","41","11","C:/Users/joey.knofczynski/Downloads/MC-subject-3.csv","legacy","7","Lentiform Loewenfeld","3.3.12","1","y","0","left","right","left","left","NA","347","5037","3140","347","NA","NA","NA","2","legacy","1","1024","2","48000","-16","experiment","3","odd","7","316089","316092","318297","317093","7051","320299","315029","2007","79070","NA","245400","2014","75929","320299","320646","NA","NA","Sternberg Task","49","25914","54","yes","1024"
"90.9090909090909","90.9090909090909","479.7818181818182","479.7818181818182","black","experiment","legacy","legacy","legacy","0","uniform","1","undefined","1","right","54","54","54","54","0","54","54","0","0","NA","54","0","0","54","54","0","NA","Mon Oct 17 19:31:52 2022","The main experiment item","yes","Lab 3.1.osexp","C:\Users\joey.knofczynski\Downloads","no","mono","no","18","no","white","no","yes","768","legacy","42","11","C:/Users/joey.knofczynski/Downloads/MC-subject-3.csv","legacy","5","Lentiform Loewenfeld","3.3.12","0","n","0","right","right","left","right","NA","474","5037","3140","474","NA","NA","NA","2","legacy","1","1024","2","48000","-16","experiment","3","odd","8","321713","321716","323923","322718","7051","325924","320650","2007","79070","NA","245400","2014","75929","325924","326399","NA","NA","Sternberg Task","50","26388","55","yes","1024"
"91.07142857142857","91.07142857142857","480.6607142857143","480.6607142857143","black","experiment","legacy","legacy","legacy","0","uniform","1","undefined","1","right","55","55","55","55","0","55","55","0","0","NA","55","0","0","55","55","0","NA","Mon Oct 17 19:31:52 2022","The main experiment item","yes","Lab 3.1.osexp","C:\Users\joey.knofczynski\Downloads","no","mono","no","18","no","white","no","yes","768","legacy","43","11","C:/Users/joey.knofczynski/Downloads/MC-subject-3.csv","legacy","7 6 4 8 1 2","Lentiform Loewenfeld","3.3.12","0","n","0","right","right","left","right","NA","529","5037","3140","529","NA","NA","NA","2","legacy","6","1024","2","48000","-16","experiment","3","odd","9","327468","327470","329678","328474","7051","331679","326405","2007","79070","NA","245400","2014","75929","331679","332209","NA","NA","Sternberg Task","51","26917","56","yes","1024"
"91.2280701754386","91.2280701754386","479.5964912280702","479.5964912280702","black","experiment","legacy","legacy","legacy","0","uniform","1","undefined","1","right","56","56","56","56","0","56","56","0","0","NA","56","0","0","56","56","0","NA","Mon Oct 17 19:31:52 2022","The main experiment item","yes","Lab 3.1.osexp","C:\Users\joey.knofczynski\Downloads","no","mono","no","18","no","white","no","yes","768","legacy","44","11","C:/Users/joey.knofczynski/Downloads/MC-subject-3.csv","legacy","7 1","Lentiform Loewenfeld","3.3.12","0","n","0","right","right","left","right","NA","420","5037","3140","420","NA","NA","NA","2","legacy","2","1024","2","48000","-16","experiment","3","odd","8","333276","333282","335488","334283","7051","337491","332214","2007","79070","NA","245400","2014","75929","337491","337912","NA","NA","Sternberg Task","52","27337","57","yes","1024"
"89.65517241379311","89.65517241379311","479.3448275862069","479.3448275862069","black","experiment","legacy","legacy","legacy","0","uniform","0","undefined","0","right","57","57","57","57","0","57","57","0","0","NA","57","0","0","57","57","0","NA","Mon Oct 17 19:31:52 2022","The main experiment item","yes","Lab 3.1.osexp","C:\Users\joey.knofczynski\Downloads","no","mono","no","18","no","white","no","yes","768","legacy","45","11","C:/Users/joey.knofczynski/Downloads/MC-subject-3.csv","legacy","2 8 7 9 5 3","Lentiform Loewenfeld","3.3.12","0","n","0","left","right","left","left","NA","465","5037","3140","465","NA","NA","NA","2","legacy","6","1024","2","48000","-16","experiment","3","odd","6","338978","338982","341192","339987","7051","343193","337917","2007","79070","NA","245400","2014","75929","343193","343659","NA","NA","Sternberg Task","52","27802","58","yes","1024"
"89.83050847457628","89.83050847457628","479.59322033898303","479.59322033898303","black","experiment","legacy","legacy","legacy","0","uniform","1","undefined","1","right","58","58","58","58","0","58","58","0","0","NA","58","0","0","58","58","0","NA","Mon Oct 17 19:31:52 2022","The main experiment item","yes","Lab 3.1.osexp","C:\Users\joey.knofczynski\Downloads","no","mono","no","18","no","white","no","yes","768","legacy","46","11","C:/Users/joey.knofczynski/Downloads/MC-subject-3.csv","legacy","6 7 5 9","Lentiform Loewenfeld","3.3.12","0","n","0","right","right","left","right","NA","494","5037","3140","494","NA","NA","NA","2","legacy","4","1024","2","48000","-16","experiment","3","odd","2","344725","344728","346936","345732","7051","348937","337917","2007","79070","NA","343663","2014","75929","348937","349431","NA","NA","Sternberg Task","53","28296","59","yes","1024"
"90","90","479.6333333333333","479.6333333333333","black","experiment","legacy","legacy","legacy","0","uniform","1","undefined","1","right","59","59","59","59","0","59","59","0","0","NA","59","0","0","59","59","0","NA","Mon Oct 17 19:31:52 2022","The main experiment item","yes","Lab 3.1.osexp","C:\Users\joey.knofczynski\Downloads","no","mono","no","18","no","white","no","yes","768","legacy","47","11","C:/Users/joey.knofczynski/Downloads/MC-subject-3.csv","legacy","6 9 4 5 2","Lentiform Loewenfeld","3.3.12","0","n","0","right","right","left","right","NA","482","5037","3140","482","NA","NA","NA","2","legacy","5","1024","2","48000","-16","experiment","3","odd","1","350498","350501","352707","351502","7051","354709","349436","2007","79070","NA","343663","2014","75929","354709","355192","NA","NA","Sternberg Task","54","28778","60","yes","1024"
"90.1639344262295","90.1639344262295","482.8032786885246","482.8032786885246","black","experiment","legacy","legacy","legacy","0","uniform","1","undefined","1","right","60","60","60","60","0","60","60","0","0","NA","60","0","0","60","60","0","NA","Mon Oct 17 19:31:52 2022","The main experiment item","yes","Lab 3.1.osexp","C:\Users\joey.knofczynski\Downloads","no","mono","no","18","no","white","no","yes","768","legacy","48","11","C:/Users/joey.knofczynski/Downloads/MC-subject-3.csv","legacy","5 3 2 6 9 8","Lentiform Loewenfeld","3.3.12","0","n","0","right","right","left","right","NA","673","5037","3140","673","NA","NA","NA","2","legacy","6","1024","2","48000","-16","experiment","3","odd","4","356259","356262","358470","357265","7051","360473","355197","2007","79070","NA","343663","2014","75929","360473","361148","NA","NA","Sternberg Task","55","29451","61","yes","1024"
"90.3225806451613","90.3225806451613","484.51612903225805","484.51612903225805","black","experiment","legacy","legacy","legacy","0","uniform","1","undefined","1","left","61","61","61","61","0","61","61","0","0","NA","61","0","0","61","61","0","NA","Mon Oct 17 19:31:52 2022","The main experiment item","yes","Lab 3.1.osexp","C:\Users\joey.knofczynski\Downloads","no","mono","no","18","no","white","no","yes","768","legacy","49","11","C:/Users/joey.knofczynski/Downloads/MC-subject-3.csv","legacy","8 9 6 1","Lentiform Loewenfeld","3.3.12","2","y","0","left","right","left","left","NA","589","5037","3140","589","NA","NA","NA","2","legacy","4","1024","2","48000","-16","experiment","3","odd","9","362215","362217","364425","363220","7051","366426","361152","2007","79070","NA","343663","2014","75929","366427","367018","NA","NA","Sternberg Task","56","30040","62","yes","1024"
"90.47619047619048","90.47619047619048","485.06349206349205","485.06349206349205","black","experiment","legacy","legacy","legacy","0","uniform","1","undefined","1","right","62","62","62","62","0","62","62","0","0","NA","62","0","0","62","62","0","NA","Mon Oct 17 19:31:52 2022","The main experiment item","yes","Lab 3.1.osexp","C:\Users\joey.knofczynski\Downloads","no","mono","no","18","no","white","no","yes","768","legacy","50","11","C:/Users/joey.knofczynski/Downloads/MC-subject-3.csv","legacy","7 1 8 4 9 3","Lentiform Loewenfeld","3.3.12","0","n","0","right","right","left","right","NA","519","5037","3140","519","NA","NA","NA","2","legacy","6","1024","2","48000","-16","experiment","3","odd","6","368086","368091","370296","369093","7051","372297","367021","2007","79070","NA","343663","2014","75929","372298","372818","NA","NA","Sternberg Task","57","30559","63","yes","1024"
"90.625","90.625","483.46875","483.46875","black","experiment","legacy","legacy","legacy","0","uniform","1","undefined","1","left","63","63","63","63","0","63","63","0","0","NA","63","0","0","63","63","0","NA","Mon Oct 17 19:31:52 2022","The main experiment item","yes","Lab 3.1.osexp","C:\Users\joey.knofczynski\Downloads","no","mono","no","18","no","white","no","yes","768","legacy","51","11","C:/Users/joey.knofczynski/Downloads/MC-subject-3.csv","legacy","9 8 4","Lentiform Loewenfeld","3.3.12","1","y","0","left","right","left","left","NA","383","5037","3140","383","NA","NA","NA","2","legacy","3","1024","2","48000","-16","experiment","3","odd","9","373885","373888","376095","374891","7051","378097","372823","2007","79070","NA","343663","2014","75929","378097","378481","NA","NA","Sternberg Task","58","30942","64","yes","1024"
"90.76923076923077","90.76923076923077","483.7230769230769","483.7230769230769","black","experiment","legacy","legacy","legacy","0","uniform","1","undefined","1","right","64","64","64","64","0","64","64","0","0","NA","64","0","0","64","64","0","NA","Mon Oct 17 19:31:52 2022","The main experiment item","yes","Lab 3.1.osexp","C:\Users\joey.knofczynski\Downloads","no","mono","no","18","no","white","no","yes","768","legacy","52","11","C:/Users/joey.knofczynski/Downloads/MC-subject-3.csv","legacy","5 9 2 3","Lentiform Loewenfeld","3.3.12","0","n","0","right","right","left","right","NA","500","5037","3140","500","NA","NA","NA","2","legacy","4","1024","2","48000","-16","experiment","3","odd","8","379545","379549","381758","380553","7051","383759","378485","2007","79070","NA","343663","2014","75929","383759","384260","NA","NA","Sternberg Task","59","31442","65","yes","1024"
"90.9090909090909","90.9090909090909","482.469696969697","482.469696969697","black","experiment","legacy","legacy","legacy","0","uniform","1","undefined","1","left","65","65","65","65","0","65","65","0","0","NA","65","0","0","65","65","0","NA","Mon Oct 17 19:31:52 2022","The main experiment item","yes","Lab 3.1.osexp","C:\Users\joey.knofczynski\Downloads","no","mono","no","18","no","white","no","yes","768","legacy","53","11","C:/Users/joey.knofczynski/Downloads/MC-subject-3.csv","legacy","9 5 8 1","Lentiform Loewenfeld","3.3.12","2","y","0","left","right","left","left","NA","401","5037","3140","401","NA","NA","NA","2","legacy","4","1024","2","48000","-16","experiment","3","odd","5","385330","385335","387540","386337","7051","389541","384266","2007","79070","NA","343663","2014","75929","389542","389944","NA","NA","Sternberg Task","60","31843","66","yes","1024"
"91.04477611940298","91.04477611940298","481.94029850746267","481.94029850746267","black","experiment","legacy","legacy","legacy","0","uniform","1","undefined","1","left","66","66","66","66","0","66","66","0","0","NA","66","0","0","66","66","0","NA","Mon Oct 17 19:31:52 2022","The main experiment item","yes","Lab 3.1.osexp","C:\Users\joey.knofczynski\Downloads","no","mono","no","18","no","white","no","yes","768","legacy","54","11","C:/Users/joey.knofczynski/Downloads/MC-subject-3.csv","legacy","8 9 5 6 7","Lentiform Loewenfeld","3.3.12","1","y","0","left","right","left","left","NA","447","5037","3140","447","NA","NA","NA","2","legacy","5","1024","2","48000","-16","experiment","3","odd","8","391008","391012","393216","392013","7051","395218","389948","2007","79070","NA","343663","2014","75929","395218","395666","NA","NA","Sternberg Task","61","32290","67","yes","1024"
"91.17647058823529","91.17647058823529","482.0882352941176","482.0882352941176","black","experiment","legacy","legacy","legacy","0","uniform","1","undefined","1","right","67","67","67","67","0","67","67","0","0","NA","67","0","0","67","67","0","NA","Mon Oct 17 19:31:52 2022","The main experiment item","yes","Lab 3.1.osexp","C:\Users\joey.knofczynski\Downloads","no","mono","no","18","no","white","no","yes","768","legacy","55","11","C:/Users/joey.knofczynski/Downloads/MC-subject-3.csv","legacy","3 4 2","Lentiform Loewenfeld","3.3.12","0","n","0","right","right","left","right","NA","492","5037","3140","492","NA","NA","NA","2","legacy","3","1024","2","48000","-16","experiment","3","odd","5","396736","396739","398946","397741","7051","400947","395671","2007","79070","NA","343663","2014","75929","400947","401440","NA","NA","Sternberg Task","62","32782","68","yes","1024"
"91.30434782608695","91.30434782608695","483.4782608695652","483.4782608695652","black","experiment","legacy","legacy","legacy","0","uniform","1","undefined","1","left","68","68","68","68","0","68","68","0","0","NA","68","0","0","68","68","0","NA","Mon Oct 17 19:31:52 2022","The main experiment item","yes","Lab 3.1.osexp","C:\Users\joey.knofczynski\Downloads","no","mono","no","18","no","white","no","yes","768","legacy","56","11","C:/Users/joey.knofczynski/Downloads/MC-subject-3.csv","legacy","5 7 8 2 3 8","Lentiform Loewenfeld","3.3.12","5","y","0","left","right","left","left","NA","578","5037","3140","578","NA","NA","NA","2","legacy","6","1024","2","48000","-16","experiment","3","odd","3","402510","402513","404719","403515","7051","406720","401445","2007","79070","NA","343663","2014","75929","406720","407299","NA","NA","Sternberg Task","63","33360","69","yes","1024"
"91.42857142857143","91.42857142857143","486.1857142857143","486.1857142857143","black","experiment","legacy","legacy","legacy","0","uniform","1","undefined","1","right","69","69","69","69","0","69","69","0","0","NA","69","0","0","69","69","0","NA","Mon Oct 17 19:31:52 2022","The main experiment item","yes","Lab 3.1.osexp","C:\Users\joey.knofczynski\Downloads","no","mono","no","18","no","white","no","yes","768","legacy","57","11","C:/Users/joey.knofczynski/Downloads/MC-subject-3.csv","legacy","5 3 8 7 2 4","Lentiform Loewenfeld","3.3.12","0","n","0","right","right","left","right","NA","673","5037","3140","673","NA","NA","NA","2","legacy","6","1024","2","48000","-16","experiment","3","odd","9","408367","408369","410575","409371","7051","412577","407304","2007","79070","NA","343663","2014","75929","412577","413251","NA","NA","Sternberg Task","64","34033","70","yes","1024"
"91.54929577464789","91.54929577464789","485.32394366197184","485.32394366197184","black","experiment","legacy","legacy","legacy","0","uniform","1","undefined","1","left","70","70","70","70","0","70","70","0","0","NA","70","0","0","70","70","0","NA","Mon Oct 17 19:31:52 2022","The main experiment item","yes","Lab 3.1.osexp","C:\Users\joey.knofczynski\Downloads","no","mono","no","18","no","white","no","yes","768","legacy","58","11","C:/Users/joey.knofczynski/Downloads/MC-subject-3.csv","legacy","8","Lentiform Loewenfeld","3.3.12","1","y","0","left","right","left","left","NA","425","5037","3140","425","NA","NA","NA","2","legacy","1","1024","2","48000","-16","experiment","3","odd","8","414317","414320","416526","415321","7051","418527","413255","2007","79070","NA","343663","2014","75929","418527","418953","NA","NA","Sternberg Task","65","34458","71","yes","1024"
"91.66666666666667","91.66666666666667","485.30555555555554","485.30555555555554","black","experiment","legacy","legacy","legacy","0","uniform","1","undefined","1","right","71","71","71","71","0","71","71","0","0","NA","71","0","0","71","71","0","NA","Mon Oct 17 19:31:52 2022","The main experiment item","yes","Lab 3.1.osexp","C:\Users\joey.knofczynski\Downloads","no","mono","no","18","no","white","no","yes","768","legacy","59","11","C:/Users/joey.knofczynski/Downloads/MC-subject-3.csv","legacy","7 9","Lentiform Loewenfeld","3.3.12","0","n","0","right","right","left","right","NA","484","5037","3140","484","NA","NA","NA","2","legacy","2","1024","2","48000","-16","experiment","3","odd","1","420019","420022","422231","421026","7051","424232","418959","2007","79070","NA","343663","2014","75929","424232","424717","NA","NA","Sternberg Task","66","34942","72","yes","1024"
"91.78082191780823","91.78082191780823","485.7945205479452","485.7945205479452","black","experiment","legacy","legacy","legacy","0","uniform","1","undefined","1","right","72","72","72","72","0","72","72","0","0","NA","72","0","0","72","72","0","NA","Mon Oct 17 19:31:52 2022","The main experiment item","yes","Lab 3.1.osexp","C:\Users\joey.knofczynski\Downloads","no","mono","no","18","no","white","no","yes","768","legacy","60","11","C:/Users/joey.knofczynski/Downloads/MC-subject-3.csv","legacy","2 8 9 4 1","Lentiform Loewenfeld","3.3.12","0","n","0","right","right","left","right","NA","521","5037","3140","521","NA","NA","NA","2","legacy","5","1024","2","48000","-16","experiment","3","odd","5","425791","425796","428001","426799","7051","430003","424722","2007","79070","NA","343663","2014","75929","430003","430525","NA","NA","Sternberg Task","67","35463","73","yes","1024"
"91.89189189189189","91.89189189189189","484.2432432432432","484.2432432432432","black","experiment","legacy","legacy","legacy","0","uniform","1","undefined","1","left","73","73","73","73","0","73","73","0","0","NA","73","0","0","73","73","0","NA","Mon Oct 17 19:31:52 2022","The main experiment item","yes","Lab 3.1.osexp","C:\Users\joey.knofczynski\Downloads","no","mono","no","18","no","white","no","yes","768","legacy","61","11","C:/Users/joey.knofczynski/Downloads/MC-subject-3.csv","legacy","2 6 1 7 4","Lentiform Loewenfeld","3.3.12","2","y","0","left","right","left","left","NA","371","5037","3140","371","NA","NA","NA","2","legacy","5","1024","2","48000","-16","experiment","3","odd","6","431591","431598","433803","432600","7051","435805","430528","2007","79070","NA","343663","2014","75929","435805","436177","NA","NA","Sternberg Task","68","35834","74","yes","1024"
"92","92","485.0133333333333","485.0133333333333","black","experiment","legacy","legacy","legacy","0","uniform","1","undefined","1","left","74","74","74","74","0","74","74","0","0","NA","74","0","0","74","74","0","NA","Mon Oct 17 19:31:52 2022","The main experiment item","yes","Lab 3.1.osexp","C:\Users\joey.knofczynski\Downloads","no","mono","no","18","no","white","no","yes","768","legacy","62","11","C:/Users/joey.knofczynski/Downloads/MC-subject-3.csv","legacy","6 9 7 4 5 1","Lentiform Loewenfeld","3.3.12","2","y","0","left","right","left","left","NA","542","5037","3140","542","NA","NA","NA","2","legacy","6","1024","2","48000","-16","experiment","3","odd","9","437245","437247","439455","438251","7051","441458","436181","2007","79070","NA","343663","2014","75929","441458","442001","NA","NA","Sternberg Task","69","36376","75","yes","1024"
"92.10526315789474","92.10526315789474","485.0131578947368","485.0131578947368","black","experiment","legacy","legacy","legacy","0","uniform","1","undefined","1","left","75","75","75","75","0","75","75","0","0","NA","75","0","0","75","75","0","NA","Mon Oct 17 19:31:52 2022","The main experiment item","yes","Lab 3.1.osexp","C:\Users\joey.knofczynski\Downloads","no","mono","no","18","no","white","no","yes","768","legacy","63","11","C:/Users/joey.knofczynski/Downloads/MC-subject-3.csv","legacy","7 1 8 5 6 2","Lentiform Loewenfeld","3.3.12","2","y","0","left","right","left","left","NA","485","5037","3140","485","NA","NA","NA","2","legacy","6","1024","2","48000","-16","experiment","3","odd","1","443070","443076","445282","444079","7051","447285","442004","2007","79070","NA","343663","2014","75929","447285","447771","NA","NA","Sternberg Task","70","36861","76","yes","1024"
"92.20779220779221","92.20779220779221","484.46753246753246","484.46753246753246","black","experiment","legacy","legacy","legacy","0","uniform","1","undefined","1","right","76","76","76","76","0","76","76","0","0","NA","76","0","0","76","76","0","NA","Mon Oct 17 19:31:52 2022","The main experiment item","yes","Lab 3.1.osexp","C:\Users\joey.knofczynski\Downloads","no","mono","no","18","no","white","no","yes","768","legacy","64","11","C:/Users/joey.knofczynski/Downloads/MC-subject-3.csv","legacy","4 2 6 9","Lentiform Loewenfeld","3.3.12","0","n","0","right","right","left","right","NA","443","5037","3140","443","NA","NA","NA","2","legacy","4","1024","2","48000","-16","experiment","3","odd","7","448839","448843","451051","449848","7051","453053","447776","2007","79070","NA","343663","2014","75929","453053","453496","NA","NA","Sternberg Task","71","37304","77","yes","1024"
"92.3076923076923","92.3076923076923","483.4102564102564","483.4102564102564","black","experiment","legacy","legacy","legacy","0","uniform","1","undefined","1","left","77","77","77","77","0","77","77","0","0","NA","77","0","0","77","77","0","NA","Mon Oct 17 19:31:52 2022","The main experiment item","yes","Lab 3.1.osexp","C:\Users\joey.knofczynski\Downloads","no","mono","no","18","no","white","no","yes","768","legacy","65","11","C:/Users/joey.knofczynski/Downloads/MC-subject-3.csv","legacy","9 3 8 2 1 4","Lentiform Loewenfeld","3.3.12","3","y","0","left","right","left","left","NA","402","5037","3140","402","NA","NA","NA","2","legacy","6","1024","2","48000","-16","experiment","3","odd","8","454562","454565","456772","455569","7051","458774","453500","2007","79070","NA","343663","2014","75929","458774","459178","NA","NA","Sternberg Task","72","37706","78","yes","1024"
"92.40506329113924","92.40506329113924","482.2025316455696","482.2025316455696","black","experiment","legacy","legacy","legacy","0","uniform","1","undefined","1","left","78","78","78","78","0","78","78","0","0","NA","78","0","0","78","78","0","NA","Mon Oct 17 19:31:52 2022","The main experiment item","yes","Lab 3.1.osexp","C:\Users\joey.knofczynski\Downloads","no","mono","no","18","no","white","no","yes","768","legacy","66","11","C:/Users/joey.knofczynski/Downloads/MC-subject-3.csv","legacy","9 1 6 7 8","Lentiform Loewenfeld","3.3.12","1","y","0","left","right","left","left","NA","388","5037","3140","388","NA","NA","NA","2","legacy","5","1024","2","48000","-16","experiment","3","odd","9","460260","460264","462472","461267","7051","464473","459183","2007","79070","NA","343663","2014","75929","464473","464862","NA","NA","Sternberg Task","73","38094","79","yes","1024"
"91.25","91.25","488.4","488.4","black","experiment","legacy","legacy","legacy","0","uniform","0","undefined","0","right","79","79","79","79","0","79","79","0","0","NA","79","0","0","79","79","0","NA","Mon Oct 17 19:31:52 2022","The main experiment item","yes","Lab 3.1.osexp","C:\Users\joey.knofczynski\Downloads","no","mono","no","18","no","white","no","yes","768","legacy","67","11","C:/Users/joey.knofczynski/Downloads/MC-subject-3.csv","legacy","8 5 7 3 6","Lentiform Loewenfeld","3.3.12","0","n","0","left","right","left","left","NA","978","5037","3140","978","NA","NA","NA","2","legacy","5","1024","2","48000","-16","experiment","3","odd","9","465927","465930","468136","466931","7051","470138","464868","2007","79070","NA","343663","2014","75929","470138","471117","NA","NA","Sternberg Task","73","39072","80","yes","1024"
"91.35802469135803","91.35802469135803","492.22222222222223","492.22222222222223","black","experiment","legacy","legacy","legacy","0","uniform","1","undefined","1","right","80","80","80","80","0","80","80","0","0","NA","80","0","0","80","80","0","NA","Mon Oct 17 19:31:52 2022","The main experiment item","yes","Lab 3.1.osexp","C:\Users\joey.knofczynski\Downloads","no","mono","no","18","no","white","no","yes","768","legacy","68","11","C:/Users/joey.knofczynski/Downloads/MC-subject-3.csv","legacy","7 4 2 8 1 9","Lentiform Loewenfeld","3.3.12","0","n","0","right","right","left","right","NA","798","5037","3140","798","NA","NA","NA","2","legacy","6","1024","2","48000","-16","experiment","3","odd","5","472182","472185","474391","473186","7051","476392","464868","2007","79070","NA","471120","2014","75929","476392","477191","NA","NA","Sternberg Task","74","39870","81","yes","1024"
"91.46341463414635","91.46341463414635","491.8170731707317","491.8170731707317","black","experiment","legacy","legacy","legacy","0","uniform","1","undefined","1","right","81","81","81","81","0","81","81","0","0","NA","81","0","0","81","81","0","NA","Mon Oct 17 19:31:52 2022","The main experiment item","yes","Lab 3.1.osexp","C:\Users\joey.knofczynski\Downloads","no","mono","no","18","no","white","no","yes","768","legacy","69","11","C:/Users/joey.knofczynski/Downloads/MC-subject-3.csv","legacy","2 8 6 3 1","Lentiform Loewenfeld","3.3.12","0","n","0","right","right","left","right","NA","459","5037","3140","459","NA","NA","NA","2","legacy","5","1024","2","48000","-16","experiment","3","odd","7","478264","478268","480473","479269","7051","482475","477199","2007","79070","NA","471120","2014","75929","482475","482935","NA","NA","Sternberg Task","75","40329","82","yes","1024"
"91.56626506024097","91.56626506024097","491.1927710843373","491.1927710843373","black","experiment","legacy","legacy","legacy","0","uniform","1","undefined","1","left","82","82","82","82","0","82","82","0","0","NA","82","0","0","82","82","0","NA","Mon Oct 17 19:31:52 2022","The main experiment item","yes","Lab 3.1.osexp","C:\Users\joey.knofczynski\Downloads","no","mono","no","18","no","white","no","yes","768","legacy","70","11","C:/Users/joey.knofczynski/Downloads/MC-subject-3.csv","legacy","3 5 7 1","Lentiform Loewenfeld","3.3.12","3","y","0","left","right","left","left","NA","440","5037","3140","440","NA","NA","NA","2","legacy","4","1024","2","48000","-16","experiment","3","odd","7","484000","484002","486209","485004","7051","488211","482939","2007","79070","NA","471120","2014","75929","488211","488652","NA","NA","Sternberg Task","76","40769","83","yes","1024"
"91.66666666666667","91.66666666666667","490.8452380952381","490.8452380952381","black","experiment","legacy","legacy","legacy","0","uniform","1","undefined","1","left","83","83","83","83","0","83","83","0","0","NA","83","0","0","83","83","0","NA","Mon Oct 17 19:31:52 2022","The main experiment item","yes","Lab 3.1.osexp","C:\Users\joey.knofczynski\Downloads","no","mono","no","18","no","white","no","yes","768","legacy","71","11","C:/Users/joey.knofczynski/Downloads/MC-subject-3.csv","legacy","4 9 7 8 5 3","Lentiform Loewenfeld","3.3.12","4","y","0","left","right","left","left","NA","462","5037","3140","462","NA","NA","NA","2","legacy","6","1024","2","48000","-16","experiment","3","odd","8","489721","489724","491931","490726","7051","493933","488659","2007","79070","NA","471120","2014","75929","493933","494396","NA","NA","Sternberg Task","77","41231","84","yes","1024"
"91.76470588235294","91.76470588235294","490.09411764705885","490.09411764705885","black","experiment","legacy","legacy","legacy","0","uniform","1","undefined","1","left","84","84","84","84","0","84","84","0","0","NA","84","0","0","84","84","0","NA","Mon Oct 17 19:31:52 2022","The main experiment item","yes","Lab 3.1.osexp","C:\Users\joey.knofczynski\Downloads","no","mono","no","18","no","white","no","yes","768","legacy","72","11","C:/Users/joey.knofczynski/Downloads/MC-subject-3.csv","legacy","9 3 1 2 5","Lentiform Loewenfeld","3.3.12","4","y","0","left","right","left","left","NA","427","5037","3140","427","NA","NA","NA","2","legacy","5","1024","2","48000","-16","experiment","3","odd","2","495467","495470","497677","496473","7051","499681","494400","2007","79070","NA","471120","2014","75929","499681","500111","NA","NA","Sternberg Task","78","41658","85","yes","1024"
"91.86046511627907","91.86046511627907","489.98837209302326","489.98837209302326","black","experiment","legacy","legacy","legacy","0","uniform","1","undefined","1","left","85","85","85","85","0","85","85","0","0","NA","85","0","0","85","85","0","NA","Mon Oct 17 19:31:52 2022","The main experiment item","yes","Lab 3.1.osexp","C:\Users\joey.knofczynski\Downloads","no","mono","no","18","no","white","no","yes","768","legacy","73","11","C:/Users/joey.knofczynski/Downloads/MC-subject-3.csv","legacy","4 3 2 5 8","Lentiform Loewenfeld","3.3.12","2","y","0","left","right","left","left","NA","481","5037","3140","481","NA","NA","NA","2","legacy","5","1024","2","48000","-16","experiment","3","odd","3","501177","501180","503386","502181","7051","505387","500115","2007","79070","NA","471120","2014","75929","505388","505870","NA","NA","Sternberg Task","79","42139","86","yes","1024"
"91.95402298850574","91.95402298850574","489.8390804597701","489.8390804597701","black","experiment","legacy","legacy","legacy","0","uniform","1","undefined","1","right","86","86","86","86","0","86","86","0","0","NA","86","0","0","86","86","0","NA","Mon Oct 17 19:31:52 2022","The main experiment item","yes","Lab 3.1.osexp","C:\Users\joey.knofczynski\Downloads","no","mono","no","18","no","white","no","yes","768","legacy","74","11","C:/Users/joey.knofczynski/Downloads/MC-subject-3.csv","legacy","2 6 4 3 9","Lentiform Loewenfeld","3.3.12","0","n","0","right","right","left","right","NA","477","5037","3140","477","NA","NA","NA","2","legacy","5","1024","2","48000","-16","experiment","3","odd","1","506939","506942","509149","507946","7051","511151","505874","2007","79070","NA","471120","2014","75929","511151","511629","NA","NA","Sternberg Task","80","42616","87","yes","1024"
"92.04545454545455","92.04545454545455","490.09090909090907","490.09090909090907","black","experiment","legacy","legacy","legacy","0","uniform","1","undefined","1","left","87","87","87","87","0","87","87","0","0","NA","87","0","0","87","87","0","NA","Mon Oct 17 19:31:52 2022","The main experiment item","yes","Lab 3.1.osexp","C:\Users\joey.knofczynski\Downloads","no","mono","no","18","no","white","no","yes","768","legacy","75","11","C:/Users/joey.knofczynski/Downloads/MC-subject-3.csv","legacy","8 9 5 7 1 6","Lentiform Loewenfeld","3.3.12","4","y","0","left","right","left","left","NA","512","5037","3140","512","NA","NA","NA","2","legacy","6","1024","2","48000","-16","experiment","3","odd","7","512697","512699","514904","513700","7051","516907","511634","2007","79070","NA","471120","2014","75929","516907","517420","NA","NA","Sternberg Task","81","43128","88","yes","1024"
"92.13483146067416","92.13483146067416","490.75280898876406","490.75280898876406","black","experiment","legacy","legacy","legacy","0","uniform","1","undefined","1","left","88","88","88","88","0","88","88","0","0","NA","88","0","0","88","88","0","NA","Mon Oct 17 19:31:52 2022","The main experiment item","yes","Lab 3.1.osexp","C:\Users\joey.knofczynski\Downloads","no","mono","no","18","no","white","no","yes","768","legacy","76","11","C:/Users/joey.knofczynski/Downloads/MC-subject-3.csv","legacy","2 5 4 8 7","Lentiform Loewenfeld","3.3.12","3","y","0","left","right","left","left","NA","549","5037","3140","549","NA","NA","NA","2","legacy","5","1024","2","48000","-16","experiment","3","odd","4","518489","518493","520697","519495","7051","522700","517427","2007","79070","NA","471120","2014","75929","522700","523250","NA","NA","Sternberg Task","82","43677","89","yes","1024"
"92.22222222222223","92.22222222222223","489.22222222222223","489.22222222222223","black","experiment","legacy","legacy","legacy","0","uniform","1","undefined","1","left","89","89","89","89","0","89","89","0","0","NA","89","0","0","89","89","0","NA","Mon Oct 17 19:31:52 2022","The main experiment item","yes","Lab 3.1.osexp","C:\Users\joey.knofczynski\Downloads","no","mono","no","18","no","white","no","yes","768","legacy","77","11","C:/Users/joey.knofczynski/Downloads/MC-subject-3.csv","legacy","3 4","Lentiform Loewenfeld","3.3.12","1","y","0","left","right","left","left","NA","353","5037","3140","353","NA","NA","NA","2","legacy","2","1024","2","48000","-16","experiment","3","odd","3","524320","524323","526531","525326","7051","528532","523255","2007","79070","NA","471120","2014","75929","528532","528886","NA","NA","Sternberg Task","83","44030","90","yes","1024"
"92.3076923076923","92.3076923076923","490.35164835164835","490.35164835164835","black","experiment","legacy","legacy","legacy","0","uniform","1","undefined","1","left","90","90","90","90","0","90","90","0","0","NA","90","0","0","90","90","0","NA","Mon Oct 17 19:31:52 2022","The main experiment item","yes","Lab 3.1.osexp","C:\Users\joey.knofczynski\Downloads","no","mono","no","18","no","white","no","yes","768","legacy","78","11","C:/Users/joey.knofczynski/Downloads/MC-subject-3.csv","legacy","8 5 4 7 3 1","Lentiform Loewenfeld","3.3.12","2","y","0","left","right","left","left","NA","592","5037","3140","592","NA","NA","NA","2","legacy","6","1024","2","48000","-16","experiment","3","odd","5","529962","529964","532171","530968","7051","534172","528892","2007","79070","NA","471120","2014","75929","534172","534765","NA","NA","Sternberg Task","84","44622","91","yes","1024"
"91.30434782608695","91.30434782608695","491.7282608695652","491.7282608695652","black","experiment","legacy","legacy","legacy","0","uniform","0","undefined","0","right","91","91","91","91","0","91","91","0","0","NA","91","0","0","91","91","0","NA","Mon Oct 17 19:31:52 2022","The main experiment item","yes","Lab 3.1.osexp","C:\Users\joey.knofczynski\Downloads","no","mono","no","18","no","white","no","yes","768","legacy","79","11","C:/Users/joey.knofczynski/Downloads/MC-subject-3.csv","legacy","1 6 4 3 9 7","Lentiform Loewenfeld","3.3.12","0","n","0","left","right","left","left","NA","617","5037","3140","617","NA","NA","NA","2","legacy","6","1024","2","48000","-16","experiment","3","odd","8","535848","535853","538057","536854","7051","540059","534770","2007","79070","NA","471120","2014","75929","540059","540677","NA","NA","Sternberg Task","84","45239","92","yes","1024"
"91.39784946236558","91.39784946236558","491.0967741935484","491.0967741935484","black","experiment","legacy","legacy","legacy","0","uniform","1","undefined","1","left","92","92","92","92","0","92","92","0","0","NA","92","0","0","92","92","0","NA","Mon Oct 17 19:31:52 2022","The main experiment item","yes","Lab 3.1.osexp","C:\Users\joey.knofczynski\Downloads","no","mono","no","18","no","white","no","yes","768","legacy","80","11","C:/Users/joey.knofczynski/Downloads/MC-subject-3.csv","legacy","2 4 8 5 1 3","Lentiform Loewenfeld","3.3.12","1","y","0","left","right","left","left","NA","433","5037","3140","433","NA","NA","NA","2","legacy","6","1024","2","48000","-16","experiment","3","odd","2","541743","541745","543950","542746","7051","545952","534770","2007","79070","NA","540683","2014","75929","545952","546386","NA","NA","Sternberg Task","85","45672","93","yes","1024"
"91.48936170212765","91.48936170212765","489.8936170212766","489.8936170212766","black","experiment","legacy","legacy","legacy","0","uniform","1","undefined","1","left","93","93","93","93","0","93","93","0","0","NA","93","0","0","93","93","0","NA","Mon Oct 17 19:31:52 2022","The main experiment item","yes","Lab 3.1.osexp","C:\Users\joey.knofczynski\Downloads","no","mono","no","18","no","white","no","yes","768","legacy","81","11","C:/Users/joey.knofczynski/Downloads/MC-subject-3.csv","legacy","4 6 5 8","Lentiform Loewenfeld","3.3.12","1","y","0","left","right","left","left","NA","378","5037","3140","378","NA","NA","NA","2","legacy","4","1024","2","48000","-16","experiment","3","odd","4","547453","547456","549664","548460","7051","551667","546391","2007","79070","NA","540683","2014","75929","551667","552047","NA","NA","Sternberg Task","86","46050","94","yes","1024"
"91.57894736842105","91.57894736842105","488.62105263157895","488.62105263157895","black","experiment","legacy","legacy","legacy","0","uniform","1","undefined","1","left","94","94","94","94","0","94","94","0","0","NA","94","0","0","94","94","0","NA","Mon Oct 17 19:31:52 2022","The main experiment item","yes","Lab 3.1.osexp","C:\Users\joey.knofczynski\Downloads","no","mono","no","18","no","white","no","yes","768","legacy","82","11","C:/Users/joey.knofczynski/Downloads/MC-subject-3.csv","legacy","6 2","Lentiform Loewenfeld","3.3.12","1","y","0","left","right","left","left","NA","369","5037","3140","369","NA","NA","NA","2","legacy","2","1024","2","48000","-16","experiment","3","odd","6","553115","553118","555324","554119","7051","557326","552051","2007","79070","NA","540683","2014","75929","557326","557697","NA","NA","Sternberg Task","87","46419","95","yes","1024"
"91.66666666666667","91.66666666666667","487.2604166666667","487.2604166666667","black","experiment","legacy","legacy","legacy","0","uniform","1","undefined","1","left","95","95","95","95","0","95","95","0","0","NA","95","0","0","95","95","0","NA","Mon Oct 17 19:31:52 2022","The main experiment item","yes","Lab 3.1.osexp","C:\Users\joey.knofczynski\Downloads","no","mono","no","18","no","white","no","yes","768","legacy","83","11","C:/Users/joey.knofczynski/Downloads/MC-subject-3.csv","legacy","6 5","Lentiform Loewenfeld","3.3.12","2","y","0","left","right","left","left","NA","358","5037","3140","358","NA","NA","NA","2","legacy","2","1024","2","48000","-16","experiment","3","odd","5","558765","558768","560973","559770","7051","562974","557702","2007","79070","NA","540683","2014","75929","562974","563333","NA","NA","Sternberg Task","88","46777","96","yes","1024"
"91.75257731958763","91.75257731958763","488.22680412371136","488.22680412371136","black","experiment","legacy","legacy","legacy","0","uniform","1","undefined","1","right","96","96","96","96","0","96","96","0","0","NA","96","0","0","96","96","0","NA","Mon Oct 17 19:31:52 2022","The main experiment item","yes","Lab 3.1.osexp","C:\Users\joey.knofczynski\Downloads","no","mono","no","18","no","white","no","yes","768","legacy","84","11","C:/Users/joey.knofczynski/Downloads/MC-subject-3.csv","legacy","6 9 5","Lentiform Loewenfeld","3.3.12","0","n","0","right","right","left","right","NA","581","5037","3140","581","NA","NA","NA","2","legacy","3","1024","2","48000","-16","experiment","3","odd","8","564398","564400","566608","565403","7051","568610","563336","2007","79070","NA","540683","2014","75929","568610","569191","NA","NA","Sternberg Task","89","47358","97","yes","1024"
"91.83673469387755","91.83673469387755","487.7448979591837","487.7448979591837","black","experiment","legacy","legacy","legacy","0","uniform","1","undefined","1","left","97","97","97","97","0","97","97","0","0","NA","97","0","0","97","97","0","NA","Mon Oct 17 19:31:52 2022","The main experiment item","yes","Lab 3.1.osexp","C:\Users\joey.knofczynski\Downloads","no","mono","no","18","no","white","no","yes","768","legacy","85","11","C:/Users/joey.knofczynski/Downloads/MC-subject-3.csv","legacy","6 1 2","Lentiform Loewenfeld","3.3.12","3","y","0","left","right","left","left","NA","441","5037","3140","441","NA","NA","NA","2","legacy","3","1024","2","48000","-16","experiment","3","odd","2","570257","570260","572465","571263","7051","574466","569196","2007","79070","NA","540683","2014","75929","574466","574909","NA","NA","Sternberg Task","90","47799","98","yes","1024"
"91.91919191919192","91.91919191919192","486.989898989899","486.989898989899","black","experiment","legacy","legacy","legacy","0","uniform","1","undefined","1","left","98","98","98","98","0","98","98","0","0","NA","98","0","0","98","98","0","NA","Mon Oct 17 19:31:52 2022","The main experiment item","yes","Lab 3.1.osexp","C:\Users\joey.knofczynski\Downloads","no","mono","no","18","no","white","no","yes","768","legacy","86","11","C:/Users/joey.knofczynski/Downloads/MC-subject-3.csv","legacy","6 7 9 3 1 2","Lentiform Loewenfeld","3.3.12","1","y","0","left","right","left","left","NA","413","5037","3140","413","NA","NA","NA","2","legacy","6","1024","2","48000","-16","experiment","3","odd","6","575975","575977","578185","576981","7051","580186","574914","2007","79070","NA","540683","2014","75929","580187","580602","NA","NA","Sternberg Task","91","48212","99","yes","1024"
"92","92","488.02","488.02","black","experiment","legacy","legacy","legacy","0","uniform","1","undefined","1","right","99","99","99","99","0","99","99","0","0","NA","99","0","0","99","99","0","NA","Mon Oct 17 19:31:52 2022","The main experiment item","yes","Lab 3.1.osexp","C:\Users\joey.knofczynski\Downloads","no","mono","no","18","no","white","no","yes","768","legacy","87","11","C:/Users/joey.knofczynski/Downloads/MC-subject-3.csv","legacy","1 8 7","Lentiform Loewenfeld","3.3.12","0","n","0","right","right","left","right","NA","590","5037","3140","590","NA","NA","NA","2","legacy","3","1024","2","48000","-16","experiment","3","odd","4","581666","581669","583876","582672","7051","585878","580606","2007","79070","NA","540683","2014","75929","585878","586469","NA","NA","Sternberg Task","92","48802","100","yes","1024"
"92.07920792079207","92.07920792079207","487.1485148514852","487.1485148514852","black","experiment","legacy","legacy","legacy","0","uniform","1","undefined","1","left","100","100","100","100","0","100","100","0","0","NA","100","0","0","100","100","0","NA","Mon Oct 17 19:31:52 2022","The main experiment item","yes","Lab 3.1.osexp","C:\Users\joey.knofczynski\Downloads","no","mono","no","18","no","white","no","yes","768","legacy","88","11","C:/Users/joey.knofczynski/Downloads/MC-subject-3.csv","legacy","3 9 7 6 4","Lentiform Loewenfeld","3.3.12","3","y","0","left","right","left","left","NA","400","5037","3140","400","NA","NA","NA","2","legacy","5","1024","2","48000","-16","experiment","3","odd","7","587536","587539","589744","588540","7051","591746","586474","2007","79070","NA","540683","2014","75929","591746","592147","NA","NA","Sternberg Task","93","49202","101","yes","1024"
"92.15686274509804","92.15686274509804","486.4313725490196","486.4313725490196","black","experiment","legacy","legacy","legacy","0","uniform","1","undefined","1","left","101","101","101","101","0","101","101","0","0","NA","101","0","0","101","101","0","NA","Mon Oct 17 19:31:52 2022","The main experiment item","yes","Lab 3.1.osexp","C:\Users\joey.knofczynski\Downloads","no","mono","no","18","no","white","no","yes","768","legacy","89","11","C:/Users/joey.knofczynski/Downloads/MC-subject-3.csv","legacy","7 2 3","Lentiform Loewenfeld","3.3.12","3","y","0","left","right","left","left","NA","414","5037","3140","414","NA","NA","NA","2","legacy","3","1024","2","48000","-16","experiment","3","odd","3","593212","593216","595421","594218","7051","597422","592151","2007","79070","NA","540683","2014","75929","597422","597837","NA","NA","Sternberg Task","94","49616","102","yes","1024"
"92.23300970873787","92.23300970873787","486.31067961165047","486.31067961165047","black","experiment","legacy","legacy","legacy","0","uniform","1","undefined","1","right","102","102","102","102","0","102","102","0","0","NA","102","0","0","102","102","0","NA","Mon Oct 17 19:31:52 2022","The main experiment item","yes","Lab 3.1.osexp","C:\Users\joey.knofczynski\Downloads","no","mono","no","18","no","white","no","yes","768","legacy","90","11","C:/Users/joey.knofczynski/Downloads/MC-subject-3.csv","legacy","2 8 9","Lentiform Loewenfeld","3.3.12","0","n","0","right","right","left","right","NA","474","5037","3140","474","NA","NA","NA","2","legacy","3","1024","2","48000","-16","experiment","3","odd","6","598905","598908","601114","599911","7051","603116","597841","2007","79070","NA","540683","2014","75929","603117","603592","NA","NA","Sternberg Task","95","50090","103","yes","1024"
"92.3076923076923","92.3076923076923","486.8173076923077","486.8173076923077","black","experiment","legacy","legacy","legacy","0","uniform","1","undefined","1","right","103","103","103","103","0","103","103","0","0","NA","103","0","0","103","103","0","NA","Mon Oct 17 19:31:52 2022","The main experiment item","yes","Lab 3.1.osexp","C:\Users\joey.knofczynski\Downloads","no","mono","no","18","no","white","no","yes","768","legacy","91","11","C:/Users/joey.knofczynski/Downloads/MC-subject-3.csv","legacy","8 4 3 5","Lentiform Loewenfeld","3.3.12","0","n","0","right","right","left","right","NA","539","5037","3140","539","NA","NA","NA","2","legacy","4","1024","2","48000","-16","experiment","3","odd","6","604662","604665","606872","605668","7051","608873","603596","2007","79070","NA","540683","2014","75929","608873","609413","NA","NA","Sternberg Task","96","50629","104","yes","1024"
"92.38095238095238","92.38095238095238","486.46666666666664","486.46666666666664","black","experiment","legacy","legacy","legacy","0","uniform","1","undefined","1","right","104","104","104","104","0","104","104","0","0","NA","104","0","0","104","104","0","NA","Mon Oct 17 19:31:52 2022","The main experiment item","yes","Lab 3.1.osexp","C:\Users\joey.knofczynski\Downloads","no","mono","no","18","no","white","no","yes","768","legacy","92","11","C:/Users/joey.knofczynski/Downloads/MC-subject-3.csv","legacy","5 2","Lentiform Loewenfeld","3.3.12","0","n","0","right","right","left","right","NA","450","5037","3140","450","NA","NA","NA","2","legacy","2","1024","2","48000","-16","experiment","3","odd","7","610477","610481","612686","611484","7051","614687","609417","2007","79070","NA","540683","2014","75929","614687","615138","NA","NA","Sternberg Task","97","51079","105","yes","1024"
"92.45283018867924","92.45283018867924","485.74528301886795","485.74528301886795","black","experiment","legacy","legacy","legacy","0","uniform","1","undefined","1","right","105","105","105","105","0","105","105","0","0","NA","105","0","0","105","105","0","NA","Mon Oct 17 19:31:52 2022","The main experiment item","yes","Lab 3.1.osexp","C:\Users\joey.knofczynski\Downloads","no","mono","no","18","no","white","no","yes","768","legacy","93","11","C:/Users/joey.knofczynski/Downloads/MC-subject-3.csv","legacy","1","Lentiform Loewenfeld","3.3.12","0","n","0","right","right","left","right","NA","410","5037","3140","410","NA","NA","NA","2","legacy","1","1024","2","48000","-16","experiment","3","odd","7","616209","616211","618419","617216","7051","620421","615142","2007","79070","NA","540683","2014","75929","620421","620832","NA","NA","Sternberg Task","98","51489","106","yes","1024"
"92.5233644859813","92.5233644859813","486.94392523364485","486.94392523364485","black","experiment","legacy","legacy","legacy","0","uniform","1","undefined","1","right","106","106","106","106","0","106","106","0","0","NA","106","0","0","106","106","0","NA","Mon Oct 17 19:31:52 2022","The main experiment item","yes","Lab 3.1.osexp","C:\Users\joey.knofczynski\Downloads","no","mono","no","18","no","white","no","yes","768","legacy","94","11","C:/Users/joey.knofczynski/Downloads/MC-subject-3.csv","legacy","8 5 4 2 9 6","Lentiform Loewenfeld","3.3.12","0","n","0","right","right","left","right","NA","614","5037","3140","614","NA","NA","NA","2","legacy","6","1024","2","48000","-16","experiment","3","odd","3","621900","621903","624108","622904","7051","626109","620837","2007","79070","NA","540683","2014","75929","626109","626725","NA","NA","Sternberg Task","99","52103","107","yes","1024"
"92.5925925925926","92.5925925925926","486.5462962962963","486.5462962962963","black","experiment","legacy","legacy","legacy","0","uniform","1","undefined","1","right","107","107","107","107","0","107","107","0","0","NA","107","0","0","107","107","0","NA","Mon Oct 17 19:31:52 2022","The main experiment item","yes","Lab 3.1.osexp","C:\Users\joey.knofczynski\Downloads","no","mono","no","18","no","white","no","yes","768","legacy","95","11","C:/Users/joey.knofczynski/Downloads/MC-subject-3.csv","legacy","6 9 7 3 8 2","Lentiform Loewenfeld","3.3.12","0","n","0","right","right","left","right","NA","444","5037","3140","444","NA","NA","NA","2","legacy","6","1024","2","48000","-16","experiment","3","odd","5","627789","627792","629999","628795","7051","632002","626729","2007","79070","NA","540683","2014","75929","632002","632447","NA","NA","Sternberg Task","100","52547","108","yes","1024"
"92.66055045871559","92.66055045871559","486.54128440366975","486.54128440366975","black","experiment","legacy","legacy","legacy","0","uniform","1","undefined","1","left","108","108","108","108","0","108","108","0","0","NA","108","0","0","108","108","0","NA","Mon Oct 17 19:31:52 2022","The main experiment item","yes","Lab 3.1.osexp","C:\Users\joey.knofczynski\Downloads","no","mono","no","18","no","white","no","yes","768","legacy","96","11","C:/Users/joey.knofczynski/Downloads/MC-subject-3.csv","legacy","2 4 6 9","Lentiform Loewenfeld","3.3.12","3","y","0","left","right","left","left","NA","486","5037","3140","486","NA","NA","NA","2","legacy","4","1024","2","48000","-16","experiment","3","odd","6","633512","633514","635722","634517","7051","637723","632450","2007","79070","NA","540683","2014","75929","637723","638211","NA","NA","Sternberg Task","101","53033","109","yes","1024"
"92.72727272727273","92.72727272727273","486.7181818181818","486.7181818181818","black","experiment","legacy","legacy","legacy","0","uniform","1","undefined","1","left","109","109","109","109","0","109","109","0","0","NA","109","0","0","109","109","0","NA","Mon Oct 17 19:31:52 2022","The main experiment item","yes","Lab 3.1.osexp","C:\Users\joey.knofczynski\Downloads","no","mono","no","18","no","white","no","yes","768","legacy","97","11","C:/Users/joey.knofczynski/Downloads/MC-subject-3.csv","legacy","3 9 6 2","Lentiform Loewenfeld","3.3.12","4","y","0","left","right","left","left","NA","506","5037","3140","506","NA","NA","NA","2","legacy","4","1024","2","48000","-16","experiment","3","odd","2","639275","639277","641484","640280","7051","643486","638215","2007","79070","NA","540683","2014","75929","643486","643993","NA","NA","Sternberg Task","102","53539","110","yes","1024"
"92.7927927927928","92.7927927927928","486.60360360360363","486.60360360360363","black","experiment","legacy","legacy","legacy","0","uniform","1","undefined","1","right","110","110","110","110","0","110","110","0","0","NA","110","0","0","110","110","0","NA","Mon Oct 17 19:31:52 2022","The main experiment item","yes","Lab 3.1.osexp","C:\Users\joey.knofczynski\Downloads","no","mono","no","18","no","white","no","yes","768","legacy","98","11","C:/Users/joey.knofczynski/Downloads/MC-subject-3.csv","legacy","9 5 3 2 8 6","Lentiform Loewenfeld","3.3.12","0","n","0","right","right","left","right","NA","474","5037","3140","474","NA","NA","NA","2","legacy","6","1024","2","48000","-16","experiment","3","odd","7","645063","645070","647276","646073","7051","649278","643998","2007","79070","NA","540683","2014","75929","649278","649753","NA","NA","Sternberg Task","103","54013","111","yes","1024"
"92.85714285714286","92.85714285714286","485.89285714285717","485.89285714285717","black","experiment","legacy","legacy","legacy","0","uniform","1","undefined","1","left","111","111","111","111","0","111","111","0","0","NA","111","0","0","111","111","0","NA","Mon Oct 17 19:31:52 2022","The main experiment item","yes","Lab 3.1.osexp","C:\Users\joey.knofczynski\Downloads","no","mono","no","18","no","white","no","yes","768","legacy","99","11","C:/Users/joey.knofczynski/Downloads/MC-subject-3.csv","legacy","5 2 9 6 1 7","Lentiform Loewenfeld","3.3.12","3","y","0","left","right","left","left","NA","407","5037","3140","407","NA","NA","NA","2","legacy","6","1024","2","48000","-16","experiment","3","odd","9","650843","650846","653053","651850","7051","655055","649758","2007","79070","NA","540683","2014","75929","655055","655463","NA","NA","Sternberg Task","104","54420","112","yes","1024"
"92.92035398230088","92.92035398230088","485.20353982300884","485.20353982300884","black","experiment","legacy","legacy","legacy","0","uniform","1","undefined","1","left","112","112","112","112","0","112","112","0","0","NA","112","0","0","112","112","0","NA","Mon Oct 17 19:31:52 2022","The main experiment item","yes","Lab 3.1.osexp","C:\Users\joey.knofczynski\Downloads","no","mono","no","18","no","white","no","yes","768","legacy","100","11","C:/Users/joey.knofczynski/Downloads/MC-subject-3.csv","legacy","7 6","Lentiform Loewenfeld","3.3.12","2","y","0","left","right","left","left","NA","408","5037","3140","408","NA","NA","NA","2","legacy","2","1024","2","48000","-16","experiment","3","odd","6","656528","656532","658738","657534","7051","660739","655468","2007","79070","NA","540683","2014","75929","660739","661148","NA","NA","Sternberg Task","105","54828","113","yes","1024"
