"acc","accuracy","average_response_time","avg_rt","background","block","canvas_backend","clock_backend","color_backend","compensation","coordinates","correct","correct_instruction1","correct_keyboard_response","correct_response","count_ISI","count_correctFeedback","count_expSequence","count_experiment","count_experimentLoop","count_fixation","count_incorrectFeedback","count_instruction1","count_instructions2","count_keyboard_response","count_logger","count_memorySet","count_new_sketchpad","count_practiceLoop","count_probe","count_thankYou","datetime","description","disable_garbage_collection","experiment_file","experiment_path","font_bold","font_family","font_italic","font_size","font_underline","foreground","form_clicks","fullscreen","height","keyboard_backend","live_row","live_row_practiceLoop","logfile","mouse_backend","numberSet","opensesame_codename","opensesame_version","posInSet","present","repeat_cycle","response","response_instruction1","response_instructions2","response_keyboard_response","response_new_sketchpad","response_thankYou","response_time","response_time_instruction1","response_time_instructions2","response_time_keyboard_response","response_time_new_sketchpad","response_time_thankYou","round_decimals","sampler_backend","setSize","sound_buf_size","sound_channels","sound_freq","sound_sample_size","start","subject_nr","subject_parity","target","time_ISI","time_correctFeedback","time_expSequence","time_experiment","time_experimentLoop","time_fixation","time_incorrectFeedback","time_instruction1","time_instructions2","time_keyboard_response","time_logger","time_memorySet","time_new_sketchpad","time_practiceLoop","time_probe","time_thankYou","title","total_correct","total_response_time","total_responses","uniform_coordinates","width"
"100","100","1041","1041","black","practice","legacy","legacy","legacy","0","uniform","1","undefined","1","left","0","0","0","0","0","0","0","0","0","0","0","0","NA","0","0","0","Sun Oct 24 19:53:09 2021","The main experiment item","yes","Sternbergtask.osexp","/Users/mihailcodreanu/Desktop","no","mono","no","18","no","white","no","yes","768","legacy","0","0","/Users/mihailcodreanu/Desktop/MC-subject-3.csv","legacy","4 3 1 7 9 8","Lentiform Loewenfeld","3.3.9","1","y","0","left","left","NA","left","NA","NA","1041","66216","NA","1041","NA","NA","2","legacy","6","1024","2","48000","-16","experiment","3","odd","4","72387","NA","70170","3529","NA","70175","NA","3536","NA","74391","75435","71180","NA","69765","74391","NA","Sternberg task","1","1041","1","yes","1024"
"100","100","786","786","black","practice","legacy","legacy","legacy","0","uniform","1","undefined","1","right","1","1","1","0","0","1","1","0","0","1","1","1","NA","0","1","0","Sun Oct 24 19:53:09 2021","The main experiment item","yes","Sternbergtask.osexp","/Users/mihailcodreanu/Desktop","no","mono","no","18","no","white","no","yes","768","legacy","1","1","/Users/mihailcodreanu/Desktop/MC-subject-3.csv","legacy","9 6 7 4 5","Lentiform Loewenfeld","3.3.9","0","n","0","right","left","NA","right","NA","NA","531","66216","NA","531","NA","NA","2","legacy","5","1024","2","48000","-16","experiment","3","odd","3","78745","75465","76530","3529","NA","76534","NA","3536","NA","80749","81281","77539","NA","69765","80749","NA","Sternberg task","2","1572","2","yes","1024"
"100","100","726.6666666666666","726.6666666666666","black","practice","legacy","legacy","legacy","0","uniform","1","undefined","1","left","2","2","2","0","0","2","2","0","0","2","2","2","NA","0","2","0","Sun Oct 24 19:53:09 2021","The main experiment item","yes","Sternbergtask.osexp","/Users/mihailcodreanu/Desktop","no","mono","no","18","no","white","no","yes","768","legacy","2","2","/Users/mihailcodreanu/Desktop/MC-subject-3.csv","legacy","4 8","Lentiform Loewenfeld","3.3.9","1","y","0","left","left","NA","left","NA","NA","608","66216","NA","608","NA","NA","2","legacy","2","1024","2","48000","-16","experiment","3","odd","4","84556","81286","82342","3529","NA","82346","NA","3536","NA","86560","87169","83350","NA","69765","86560","NA","Sternberg task","3","2180","3","yes","1024"
"100","100","667","667","black","practice","legacy","legacy","legacy","0","uniform","1","undefined","1","right","3","3","3","0","0","3","3","0","0","3","3","3","NA","0","3","0","Sun Oct 24 19:53:09 2021","The main experiment item","yes","Sternbergtask.osexp","/Users/mihailcodreanu/Desktop","no","mono","no","18","no","white","no","yes","768","legacy","3","3","/Users/mihailcodreanu/Desktop/MC-subject-3.csv","legacy","5 7 8 4 1 2","Lentiform Loewenfeld","3.3.9","0","n","0","right","left","NA","right","NA","NA","488","66216","NA","488","NA","NA","2","legacy","6","1024","2","48000","-16","experiment","3","odd","6","90444","87175","88231","3529","NA","88234","NA","3536","NA","92448","92937","89238","NA","69765","92448","NA","Sternberg task","4","2668","4","yes","1024"
"100","100","665.2","665.2","black","practice","legacy","legacy","legacy","0","uniform","1","undefined","1","left","4","4","4","0","0","4","4","0","0","4","4","4","NA","0","4","0","Sun Oct 24 19:53:09 2021","The main experiment item","yes","Sternbergtask.osexp","/Users/mihailcodreanu/Desktop","no","mono","no","18","no","white","no","yes","768","legacy","4","4","/Users/mihailcodreanu/Desktop/MC-subject-3.csv","legacy","1 7 9 8 5","Lentiform Loewenfeld","3.3.9","4","y","0","left","left","NA","left","NA","NA","658","66216","NA","658","NA","NA","2","legacy","5","1024","2","48000","-16","experiment","3","odd","8","96210","92943","93996","3529","NA","94000","NA","3536","NA","98214","98873","95004","NA","69765","98214","NA","Sternberg task","5","3326","5","yes","1024"
"100","100","629","629","black","practice","legacy","legacy","legacy","0","uniform","1","undefined","1","right","5","5","5","0","0","5","5","0","0","5","5","5","NA","0","5","0","Sun Oct 24 19:53:09 2021","The main experiment item","yes","Sternbergtask.osexp","/Users/mihailcodreanu/Desktop","no","mono","no","18","no","white","no","yes","768","legacy","5","5","/Users/mihailcodreanu/Desktop/MC-subject-3.csv","legacy","3 1 9 4","Lentiform Loewenfeld","3.3.9","0","n","0","right","left","NA","right","NA","NA","448","66216","NA","448","NA","NA","2","legacy","4","1024","2","48000","-16","experiment","3","odd","6","102147","98879","99933","3529","NA","99937","NA","3536","NA","104152","104601","100942","NA","69765","104152","NA","Sternberg task","6","3774","6","yes","1024"
"100","100","603.2857142857143","603.2857142857143","black","practice","legacy","legacy","legacy","0","uniform","1","undefined","1","right","6","6","6","0","0","6","6","0","0","6","6","6","NA","0","6","0","Sun Oct 24 19:53:09 2021","The main experiment item","yes","Sternbergtask.osexp","/Users/mihailcodreanu/Desktop","no","mono","no","18","no","white","no","yes","768","legacy","6","6","/Users/mihailcodreanu/Desktop/MC-subject-3.csv","legacy","5","Lentiform Loewenfeld","3.3.9","0","n","0","right","left","NA","right","NA","NA","449","66216","NA","449","NA","NA","2","legacy","1","1024","2","48000","-16","experiment","3","odd","3","107875","104607","105661","3529","NA","105665","NA","3536","NA","109879","110329","106669","NA","69765","109879","NA","Sternberg task","7","4223","7","yes","1024"
"100","100","590.125","590.125","black","practice","legacy","legacy","legacy","0","uniform","1","undefined","1","left","7","7","7","0","0","7","7","0","0","7","7","7","NA","0","7","0","Sun Oct 24 19:53:09 2021","The main experiment item","yes","Sternbergtask.osexp","/Users/mihailcodreanu/Desktop","no","mono","no","18","no","white","no","yes","768","legacy","7","7","/Users/mihailcodreanu/Desktop/MC-subject-3.csv","legacy","1 5 2 9","Lentiform Loewenfeld","3.3.9","2","y","0","left","left","NA","left","NA","NA","498","66216","NA","498","NA","NA","2","legacy","4","1024","2","48000","-16","experiment","3","odd","5","113602","110335","111388","3529","NA","111393","NA","3536","NA","115606","116105","112397","NA","69765","115606","NA","Sternberg task","8","4721","8","yes","1024"
"100","100","565.6666666666666","565.6666666666666","black","practice","legacy","legacy","legacy","0","uniform","1","undefined","1","left","8","8","8","0","0","8","8","0","0","8","8","8","NA","0","8","0","Sun Oct 24 19:53:09 2021","The main experiment item","yes","Sternbergtask.osexp","/Users/mihailcodreanu/Desktop","no","mono","no","18","no","white","no","yes","768","legacy","8","8","/Users/mihailcodreanu/Desktop/MC-subject-3.csv","legacy","6","Lentiform Loewenfeld","3.3.9","1","y","0","left","left","NA","left","NA","NA","370","66216","NA","370","NA","NA","2","legacy","1","1024","2","48000","-16","experiment","3","odd","6","119378","116111","117165","3529","NA","117168","NA","3536","NA","121382","121753","118172","NA","69765","121382","NA","Sternberg task","9","5091","9","yes","1024"
"100","100","585.9","585.9","black","practice","legacy","legacy","legacy","0","uniform","1","undefined","1","left","9","9","9","0","0","9","9","0","0","9","9","9","NA","0","9","0","Sun Oct 24 19:53:09 2021","The main experiment item","yes","Sternbergtask.osexp","/Users/mihailcodreanu/Desktop","no","mono","no","18","no","white","no","yes","768","legacy","9","9","/Users/mihailcodreanu/Desktop/MC-subject-3.csv","legacy","2 9 4","Lentiform Loewenfeld","3.3.9","3","y","0","left","left","NA","left","NA","NA","768","66216","NA","768","NA","NA","2","legacy","3","1024","2","48000","-16","experiment","3","odd","4","125028","121759","122814","3529","NA","122818","NA","3536","NA","127032","127801","123822","NA","69765","127032","NA","Sternberg task","10","5859","10","yes","1024"
"100","100","575.6363636363636","575.6363636363636","black","practice","legacy","legacy","legacy","0","uniform","1","undefined","1","right","10","10","10","0","0","10","10","0","0","10","10","10","NA","0","10","0","Sun Oct 24 19:53:09 2021","The main experiment item","yes","Sternbergtask.osexp","/Users/mihailcodreanu/Desktop","no","mono","no","18","no","white","no","yes","768","legacy","10","10","/Users/mihailcodreanu/Desktop/MC-subject-3.csv","legacy","4 1 5","Lentiform Loewenfeld","3.3.9","0","n","0","right","left","NA","right","NA","NA","473","66216","NA","473","NA","NA","2","legacy","3","1024","2","48000","-16","experiment","3","odd","2","131075","127807","128861","3529","NA","128865","NA","3536","NA","133079","133553","129869","NA","69765","133079","NA","Sternberg task","11","6332","11","yes","1024"
"100","100","562.3333333333334","562.3333333333334","black","practice","legacy","legacy","legacy","0","uniform","1","undefined","1","right","11","11","11","0","0","11","11","0","0","11","11","11","NA","0","11","0","Sun Oct 24 19:53:09 2021","The main experiment item","yes","Sternbergtask.osexp","/Users/mihailcodreanu/Desktop","no","mono","no","18","no","white","no","yes","768","legacy","11","11","/Users/mihailcodreanu/Desktop/MC-subject-3.csv","legacy","2 1","Lentiform Loewenfeld","3.3.9","0","n","0","right","left","NA","right","NA","NA","416","66216","NA","416","NA","NA","2","legacy","2","1024","2","48000","-16","experiment","3","odd","5","136828","133560","134615","3529","NA","134618","NA","3536","NA","138832","139249","135622","NA","69765","138832","NA","Sternberg task","12","6748","12","yes","1024"
"100","100","572.1538461538462","572.1538461538462","black","experiment","legacy","legacy","legacy","0","uniform","1","undefined","1","left","12","12","12","0","0","12","12","0","0","12","12","12","NA","0","12","0","Sun Oct 24 19:53:09 2021","The main experiment item","yes","Sternbergtask.osexp","/Users/mihailcodreanu/Desktop","no","mono","no","18","no","white","no","yes","768","legacy","0","11","/Users/mihailcodreanu/Desktop/MC-subject-3.csv","legacy","4 6 2 5 1","Lentiform Loewenfeld","3.3.9","5","y","0","left","left","right","left","NA","NA","690","66216","6590","690","NA","NA","2","legacy","5","1024","2","48000","-16","experiment","3","odd","1","149138","139253","146923","3529","146873","146926","NA","3536","140282","151142","151833","147932","NA","69765","151142","NA","Sternberg task","13","7438","13","yes","1024"
"100","100","572.2142857142857","572.2142857142857","black","experiment","legacy","legacy","legacy","0","uniform","1","undefined","1","right","13","13","13","0","0","13","13","0","0","13","13","13","NA","0","13","0","Sun Oct 24 19:53:09 2021","The main experiment item","yes","Sternbergtask.osexp","/Users/mihailcodreanu/Desktop","no","mono","no","18","no","white","no","yes","768","legacy","1","11","/Users/mihailcodreanu/Desktop/MC-subject-3.csv","legacy","5 3 2 6 9 8","Lentiform Loewenfeld","3.3.9","0","n","0","right","left","right","right","NA","NA","573","66216","6590","573","NA","NA","2","legacy","6","1024","2","48000","-16","experiment","3","odd","4","155110","151839","152897","3529","146873","152900","NA","3536","140282","157115","157689","153905","NA","69765","157115","NA","Sternberg task","14","8011","14","yes","1024"
"100","100","569.8","569.8","black","experiment","legacy","legacy","legacy","0","uniform","1","undefined","1","right","14","14","14","0","0","14","14","0","0","14","14","14","NA","0","14","0","Sun Oct 24 19:53:09 2021","The main experiment item","yes","Sternbergtask.osexp","/Users/mihailcodreanu/Desktop","no","mono","no","18","no","white","no","yes","768","legacy","2","11","/Users/mihailcodreanu/Desktop/MC-subject-3.csv","legacy","1 5 3 2 8","Lentiform Loewenfeld","3.3.9","0","n","0","right","left","right","right","NA","NA","536","66216","6590","536","NA","NA","2","legacy","5","1024","2","48000","-16","experiment","3","odd","4","160972","157701","158758","3529","146873","158762","NA","3536","140282","162976","163513","159766","NA","69765","162976","NA","Sternberg task","15","8547","15","yes","1024"
"100","100","557.25","557.25","black","experiment","legacy","legacy","legacy","0","uniform","1","undefined","1","left","15","15","15","0","0","15","15","0","0","15","15","15","NA","0","15","0","Sun Oct 24 19:53:09 2021","The main experiment item","yes","Sternbergtask.osexp","/Users/mihailcodreanu/Desktop","no","mono","no","18","no","white","no","yes","768","legacy","3","11","/Users/mihailcodreanu/Desktop/MC-subject-3.csv","legacy","6 2","Lentiform Loewenfeld","3.3.9","1","y","0","left","left","right","left","NA","NA","369","66216","6590","369","NA","NA","2","legacy","2","1024","2","48000","-16","experiment","3","odd","6","166787","163519","164573","3529","146873","164577","NA","3536","140282","168791","169161","165581","NA","69765","168791","NA","Sternberg task","16","8916","16","yes","1024"
"100","100","554.5882352941177","554.5882352941177","black","experiment","legacy","legacy","legacy","0","uniform","1","undefined","1","right","16","16","16","0","0","16","16","0","0","16","16","16","NA","0","16","0","Sun Oct 24 19:53:09 2021","The main experiment item","yes","Sternbergtask.osexp","/Users/mihailcodreanu/Desktop","no","mono","no","18","no","white","no","yes","768","legacy","4","11","/Users/mihailcodreanu/Desktop/MC-subject-3.csv","legacy","8 5 4 2 9 6","Lentiform Loewenfeld","3.3.9","0","n","0","right","left","right","right","NA","NA","512","66216","6590","512","NA","NA","2","legacy","6","1024","2","48000","-16","experiment","3","odd","3","172436","169167","170222","3529","146873","170226","NA","3536","140282","174440","174953","171230","NA","69765","174440","NA","Sternberg task","17","9428","17","yes","1024"
"100","100","549.1111111111111","549.1111111111111","black","experiment","legacy","legacy","legacy","0","uniform","1","undefined","1","right","17","17","17","0","0","17","17","0","0","17","17","17","NA","0","17","0","Sun Oct 24 19:53:09 2021","The main experiment item","yes","Sternbergtask.osexp","/Users/mihailcodreanu/Desktop","no","mono","no","18","no","white","no","yes","768","legacy","5","11","/Users/mihailcodreanu/Desktop/MC-subject-3.csv","legacy","8 6 3 4 7","Lentiform Loewenfeld","3.3.9","0","n","0","right","left","right","right","NA","NA","456","66216","6590","456","NA","NA","2","legacy","5","1024","2","48000","-16","experiment","3","odd","1","178228","174959","176014","3529","146873","176018","NA","3536","140282","180232","180689","177022","NA","69765","180232","NA","Sternberg task","18","9884","18","yes","1024"
"100","100","540.2631578947369","540.2631578947369","black","experiment","legacy","legacy","legacy","0","uniform","1","undefined","1","right","18","18","18","0","0","18","18","0","0","18","18","18","NA","0","18","0","Sun Oct 24 19:53:09 2021","The main experiment item","yes","Sternbergtask.osexp","/Users/mihailcodreanu/Desktop","no","mono","no","18","no","white","no","yes","768","legacy","6","11","/Users/mihailcodreanu/Desktop/MC-subject-3.csv","legacy","3 9 1","Lentiform Loewenfeld","3.3.9","0","n","0","right","left","right","right","NA","NA","381","66216","6590","381","NA","NA","2","legacy","3","1024","2","48000","-16","experiment","3","odd","7","183967","180695","181753","3529","146873","181757","NA","3536","140282","185971","186353","182761","NA","69765","185971","NA","Sternberg task","19","10265","19","yes","1024"
"100","100","532.45","532.45","black","experiment","legacy","legacy","legacy","0","uniform","1","undefined","1","left","19","19","19","0","0","19","19","0","0","19","19","19","NA","0","19","0","Sun Oct 24 19:53:09 2021","The main experiment item","yes","Sternbergtask.osexp","/Users/mihailcodreanu/Desktop","no","mono","no","18","no","white","no","yes","768","legacy","7","11","/Users/mihailcodreanu/Desktop/MC-subject-3.csv","legacy","4","Lentiform Loewenfeld","3.3.9","1","y","0","left","left","right","left","NA","NA","384","66216","6590","384","NA","NA","2","legacy","1","1024","2","48000","-16","experiment","3","odd","4","189627","186360","187414","3529","146873","187418","NA","3536","140282","191632","192017","188422","NA","69765","191632","NA","Sternberg task","20","10649","20","yes","1024"
"100","100","527.6666666666666","527.6666666666666","black","experiment","legacy","legacy","legacy","0","uniform","1","undefined","1","right","20","20","20","0","0","20","20","0","0","20","20","20","NA","0","20","0","Sun Oct 24 19:53:09 2021","The main experiment item","yes","Sternbergtask.osexp","/Users/mihailcodreanu/Desktop","no","mono","no","18","no","white","no","yes","768","legacy","8","11","/Users/mihailcodreanu/Desktop/MC-subject-3.csv","legacy","7 9 1 6","Lentiform Loewenfeld","3.3.9","0","n","0","right","left","right","right","NA","NA","432","66216","6590","432","NA","NA","2","legacy","4","1024","2","48000","-16","experiment","3","odd","4","195292","192023","193079","3529","146873","193082","NA","3536","140282","197296","197729","194087","NA","69765","197296","NA","Sternberg task","21","11081","21","yes","1024"
"100","100","524.1363636363636","524.1363636363636","black","experiment","legacy","legacy","legacy","0","uniform","1","undefined","1","right","21","21","21","0","0","21","21","0","0","21","21","21","NA","0","21","0","Sun Oct 24 19:53:09 2021","The main experiment item","yes","Sternbergtask.osexp","/Users/mihailcodreanu/Desktop","no","mono","no","18","no","white","no","yes","768","legacy","9","11","/Users/mihailcodreanu/Desktop/MC-subject-3.csv","legacy","6 9 7 3 8 2","Lentiform Loewenfeld","3.3.9","0","n","0","right","left","right","right","NA","NA","450","66216","6590","450","NA","NA","2","legacy","6","1024","2","48000","-16","experiment","3","odd","5","201002","197735","198789","3529","146873","198793","NA","3536","140282","203006","203457","199797","NA","69765","203006","NA","Sternberg task","22","11531","22","yes","1024"
"100","100","516.695652173913","516.695652173913","black","experiment","legacy","legacy","legacy","0","uniform","1","undefined","1","left","22","22","22","0","0","22","22","0","0","22","22","22","NA","0","22","0","Sun Oct 24 19:53:09 2021","The main experiment item","yes","Sternbergtask.osexp","/Users/mihailcodreanu/Desktop","no","mono","no","18","no","white","no","yes","768","legacy","10","11","/Users/mihailcodreanu/Desktop/MC-subject-3.csv","legacy","2 4 6 9","Lentiform Loewenfeld","3.3.9","3","y","0","left","left","right","left","NA","NA","353","66216","6590","353","NA","NA","2","legacy","4","1024","2","48000","-16","experiment","3","odd","6","206731","203462","204517","3529","146873","204521","NA","3536","140282","208735","209089","205525","NA","69765","208735","NA","Sternberg task","23","11884","23","yes","1024"
"100","100","515.1666666666666","515.1666666666666","black","experiment","legacy","legacy","legacy","0","uniform","1","undefined","1","left","23","23","23","0","0","23","23","0","0","23","23","23","NA","0","23","0","Sun Oct 24 19:53:09 2021","The main experiment item","yes","Sternbergtask.osexp","/Users/mihailcodreanu/Desktop","no","mono","no","18","no","white","no","yes","768","legacy","11","11","/Users/mihailcodreanu/Desktop/MC-subject-3.csv","legacy","4 9 7 8 5 3","Lentiform Loewenfeld","3.3.9","4","y","0","left","left","right","left","NA","NA","480","66216","6590","480","NA","NA","2","legacy","6","1024","2","48000","-16","experiment","3","odd","8","212364","209095","210150","3529","146873","210154","NA","3536","140282","214368","214849","211158","NA","69765","214368","NA","Sternberg task","24","12364","24","yes","1024"
"96","96","511.52","511.52","black","experiment","legacy","legacy","legacy","0","uniform","0","undefined","0","left","24","24","24","0","0","24","24","0","0","24","24","24","NA","0","24","0","Sun Oct 24 19:53:09 2021","The main experiment item","yes","Sternbergtask.osexp","/Users/mihailcodreanu/Desktop","no","mono","no","18","no","white","no","yes","768","legacy","12","11","/Users/mihailcodreanu/Desktop/MC-subject-3.csv","legacy","2 8 5 1","Lentiform Loewenfeld","3.3.9","4","y","0","right","left","right","right","NA","NA","424","66216","6590","424","NA","NA","2","legacy","4","1024","2","48000","-16","experiment","3","odd","1","218124","214854","215910","3529","146873","215914","NA","3536","140282","220128","220553","216918","NA","69765","220128","NA","Sternberg task","24","12788","25","yes","1024"
"96.15384615384616","96.15384615384616","516.1153846153846","516.1153846153846","black","experiment","legacy","legacy","legacy","0","uniform","1","undefined","1","left","25","25","25","0","0","25","25","0","0","25","25","25","NA","0","25","0","Sun Oct 24 19:53:09 2021","The main experiment item","yes","Sternbergtask.osexp","/Users/mihailcodreanu/Desktop","no","mono","no","18","no","white","no","yes","768","legacy","13","11","/Users/mihailcodreanu/Desktop/MC-subject-3.csv","legacy","7 1 8 5 6 2","Lentiform Loewenfeld","3.3.9","2","y","0","left","left","right","left","NA","NA","631","66216","6590","631","NA","NA","2","legacy","6","1024","2","48000","-16","experiment","3","odd","1","223828","214854","221614","3529","146873","221619","220559","3536","140282","225833","226465","222623","NA","69765","225832","NA","Sternberg task","25","13419","26","yes","1024"
"96.29629629629629","96.29629629629629","511.3333333333333","511.3333333333333","black","experiment","legacy","legacy","legacy","0","uniform","1","undefined","1","left","26","26","26","0","0","26","26","0","0","26","26","26","NA","0","26","0","Sun Oct 24 19:53:09 2021","The main experiment item","yes","Sternbergtask.osexp","/Users/mihailcodreanu/Desktop","no","mono","no","18","no","white","no","yes","768","legacy","14","11","/Users/mihailcodreanu/Desktop/MC-subject-3.csv","legacy","4 1 8 7 5","Lentiform Loewenfeld","3.3.9","3","y","0","left","left","right","left","NA","NA","387","66216","6590","387","NA","NA","2","legacy","5","1024","2","48000","-16","experiment","3","odd","8","229737","226471","227525","3529","146873","227528","220559","3536","140282","231741","232129","228532","NA","69765","231741","NA","Sternberg task","26","13806","27","yes","1024"
"96.42857142857143","96.42857142857143","511.92857142857144","511.92857142857144","black","experiment","legacy","legacy","legacy","0","uniform","1","undefined","1","left","27","27","27","0","0","27","27","0","0","27","27","27","NA","0","27","0","Sun Oct 24 19:53:09 2021","The main experiment item","yes","Sternbergtask.osexp","/Users/mihailcodreanu/Desktop","no","mono","no","18","no","white","no","yes","768","legacy","15","11","/Users/mihailcodreanu/Desktop/MC-subject-3.csv","legacy","7 2 3","Lentiform Loewenfeld","3.3.9","3","y","0","left","left","right","left","NA","NA","528","66216","6590","528","NA","NA","2","legacy","3","1024","2","48000","-16","experiment","3","odd","3","235403","232135","233191","3529","146873","233195","220559","3536","140282","237408","237937","234198","NA","69765","237408","NA","Sternberg task","27","14334","28","yes","1024"
"96.55172413793103","96.55172413793103","511.1034482758621","511.1034482758621","black","experiment","legacy","legacy","legacy","0","uniform","1","undefined","1","right","28","28","28","0","0","28","28","0","0","28","28","28","NA","0","28","0","Sun Oct 24 19:53:09 2021","The main experiment item","yes","Sternbergtask.osexp","/Users/mihailcodreanu/Desktop","no","mono","no","18","no","white","no","yes","768","legacy","16","11","/Users/mihailcodreanu/Desktop/MC-subject-3.csv","legacy","7 9","Lentiform Loewenfeld","3.3.9","0","n","0","right","left","right","right","NA","NA","488","66216","6590","488","NA","NA","2","legacy","2","1024","2","48000","-16","experiment","3","odd","1","241211","237943","238998","3529","146873","239002","220559","3536","140282","243216","243705","240006","NA","69765","243216","NA","Sternberg task","28","14822","29","yes","1024"
"96.66666666666667","96.66666666666667","517.0333333333333","517.0333333333333","black","experiment","legacy","legacy","legacy","0","uniform","1","undefined","1","left","29","29","29","0","0","29","29","0","0","29","29","29","NA","0","29","0","Sun Oct 24 19:53:09 2021","The main experiment item","yes","Sternbergtask.osexp","/Users/mihailcodreanu/Desktop","no","mono","no","18","no","white","no","yes","768","legacy","17","11","/Users/mihailcodreanu/Desktop/MC-subject-3.csv","legacy","7 8 4 6 9 5","Lentiform Loewenfeld","3.3.9","4","y","0","left","left","right","left","NA","NA","689","66216","6590","689","NA","NA","2","legacy","6","1024","2","48000","-16","experiment","3","odd","6","246979","243712","244766","3529","146873","244770","220559","3536","140282","248983","249673","245774","NA","69765","248983","NA","Sternberg task","29","15511","30","yes","1024"
"96.7741935483871","96.7741935483871","516.1612903225806","516.1612903225806","black","experiment","legacy","legacy","legacy","0","uniform","1","undefined","1","right","30","30","30","0","0","30","30","0","0","30","30","30","NA","0","30","0","Sun Oct 24 19:53:09 2021","The main experiment item","yes","Sternbergtask.osexp","/Users/mihailcodreanu/Desktop","no","mono","no","18","no","white","no","yes","768","legacy","18","11","/Users/mihailcodreanu/Desktop/MC-subject-3.csv","legacy","1 6 4 3 9 7","Lentiform Loewenfeld","3.3.9","0","n","0","right","left","right","right","NA","NA","490","66216","6590","490","NA","NA","2","legacy","6","1024","2","48000","-16","experiment","3","odd","8","252946","249679","250733","3529","146873","250737","220559","3536","140282","254950","255441","251741","NA","69765","254950","NA","Sternberg task","30","16001","31","yes","1024"
"96.875","96.875","512.5","512.5","black","experiment","legacy","legacy","legacy","0","uniform","1","undefined","1","left","31","31","31","0","0","31","31","0","0","31","31","31","NA","0","31","0","Sun Oct 24 19:53:09 2021","The main experiment item","yes","Sternbergtask.osexp","/Users/mihailcodreanu/Desktop","no","mono","no","18","no","white","no","yes","768","legacy","19","11","/Users/mihailcodreanu/Desktop/MC-subject-3.csv","legacy","2 6 1 7 4","Lentiform Loewenfeld","3.3.9","2","y","0","left","left","right","left","NA","NA","399","66216","6590","399","NA","NA","2","legacy","5","1024","2","48000","-16","experiment","3","odd","6","258716","255447","256503","3529","146873","256507","220559","3536","140282","260721","261121","257511","NA","69765","260721","NA","Sternberg task","31","16400","32","yes","1024"
"96.96969696969697","96.96969696969697","511.8181818181818","511.8181818181818","black","experiment","legacy","legacy","legacy","0","uniform","1","undefined","1","left","32","32","32","0","0","32","32","0","0","32","32","32","NA","0","32","0","Sun Oct 24 19:53:09 2021","The main experiment item","yes","Sternbergtask.osexp","/Users/mihailcodreanu/Desktop","no","mono","no","18","no","white","no","yes","768","legacy","20","11","/Users/mihailcodreanu/Desktop/MC-subject-3.csv","legacy","2 5 4 8 7","Lentiform Loewenfeld","3.3.9","3","y","0","left","left","right","left","NA","NA","490","66216","6590","490","NA","NA","2","legacy","5","1024","2","48000","-16","experiment","3","odd","4","264394","261126","262183","3529","146873","262187","220559","3536","140282","266398","266889","263191","NA","69765","266398","NA","Sternberg task","32","16890","33","yes","1024"
"94.11764705882354","94.11764705882354","511.61764705882354","511.61764705882354","black","experiment","legacy","legacy","legacy","0","uniform","0","undefined","0","left","33","33","33","0","0","33","33","0","0","33","33","33","NA","0","33","0","Sun Oct 24 19:53:09 2021","The main experiment item","yes","Sternbergtask.osexp","/Users/mihailcodreanu/Desktop","no","mono","no","18","no","white","no","yes","768","legacy","21","11","/Users/mihailcodreanu/Desktop/MC-subject-3.csv","legacy","3 5 9 6 2 4","Lentiform Loewenfeld","3.3.9","1","y","0","right","left","right","right","NA","NA","505","66216","6590","505","NA","NA","2","legacy","6","1024","2","48000","-16","experiment","3","odd","3","270162","266896","267949","3529","146873","267953","220559","3536","140282","272167","272673","268957","NA","69765","272167","NA","Sternberg task","32","17395","34","yes","1024"
"94.28571428571429","94.28571428571429","509.2","509.2","black","experiment","legacy","legacy","legacy","0","uniform","1","undefined","1","left","34","34","34","0","0","34","34","0","0","34","34","34","NA","0","34","0","Sun Oct 24 19:53:09 2021","The main experiment item","yes","Sternbergtask.osexp","/Users/mihailcodreanu/Desktop","no","mono","no","18","no","white","no","yes","768","legacy","22","11","/Users/mihailcodreanu/Desktop/MC-subject-3.csv","legacy","8 7 3","Lentiform Loewenfeld","3.3.9","1","y","0","left","left","right","left","NA","NA","427","66216","6590","427","NA","NA","2","legacy","3","1024","2","48000","-16","experiment","3","odd","8","275945","266896","273732","3529","146873","273736","272679","3536","140282","277949","278377","274740","NA","69765","277949","NA","Sternberg task","33","17822","35","yes","1024"
"94.44444444444444","94.44444444444444","527.2222222222222","527.2222222222222","black","experiment","legacy","legacy","legacy","0","uniform","1","undefined","1","left","35","35","35","0","0","35","35","0","0","35","35","35","NA","0","35","0","Sun Oct 24 19:53:09 2021","The main experiment item","yes","Sternbergtask.osexp","/Users/mihailcodreanu/Desktop","no","mono","no","18","no","white","no","yes","768","legacy","23","11","/Users/mihailcodreanu/Desktop/MC-subject-3.csv","legacy","2 4 8 5 1 3","Lentiform Loewenfeld","3.3.9","1","y","0","left","left","right","left","NA","NA","1158","66216","6590","1158","NA","NA","2","legacy","6","1024","2","48000","-16","experiment","3","odd","2","281653","278383","279440","3529","146873","279444","272679","3536","140282","283658","284817","280448","NA","69765","283658","NA","Sternberg task","34","18980","36","yes","1024"
"94.5945945945946","94.5945945945946","529.4054054054054","529.4054054054054","black","experiment","legacy","legacy","legacy","0","uniform","1","undefined","1","right","36","36","36","0","0","36","36","0","0","36","36","36","NA","0","36","0","Sun Oct 24 19:53:09 2021","The main experiment item","yes","Sternbergtask.osexp","/Users/mihailcodreanu/Desktop","no","mono","no","18","no","white","no","yes","768","legacy","24","11","/Users/mihailcodreanu/Desktop/MC-subject-3.csv","legacy","7 3 2 8","Lentiform Loewenfeld","3.3.9","0","n","0","right","left","right","right","NA","NA","608","66216","6590","608","NA","NA","2","legacy","4","1024","2","48000","-16","experiment","3","odd","4","288092","284823","285878","3529","146873","285882","272679","3536","140282","290096","290705","286886","NA","69765","290096","NA","Sternberg task","35","19588","37","yes","1024"
"94.73684210526316","94.73684210526316","529.6052631578947","529.6052631578947","black","experiment","legacy","legacy","legacy","0","uniform","1","undefined","1","right","37","37","37","0","0","37","37","0","0","37","37","37","NA","0","37","0","Sun Oct 24 19:53:09 2021","The main experiment item","yes","Sternbergtask.osexp","/Users/mihailcodreanu/Desktop","no","mono","no","18","no","white","no","yes","768","legacy","25","11","/Users/mihailcodreanu/Desktop/MC-subject-3.csv","legacy","6 9 4 5 2","Lentiform Loewenfeld","3.3.9","0","n","0","right","left","right","right","NA","NA","537","66216","6590","537","NA","NA","2","legacy","5","1024","2","48000","-16","experiment","3","odd","1","293978","290711","291765","3529","146873","291769","272679","3536","140282","295983","296521","292773","NA","69765","295983","NA","Sternberg task","36","20125","38","yes","1024"
"94.87179487179488","94.87179487179488","540","540","black","experiment","legacy","legacy","legacy","0","uniform","1","undefined","1","right","38","38","38","0","0","38","38","0","0","38","38","38","NA","0","38","0","Sun Oct 24 19:53:09 2021","The main experiment item","yes","Sternbergtask.osexp","/Users/mihailcodreanu/Desktop","no","mono","no","18","no","white","no","yes","768","legacy","26","11","/Users/mihailcodreanu/Desktop/MC-subject-3.csv","legacy","9 8 2 7 4","Lentiform Loewenfeld","3.3.9","0","n","0","right","left","right","right","NA","NA","935","66216","6590","935","NA","NA","2","legacy","5","1024","2","48000","-16","experiment","3","odd","5","299797","296527","297584","3529","146873","297588","272679","3536","140282","301801","302737","298591","NA","69765","301801","NA","Sternberg task","37","21060","39","yes","1024"
"95","95","538.075","538.075","black","experiment","legacy","legacy","legacy","0","uniform","1","undefined","1","left","39","39","39","0","0","39","39","0","0","39","39","39","NA","0","39","0","Sun Oct 24 19:53:09 2021","The main experiment item","yes","Sternbergtask.osexp","/Users/mihailcodreanu/Desktop","no","mono","no","18","no","white","no","yes","768","legacy","27","11","/Users/mihailcodreanu/Desktop/MC-subject-3.csv","legacy","2 3 7 4","Lentiform Loewenfeld","3.3.9","1","y","0","left","left","right","left","NA","NA","463","66216","6590","463","NA","NA","2","legacy","4","1024","2","48000","-16","experiment","3","odd","2","306013","302743","303799","3529","146873","303803","272679","3536","140282","308017","308481","304807","NA","69765","308017","NA","Sternberg task","38","21523","40","yes","1024"
"92.6829268292683","92.6829268292683","537.0487804878048","537.0487804878048","black","experiment","legacy","legacy","legacy","0","uniform","0","undefined","0","left","40","40","40","0","0","40","40","0","0","40","40","40","NA","0","40","0","Sun Oct 24 19:53:09 2021","The main experiment item","yes","Sternbergtask.osexp","/Users/mihailcodreanu/Desktop","no","mono","no","18","no","white","no","yes","768","legacy","28","11","/Users/mihailcodreanu/Desktop/MC-subject-3.csv","legacy","8 5 4 7 3 1","Lentiform Loewenfeld","3.3.9","2","y","0","right","left","right","right","NA","NA","496","66216","6590","496","NA","NA","2","legacy","6","1024","2","48000","-16","experiment","3","odd","5","311756","308486","309542","3529","146873","309546","272679","3536","140282","313760","314257","310550","NA","69765","313760","NA","Sternberg task","38","22019","41","yes","1024"
"92.85714285714286","92.85714285714286","542.1666666666666","542.1666666666666","black","experiment","legacy","legacy","legacy","0","uniform","1","undefined","1","left","41","41","41","0","0","41","41","0","0","41","41","41","NA","0","41","0","Sun Oct 24 19:53:09 2021","The main experiment item","yes","Sternbergtask.osexp","/Users/mihailcodreanu/Desktop","no","mono","no","18","no","white","no","yes","768","legacy","29","11","/Users/mihailcodreanu/Desktop/MC-subject-3.csv","legacy","7 8 6 3 1","Lentiform Loewenfeld","3.3.9","5","y","0","left","left","right","left","NA","NA","752","66216","6590","752","NA","NA","2","legacy","5","1024","2","48000","-16","experiment","3","odd","1","317531","308486","315318","3529","146873","315322","314264","3536","140282","319536","320289","316326","NA","69765","319536","NA","Sternberg task","39","22771","42","yes","1024"
"93.02325581395348","93.02325581395348","538.8139534883721","538.8139534883721","black","experiment","legacy","legacy","legacy","0","uniform","1","undefined","1","right","42","42","42","0","0","42","42","0","0","42","42","42","NA","0","42","0","Sun Oct 24 19:53:09 2021","The main experiment item","yes","Sternbergtask.osexp","/Users/mihailcodreanu/Desktop","no","mono","no","18","no","white","no","yes","768","legacy","30","11","/Users/mihailcodreanu/Desktop/MC-subject-3.csv","legacy","9","Lentiform Loewenfeld","3.3.9","0","n","0","right","left","right","right","NA","NA","398","66216","6590","398","NA","NA","2","legacy","1","1024","2","48000","-16","experiment","3","odd","6","323566","320295","321352","3529","146873","321355","314264","3536","140282","325570","325969","322360","NA","69765","325570","NA","Sternberg task","40","23169","43","yes","1024"
"93.18181818181819","93.18181818181819","539.1590909090909","539.1590909090909","black","experiment","legacy","legacy","legacy","0","uniform","1","undefined","1","left","43","43","43","0","0","43","43","0","0","43","43","43","NA","0","43","0","Sun Oct 24 19:53:09 2021","The main experiment item","yes","Sternbergtask.osexp","/Users/mihailcodreanu/Desktop","no","mono","no","18","no","white","no","yes","768","legacy","31","11","/Users/mihailcodreanu/Desktop/MC-subject-3.csv","legacy","4 7 6 8 2 3","Lentiform Loewenfeld","3.3.9","6","y","0","left","left","right","left","NA","NA","554","66216","6590","554","NA","NA","2","legacy","6","1024","2","48000","-16","experiment","3","odd","3","329242","325975","327030","3529","146873","327034","314264","3536","140282","331246","331801","328038","NA","69765","331246","NA","Sternberg task","41","23723","44","yes","1024"
"93.33333333333333","93.33333333333333","547.1111111111111","547.1111111111111","black","experiment","legacy","legacy","legacy","0","uniform","1","undefined","1","left","44","44","44","0","0","44","44","0","0","44","44","44","NA","0","44","0","Sun Oct 24 19:53:09 2021","The main experiment item","yes","Sternbergtask.osexp","/Users/mihailcodreanu/Desktop","no","mono","no","18","no","white","no","yes","768","legacy","32","11","/Users/mihailcodreanu/Desktop/MC-subject-3.csv","legacy","8 9 6 1","Lentiform Loewenfeld","3.3.9","2","y","0","left","left","right","left","NA","NA","897","66216","6590","897","NA","NA","2","legacy","4","1024","2","48000","-16","experiment","3","odd","9","335075","331807","332862","3529","146873","332866","314264","3536","140282","337079","337977","333870","NA","69765","337079","NA","Sternberg task","42","24620","45","yes","1024"
"93.47826086956522","93.47826086956522","542.3695652173913","542.3695652173913","black","experiment","legacy","legacy","legacy","0","uniform","1","undefined","1","left","45","45","45","0","0","45","45","0","0","45","45","45","NA","0","45","0","Sun Oct 24 19:53:09 2021","The main experiment item","yes","Sternbergtask.osexp","/Users/mihailcodreanu/Desktop","no","mono","no","18","no","white","no","yes","768","legacy","33","11","/Users/mihailcodreanu/Desktop/MC-subject-3.csv","legacy","7 1 3","Lentiform Loewenfeld","3.3.9","2","y","0","left","left","right","left","NA","NA","329","66216","6590","329","NA","NA","2","legacy","3","1024","2","48000","-16","experiment","3","odd","1","341251","337983","339037","3529","146873","339041","314264","3536","140282","343255","343584","340045","NA","69765","343255","NA","Sternberg task","43","24949","46","yes","1024"
"93.61702127659575","93.61702127659575","540.063829787234","540.063829787234","black","experiment","legacy","legacy","legacy","0","uniform","1","undefined","1","left","46","46","46","0","0","46","46","0","0","46","46","46","NA","0","46","0","Sun Oct 24 19:53:09 2021","The main experiment item","yes","Sternbergtask.osexp","/Users/mihailcodreanu/Desktop","no","mono","no","18","no","white","no","yes","768","legacy","34","11","/Users/mihailcodreanu/Desktop/MC-subject-3.csv","legacy","8 9 5 6 7","Lentiform Loewenfeld","3.3.9","1","y","0","left","left","right","left","NA","NA","434","66216","6590","434","NA","NA","2","legacy","5","1024","2","48000","-16","experiment","3","odd","8","346858","343591","344645","3529","146873","344649","314264","3536","140282","348862","349297","345653","NA","69765","348862","NA","Sternberg task","44","25383","47","yes","1024"
"93.75","93.75","536.9791666666666","536.9791666666666","black","experiment","legacy","legacy","legacy","0","uniform","1","undefined","1","right","47","47","47","0","0","47","47","0","0","47","47","47","NA","0","47","0","Sun Oct 24 19:53:09 2021","The main experiment item","yes","Sternbergtask.osexp","/Users/mihailcodreanu/Desktop","no","mono","no","18","no","white","no","yes","768","legacy","35","11","/Users/mihailcodreanu/Desktop/MC-subject-3.csv","legacy","7 1","Lentiform Loewenfeld","3.3.9","0","n","0","right","left","right","right","NA","NA","392","66216","6590","392","NA","NA","2","legacy","2","1024","2","48000","-16","experiment","3","odd","8","352571","349303","350358","3529","146873","350361","314264","3536","140282","354576","354969","351366","NA","69765","354576","NA","Sternberg task","45","25775","48","yes","1024"
"93.87755102040816","93.87755102040816","534.8367346938776","534.8367346938776","black","experiment","legacy","legacy","legacy","0","uniform","1","undefined","1","left","48","48","48","0","0","48","48","0","0","48","48","48","NA","0","48","0","Sun Oct 24 19:53:09 2021","The main experiment item","yes","Sternbergtask.osexp","/Users/mihailcodreanu/Desktop","no","mono","no","18","no","white","no","yes","768","legacy","36","11","/Users/mihailcodreanu/Desktop/MC-subject-3.csv","legacy","4 1 5","Lentiform Loewenfeld","3.3.9","2","y","0","left","left","right","left","NA","NA","432","66216","6590","432","NA","NA","2","legacy","3","1024","2","48000","-16","experiment","3","odd","1","358244","354975","356030","3529","146873","356034","314264","3536","140282","360248","360681","357038","NA","69765","360248","NA","Sternberg task","46","26207","49","yes","1024"
"94","94","540.76","540.76","black","experiment","legacy","legacy","legacy","0","uniform","1","undefined","1","right","49","49","49","0","0","49","49","0","0","49","49","49","NA","0","49","0","Sun Oct 24 19:53:09 2021","The main experiment item","yes","Sternbergtask.osexp","/Users/mihailcodreanu/Desktop","no","mono","no","18","no","white","no","yes","768","legacy","37","11","/Users/mihailcodreanu/Desktop/MC-subject-3.csv","legacy","1 8 7","Lentiform Loewenfeld","3.3.9","0","n","0","right","left","right","right","NA","NA","831","66216","6590","831","NA","NA","2","legacy","3","1024","2","48000","-16","experiment","3","odd","4","363957","360687","361744","3529","146873","361747","314264","3536","140282","365961","366793","362751","NA","69765","365961","NA","Sternberg task","47","27038","50","yes","1024"
"94.11764705882354","94.11764705882354","538.8235294117648","538.8235294117648","black","experiment","legacy","legacy","legacy","0","uniform","1","undefined","1","right","50","50","50","0","0","50","50","0","0","50","50","50","NA","0","50","0","Sun Oct 24 19:53:09 2021","The main experiment item","yes","Sternbergtask.osexp","/Users/mihailcodreanu/Desktop","no","mono","no","18","no","white","no","yes","768","legacy","38","11","/Users/mihailcodreanu/Desktop/MC-subject-3.csv","legacy","1 6 4","Lentiform Loewenfeld","3.3.9","0","n","0","right","left","right","right","NA","NA","442","66216","6590","442","NA","NA","2","legacy","3","1024","2","48000","-16","experiment","3","odd","7","370066","366799","367852","3529","146873","367856","314264","3536","140282","372070","372513","368860","NA","69765","372070","NA","Sternberg task","48","27480","51","yes","1024"
"94.23076923076923","94.23076923076923","537.5576923076923","537.5576923076923","black","experiment","legacy","legacy","legacy","0","uniform","1","undefined","1","right","51","51","51","0","0","51","51","0","0","51","51","51","NA","0","51","0","Sun Oct 24 19:53:09 2021","The main experiment item","yes","Sternbergtask.osexp","/Users/mihailcodreanu/Desktop","no","mono","no","18","no","white","no","yes","768","legacy","39","11","/Users/mihailcodreanu/Desktop/MC-subject-3.csv","legacy","2 6 4 3 9","Lentiform Loewenfeld","3.3.9","0","n","0","right","left","right","right","NA","NA","473","66216","6590","473","NA","NA","2","legacy","5","1024","2","48000","-16","experiment","3","odd","1","375787","372519","373573","3529","146873","373577","314264","3536","140282","377791","378265","374581","NA","69765","377791","NA","Sternberg task","49","27953","52","yes","1024"
"94.33962264150944","94.33962264150944","538.2641509433962","538.2641509433962","black","experiment","legacy","legacy","legacy","0","uniform","1","undefined","1","right","52","52","52","0","0","52","52","0","0","52","52","52","NA","0","52","0","Sun Oct 24 19:53:09 2021","The main experiment item","yes","Sternbergtask.osexp","/Users/mihailcodreanu/Desktop","no","mono","no","18","no","white","no","yes","768","legacy","40","11","/Users/mihailcodreanu/Desktop/MC-subject-3.csv","legacy","6 9 5","Lentiform Loewenfeld","3.3.9","0","n","0","right","left","right","right","NA","NA","575","66216","6590","575","NA","NA","2","legacy","3","1024","2","48000","-16","experiment","3","odd","8","381541","378271","379327","3529","146873","379331","314264","3536","140282","383545","384121","380335","NA","69765","383545","NA","Sternberg task","50","28528","53","yes","1024"
"94.44444444444444","94.44444444444444","534.074074074074","534.074074074074","black","experiment","legacy","legacy","legacy","0","uniform","1","undefined","1","left","53","53","53","0","0","53","53","0","0","53","53","53","NA","0","53","0","Sun Oct 24 19:53:09 2021","The main experiment item","yes","Sternbergtask.osexp","/Users/mihailcodreanu/Desktop","no","mono","no","18","no","white","no","yes","768","legacy","41","11","/Users/mihailcodreanu/Desktop/MC-subject-3.csv","legacy","8 3","Lentiform Loewenfeld","3.3.9","2","y","0","left","left","right","left","NA","NA","312","66216","6590","312","NA","NA","2","legacy","2","1024","2","48000","-16","experiment","3","odd","3","387395","384126","385182","3529","146873","385186","314264","3536","140282","389400","389713","386190","NA","69765","389399","NA","Sternberg task","51","28840","54","yes","1024"
"94.54545454545455","94.54545454545455","531.6363636363636","531.6363636363636","black","experiment","legacy","legacy","legacy","0","uniform","1","undefined","1","right","54","54","54","0","0","54","54","0","0","54","54","54","NA","0","54","0","Sun Oct 24 19:53:09 2021","The main experiment item","yes","Sternbergtask.osexp","/Users/mihailcodreanu/Desktop","no","mono","no","18","no","white","no","yes","768","legacy","42","11","/Users/mihailcodreanu/Desktop/MC-subject-3.csv","legacy","6 8 4","Lentiform Loewenfeld","3.3.9","0","n","0","right","left","right","right","NA","NA","400","66216","6590","400","NA","NA","2","legacy","3","1024","2","48000","-16","experiment","3","odd","1","392988","389720","390774","3529","146873","390778","314264","3536","140282","394992","395393","391782","NA","69765","394992","NA","Sternberg task","52","29240","55","yes","1024"
"94.64285714285714","94.64285714285714","529.1428571428571","529.1428571428571","black","experiment","legacy","legacy","legacy","0","uniform","1","undefined","1","right","55","55","55","0","0","55","55","0","0","55","55","55","NA","0","55","0","Sun Oct 24 19:53:09 2021","The main experiment item","yes","Sternbergtask.osexp","/Users/mihailcodreanu/Desktop","no","mono","no","18","no","white","no","yes","768","legacy","43","11","/Users/mihailcodreanu/Desktop/MC-subject-3.csv","legacy","1","Lentiform Loewenfeld","3.3.9","0","n","0","right","left","right","right","NA","NA","392","66216","6590","392","NA","NA","2","legacy","1","1024","2","48000","-16","experiment","3","odd","7","398667","395400","396453","3529","146873","396457","314264","3536","140282","400672","401065","397461","NA","69765","400672","NA","Sternberg task","53","29632","56","yes","1024"
"94.73684210526316","94.73684210526316","527.561403508772","527.561403508772","black","experiment","legacy","legacy","legacy","0","uniform","1","undefined","1","right","56","56","56","0","0","56","56","0","0","56","56","56","NA","0","56","0","Sun Oct 24 19:53:09 2021","The main experiment item","yes","Sternbergtask.osexp","/Users/mihailcodreanu/Desktop","no","mono","no","18","no","white","no","yes","768","legacy","44","11","/Users/mihailcodreanu/Desktop/MC-subject-3.csv","legacy","7 8 6 1","Lentiform Loewenfeld","3.3.9","0","n","0","right","left","right","right","NA","NA","439","66216","6590","439","NA","NA","2","legacy","4","1024","2","48000","-16","experiment","3","odd","3","404340","401071","402127","3529","146873","402131","314264","3536","140282","406345","406785","403135","NA","69765","406344","NA","Sternberg task","54","30071","57","yes","1024"
"93.10344827586206","93.10344827586206","528.6896551724138","528.6896551724138","black","experiment","legacy","legacy","legacy","0","uniform","0","undefined","0","right","57","57","57","0","0","57","57","0","0","57","57","57","NA","0","57","0","Sun Oct 24 19:53:09 2021","The main experiment item","yes","Sternbergtask.osexp","/Users/mihailcodreanu/Desktop","no","mono","no","18","no","white","no","yes","768","legacy","45","11","/Users/mihailcodreanu/Desktop/MC-subject-3.csv","legacy","6 9 4 5 3 2","Lentiform Loewenfeld","3.3.9","0","n","0","left","left","right","left","NA","NA","593","66216","6590","593","NA","NA","2","legacy","6","1024","2","48000","-16","experiment","3","odd","8","410059","406791","407846","3529","146873","407849","314264","3536","140282","412063","412657","408854","NA","69765","412063","NA","Sternberg task","54","30664","58","yes","1024"
"93.22033898305085","93.22033898305085","528","528","black","experiment","legacy","legacy","legacy","0","uniform","1","undefined","1","left","58","58","58","0","0","58","58","0","0","58","58","58","NA","0","58","0","Sun Oct 24 19:53:09 2021","The main experiment item","yes","Sternbergtask.osexp","/Users/mihailcodreanu/Desktop","no","mono","no","18","no","white","no","yes","768","legacy","46","11","/Users/mihailcodreanu/Desktop/MC-subject-3.csv","legacy","8 1 6","Lentiform Loewenfeld","3.3.9","3","y","0","left","left","right","left","NA","NA","488","66216","6590","488","NA","NA","2","legacy","3","1024","2","48000","-16","experiment","3","odd","6","415932","406791","413718","3529","146873","413722","412663","3536","140282","417936","418425","414726","NA","69765","417936","NA","Sternberg task","55","31152","59","yes","1024"
"93.33333333333333","93.33333333333333","524.1333333333333","524.1333333333333","black","experiment","legacy","legacy","legacy","0","uniform","1","undefined","1","left","59","59","59","0","0","59","59","0","0","59","59","59","NA","0","59","0","Sun Oct 24 19:53:09 2021","The main experiment item","yes","Sternbergtask.osexp","/Users/mihailcodreanu/Desktop","no","mono","no","18","no","white","no","yes","768","legacy","47","11","/Users/mihailcodreanu/Desktop/MC-subject-3.csv","legacy","7","Lentiform Loewenfeld","3.3.9","1","y","0","left","left","right","left","NA","NA","296","66216","6590","296","NA","NA","2","legacy","1","1024","2","48000","-16","experiment","3","odd","7","421700","418431","419486","3529","146873","419489","412663","3536","140282","423704","424001","420494","NA","69765","423704","NA","Sternberg task","56","31448","60","yes","1024"
"93.44262295081967","93.44262295081967","524.1311475409836","524.1311475409836","black","experiment","legacy","legacy","legacy","0","uniform","1","undefined","1","left","60","60","60","0","0","60","60","0","0","60","60","60","NA","0","60","0","Sun Oct 24 19:53:09 2021","The main experiment item","yes","Sternbergtask.osexp","/Users/mihailcodreanu/Desktop","no","mono","no","18","no","white","no","yes","768","legacy","48","11","/Users/mihailcodreanu/Desktop/MC-subject-3.csv","legacy","9 6 2 4 1","Lentiform Loewenfeld","3.3.9","4","y","0","left","left","right","left","NA","NA","524","66216","6590","524","NA","NA","2","legacy","5","1024","2","48000","-16","experiment","3","odd","4","427288","424007","425073","3529","146873","425078","412663","3536","140282","429292","429817","426082","NA","69765","429292","NA","Sternberg task","57","31972","61","yes","1024"
"93.54838709677419","93.54838709677419","521.1935483870968","521.1935483870968","black","experiment","legacy","legacy","legacy","0","uniform","1","undefined","1","left","61","61","61","0","0","61","61","0","0","61","61","61","NA","0","61","0","Sun Oct 24 19:53:09 2021","The main experiment item","yes","Sternbergtask.osexp","/Users/mihailcodreanu/Desktop","no","mono","no","18","no","white","no","yes","768","legacy","49","11","/Users/mihailcodreanu/Desktop/MC-subject-3.csv","legacy","3 4","Lentiform Loewenfeld","3.3.9","1","y","0","left","left","right","left","NA","NA","342","66216","6590","342","NA","NA","2","legacy","2","1024","2","48000","-16","experiment","3","odd","3","433094","429824","430880","3529","146873","430884","412663","3536","140282","435098","435441","431888","NA","69765","435098","NA","Sternberg task","58","32314","62","yes","1024"
"93.65079365079364","93.65079365079364","519.9206349206349","519.9206349206349","black","experiment","legacy","legacy","legacy","0","uniform","1","undefined","1","left","62","62","62","0","0","62","62","0","0","62","62","62","NA","0","62","0","Sun Oct 24 19:53:09 2021","The main experiment item","yes","Sternbergtask.osexp","/Users/mihailcodreanu/Desktop","no","mono","no","18","no","white","no","yes","768","legacy","50","11","/Users/mihailcodreanu/Desktop/MC-subject-3.csv","legacy","3 4 9 6 2 9","Lentiform Loewenfeld","3.3.9","5","y","0","left","left","right","left","NA","NA","441","66216","6590","441","NA","NA","2","legacy","6","1024","2","48000","-16","experiment","3","odd","2","438715","435447","436501","3529","146873","436505","412663","3536","140282","440719","441161","437509","NA","69765","440719","NA","Sternberg task","59","32755","63","yes","1024"
"93.75","93.75","519.4375","519.4375","black","experiment","legacy","legacy","legacy","0","uniform","1","undefined","1","right","63","63","63","0","0","63","63","0","0","63","63","63","NA","0","63","0","Sun Oct 24 19:53:09 2021","The main experiment item","yes","Sternbergtask.osexp","/Users/mihailcodreanu/Desktop","no","mono","no","18","no","white","no","yes","768","legacy","51","11","/Users/mihailcodreanu/Desktop/MC-subject-3.csv","legacy","3 4 2","Lentiform Loewenfeld","3.3.9","0","n","0","right","left","right","right","NA","NA","489","66216","6590","489","NA","NA","2","legacy","3","1024","2","48000","-16","experiment","3","odd","5","444435","441167","442221","3529","146873","442224","412663","3536","140282","446439","446929","443229","NA","69765","446439","NA","Sternberg task","60","33244","64","yes","1024"
"93.84615384615384","93.84615384615384","518.6615384615385","518.6615384615385","black","experiment","legacy","legacy","legacy","0","uniform","1","undefined","1","right","64","64","64","0","0","64","64","0","0","64","64","64","NA","0","64","0","Sun Oct 24 19:53:09 2021","The main experiment item","yes","Sternbergtask.osexp","/Users/mihailcodreanu/Desktop","no","mono","no","18","no","white","no","yes","768","legacy","52","11","/Users/mihailcodreanu/Desktop/MC-subject-3.csv","legacy","2 3 8 5 6 7","Lentiform Loewenfeld","3.3.9","0","n","0","right","left","right","right","NA","NA","469","66216","6590","469","NA","NA","2","legacy","6","1024","2","48000","-16","experiment","3","odd","1","450207","446935","447993","3529","146873","447996","412663","3536","140282","452211","452681","449001","NA","69765","452211","NA","Sternberg task","61","33713","65","yes","1024"
"93.93939393939394","93.93939393939394","516.7727272727273","516.7727272727273","black","experiment","legacy","legacy","legacy","0","uniform","1","undefined","1","left","65","65","65","0","0","65","65","0","0","65","65","65","NA","0","65","0","Sun Oct 24 19:53:09 2021","The main experiment item","yes","Sternbergtask.osexp","/Users/mihailcodreanu/Desktop","no","mono","no","18","no","white","no","yes","768","legacy","53","11","/Users/mihailcodreanu/Desktop/MC-subject-3.csv","legacy","7 6","Lentiform Loewenfeld","3.3.9","2","y","0","left","left","right","left","NA","NA","394","66216","6590","394","NA","NA","2","legacy","2","1024","2","48000","-16","experiment","3","odd","6","455954","452687","453741","3529","146873","453745","412663","3536","140282","457958","458353","454749","NA","69765","457958","NA","Sternberg task","62","34107","66","yes","1024"
"94.02985074626865","94.02985074626865","522.8059701492538","522.8059701492538","black","experiment","legacy","legacy","legacy","0","uniform","1","undefined","1","right","66","66","66","0","0","66","66","0","0","66","66","66","NA","0","66","0","Sun Oct 24 19:53:09 2021","The main experiment item","yes","Sternbergtask.osexp","/Users/mihailcodreanu/Desktop","no","mono","no","18","no","white","no","yes","768","legacy","54","11","/Users/mihailcodreanu/Desktop/MC-subject-3.csv","legacy","9 5 3 2 8 6","Lentiform Loewenfeld","3.3.9","0","n","0","right","left","right","right","NA","NA","921","66216","6590","921","NA","NA","2","legacy","6","1024","2","48000","-16","experiment","3","odd","7","461627","458358","459413","3529","146873","459416","412663","3536","140282","463631","464553","460421","NA","69765","463631","NA","Sternberg task","63","35028","67","yes","1024"
"94.11764705882354","94.11764705882354","520.5294117647059","520.5294117647059","black","experiment","legacy","legacy","legacy","0","uniform","1","undefined","1","left","67","67","67","0","0","67","67","0","0","67","67","67","NA","0","67","0","Sun Oct 24 19:53:09 2021","The main experiment item","yes","Sternbergtask.osexp","/Users/mihailcodreanu/Desktop","no","mono","no","18","no","white","no","yes","768","legacy","55","11","/Users/mihailcodreanu/Desktop/MC-subject-3.csv","legacy","1 4 9 3 2 5","Lentiform Loewenfeld","3.3.9","3","y","0","left","left","right","left","NA","NA","368","66216","6590","368","NA","NA","2","legacy","6","1024","2","48000","-16","experiment","3","odd","9","467828","464560","465614","3529","146873","465618","412663","3536","140282","469832","470201","466622","NA","69765","469832","NA","Sternberg task","64","35396","68","yes","1024"
"94.20289855072464","94.20289855072464","519.0434782608696","519.0434782608696","black","experiment","legacy","legacy","legacy","0","uniform","1","undefined","1","left","68","68","68","0","0","68","68","0","0","68","68","68","NA","0","68","0","Sun Oct 24 19:53:09 2021","The main experiment item","yes","Sternbergtask.osexp","/Users/mihailcodreanu/Desktop","no","mono","no","18","no","white","no","yes","768","legacy","56","11","/Users/mihailcodreanu/Desktop/MC-subject-3.csv","legacy","5 2 6","Lentiform Loewenfeld","3.3.9","2","y","0","left","left","right","left","NA","NA","418","66216","6590","418","NA","NA","2","legacy","3","1024","2","48000","-16","experiment","3","odd","2","473474","470207","471260","3529","146873","471264","412663","3536","140282","475478","475897","472268","NA","69765","475478","NA","Sternberg task","65","35814","69","yes","1024"
"94.28571428571429","94.28571428571429","517.2","517.2","black","experiment","legacy","legacy","legacy","0","uniform","1","undefined","1","left","69","69","69","0","0","69","69","0","0","69","69","69","NA","0","69","0","Sun Oct 24 19:53:09 2021","The main experiment item","yes","Sternbergtask.osexp","/Users/mihailcodreanu/Desktop","no","mono","no","18","no","white","no","yes","768","legacy","57","11","/Users/mihailcodreanu/Desktop/MC-subject-3.csv","legacy","6 1 2","Lentiform Loewenfeld","3.3.9","3","y","0","left","left","right","left","NA","NA","390","66216","6590","390","NA","NA","2","legacy","3","1024","2","48000","-16","experiment","3","odd","2","479174","475904","476960","3529","146873","476963","412663","3536","140282","481178","481569","477968","NA","69765","481178","NA","Sternberg task","66","36204","70","yes","1024"
"92.95774647887323","92.95774647887323","517.0281690140845","517.0281690140845","black","experiment","legacy","legacy","legacy","0","uniform","0","undefined","0","right","70","70","70","0","0","70","70","0","0","70","70","70","NA","0","70","0","Sun Oct 24 19:53:09 2021","The main experiment item","yes","Sternbergtask.osexp","/Users/mihailcodreanu/Desktop","no","mono","no","18","no","white","no","yes","768","legacy","58","11","/Users/mihailcodreanu/Desktop/MC-subject-3.csv","legacy","6 7 5 9","Lentiform Loewenfeld","3.3.9","0","n","0","left","left","right","left","NA","NA","505","66216","6590","505","NA","NA","2","legacy","4","1024","2","48000","-16","experiment","3","odd","2","484842","481576","482629","3529","146873","482633","412663","3536","140282","486847","487353","483637","NA","69765","486847","NA","Sternberg task","66","36709","71","yes","1024"
"93.05555555555556","93.05555555555556","518.0694444444445","518.0694444444445","black","experiment","legacy","legacy","legacy","0","uniform","1","undefined","1","right","71","71","71","0","0","71","71","0","0","71","71","71","NA","0","71","0","Sun Oct 24 19:53:09 2021","The main experiment item","yes","Sternbergtask.osexp","/Users/mihailcodreanu/Desktop","no","mono","no","18","no","white","no","yes","768","legacy","59","11","/Users/mihailcodreanu/Desktop/MC-subject-3.csv","legacy","6 3 1 7 9 8","Lentiform Loewenfeld","3.3.9","0","n","0","right","left","right","right","NA","NA","592","66216","6590","592","NA","NA","2","legacy","6","1024","2","48000","-16","experiment","3","odd","4","490628","481576","488414","3529","146873","488418","487359","3536","140282","492632","493225","489422","NA","69765","492632","NA","Sternberg task","67","37301","72","yes","1024"
"93.15068493150685","93.15068493150685","515.4657534246576","515.4657534246576","black","experiment","legacy","legacy","legacy","0","uniform","1","undefined","1","left","72","72","72","0","0","72","72","0","0","72","72","72","NA","0","72","0","Sun Oct 24 19:53:09 2021","The main experiment item","yes","Sternbergtask.osexp","/Users/mihailcodreanu/Desktop","no","mono","no","18","no","white","no","yes","768","legacy","60","11","/Users/mihailcodreanu/Desktop/MC-subject-3.csv","legacy","3 9 7 6 4","Lentiform Loewenfeld","3.3.9","3","y","0","left","left","right","left","NA","NA","328","66216","6590","328","NA","NA","2","legacy","5","1024","2","48000","-16","experiment","3","odd","7","496499","493232","494286","3529","146873","494290","487359","3536","140282","498504","498833","495294","NA","69765","498504","NA","Sternberg task","68","37629","73","yes","1024"
"93.24324324324324","93.24324324324324","515.9864864864865","515.9864864864865","black","experiment","legacy","legacy","legacy","0","uniform","1","undefined","1","right","73","73","73","0","0","73","73","0","0","73","73","73","NA","0","73","0","Sun Oct 24 19:53:09 2021","The main experiment item","yes","Sternbergtask.osexp","/Users/mihailcodreanu/Desktop","no","mono","no","18","no","white","no","yes","768","legacy","61","11","/Users/mihailcodreanu/Desktop/MC-subject-3.csv","legacy","7 1 5 6 3","Lentiform Loewenfeld","3.3.9","0","n","0","right","left","right","right","NA","NA","554","66216","6590","554","NA","NA","2","legacy","5","1024","2","48000","-16","experiment","3","odd","8","502106","498841","499895","3529","146873","499899","487359","3536","140282","504110","504665","500903","NA","69765","504110","NA","Sternberg task","69","38183","74","yes","1024"
"93.33333333333333","93.33333333333333","515.84","515.84","black","experiment","legacy","legacy","legacy","0","uniform","1","undefined","1","right","74","74","74","0","0","74","74","0","0","74","74","74","NA","0","74","0","Sun Oct 24 19:53:09 2021","The main experiment item","yes","Sternbergtask.osexp","/Users/mihailcodreanu/Desktop","no","mono","no","18","no","white","no","yes","768","legacy","62","11","/Users/mihailcodreanu/Desktop/MC-subject-3.csv","legacy","8 5 7 3 6","Lentiform Loewenfeld","3.3.9","0","n","0","right","left","right","right","NA","NA","505","66216","6590","505","NA","NA","2","legacy","5","1024","2","48000","-16","experiment","3","odd","9","507939","504671","505725","3529","146873","505729","487359","3536","140282","509943","510449","506733","NA","69765","509943","NA","Sternberg task","70","38688","75","yes","1024"
"93.42105263157895","93.42105263157895","514.0921052631579","514.0921052631579","black","experiment","legacy","legacy","legacy","0","uniform","1","undefined","1","left","75","75","75","0","0","75","75","0","0","75","75","75","NA","0","75","0","Sun Oct 24 19:53:09 2021","The main experiment item","yes","Sternbergtask.osexp","/Users/mihailcodreanu/Desktop","no","mono","no","18","no","white","no","yes","768","legacy","63","11","/Users/mihailcodreanu/Desktop/MC-subject-3.csv","legacy","4 6 5 8","Lentiform Loewenfeld","3.3.9","1","y","0","left","left","right","left","NA","NA","383","66216","6590","383","NA","NA","2","legacy","4","1024","2","48000","-16","experiment","3","odd","4","513724","510456","511511","3529","146873","511514","487359","3536","140282","515729","516113","512518","NA","69765","515729","NA","Sternberg task","71","39071","76","yes","1024"
"93.50649350649351","93.50649350649351","514.8701298701299","514.8701298701299","black","experiment","legacy","legacy","legacy","0","uniform","1","undefined","1","left","76","76","76","0","0","76","76","0","0","76","76","76","NA","0","76","0","Sun Oct 24 19:53:09 2021","The main experiment item","yes","Sternbergtask.osexp","/Users/mihailcodreanu/Desktop","no","mono","no","18","no","white","no","yes","768","legacy","64","11","/Users/mihailcodreanu/Desktop/MC-subject-3.csv","legacy","4 3 2 5 8","Lentiform Loewenfeld","3.3.9","2","y","0","left","left","right","left","NA","NA","574","66216","6590","574","NA","NA","2","legacy","5","1024","2","48000","-16","experiment","3","odd","3","519390","516119","517176","3529","146873","517180","487359","3536","140282","521394","521969","518184","NA","69765","521394","NA","Sternberg task","72","39645","77","yes","1024"
"93.58974358974359","93.58974358974359","513.2051282051282","513.2051282051282","black","experiment","legacy","legacy","legacy","0","uniform","1","undefined","1","right","77","77","77","0","0","77","77","0","0","77","77","77","NA","0","77","0","Sun Oct 24 19:53:09 2021","The main experiment item","yes","Sternbergtask.osexp","/Users/mihailcodreanu/Desktop","no","mono","no","18","no","white","no","yes","768","legacy","65","11","/Users/mihailcodreanu/Desktop/MC-subject-3.csv","legacy","5 9 2 3","Lentiform Loewenfeld","3.3.9","0","n","0","right","left","right","right","NA","NA","385","66216","6590","385","NA","NA","2","legacy","4","1024","2","48000","-16","experiment","3","odd","8","525243","521976","523029","3529","146873","523033","487359","3536","140282","527247","527633","524037","NA","69765","527247","NA","Sternberg task","73","40030","78","yes","1024"
"93.67088607594937","93.67088607594937","511.65822784810126","511.65822784810126","black","experiment","legacy","legacy","legacy","0","uniform","1","undefined","1","right","78","78","78","0","0","78","78","0","0","78","78","78","NA","0","78","0","Sun Oct 24 19:53:09 2021","The main experiment item","yes","Sternbergtask.osexp","/Users/mihailcodreanu/Desktop","no","mono","no","18","no","white","no","yes","768","legacy","66","11","/Users/mihailcodreanu/Desktop/MC-subject-3.csv","legacy","2 7 5","Lentiform Loewenfeld","3.3.9","0","n","0","right","left","right","right","NA","NA","391","66216","6590","391","NA","NA","2","legacy","3","1024","2","48000","-16","experiment","3","odd","8","530909","527639","528695","3529","146873","528699","487359","3536","140282","532913","533305","529703","NA","69765","532913","NA","Sternberg task","74","40421","79","yes","1024"
"93.75","93.75","516.2","516.2","black","experiment","legacy","legacy","legacy","0","uniform","1","undefined","1","left","79","79","79","0","0","79","79","0","0","79","79","79","NA","0","79","0","Sun Oct 24 19:53:09 2021","The main experiment item","yes","Sternbergtask.osexp","/Users/mihailcodreanu/Desktop","no","mono","no","18","no","white","no","yes","768","legacy","67","11","/Users/mihailcodreanu/Desktop/MC-subject-3.csv","legacy","9 3 1 2 5","Lentiform Loewenfeld","3.3.9","4","y","0","left","left","right","left","NA","NA","875","66216","6590","875","NA","NA","2","legacy","5","1024","2","48000","-16","experiment","3","odd","2","536577","533311","534364","3529","146873","534368","487359","3536","140282","538581","539457","535372","NA","69765","538581","NA","Sternberg task","75","41296","80","yes","1024"
"93.82716049382717","93.82716049382717","518.9876543209876","518.9876543209876","black","experiment","legacy","legacy","legacy","0","uniform","1","undefined","1","left","80","80","80","0","0","80","80","0","0","80","80","80","NA","0","80","0","Sun Oct 24 19:53:09 2021","The main experiment item","yes","Sternbergtask.osexp","/Users/mihailcodreanu/Desktop","no","mono","no","18","no","white","no","yes","768","legacy","68","11","/Users/mihailcodreanu/Desktop/MC-subject-3.csv","legacy","7 4 2 6 3 5","Lentiform Loewenfeld","3.3.9","6","y","0","left","left","right","left","NA","NA","742","66216","6590","742","NA","NA","2","legacy","6","1024","2","48000","-16","experiment","3","odd","5","542734","539464","540520","3529","146873","540524","487359","3536","140282","544738","545481","541528","NA","69765","544738","NA","Sternberg task","76","42038","81","yes","1024"
"93.90243902439025","93.90243902439025","518.6219512195122","518.6219512195122","black","experiment","legacy","legacy","legacy","0","uniform","1","undefined","1","right","81","81","81","0","0","81","81","0","0","81","81","81","NA","0","81","0","Sun Oct 24 19:53:09 2021","The main experiment item","yes","Sternbergtask.osexp","/Users/mihailcodreanu/Desktop","no","mono","no","18","no","white","no","yes","768","legacy","69","11","/Users/mihailcodreanu/Desktop/MC-subject-3.csv","legacy","3 4 9 6 7 8","Lentiform Loewenfeld","3.3.9","0","n","0","right","left","right","right","NA","NA","489","66216","6590","489","NA","NA","2","legacy","6","1024","2","48000","-16","experiment","3","odd","2","548755","545488","546542","3529","146873","546545","487359","3536","140282","550759","551249","547549","NA","69765","550759","NA","Sternberg task","77","42527","82","yes","1024"
"93.97590361445783","93.97590361445783","519","519","black","experiment","legacy","legacy","legacy","0","uniform","1","undefined","1","right","82","82","82","0","0","82","82","0","0","82","82","82","NA","0","82","0","Sun Oct 24 19:53:09 2021","The main experiment item","yes","Sternbergtask.osexp","/Users/mihailcodreanu/Desktop","no","mono","no","18","no","white","no","yes","768","legacy","70","11","/Users/mihailcodreanu/Desktop/MC-subject-3.csv","legacy","7 4 2 8 1 9","Lentiform Loewenfeld","3.3.9","0","n","0","right","left","right","right","NA","NA","550","66216","6590","550","NA","NA","2","legacy","6","1024","2","48000","-16","experiment","3","odd","5","554525","551256","552312","3529","146873","552316","487359","3536","140282","556530","557081","553320","NA","69765","556530","NA","Sternberg task","78","43077","83","yes","1024"
"94.04761904761905","94.04761904761905","517.202380952381","517.202380952381","black","experiment","legacy","legacy","legacy","0","uniform","1","undefined","1","left","83","83","83","0","0","83","83","0","0","83","83","83","NA","0","83","0","Sun Oct 24 19:53:09 2021","The main experiment item","yes","Sternbergtask.osexp","/Users/mihailcodreanu/Desktop","no","mono","no","18","no","white","no","yes","768","legacy","71","11","/Users/mihailcodreanu/Desktop/MC-subject-3.csv","legacy","6 9 7 4 5 1","Lentiform Loewenfeld","3.3.9","2","y","0","left","left","right","left","NA","NA","368","66216","6590","368","NA","NA","2","legacy","6","1024","2","48000","-16","experiment","3","odd","9","560356","557085","558142","3529","146873","558146","487359","3536","140282","562360","562729","559150","NA","69765","562360","NA","Sternberg task","79","43445","84","yes","1024"
"94.11764705882354","94.11764705882354","515.2470588235294","515.2470588235294","black","experiment","legacy","legacy","legacy","0","uniform","1","undefined","1","right","84","84","84","0","0","84","84","0","0","84","84","84","NA","0","84","0","Sun Oct 24 19:53:09 2021","The main experiment item","yes","Sternbergtask.osexp","/Users/mihailcodreanu/Desktop","no","mono","no","18","no","white","no","yes","768","legacy","72","11","/Users/mihailcodreanu/Desktop/MC-subject-3.csv","legacy","5","Lentiform Loewenfeld","3.3.9","0","n","0","right","left","right","right","NA","NA","351","66216","6590","351","NA","NA","2","legacy","1","1024","2","48000","-16","experiment","3","odd","8","566005","562736","563791","3529","146873","563794","487359","3536","140282","568009","568361","564799","NA","69765","568009","NA","Sternberg task","80","43796","85","yes","1024"
"94.18604651162791","94.18604651162791","514.3604651162791","514.3604651162791","black","experiment","legacy","legacy","legacy","0","uniform","1","undefined","1","right","85","85","85","0","0","85","85","0","0","85","85","85","NA","0","85","0","Sun Oct 24 19:53:09 2021","The main experiment item","yes","Sternbergtask.osexp","/Users/mihailcodreanu/Desktop","no","mono","no","18","no","white","no","yes","768","legacy","73","11","/Users/mihailcodreanu/Desktop/MC-subject-3.csv","legacy","1 3 2 6 9","Lentiform Loewenfeld","3.3.9","0","n","0","right","left","right","right","NA","NA","439","66216","6590","439","NA","NA","2","legacy","5","1024","2","48000","-16","experiment","3","odd","5","571636","568368","569423","3529","146873","569427","487359","3536","140282","573641","574081","570431","NA","69765","573641","NA","Sternberg task","81","44235","86","yes","1024"
"94.25287356321839","94.25287356321839","512.8390804597701","512.8390804597701","black","experiment","legacy","legacy","legacy","0","uniform","1","undefined","1","left","86","86","86","0","0","86","86","0","0","86","86","86","NA","0","86","0","Sun Oct 24 19:53:09 2021","The main experiment item","yes","Sternbergtask.osexp","/Users/mihailcodreanu/Desktop","no","mono","no","18","no","white","no","yes","768","legacy","74","11","/Users/mihailcodreanu/Desktop/MC-subject-3.csv","legacy","3 5 4 7","Lentiform Loewenfeld","3.3.9","1","y","0","left","left","right","left","NA","NA","382","66216","6590","382","NA","NA","2","legacy","4","1024","2","48000","-16","experiment","3","odd","3","577358","574087","575144","3529","146873","575148","487359","3536","140282","579362","579745","576152","NA","69765","579362","NA","Sternberg task","82","44617","87","yes","1024"
"94.31818181818181","94.31818181818181","512.875","512.875","black","experiment","legacy","legacy","legacy","0","uniform","1","undefined","1","right","87","87","87","0","0","87","87","0","0","87","87","87","NA","0","87","0","Sun Oct 24 19:53:09 2021","The main experiment item","yes","Sternbergtask.osexp","/Users/mihailcodreanu/Desktop","no","mono","no","18","no","white","no","yes","768","legacy","75","11","/Users/mihailcodreanu/Desktop/MC-subject-3.csv","legacy","7 6 4 8 1 2","Lentiform Loewenfeld","3.3.9","0","n","0","right","left","right","right","NA","NA","516","66216","6590","516","NA","NA","2","legacy","6","1024","2","48000","-16","experiment","3","odd","9","583016","579751","580802","3529","146873","580805","487359","3536","140282","585020","585537","581810","NA","69765","585020","NA","Sternberg task","83","45133","88","yes","1024"
"94.38202247191012","94.38202247191012","513","513","black","experiment","legacy","legacy","legacy","0","uniform","1","undefined","1","right","88","88","88","0","0","88","88","0","0","88","88","88","NA","0","88","0","Sun Oct 24 19:53:09 2021","The main experiment item","yes","Sternbergtask.osexp","/Users/mihailcodreanu/Desktop","no","mono","no","18","no","white","no","yes","768","legacy","76","11","/Users/mihailcodreanu/Desktop/MC-subject-3.csv","legacy","2 5 1 4","Lentiform Loewenfeld","3.3.9","0","n","0","right","left","right","right","NA","NA","524","66216","6590","524","NA","NA","2","legacy","4","1024","2","48000","-16","experiment","3","odd","6","588815","585544","586601","3529","146873","586605","487359","3536","140282","590820","591345","587609","NA","69765","590820","NA","Sternberg task","84","45657","89","yes","1024"
"94.44444444444444","94.44444444444444","512.9777777777778","512.9777777777778","black","experiment","legacy","legacy","legacy","0","uniform","1","undefined","1","right","89","89","89","0","0","89","89","0","0","89","89","89","NA","0","89","0","Sun Oct 24 19:53:09 2021","The main experiment item","yes","Sternbergtask.osexp","/Users/mihailcodreanu/Desktop","no","mono","no","18","no","white","no","yes","768","legacy","77","11","/Users/mihailcodreanu/Desktop/MC-subject-3.csv","legacy","7 1 8 4 9 3","Lentiform Loewenfeld","3.3.9","0","n","0","right","left","right","right","NA","NA","511","66216","6590","511","NA","NA","2","legacy","6","1024","2","48000","-16","experiment","3","odd","6","594620","591351","592407","3529","146873","592410","487359","3536","140282","596625","597137","593415","NA","69765","596625","NA","Sternberg task","85","46168","90","yes","1024"
"94.50549450549451","94.50549450549451","511.57142857142856","511.57142857142856","black","experiment","legacy","legacy","legacy","0","uniform","1","undefined","1","right","90","90","90","0","0","90","90","0","0","90","90","90","NA","0","90","0","Sun Oct 24 19:53:09 2021","The main experiment item","yes","Sternbergtask.osexp","/Users/mihailcodreanu/Desktop","no","mono","no","18","no","white","no","yes","768","legacy","78","11","/Users/mihailcodreanu/Desktop/MC-subject-3.csv","legacy","1 4 9 3","Lentiform Loewenfeld","3.3.9","0","n","0","right","left","right","right","NA","NA","385","66216","6590","385","NA","NA","2","legacy","4","1024","2","48000","-16","experiment","3","odd","5","600411","597143","598197","3529","146873","598201","487359","3536","140282","602415","602801","599205","NA","69765","602415","NA","Sternberg task","86","46553","91","yes","1024"
"94.56521739130434","94.56521739130434","511.20652173913044","511.20652173913044","black","experiment","legacy","legacy","legacy","0","uniform","1","undefined","1","right","91","91","91","0","0","91","91","0","0","91","91","91","NA","0","91","0","Sun Oct 24 19:53:09 2021","The main experiment item","yes","Sternbergtask.osexp","/Users/mihailcodreanu/Desktop","no","mono","no","18","no","white","no","yes","768","legacy","79","11","/Users/mihailcodreanu/Desktop/MC-subject-3.csv","legacy","3 9 8 1 6 4","Lentiform Loewenfeld","3.3.9","0","n","0","right","left","right","right","NA","NA","478","66216","6590","478","NA","NA","2","legacy","6","1024","2","48000","-16","experiment","3","odd","7","606070","602805","603859","3529","146873","603863","487359","3536","140282","608074","608553","604867","NA","69765","608074","NA","Sternberg task","87","47031","92","yes","1024"
"94.6236559139785","94.6236559139785","513.1075268817204","513.1075268817204","black","experiment","legacy","legacy","legacy","0","uniform","1","undefined","1","right","92","92","92","0","0","92","92","0","0","92","92","92","NA","0","92","0","Sun Oct 24 19:53:09 2021","The main experiment item","yes","Sternbergtask.osexp","/Users/mihailcodreanu/Desktop","no","mono","no","18","no","white","no","yes","768","legacy","80","11","/Users/mihailcodreanu/Desktop/MC-subject-3.csv","legacy","1 7 5 2","Lentiform Loewenfeld","3.3.9","0","n","0","right","left","right","right","NA","NA","688","66216","6590","688","NA","NA","2","legacy","4","1024","2","48000","-16","experiment","3","odd","3","611828","608560","609614","3529","146873","609618","487359","3536","140282","613832","614521","610622","NA","69765","613832","NA","Sternberg task","88","47719","93","yes","1024"
"94.68085106382979","94.68085106382979","512.3085106382979","512.3085106382979","black","experiment","legacy","legacy","legacy","0","uniform","1","undefined","1","left","93","93","93","0","0","93","93","0","0","93","93","93","NA","0","93","0","Sun Oct 24 19:53:09 2021","The main experiment item","yes","Sternbergtask.osexp","/Users/mihailcodreanu/Desktop","no","mono","no","18","no","white","no","yes","768","legacy","81","11","/Users/mihailcodreanu/Desktop/MC-subject-3.csv","legacy","2 3","Lentiform Loewenfeld","3.3.9","1","y","0","left","left","right","left","NA","NA","438","66216","6590","438","NA","NA","2","legacy","2","1024","2","48000","-16","experiment","3","odd","2","617798","614528","615585","3529","146873","615588","487359","3536","140282","619802","620241","616592","NA","69765","619802","NA","Sternberg task","89","48157","94","yes","1024"
"94.73684210526316","94.73684210526316","510.29473684210524","510.29473684210524","black","experiment","legacy","legacy","legacy","0","uniform","1","undefined","1","left","94","94","94","0","0","94","94","0","0","94","94","94","NA","0","94","0","Sun Oct 24 19:53:09 2021","The main experiment item","yes","Sternbergtask.osexp","/Users/mihailcodreanu/Desktop","no","mono","no","18","no","white","no","yes","768","legacy","82","11","/Users/mihailcodreanu/Desktop/MC-subject-3.csv","legacy","8 5 1 3 9","Lentiform Loewenfeld","3.3.9","4","y","0","left","left","right","left","NA","NA","321","66216","6590","321","NA","NA","2","legacy","5","1024","2","48000","-16","experiment","3","odd","3","623515","620248","621301","3529","146873","621305","487359","3536","140282","625519","625841","622309","NA","69765","625519","NA","Sternberg task","90","48478","95","yes","1024"
"93.75","93.75","510.3125","510.3125","black","experiment","legacy","legacy","legacy","0","uniform","0","undefined","0","left","95","95","95","0","0","95","95","0","0","95","95","95","NA","0","95","0","Sun Oct 24 19:53:09 2021","The main experiment item","yes","Sternbergtask.osexp","/Users/mihailcodreanu/Desktop","no","mono","no","18","no","white","no","yes","768","legacy","83","11","/Users/mihailcodreanu/Desktop/MC-subject-3.csv","legacy","6 7 9 3 1 2","Lentiform Loewenfeld","3.3.9","1","y","0","right","left","right","right","NA","NA","512","66216","6590","512","NA","NA","2","legacy","6","1024","2","48000","-16","experiment","3","odd","6","629116","625848","626902","3529","146873","626906","487359","3536","140282","631120","631633","627910","NA","69765","631120","NA","Sternberg task","90","48990","96","yes","1024"
"93.81443298969072","93.81443298969072","518.4948453608248","518.4948453608248","black","experiment","legacy","legacy","legacy","0","uniform","1","undefined","1","left","96","96","96","0","0","96","96","0","0","96","96","96","NA","0","96","0","Sun Oct 24 19:53:09 2021","The main experiment item","yes","Sternbergtask.osexp","/Users/mihailcodreanu/Desktop","no","mono","no","18","no","white","no","yes","768","legacy","84","11","/Users/mihailcodreanu/Desktop/MC-subject-3.csv","legacy","9 1 7 2","Lentiform Loewenfeld","3.3.9","2","y","0","left","left","right","left","NA","NA","1304","66216","6590","1304","NA","NA","2","legacy","4","1024","2","48000","-16","experiment","3","odd","1","634908","625848","632694","3529","146873","632698","631640","3536","140282","636912","638217","633702","NA","69765","636912","NA","Sternberg task","91","50294","97","yes","1024"
"93.87755102040816","93.87755102040816","524.1224489795918","524.1224489795918","black","experiment","legacy","legacy","legacy","0","uniform","1","undefined","1","left","97","97","97","0","0","97","97","0","0","97","97","97","NA","0","97","0","Sun Oct 24 19:53:09 2021","The main experiment item","yes","Sternbergtask.osexp","/Users/mihailcodreanu/Desktop","no","mono","no","18","no","white","no","yes","768","legacy","85","11","/Users/mihailcodreanu/Desktop/MC-subject-3.csv","legacy","3 9 6 2","Lentiform Loewenfeld","3.3.9","4","y","0","left","left","right","left","NA","NA","1070","66216","6590","1070","NA","NA","2","legacy","4","1024","2","48000","-16","experiment","3","odd","2","641494","638224","639279","3529","146873","639282","631640","3536","140282","643498","644569","640287","NA","69765","643498","NA","Sternberg task","92","51364","98","yes","1024"
"93.93939393939394","93.93939393939394","522.2323232323232","522.2323232323232","black","experiment","legacy","legacy","legacy","0","uniform","1","undefined","1","right","98","98","98","0","0","98","98","0","0","98","98","98","NA","0","98","0","Sun Oct 24 19:53:09 2021","The main experiment item","yes","Sternbergtask.osexp","/Users/mihailcodreanu/Desktop","no","mono","no","18","no","white","no","yes","768","legacy","86","11","/Users/mihailcodreanu/Desktop/MC-subject-3.csv","legacy","4 1","Lentiform Loewenfeld","3.3.9","0","n","0","right","left","right","right","NA","NA","337","66216","6590","337","NA","NA","2","legacy","2","1024","2","48000","-16","experiment","3","odd","6","647843","644575","645628","3529","146873","645632","631640","3536","140282","649847","650185","646636","NA","69765","649847","NA","Sternberg task","93","51701","99","yes","1024"
"94","94","523.16","523.16","black","experiment","legacy","legacy","legacy","0","uniform","1","undefined","1","right","99","99","99","0","0","99","99","0","0","99","99","99","NA","0","99","0","Sun Oct 24 19:53:09 2021","The main experiment item","yes","Sternbergtask.osexp","/Users/mihailcodreanu/Desktop","no","mono","no","18","no","white","no","yes","768","legacy","87","11","/Users/mihailcodreanu/Desktop/MC-subject-3.csv","legacy","1 4 9 2 5","Lentiform Loewenfeld","3.3.9","0","n","0","right","left","right","right","NA","NA","615","66216","6590","615","NA","NA","2","legacy","5","1024","2","48000","-16","experiment","3","odd","7","653461","650192","651247","3529","146873","651251","631640","3536","140282","655465","656081","652255","NA","69765","655465","NA","Sternberg task","94","52316","100","yes","1024"
"94.05940594059406","94.05940594059406","522.7326732673267","522.7326732673267","black","experiment","legacy","legacy","legacy","0","uniform","1","undefined","1","left","100","100","100","0","0","100","100","0","0","100","100","100","NA","0","100","0","Sun Oct 24 19:53:09 2021","The main experiment item","yes","Sternbergtask.osexp","/Users/mihailcodreanu/Desktop","no","mono","no","18","no","white","no","yes","768","legacy","88","11","/Users/mihailcodreanu/Desktop/MC-subject-3.csv","legacy","6 7 8 5","Lentiform Loewenfeld","3.3.9","3","y","0","left","left","right","left","NA","NA","480","66216","6590","480","NA","NA","2","legacy","4","1024","2","48000","-16","experiment","3","odd","8","659355","656088","657142","3529","146873","657146","631640","3536","140282","661360","661841","658150","NA","69765","661360","NA","Sternberg task","95","52796","101","yes","1024"
"94.11764705882354","94.11764705882354","521.8137254901961","521.8137254901961","black","experiment","legacy","legacy","legacy","0","uniform","1","undefined","1","left","101","101","101","0","0","101","101","0","0","101","101","101","NA","0","101","0","Sun Oct 24 19:53:09 2021","The main experiment item","yes","Sternbergtask.osexp","/Users/mihailcodreanu/Desktop","no","mono","no","18","no","white","no","yes","768","legacy","89","11","/Users/mihailcodreanu/Desktop/MC-subject-3.csv","legacy","9 3 8 2 1 4","Lentiform Loewenfeld","3.3.9","3","y","0","left","left","right","left","NA","NA","429","66216","6590","429","NA","NA","2","legacy","6","1024","2","48000","-16","experiment","3","odd","8","665111","661847","662900","3529","146873","662904","631640","3536","140282","667115","667545","663908","NA","69765","667115","NA","Sternberg task","96","53225","102","yes","1024"
"94.1747572815534","94.1747572815534","523.2038834951456","523.2038834951456","black","experiment","legacy","legacy","legacy","0","uniform","1","undefined","1","left","102","102","102","0","0","102","102","0","0","102","102","102","NA","0","102","0","Sun Oct 24 19:53:09 2021","The main experiment item","yes","Sternbergtask.osexp","/Users/mihailcodreanu/Desktop","no","mono","no","18","no","white","no","yes","768","legacy","90","11","/Users/mihailcodreanu/Desktop/MC-subject-3.csv","legacy","6 9 3 1","Lentiform Loewenfeld","3.3.9","4","y","0","left","left","right","left","NA","NA","665","66216","6590","665","NA","NA","2","legacy","4","1024","2","48000","-16","experiment","3","odd","1","670818","667549","668605","3529","146873","668609","631640","3536","140282","672823","673489","669613","NA","69765","672823","NA","Sternberg task","97","53890","103","yes","1024"
"94.23076923076923","94.23076923076923","521.5288461538462","521.5288461538462","black","experiment","legacy","legacy","legacy","0","uniform","1","undefined","1","left","103","103","103","0","0","103","103","0","0","103","103","103","NA","0","103","0","Sun Oct 24 19:53:09 2021","The main experiment item","yes","Sternbergtask.osexp","/Users/mihailcodreanu/Desktop","no","mono","no","18","no","white","no","yes","768","legacy","91","11","/Users/mihailcodreanu/Desktop/MC-subject-3.csv","legacy","8 9 5 7 1 6","Lentiform Loewenfeld","3.3.9","4","y","0","left","left","right","left","NA","NA","349","66216","6590","349","NA","NA","2","legacy","6","1024","2","48000","-16","experiment","3","odd","7","676766","673496","674553","3529","146873","674557","631640","3536","140282","678771","679121","675561","NA","69765","678771","NA","Sternberg task","98","54239","104","yes","1024"
"94.28571428571429","94.28571428571429","522.2285714285714","522.2285714285714","black","experiment","legacy","legacy","legacy","0","uniform","1","undefined","1","left","104","104","104","0","0","104","104","0","0","104","104","104","NA","0","104","0","Sun Oct 24 19:53:09 2021","The main experiment item","yes","Sternbergtask.osexp","/Users/mihailcodreanu/Desktop","no","mono","no","18","no","white","no","yes","768","legacy","92","11","/Users/mihailcodreanu/Desktop/MC-subject-3.csv","legacy","8 5 3 7 4 6","Lentiform Loewenfeld","3.3.9","6","y","0","left","left","right","left","NA","NA","595","66216","6590","595","NA","NA","2","legacy","6","1024","2","48000","-16","experiment","3","odd","6","682392","679128","680179","3529","146873","680183","631640","3536","140282","684397","684993","681187","NA","69765","684397","NA","Sternberg task","99","54834","105","yes","1024"
"94.33962264150944","94.33962264150944","524.7830188679245","524.7830188679245","black","experiment","legacy","legacy","legacy","0","uniform","1","undefined","1","left","105","105","105","0","0","105","105","0","0","105","105","105","NA","0","105","0","Sun Oct 24 19:53:09 2021","The main experiment item","yes","Sternbergtask.osexp","/Users/mihailcodreanu/Desktop","no","mono","no","18","no","white","no","yes","768","legacy","93","11","/Users/mihailcodreanu/Desktop/MC-subject-3.csv","legacy","5 7 8 2 3 8","Lentiform Loewenfeld","3.3.9","5","y","0","left","left","right","left","NA","NA","793","66216","6590","793","NA","NA","2","legacy","6","1024","2","48000","-16","experiment","3","odd","3","688266","684998","686053","3529","146873","686057","631640","3536","140282","690271","691065","687061","NA","69765","690271","NA","Sternberg task","100","55627","106","yes","1024"
"94.39252336448598","94.39252336448598","524.3271028037383","524.3271028037383","black","experiment","legacy","legacy","legacy","0","uniform","1","undefined","1","right","106","106","106","0","0","106","106","0","0","106","106","106","NA","0","106","0","Sun Oct 24 19:53:09 2021","The main experiment item","yes","Sternbergtask.osexp","/Users/mihailcodreanu/Desktop","no","mono","no","18","no","white","no","yes","768","legacy","94","11","/Users/mihailcodreanu/Desktop/MC-subject-3.csv","legacy","8 4 3 9","Lentiform Loewenfeld","3.3.9","0","n","0","right","left","right","right","NA","NA","476","66216","6590","476","NA","NA","2","legacy","4","1024","2","48000","-16","experiment","3","odd","5","694335","691070","692122","3529","146873","692126","631640","3536","140282","696340","696817","693130","NA","69765","696340","NA","Sternberg task","101","56103","107","yes","1024"
"94.44444444444444","94.44444444444444","522.8981481481482","522.8981481481482","black","experiment","legacy","legacy","legacy","0","uniform","1","undefined","1","left","107","107","107","0","0","107","107","0","0","107","107","107","NA","0","107","0","Sun Oct 24 19:53:09 2021","The main experiment item","yes","Sternbergtask.osexp","/Users/mihailcodreanu/Desktop","no","mono","no","18","no","white","no","yes","768","legacy","95","11","/Users/mihailcodreanu/Desktop/MC-subject-3.csv","legacy","9 8 4","Lentiform Loewenfeld","3.3.9","1","y","0","left","left","right","left","NA","NA","370","66216","6590","370","NA","NA","2","legacy","3","1024","2","48000","-16","experiment","3","odd","9","700090","696824","697877","3529","146873","697881","631640","3536","140282","702094","702465","698885","NA","69765","702094","NA","Sternberg task","102","56473","108","yes","1024"
"93.57798165137615","93.57798165137615","527.3577981651376","527.3577981651376","black","experiment","legacy","legacy","legacy","0","uniform","0","undefined","0","left","108","108","108","0","0","108","108","0","0","108","108","108","NA","0","108","0","Sun Oct 24 19:53:09 2021","The main experiment item","yes","Sternbergtask.osexp","/Users/mihailcodreanu/Desktop","no","mono","no","18","no","white","no","yes","768","legacy","96","11","/Users/mihailcodreanu/Desktop/MC-subject-3.csv","legacy","6 8 9 3 4 9","Lentiform Loewenfeld","3.3.9","5","y","0","right","left","right","right","NA","NA","1009","66216","6590","1009","NA","NA","2","legacy","6","1024","2","48000","-16","experiment","3","odd","4","705738","702471","703526","3529","146873","703529","631640","3536","140282","707743","708753","704533","NA","69765","707743","NA","Sternberg task","102","57482","109","yes","1024"
"93.63636363636364","93.63636363636364","528.3","528.3","black","experiment","legacy","legacy","legacy","0","uniform","1","undefined","1","right","109","109","109","0","0","109","109","0","0","109","109","109","NA","0","109","0","Sun Oct 24 19:53:09 2021","The main experiment item","yes","Sternbergtask.osexp","/Users/mihailcodreanu/Desktop","no","mono","no","18","no","white","no","yes","768","legacy","97","11","/Users/mihailcodreanu/Desktop/MC-subject-3.csv","legacy","2 8 9","Lentiform Loewenfeld","3.3.9","0","n","0","right","left","right","right","NA","NA","631","66216","6590","631","NA","NA","2","legacy","3","1024","2","48000","-16","experiment","3","odd","6","712029","702471","709816","3529","146873","709819","708760","3536","140282","714033","714665","710824","NA","69765","714033","NA","Sternberg task","103","58113","110","yes","1024"
"93.69369369369369","93.69369369369369","531.9639639639639","531.9639639639639","black","experiment","legacy","legacy","legacy","0","uniform","1","undefined","1","right","110","110","110","0","0","110","110","0","0","110","110","110","NA","0","110","0","Sun Oct 24 19:53:09 2021","The main experiment item","yes","Sternbergtask.osexp","/Users/mihailcodreanu/Desktop","no","mono","no","18","no","white","no","yes","768","legacy","98","11","/Users/mihailcodreanu/Desktop/MC-subject-3.csv","legacy","1 7 8 3 9","Lentiform Loewenfeld","3.3.9","0","n","0","right","left","right","right","NA","NA","935","66216","6590","935","NA","NA","2","legacy","5","1024","2","48000","-16","experiment","3","odd","2","717940","714671","715727","3529","146873","715731","708760","3536","140282","719945","720881","716735","NA","69765","719945","NA","Sternberg task","104","59048","111","yes","1024"
"93.75","93.75","534.7410714285714","534.7410714285714","black","experiment","legacy","legacy","legacy","0","uniform","1","undefined","1","right","111","111","111","0","0","111","111","0","0","111","111","111","NA","0","111","0","Sun Oct 24 19:53:09 2021","The main experiment item","yes","Sternbergtask.osexp","/Users/mihailcodreanu/Desktop","no","mono","no","18","no","white","no","yes","768","legacy","99","11","/Users/mihailcodreanu/Desktop/MC-subject-3.csv","legacy","5 3 8 7 2 4","Lentiform Loewenfeld","3.3.9","0","n","0","right","left","right","right","NA","NA","843","66216","6590","843","NA","NA","2","legacy","6","1024","2","48000","-16","experiment","3","odd","9","724153","720885","721940","3529","146873","721944","708760","3536","140282","726157","727001","722948","NA","69765","726157","NA","Sternberg task","105","59891","112","yes","1024"
"93.80530973451327","93.80530973451327","535.1858407079646","535.1858407079646","black","experiment","legacy","legacy","legacy","0","uniform","1","undefined","1","right","112","112","112","0","0","112","112","0","0","112","112","112","NA","0","112","0","Sun Oct 24 19:53:09 2021","The main experiment item","yes","Sternbergtask.osexp","/Users/mihailcodreanu/Desktop","no","mono","no","18","no","white","no","yes","768","legacy","100","11","/Users/mihailcodreanu/Desktop/MC-subject-3.csv","legacy","5 2","Lentiform Loewenfeld","3.3.9","0","n","0","right","left","right","right","NA","NA","585","66216","6590","585","NA","NA","2","legacy","2","1024","2","48000","-16","experiment","3","odd","7","730275","727008","728061","3529","146873","728065","708760","3536","140282","732279","732865","729069","NA","69765","732279","NA","Sternberg task","106","60476","113","yes","1024"
"93.85964912280701","93.85964912280701","534.9912280701755","534.9912280701755","black","experiment","legacy","legacy","legacy","0","uniform","1","undefined","1","left","113","113","113","0","0","113","113","0","0","113","113","113","NA","0","113","0","Sun Oct 24 19:53:09 2021","The main experiment item","yes","Sternbergtask.osexp","/Users/mihailcodreanu/Desktop","no","mono","no","18","no","white","no","yes","768","legacy","101","11","/Users/mihailcodreanu/Desktop/MC-subject-3.csv","legacy","6 5","Lentiform Loewenfeld","3.3.9","2","y","0","left","left","right","left","NA","NA","513","66216","6590","513","NA","NA","2","legacy","2","1024","2","48000","-16","experiment","3","odd","5","736139","732872","733926","3529","146873","733930","708760","3536","140282","738143","738657","734934","NA","69765","738143","NA","Sternberg task","107","60989","114","yes","1024"
"93.91304347826087","93.91304347826087","537.9304347826087","537.9304347826087","black","experiment","legacy","legacy","legacy","0","uniform","1","undefined","1","left","114","114","114","0","0","114","114","0","0","114","114","114","NA","0","114","0","Sun Oct 24 19:53:09 2021","The main experiment item","yes","Sternbergtask.osexp","/Users/mihailcodreanu/Desktop","no","mono","no","18","no","white","no","yes","768","legacy","102","11","/Users/mihailcodreanu/Desktop/MC-subject-3.csv","legacy","5 7 3 6 2","Lentiform Loewenfeld","3.3.9","5","y","0","left","left","right","left","NA","NA","873","66216","6590","873","NA","NA","2","legacy","5","1024","2","48000","-16","experiment","3","odd","2","741931","738663","739717","3529","146873","739721","708760","3536","140282","743935","744809","740725","NA","69765","743935","NA","Sternberg task","108","61862","115","yes","1024"
