acc,accuracy,average_response_time,avg_rt,background,block,canvas_backend,clock_backend,color_backend,compensation,coordinates,correct,correct_Instruction1,correct_keyboard_response,correct_response,count_CorrectFeedback,count_ExperimentLoop,count_Fixation,count_ISI,count_IncorrectFeedback,count_Instruction1,count_Instruction2,count_MemorySet,count_Practiceloop,count_Probe,count_ThankYou,count_expSequence,count_experiment,count_keyboard_response,count_logger,datetime,description,disable_garbage_collection,experiment_file,experiment_path,font_bold,font_family,font_italic,font_size,font_underline,foreground,form_clicks,fullscreen,height,keyboard_backend,live_row,live_row_Practiceloop,logfile,mouse_backend,numberSet,opensesame_codename,opensesame_version,posInSet,present,repeat_cycle,response,response_Instruction1,response_Instruction2,response_ThankYou,response_keyboard_response,response_time,response_time_Instruction1,response_time_Instruction2,response_time_ThankYou,response_time_keyboard_response,round_decimals,sampler_backend,setSize,sound_buf_size,sound_channels,sound_freq,sound_sample_size,start,subject_nr,subject_parity,target,time_CorrectFeedback,time_ExperimentLoop,time_Fixation,time_ISI,time_IncorrectFeedback,time_Instruction1,time_Instruction2,time_MemorySet,time_Practiceloop,time_Probe,time_ThankYou,time_expSequence,time_experiment,time_keyboard_response,time_logger,title,total_correct,total_response_time,total_responses,uniform_coordinates,width
100,100,571,571,black,practice,legacy,legacy,legacy,0,uniform,1,undefined,1,right,0,0,0,0,0,0,0,0,0,0,0,0,0,0,0,10/16/19 12:55,The main experiment item,yes,SternbergTask.osexp,C:/Users/Carolyn/Desktop,no,mono,no,18,no,white,no,yes,768,legacy,0,0,C:/Users/Carolyn/Desktop/cp_subject-2.csv,legacy,2 1,Kafkaesque Koffka,3.2.8,0,n,0,right,right,NA,NA,right,571,15452,NA,NA,571,2,legacy,2,1024,2,48000,-16,experiment,2,even,5,NA,NA,19839,22046,NA,3353,NA,20843,18806,24049,NA,19835,3348,24050,24621,Sternberg Task,1,571,1,yes,1024
100,100,677.5,677.5,black,practice,legacy,legacy,legacy,0,uniform,1,undefined,1,right,1,0,1,1,1,0,0,1,0,1,0,1,0,1,1,10/16/19 12:55,The main experiment item,yes,SternbergTask.osexp,C:/Users/Carolyn/Desktop,no,mono,no,18,no,white,no,yes,768,legacy,1,1,C:/Users/Carolyn/Desktop/cp_subject-2.csv,legacy,3 1 9 4,Kafkaesque Koffka,3.2.8,0,n,0,right,right,NA,NA,right,784,15452,NA,NA,784,2,legacy,4,1024,2,48000,-16,experiment,2,even,6,24811,NA,25994,28201,NA,3353,NA,26997,18806,30204,NA,25990,3348,30205,30989,Sternberg Task,2,1355,2,yes,1024
100,100,675.3333333,675.3333333,black,practice,legacy,legacy,legacy,0,uniform,1,undefined,1,right,2,0,2,2,2,0,0,2,0,2,0,2,0,2,2,10/16/19 12:55,The main experiment item,yes,SternbergTask.osexp,C:/Users/Carolyn/Desktop,no,mono,no,18,no,white,no,yes,768,legacy,2,2,C:/Users/Carolyn/Desktop/cp_subject-2.csv,legacy,5,Kafkaesque Koffka,3.2.8,0,n,0,right,right,NA,NA,right,671,15452,NA,NA,671,2,legacy,1,1024,2,48000,-16,experiment,2,even,3,31019,NA,32203,34410,NA,3353,NA,33206,18806,36413,NA,32199,3348,36414,37085,Sternberg Task,3,2026,3,yes,1024
100,100,622.75,622.75,black,practice,legacy,legacy,legacy,0,uniform,1,undefined,1,left,3,0,3,3,3,0,0,3,0,3,0,3,0,3,3,10/16/19 12:55,The main experiment item,yes,SternbergTask.osexp,C:/Users/Carolyn/Desktop,no,mono,no,18,no,white,no,yes,768,legacy,3,3,C:/Users/Carolyn/Desktop/cp_subject-2.csv,legacy,6,Kafkaesque Koffka,3.2.8,1,y,0,left,right,NA,NA,left,465,15452,NA,NA,465,2,legacy,1,1024,2,48000,-16,experiment,2,even,6,37153,NA,38328,40536,NA,3353,NA,39331,18806,42539,NA,38324,3348,42540,43006,Sternberg Task,4,2491,4,yes,1024
100,100,644.8,644.8,black,practice,legacy,legacy,legacy,0,uniform,1,undefined,1,left,4,0,4,4,4,0,0,4,0,4,0,4,0,4,4,10/16/19 12:55,The main experiment item,yes,SternbergTask.osexp,C:/Users/Carolyn/Desktop,no,mono,no,18,no,white,no,yes,768,legacy,4,4,C:/Users/Carolyn/Desktop/cp_subject-2.csv,legacy,4 8,Kafkaesque Koffka,3.2.8,1,y,0,left,right,NA,NA,left,733,15452,NA,NA,733,2,legacy,2,1024,2,48000,-16,experiment,2,even,4,43036,NA,44213,46421,NA,3353,NA,45216,18806,48424,NA,44209,3348,48424,49157,Sternberg Task,5,3224,5,yes,1024
100,100,693,693,black,practice,legacy,legacy,legacy,0,uniform,1,undefined,1,right,5,0,5,5,5,0,0,5,0,5,0,5,0,5,5,10/16/19 12:55,The main experiment item,yes,SternbergTask.osexp,C:/Users/Carolyn/Desktop,no,mono,no,18,no,white,no,yes,768,legacy,5,5,C:/Users/Carolyn/Desktop/cp_subject-2.csv,legacy,4 1 5,Kafkaesque Koffka,3.2.8,0,n,0,right,right,NA,NA,right,934,15452,NA,NA,934,2,legacy,3,1024,2,48000,-16,experiment,2,even,2,49203,NA,50380,52587,NA,3353,NA,51383,18806,54590,NA,50376,3348,54591,55525,Sternberg Task,6,4158,6,yes,1024
100,100,704.7142857,704.7142857,black,practice,legacy,legacy,legacy,0,uniform,1,undefined,1,left,6,0,6,6,6,0,0,6,0,6,0,6,0,6,6,10/16/19 12:55,The main experiment item,yes,SternbergTask.osexp,C:/Users/Carolyn/Desktop,no,mono,no,18,no,white,no,yes,768,legacy,6,6,C:/Users/Carolyn/Desktop/cp_subject-2.csv,legacy,4 3 1 7 9 8,Kafkaesque Koffka,3.2.8,1,y,0,left,right,NA,NA,left,775,15452,NA,NA,775,2,legacy,6,1024,2,48000,-16,experiment,2,even,4,55561,NA,56738,58946,NA,3353,NA,57741,18806,60949,NA,56734,3348,60950,61725,Sternberg Task,7,4933,7,yes,1024
100,100,746.625,746.625,black,practice,legacy,legacy,legacy,0,uniform,1,undefined,1,left,7,0,7,7,7,0,0,7,0,7,0,7,0,7,7,10/16/19 12:55,The main experiment item,yes,SternbergTask.osexp,C:/Users/Carolyn/Desktop,no,mono,no,18,no,white,no,yes,768,legacy,7,7,C:/Users/Carolyn/Desktop/cp_subject-2.csv,legacy,1 5 2 9,Kafkaesque Koffka,3.2.8,2,y,0,left,right,NA,NA,left,1040,15452,NA,NA,1040,2,legacy,4,1024,2,48000,-16,experiment,2,even,5,61769,NA,62946,65153,NA,3353,NA,63949,18806,67156,NA,62942,3348,67156,68197,Sternberg Task,8,5973,8,yes,1024
100,100,740.5555556,740.5555556,black,practice,legacy,legacy,legacy,0,uniform,1,undefined,1,left,8,0,8,8,8,0,0,8,0,8,0,8,0,8,8,10/16/19 12:55,The main experiment item,yes,SternbergTask.osexp,C:/Users/Carolyn/Desktop,no,mono,no,18,no,white,no,yes,768,legacy,8,8,C:/Users/Carolyn/Desktop/cp_subject-2.csv,legacy,1 7 9 8 5,Kafkaesque Koffka,3.2.8,4,y,0,left,right,NA,NA,left,692,15452,NA,NA,692,2,legacy,5,1024,2,48000,-16,experiment,2,even,8,68244,NA,69421,71628,NA,3353,NA,70424,18806,73631,NA,69417,3348,73632,74325,Sternberg Task,9,6665,9,yes,1024
100,100,742.4,742.4,black,practice,legacy,legacy,legacy,0,uniform,1,undefined,1,right,9,0,9,9,9,0,0,9,0,9,0,9,0,9,9,10/16/19 12:55,The main experiment item,yes,SternbergTask.osexp,C:/Users/Carolyn/Desktop,no,mono,no,18,no,white,no,yes,768,legacy,9,9,C:/Users/Carolyn/Desktop/cp_subject-2.csv,legacy,9 6 7 4 5,Kafkaesque Koffka,3.2.8,0,n,0,right,right,NA,NA,right,759,15452,NA,NA,759,2,legacy,5,1024,2,48000,-16,experiment,2,even,3,74368,NA,75546,77753,NA,3353,NA,76549,18806,79757,NA,75542,3348,79757,80517,Sternberg Task,10,7424,10,yes,1024
100,100,755.4545455,755.4545455,black,practice,legacy,legacy,legacy,0,uniform,1,undefined,1,right,10,0,10,10,10,0,0,10,0,10,0,10,0,10,10,10/16/19 12:55,The main experiment item,yes,SternbergTask.osexp,C:/Users/Carolyn/Desktop,no,mono,no,18,no,white,no,yes,768,legacy,10,10,C:/Users/Carolyn/Desktop/cp_subject-2.csv,legacy,5 7 8 4 1 2,Kafkaesque Koffka,3.2.8,0,n,0,right,right,NA,NA,right,886,15452,NA,NA,886,2,legacy,6,1024,2,48000,-16,experiment,2,even,6,80552,NA,81731,83937,NA,3353,NA,82734,18806,85941,NA,81727,3348,85942,86829,Sternberg Task,11,8310,11,yes,1024
100,100,744.5833333,744.5833333,black,practice,legacy,legacy,legacy,0,uniform,1,undefined,1,left,11,0,11,11,11,0,0,11,0,11,0,11,0,11,11,10/16/19 12:55,The main experiment item,yes,SternbergTask.osexp,C:/Users/Carolyn/Desktop,no,mono,no,18,no,white,no,yes,768,legacy,11,11,C:/Users/Carolyn/Desktop/cp_subject-2.csv,legacy,2 9 4,Kafkaesque Koffka,3.2.8,3,y,0,left,right,NA,NA,left,625,15452,NA,NA,625,2,legacy,3,1024,2,48000,-16,experiment,2,even,4,86869,NA,88048,90255,NA,3353,NA,89051,18806,92258,NA,88044,3348,92259,92885,Sternberg Task,12,8935,12,yes,1024
100,100,740.6153846,740.6153846,black,experiment,legacy,legacy,legacy,0,uniform,1,undefined,1,right,12,0,12,12,12,0,0,12,0,12,0,12,0,12,12,10/16/19 12:55,The main experiment item,yes,SternbergTask.osexp,C:/Users/Carolyn/Desktop,no,mono,no,18,no,white,no,yes,768,legacy,0,11,C:/Users/Carolyn/Desktop/cp_subject-2.csv,legacy,2 5 1 4,Kafkaesque Koffka,3.2.8,0,n,0,right,right,right,NA,right,693,15452,2482,NA,693,2,legacy,4,1024,2,48000,-16,experiment,2,even,6,92918,96437,96659,98867,NA,3353,93954,97663,18806,100870,NA,96655,3348,100871,101565,Sternberg Task,13,9628,13,yes,1024
100,100,772.4285714,772.4285714,black,experiment,legacy,legacy,legacy,0,uniform,1,undefined,1,left,13,0,13,13,13,0,0,13,0,13,0,13,0,13,13,10/16/19 12:55,The main experiment item,yes,SternbergTask.osexp,C:/Users/Carolyn/Desktop,no,mono,no,18,no,white,no,yes,768,legacy,1,11,C:/Users/Carolyn/Desktop/cp_subject-2.csv,legacy,3 9 7 6 4,Kafkaesque Koffka,3.2.8,3,y,0,left,right,right,NA,left,1186,15452,2482,NA,1186,2,legacy,5,1024,2,48000,-16,experiment,2,even,7,101602,96437,102782,104990,NA,3353,93954,103786,18806,106993,NA,102779,3348,106994,108181,Sternberg Task,14,10814,14,yes,1024
100,100,771.8666667,771.8666667,black,experiment,legacy,legacy,legacy,0,uniform,1,undefined,1,right,14,0,14,14,14,0,0,14,0,14,0,14,0,14,14,10/16/19 12:55,The main experiment item,yes,SternbergTask.osexp,C:/Users/Carolyn/Desktop,no,mono,no,18,no,white,no,yes,768,legacy,2,11,C:/Users/Carolyn/Desktop/cp_subject-2.csv,legacy,2 3 8 5 6 7,Kafkaesque Koffka,3.2.8,0,n,0,right,right,right,NA,right,764,15452,2482,NA,764,2,legacy,6,1024,2,48000,-16,experiment,2,even,1,108210,96437,109389,111596,NA,3353,93954,110392,18806,113599,NA,109385,3348,113600,114365,Sternberg Task,15,11578,15,yes,1024
100,100,762.5,762.5,black,experiment,legacy,legacy,legacy,0,uniform,1,undefined,1,left,15,0,15,15,15,0,0,15,0,15,0,15,0,15,15,10/16/19 12:55,The main experiment item,yes,SternbergTask.osexp,C:/Users/Carolyn/Desktop,no,mono,no,18,no,white,no,yes,768,legacy,3,11,C:/Users/Carolyn/Desktop/cp_subject-2.csv,legacy,8 7 3,Kafkaesque Koffka,3.2.8,1,y,0,left,right,right,NA,left,622,15452,2482,NA,622,2,legacy,3,1024,2,48000,-16,experiment,2,even,8,114418,96437,115595,117803,NA,3353,93954,116598,18806,119806,NA,115591,3348,119806,120429,Sternberg Task,16,12200,16,yes,1024
100,100,761.2941176,761.2941176,black,experiment,legacy,legacy,legacy,0,uniform,1,undefined,1,left,16,0,16,16,16,0,0,16,0,16,0,16,0,16,16,10/16/19 12:55,The main experiment item,yes,SternbergTask.osexp,C:/Users/Carolyn/Desktop,no,mono,no,18,no,white,no,yes,768,legacy,4,11,C:/Users/Carolyn/Desktop/cp_subject-2.csv,legacy,1 4 9 3 2 5,Kafkaesque Koffka,3.2.8,3,y,0,left,right,right,NA,left,742,15452,2482,NA,742,2,legacy,6,1024,2,48000,-16,experiment,2,even,9,120460,96437,121636,123843,NA,3353,93954,122639,18806,125846,NA,121632,3348,125846,126589,Sternberg Task,17,12942,17,yes,1024
100,100,753.1111111,753.1111111,black,experiment,legacy,legacy,legacy,0,uniform,1,undefined,1,left,17,0,17,17,17,0,0,17,0,17,0,17,0,17,17,10/16/19 12:55,The main experiment item,yes,SternbergTask.osexp,C:/Users/Carolyn/Desktop,no,mono,no,18,no,white,no,yes,768,legacy,5,11,C:/Users/Carolyn/Desktop/cp_subject-2.csv,legacy,5 7 8 2 3 8,Kafkaesque Koffka,3.2.8,5,y,0,left,right,right,NA,left,614,15452,2482,NA,614,2,legacy,6,1024,2,48000,-16,experiment,2,even,3,126626,96437,127803,130010,NA,3353,93954,128806,18806,132013,NA,127799,3348,132014,132629,Sternberg Task,18,13556,18,yes,1024
100,100,746.9473684,746.9473684,black,experiment,legacy,legacy,legacy,0,uniform,1,undefined,1,right,18,0,18,18,18,0,0,18,0,18,0,18,0,18,18,10/16/19 12:55,The main experiment item,yes,SternbergTask.osexp,C:/Users/Carolyn/Desktop,no,mono,no,18,no,white,no,yes,768,legacy,6,11,C:/Users/Carolyn/Desktop/cp_subject-2.csv,legacy,7 1 8 4 9 3,Kafkaesque Koffka,3.2.8,0,n,0,right,right,right,NA,right,636,15452,2482,NA,636,2,legacy,6,1024,2,48000,-16,experiment,2,even,6,132668,96437,133846,136053,NA,3353,93954,134849,18806,138056,NA,133842,3348,138056,138693,Sternberg Task,19,14192,19,yes,1024
100,100,750.45,750.45,black,experiment,legacy,legacy,legacy,0,uniform,1,undefined,1,right,19,0,19,19,19,0,0,19,0,19,0,19,0,19,19,10/16/19 12:55,The main experiment item,yes,SternbergTask.osexp,C:/Users/Carolyn/Desktop,no,mono,no,18,no,white,no,yes,768,legacy,7,11,C:/Users/Carolyn/Desktop/cp_subject-2.csv,legacy,2 8 6 3 1,Kafkaesque Koffka,3.2.8,0,n,0,right,right,right,NA,right,817,15452,2482,NA,817,2,legacy,5,1024,2,48000,-16,experiment,2,even,7,138735,96437,139912,142120,NA,3353,93954,140915,18806,144123,NA,139908,3348,144123,144941,Sternberg Task,20,15009,20,yes,1024
100,100,753.8095238,753.8095238,black,experiment,legacy,legacy,legacy,0,uniform,1,undefined,1,left,20,0,20,20,20,0,0,20,0,20,0,20,0,20,20,10/16/19 12:55,The main experiment item,yes,SternbergTask.osexp,C:/Users/Carolyn/Desktop,no,mono,no,18,no,white,no,yes,768,legacy,8,11,C:/Users/Carolyn/Desktop/cp_subject-2.csv,legacy,6 5,Kafkaesque Koffka,3.2.8,2,y,0,left,right,right,NA,left,821,15452,2482,NA,821,2,legacy,2,1024,2,48000,-16,experiment,2,even,5,145234,96437,146410,148619,NA,3353,93954,147414,18806,150622,NA,146406,3348,150623,151445,Sternberg Task,21,15830,21,yes,1024
100,100,747.3636364,747.3636364,black,experiment,legacy,legacy,legacy,0,uniform,1,undefined,1,left,21,0,21,21,21,0,0,21,0,21,0,21,0,21,21,10/16/19 12:55,The main experiment item,yes,SternbergTask.osexp,C:/Users/Carolyn/Desktop,no,mono,no,18,no,white,no,yes,768,legacy,9,11,C:/Users/Carolyn/Desktop/cp_subject-2.csv,legacy,2 4 8 5 1 3,Kafkaesque Koffka,3.2.8,1,y,0,left,right,right,NA,left,612,15452,2482,NA,612,2,legacy,6,1024,2,48000,-16,experiment,2,even,2,151484,96437,152661,154868,NA,3353,93954,153664,18806,156871,NA,152657,3348,156872,157485,Sternberg Task,22,16442,22,yes,1024
100,100,743.2173913,743.2173913,black,experiment,legacy,legacy,legacy,0,uniform,1,undefined,1,left,22,0,22,22,22,0,0,22,0,22,0,22,0,22,22,10/16/19 12:55,The main experiment item,yes,SternbergTask.osexp,C:/Users/Carolyn/Desktop,no,mono,no,18,no,white,no,yes,768,legacy,10,11,C:/Users/Carolyn/Desktop/cp_subject-2.csv,legacy,3 5 9 6 2 4,Kafkaesque Koffka,3.2.8,1,y,0,left,right,right,NA,left,652,15452,2482,NA,652,2,legacy,6,1024,2,48000,-16,experiment,2,even,3,157526,96437,158703,160909,NA,3353,93954,159706,18806,162912,NA,158699,3348,162912,163565,Sternberg Task,23,17094,23,yes,1024
100,100,732.3333333,732.3333333,black,experiment,legacy,legacy,legacy,0,uniform,1,undefined,1,left,23,0,23,23,23,0,0,23,0,23,0,23,0,23,23,10/16/19 12:55,The main experiment item,yes,SternbergTask.osexp,C:/Users/Carolyn/Desktop,no,mono,no,18,no,white,no,yes,768,legacy,11,11,C:/Users/Carolyn/Desktop/cp_subject-2.csv,legacy,3 4,Kafkaesque Koffka,3.2.8,1,y,0,left,right,right,NA,left,482,15452,2482,NA,482,2,legacy,2,1024,2,48000,-16,experiment,2,even,3,163610,96437,164784,166991,NA,3353,93954,165787,18806,168994,NA,164780,3348,168994,169477,Sternberg Task,24,17576,24,yes,1024
100,100,731.28,731.28,black,experiment,legacy,legacy,legacy,0,uniform,1,undefined,1,right,24,0,24,24,24,0,0,24,0,24,0,24,0,24,24,10/16/19 12:55,The main experiment item,yes,SternbergTask.osexp,C:/Users/Carolyn/Desktop,no,mono,no,18,no,white,no,yes,768,legacy,12,11,C:/Users/Carolyn/Desktop/cp_subject-2.csv,legacy,2 6 4 3 9,Kafkaesque Koffka,3.2.8,0,n,0,right,right,right,NA,right,706,15452,2482,NA,706,2,legacy,5,1024,2,48000,-16,experiment,2,even,1,169518,96437,170694,172902,NA,3353,93954,171697,18806,174905,NA,170690,3348,174906,175613,Sternberg Task,25,18282,25,yes,1024
100,100,730.4230769,730.4230769,black,experiment,legacy,legacy,legacy,0,uniform,1,undefined,1,left,25,0,25,25,25,0,0,25,0,25,0,25,0,25,25,10/16/19 12:55,The main experiment item,yes,SternbergTask.osexp,C:/Users/Carolyn/Desktop,no,mono,no,18,no,white,no,yes,768,legacy,13,11,C:/Users/Carolyn/Desktop/cp_subject-2.csv,legacy,6 7 8 5,Kafkaesque Koffka,3.2.8,3,y,0,left,right,right,NA,left,709,15452,2482,NA,709,2,legacy,4,1024,2,48000,-16,experiment,2,even,8,175651,96437,176827,179035,NA,3353,93954,177830,18806,181038,NA,176823,3348,181039,181749,Sternberg Task,26,18991,26,yes,1024
100,100,743.0740741,743.0740741,black,experiment,legacy,legacy,legacy,0,uniform,1,undefined,1,left,26,0,26,26,26,0,0,26,0,26,0,26,0,26,26,10/16/19 12:55,The main experiment item,yes,SternbergTask.osexp,C:/Users/Carolyn/Desktop,no,mono,no,18,no,white,no,yes,768,legacy,14,11,C:/Users/Carolyn/Desktop/cp_subject-2.csv,legacy,4 7 6 8 2 3,Kafkaesque Koffka,3.2.8,6,y,0,left,right,right,NA,left,1072,15452,2482,NA,1072,2,legacy,6,1024,2,48000,-16,experiment,2,even,3,181792,96437,182969,185176,NA,3353,93954,183972,18806,187179,NA,182965,3348,187180,188253,Sternberg Task,27,20063,27,yes,1024
100,100,733.3214286,733.3214286,black,experiment,legacy,legacy,legacy,0,uniform,1,undefined,1,left,27,0,27,27,27,0,0,27,0,27,0,27,0,27,27,10/16/19 12:55,The main experiment item,yes,SternbergTask.osexp,C:/Users/Carolyn/Desktop,no,mono,no,18,no,white,no,yes,768,legacy,15,11,C:/Users/Carolyn/Desktop/cp_subject-2.csv,legacy,6 1 2,Kafkaesque Koffka,3.2.8,3,y,0,left,right,right,NA,left,470,15452,2482,NA,470,2,legacy,3,1024,2,48000,-16,experiment,2,even,2,188284,96437,189460,191666,NA,3353,93954,190463,18806,193669,NA,189456,3348,193670,194141,Sternberg Task,28,20533,28,yes,1024
100,100,738.4137931,738.4137931,black,experiment,legacy,legacy,legacy,0,uniform,1,undefined,1,left,28,0,28,28,28,0,0,28,0,28,0,28,0,28,28,10/16/19 12:55,The main experiment item,yes,SternbergTask.osexp,C:/Users/Carolyn/Desktop,no,mono,no,18,no,white,no,yes,768,legacy,16,11,C:/Users/Carolyn/Desktop/cp_subject-2.csv,legacy,7,Kafkaesque Koffka,3.2.8,1,y,0,left,right,right,NA,left,881,15452,2482,NA,881,2,legacy,1,1024,2,48000,-16,experiment,2,even,7,194184,96437,195360,197567,NA,3353,93954,196363,18806,199570,NA,195356,3348,199571,200453,Sternberg Task,29,21414,29,yes,1024
100,100,737.7,737.7,black,experiment,legacy,legacy,legacy,0,uniform,1,undefined,1,left,29,0,29,29,29,0,0,29,0,29,0,29,0,29,29,10/16/19 12:55,The main experiment item,yes,SternbergTask.osexp,C:/Users/Carolyn/Desktop,no,mono,no,18,no,white,no,yes,768,legacy,17,11,C:/Users/Carolyn/Desktop/cp_subject-2.csv,legacy,5 7 3 6 2,Kafkaesque Koffka,3.2.8,5,y,0,left,right,right,NA,left,717,15452,2482,NA,717,2,legacy,5,1024,2,48000,-16,experiment,2,even,2,200493,96437,201668,203875,NA,3353,93954,202671,18806,205878,NA,201664,3348,205879,206597,Sternberg Task,30,22131,30,yes,1024
100,100,743.0645161,743.0645161,black,experiment,legacy,legacy,legacy,0,uniform,1,undefined,1,right,30,0,30,30,30,0,0,30,0,30,0,30,0,30,30,10/16/19 12:55,The main experiment item,yes,SternbergTask.osexp,C:/Users/Carolyn/Desktop,no,mono,no,18,no,white,no,yes,768,legacy,18,11,C:/Users/Carolyn/Desktop/cp_subject-2.csv,legacy,7 3 2 8,Kafkaesque Koffka,3.2.8,0,n,0,right,right,right,NA,right,904,15452,2482,NA,904,2,legacy,4,1024,2,48000,-16,experiment,2,even,4,206643,96437,207818,210024,NA,3353,93954,208821,18806,212027,NA,207814,3348,212028,212933,Sternberg Task,31,23035,31,yes,1024
100,100,750.65625,750.65625,black,experiment,legacy,legacy,legacy,0,uniform,1,undefined,1,right,31,0,31,31,31,0,0,31,0,31,0,31,0,31,31,10/16/19 12:55,The main experiment item,yes,SternbergTask.osexp,C:/Users/Carolyn/Desktop,no,mono,no,18,no,white,no,yes,768,legacy,19,11,C:/Users/Carolyn/Desktop/cp_subject-2.csv,legacy,5 9 2 3,Kafkaesque Koffka,3.2.8,0,n,0,right,right,right,NA,right,986,15452,2482,NA,986,2,legacy,4,1024,2,48000,-16,experiment,2,even,8,212967,96437,214144,216350,NA,3353,93954,215147,18806,218353,NA,214140,3348,218354,219341,Sternberg Task,32,24021,32,yes,1024
100,100,746.5757576,746.5757576,black,experiment,legacy,legacy,legacy,0,uniform,1,undefined,1,left,32,0,32,32,32,0,0,32,0,32,0,32,0,32,32,10/16/19 12:55,The main experiment item,yes,SternbergTask.osexp,C:/Users/Carolyn/Desktop,no,mono,no,18,no,white,no,yes,768,legacy,20,11,C:/Users/Carolyn/Desktop/cp_subject-2.csv,legacy,6 9 7 4 5 1,Kafkaesque Koffka,3.2.8,2,y,0,left,right,right,NA,left,616,15452,2482,NA,616,2,legacy,6,1024,2,48000,-16,experiment,2,even,9,219375,96437,220553,222760,NA,3353,93954,221556,18806,224763,NA,220549,3348,224764,225382,Sternberg Task,33,24637,33,yes,1024
100,100,747.9117647,747.9117647,black,experiment,legacy,legacy,legacy,0,uniform,1,undefined,1,right,33,0,33,33,33,0,0,33,0,33,0,33,0,33,33,10/16/19 12:55,The main experiment item,yes,SternbergTask.osexp,C:/Users/Carolyn/Desktop,no,mono,no,18,no,white,no,yes,768,legacy,21,11,C:/Users/Carolyn/Desktop/cp_subject-2.csv,legacy,1 6 4,Kafkaesque Koffka,3.2.8,0,n,0,right,right,right,NA,right,792,15452,2482,NA,792,2,legacy,3,1024,2,48000,-16,experiment,2,even,7,225417,96437,226593,228800,NA,3353,93954,227596,18806,230803,NA,226589,3348,230804,231597,Sternberg Task,34,25429,34,yes,1024
100,100,751.4571429,751.4571429,black,experiment,legacy,legacy,legacy,0,uniform,1,undefined,1,right,34,0,34,34,34,0,0,34,0,34,0,34,0,34,34,10/16/19 12:55,The main experiment item,yes,SternbergTask.osexp,C:/Users/Carolyn/Desktop,no,mono,no,18,no,white,no,yes,768,legacy,22,11,C:/Users/Carolyn/Desktop/cp_subject-2.csv,legacy,8 9,Kafkaesque Koffka,3.2.8,0,n,0,right,right,right,NA,right,872,15452,2482,NA,872,2,legacy,2,1024,2,48000,-16,experiment,2,even,5,231642,96437,232818,235024,NA,3353,93954,233821,18806,237027,NA,232814,3348,237028,237901,Sternberg Task,35,26301,35,yes,1024
100,100,764.9166667,764.9166667,black,experiment,legacy,legacy,legacy,0,uniform,1,undefined,1,right,35,0,35,35,35,0,0,35,0,35,0,35,0,35,35,10/16/19 12:55,The main experiment item,yes,SternbergTask.osexp,C:/Users/Carolyn/Desktop,no,mono,no,18,no,white,no,yes,768,legacy,23,11,C:/Users/Carolyn/Desktop/cp_subject-2.csv,legacy,3 9 8 1 6 4,Kafkaesque Koffka,3.2.8,0,n,0,right,right,right,NA,right,1236,15452,2482,NA,1236,2,legacy,6,1024,2,48000,-16,experiment,2,even,7,237934,96437,239110,241317,NA,3353,93954,240113,18806,243320,NA,239106,3348,243320,244557,Sternberg Task,36,27537,36,yes,1024
100,100,756.4054054,756.4054054,black,experiment,legacy,legacy,legacy,0,uniform,1,undefined,1,left,36,0,36,36,36,0,0,36,0,36,0,36,0,36,36,10/16/19 12:55,The main experiment item,yes,SternbergTask.osexp,C:/Users/Carolyn/Desktop,no,mono,no,18,no,white,no,yes,768,legacy,24,11,C:/Users/Carolyn/Desktop/cp_subject-2.csv,legacy,4,Kafkaesque Koffka,3.2.8,1,y,0,left,right,right,NA,left,450,15452,2482,NA,450,2,legacy,1,1024,2,48000,-16,experiment,2,even,4,244600,96437,245776,247982,NA,3353,93954,246779,18806,249985,NA,245772,3348,249986,250437,Sternberg Task,37,27987,37,yes,1024
100,100,762.9473684,762.9473684,black,experiment,legacy,legacy,legacy,0,uniform,1,undefined,1,right,37,0,37,37,37,0,0,37,0,37,0,37,0,37,37,10/16/19 12:55,The main experiment item,yes,SternbergTask.osexp,C:/Users/Carolyn/Desktop,no,mono,no,18,no,white,no,yes,768,legacy,25,11,C:/Users/Carolyn/Desktop/cp_subject-2.csv,legacy,6 3 1 7 9 8,Kafkaesque Koffka,3.2.8,0,n,0,right,right,right,NA,right,1005,15452,2482,NA,1005,2,legacy,6,1024,2,48000,-16,experiment,2,even,4,250475,96437,251652,253859,NA,3353,93954,252655,18806,255862,NA,251648,3348,255863,256869,Sternberg Task,38,28992,38,yes,1024
100,100,763.1794872,763.1794872,black,experiment,legacy,legacy,legacy,0,uniform,1,undefined,1,right,38,0,38,38,38,0,0,38,0,38,0,38,0,38,38,10/16/19 12:55,The main experiment item,yes,SternbergTask.osexp,C:/Users/Carolyn/Desktop,no,mono,no,18,no,white,no,yes,768,legacy,26,11,C:/Users/Carolyn/Desktop/cp_subject-2.csv,legacy,5 3 2 6 9 8,Kafkaesque Koffka,3.2.8,0,n,0,right,right,right,NA,right,772,15452,2482,NA,772,2,legacy,6,1024,2,48000,-16,experiment,2,even,4,256908,96437,258085,260293,NA,3353,93954,259088,18806,262296,NA,258081,3348,262296,263069,Sternberg Task,39,29764,39,yes,1024
100,100,765.875,765.875,black,experiment,legacy,legacy,legacy,0,uniform,1,undefined,1,right,39,0,39,39,39,0,0,39,0,39,0,39,0,39,39,10/16/19 12:55,The main experiment item,yes,SternbergTask.osexp,C:/Users/Carolyn/Desktop,no,mono,no,18,no,white,no,yes,768,legacy,27,11,C:/Users/Carolyn/Desktop/cp_subject-2.csv,legacy,6 9 4 5 3 2,Kafkaesque Koffka,3.2.8,0,n,0,right,right,right,NA,right,871,15452,2482,NA,871,2,legacy,6,1024,2,48000,-16,experiment,2,even,8,263109,96437,264284,266490,NA,3353,93954,265287,18806,268493,NA,264280,3348,268493,269365,Sternberg Task,40,30635,40,yes,1024
100,100,771.8292683,771.8292683,black,experiment,legacy,legacy,legacy,0,uniform,1,undefined,1,left,40,0,40,40,40,0,0,40,0,40,0,40,0,40,40,10/16/19 12:55,The main experiment item,yes,SternbergTask.osexp,C:/Users/Carolyn/Desktop,no,mono,no,18,no,white,no,yes,768,legacy,28,11,C:/Users/Carolyn/Desktop/cp_subject-2.csv,legacy,8 9 5 6 7,Kafkaesque Koffka,3.2.8,1,y,0,left,right,right,NA,left,1010,15452,2482,NA,1010,2,legacy,5,1024,2,48000,-16,experiment,2,even,8,269400,96437,270576,272783,NA,3353,93954,271579,18806,274786,NA,270572,3348,274786,275798,Sternberg Task,41,31645,41,yes,1024
100,100,770.2857143,770.2857143,black,experiment,legacy,legacy,legacy,0,uniform,1,undefined,1,left,41,0,41,41,41,0,0,41,0,41,0,41,0,41,41,10/16/19 12:55,The main experiment item,yes,SternbergTask.osexp,C:/Users/Carolyn/Desktop,no,mono,no,18,no,white,no,yes,768,legacy,29,11,C:/Users/Carolyn/Desktop/cp_subject-2.csv,legacy,9 1 7 2,Kafkaesque Koffka,3.2.8,2,y,0,left,right,right,NA,left,707,15452,2482,NA,707,2,legacy,4,1024,2,48000,-16,experiment,2,even,1,275878,96437,277053,279261,NA,3353,93954,278057,18806,281264,NA,277050,3348,281265,281974,Sternberg Task,42,32352,42,yes,1024
100,100,771.9069767,771.9069767,black,experiment,legacy,legacy,legacy,0,uniform,1,undefined,1,right,42,0,42,42,42,0,0,42,0,42,0,42,0,42,42,10/16/19 12:55,The main experiment item,yes,SternbergTask.osexp,C:/Users/Carolyn/Desktop,no,mono,no,18,no,white,no,yes,768,legacy,30,11,C:/Users/Carolyn/Desktop/cp_subject-2.csv,legacy,6 7 5 9,Kafkaesque Koffka,3.2.8,0,n,0,right,right,right,NA,right,840,15452,2482,NA,840,2,legacy,4,1024,2,48000,-16,experiment,2,even,2,282017,96437,283193,285399,NA,3353,93954,284196,18806,287403,NA,283189,3348,287404,288246,Sternberg Task,43,33192,43,yes,1024
100,100,784.0681818,784.0681818,black,experiment,legacy,legacy,legacy,0,uniform,1,undefined,1,right,43,0,43,43,43,0,0,43,0,43,0,43,0,43,43,10/16/19 12:55,The main experiment item,yes,SternbergTask.osexp,C:/Users/Carolyn/Desktop,no,mono,no,18,no,white,no,yes,768,legacy,31,11,C:/Users/Carolyn/Desktop/cp_subject-2.csv,legacy,1 7 8 3 9,Kafkaesque Koffka,3.2.8,0,n,0,right,right,right,NA,right,1307,15452,2482,NA,1307,2,legacy,5,1024,2,48000,-16,experiment,2,even,2,288291,96437,289469,291677,NA,3353,93954,290472,18806,293680,NA,289465,3348,293681,294990,Sternberg Task,44,34499,44,yes,1024
100,100,780.1777778,780.1777778,black,experiment,legacy,legacy,legacy,0,uniform,1,undefined,1,left,44,0,44,44,44,0,0,44,0,44,0,44,0,44,44,10/16/19 12:55,The main experiment item,yes,SternbergTask.osexp,C:/Users/Carolyn/Desktop,no,mono,no,18,no,white,no,yes,768,legacy,32,11,C:/Users/Carolyn/Desktop/cp_subject-2.csv,legacy,9 3 1 2 5,Kafkaesque Koffka,3.2.8,4,y,0,left,right,right,NA,left,609,15452,2482,NA,609,2,legacy,5,1024,2,48000,-16,experiment,2,even,2,295033,96437,296209,298415,NA,3353,93954,297212,18806,300418,NA,296205,3348,300419,301030,Sternberg Task,45,35108,45,yes,1024
100,100,774.0869565,774.0869565,black,experiment,legacy,legacy,legacy,0,uniform,1,undefined,1,left,45,0,45,45,45,0,0,45,0,45,0,45,0,45,45,10/16/19 12:55,The main experiment item,yes,SternbergTask.osexp,C:/Users/Carolyn/Desktop,no,mono,no,18,no,white,no,yes,768,legacy,33,11,C:/Users/Carolyn/Desktop/cp_subject-2.csv,legacy,2 3,Kafkaesque Koffka,3.2.8,1,y,0,left,right,right,NA,left,500,15452,2482,NA,500,2,legacy,2,1024,2,48000,-16,experiment,2,even,2,301066,96437,302244,304452,NA,3353,93954,303248,18806,306455,NA,302241,3348,306456,306958,Sternberg Task,46,35608,46,yes,1024
100,100,769.4893617,769.4893617,black,experiment,legacy,legacy,legacy,0,uniform,1,undefined,1,left,46,0,46,46,46,0,0,46,0,46,0,46,0,46,46,10/16/19 12:55,The main experiment item,yes,SternbergTask.osexp,C:/Users/Carolyn/Desktop,no,mono,no,18,no,white,no,yes,768,legacy,34,11,C:/Users/Carolyn/Desktop/cp_subject-2.csv,legacy,3 5 4 7,Kafkaesque Koffka,3.2.8,1,y,0,left,right,right,NA,left,558,15452,2482,NA,558,2,legacy,4,1024,2,48000,-16,experiment,2,even,3,307000,96437,308179,310387,NA,3353,93954,309182,18806,312390,NA,308175,3348,312390,312950,Sternberg Task,47,36166,47,yes,1024
100,100,766.125,766.125,black,experiment,legacy,legacy,legacy,0,uniform,1,undefined,1,left,47,0,47,47,47,0,0,47,0,47,0,47,0,47,47,10/16/19 12:55,The main experiment item,yes,SternbergTask.osexp,C:/Users/Carolyn/Desktop,no,mono,no,18,no,white,no,yes,768,legacy,35,11,C:/Users/Carolyn/Desktop/cp_subject-2.csv,legacy,8 9 6 1,Kafkaesque Koffka,3.2.8,2,y,0,left,right,right,NA,left,608,15452,2482,NA,608,2,legacy,4,1024,2,48000,-16,experiment,2,even,9,312992,96437,314169,316376,NA,3353,93954,315172,18806,318379,NA,314165,3348,318380,318990,Sternberg Task,48,36774,48,yes,1024
100,100,761.8979592,761.8979592,black,experiment,legacy,legacy,legacy,0,uniform,1,undefined,1,left,48,0,48,48,48,0,0,48,0,48,0,48,0,48,48,10/16/19 12:55,The main experiment item,yes,SternbergTask.osexp,C:/Users/Carolyn/Desktop,no,mono,no,18,no,white,no,yes,768,legacy,36,11,C:/Users/Carolyn/Desktop/cp_subject-2.csv,legacy,4 1 5,Kafkaesque Koffka,3.2.8,2,y,0,left,right,right,NA,left,559,15452,2482,NA,559,2,legacy,3,1024,2,48000,-16,experiment,2,even,1,319034,96437,320211,322417,NA,3353,93954,321214,18806,324420,NA,320207,3348,324421,324982,Sternberg Task,49,37333,49,yes,1024
100,100,760.9,760.9,black,experiment,legacy,legacy,legacy,0,uniform,1,undefined,1,left,49,0,49,49,49,0,0,49,0,49,0,49,0,49,49,10/16/19 12:55,The main experiment item,yes,SternbergTask.osexp,C:/Users/Carolyn/Desktop,no,mono,no,18,no,white,no,yes,768,legacy,37,11,C:/Users/Carolyn/Desktop/cp_subject-2.csv,legacy,8 1 6,Kafkaesque Koffka,3.2.8,3,y,0,left,right,right,NA,left,712,15452,2482,NA,712,2,legacy,3,1024,2,48000,-16,experiment,2,even,6,325024,96437,326201,328408,NA,3353,93954,327204,18806,330411,NA,326197,3348,330412,331126,Sternberg Task,50,38045,50,yes,1024
100,100,758.1372549,758.1372549,black,experiment,legacy,legacy,legacy,0,uniform,1,undefined,1,left,50,0,50,50,50,0,0,50,0,50,0,50,0,50,50,10/16/19 12:55,The main experiment item,yes,SternbergTask.osexp,C:/Users/Carolyn/Desktop,no,mono,no,18,no,white,no,yes,768,legacy,38,11,C:/Users/Carolyn/Desktop/cp_subject-2.csv,legacy,8 3,Kafkaesque Koffka,3.2.8,2,y,0,left,right,right,NA,left,620,15452,2482,NA,620,2,legacy,2,1024,2,48000,-16,experiment,2,even,3,331166,96437,332342,334548,NA,3353,93954,333345,18806,336551,NA,332338,3348,336552,337174,Sternberg Task,51,38665,51,yes,1024
100,100,760.9807692,760.9807692,black,experiment,legacy,legacy,legacy,0,uniform,1,undefined,1,left,51,0,51,51,51,0,0,51,0,51,0,51,0,51,51,10/16/19 12:55,The main experiment item,yes,SternbergTask.osexp,C:/Users/Carolyn/Desktop,no,mono,no,18,no,white,no,yes,768,legacy,39,11,C:/Users/Carolyn/Desktop/cp_subject-2.csv,legacy,4 3 2 5 8,Kafkaesque Koffka,3.2.8,2,y,0,left,right,right,NA,left,906,15452,2482,NA,906,2,legacy,5,1024,2,48000,-16,experiment,2,even,3,337208,96437,338383,340590,NA,3353,93954,339386,18806,342593,NA,338379,3348,342594,343502,Sternberg Task,52,39571,52,yes,1024
100,100,771.3396226,771.3396226,black,experiment,legacy,legacy,legacy,0,uniform,1,undefined,1,right,52,0,52,52,52,0,0,52,0,52,0,52,0,52,52,10/16/19 12:55,The main experiment item,yes,SternbergTask.osexp,C:/Users/Carolyn/Desktop,no,mono,no,18,no,white,no,yes,768,legacy,40,11,C:/Users/Carolyn/Desktop/cp_subject-2.csv,legacy,8 2 1 4 5 9,Kafkaesque Koffka,3.2.8,0,n,0,right,right,right,NA,right,1310,15452,2482,NA,1310,2,legacy,6,1024,2,48000,-16,experiment,2,even,7,343541,96437,344716,346923,NA,3353,93954,345719,18806,348926,NA,344712,3348,348926,350238,Sternberg Task,53,40881,53,yes,1024
100,100,771.5185185,771.5185185,black,experiment,legacy,legacy,legacy,0,uniform,1,undefined,1,left,53,0,53,53,53,0,0,53,0,53,0,53,0,53,53,10/16/19 12:55,The main experiment item,yes,SternbergTask.osexp,C:/Users/Carolyn/Desktop,no,mono,no,18,no,white,no,yes,768,legacy,41,11,C:/Users/Carolyn/Desktop/cp_subject-2.csv,legacy,8 5 1 3 9,Kafkaesque Koffka,3.2.8,4,y,0,left,right,right,NA,left,781,15452,2482,NA,781,2,legacy,5,1024,2,48000,-16,experiment,2,even,3,350283,96437,351459,353667,NA,3353,93954,352462,18806,355670,NA,351455,3348,355671,356454,Sternberg Task,54,41662,54,yes,1024
100,100,769.8181818,769.8181818,black,experiment,legacy,legacy,legacy,0,uniform,1,undefined,1,left,54,0,54,54,54,0,0,54,0,54,0,54,0,54,54,10/16/19 12:55,The main experiment item,yes,SternbergTask.osexp,C:/Users/Carolyn/Desktop,no,mono,no,18,no,white,no,yes,768,legacy,42,11,C:/Users/Carolyn/Desktop/cp_subject-2.csv,legacy,4 6 5 8,Kafkaesque Koffka,3.2.8,1,y,0,left,right,right,NA,left,678,15452,2482,NA,678,2,legacy,4,1024,2,48000,-16,experiment,2,even,4,356499,96437,357676,359882,NA,3353,93954,358679,18806,361885,NA,357672,3348,361886,362566,Sternberg Task,55,42340,55,yes,1024
100,100,770.2321429,770.2321429,black,experiment,legacy,legacy,legacy,0,uniform,1,undefined,1,right,55,0,55,55,55,0,0,55,0,55,0,55,0,55,55,10/16/19 12:55,The main experiment item,yes,SternbergTask.osexp,C:/Users/Carolyn/Desktop,no,mono,no,18,no,white,no,yes,768,legacy,43,11,C:/Users/Carolyn/Desktop/cp_subject-2.csv,legacy,8 4 3 9,Kafkaesque Koffka,3.2.8,0,n,0,right,right,right,NA,right,793,15452,2482,NA,793,2,legacy,4,1024,2,48000,-16,experiment,2,even,5,362607,96437,363783,365991,NA,3353,93954,364786,18806,367994,NA,363779,3348,367995,368790,Sternberg Task,56,43133,56,yes,1024
100,100,768.4035088,768.4035088,black,experiment,legacy,legacy,legacy,0,uniform,1,undefined,1,right,56,0,56,56,56,0,0,56,0,56,0,56,0,56,56,10/16/19 12:55,The main experiment item,yes,SternbergTask.osexp,C:/Users/Carolyn/Desktop,no,mono,no,18,no,white,no,yes,768,legacy,44,11,C:/Users/Carolyn/Desktop/cp_subject-2.csv,legacy,7 4 2 8 1 9,Kafkaesque Koffka,3.2.8,0,n,0,right,right,right,NA,right,666,15452,2482,NA,666,2,legacy,6,1024,2,48000,-16,experiment,2,even,5,368825,96437,370001,372207,NA,3353,93954,371004,18806,374210,NA,369997,3348,374210,374878,Sternberg Task,57,43799,57,yes,1024
100,100,773,773,black,experiment,legacy,legacy,legacy,0,uniform,1,undefined,1,right,57,0,57,57,57,0,0,57,0,57,0,57,0,57,57,10/16/19 12:55,The main experiment item,yes,SternbergTask.osexp,C:/Users/Carolyn/Desktop,no,mono,no,18,no,white,no,yes,768,legacy,45,11,C:/Users/Carolyn/Desktop/cp_subject-2.csv,legacy,1 7 5 2 9,Kafkaesque Koffka,3.2.8,0,n,0,right,right,right,NA,right,1035,15452,2482,NA,1035,2,legacy,5,1024,2,48000,-16,experiment,2,even,3,374916,96437,376094,378301,NA,3353,93954,377097,18806,380304,NA,376090,3348,380305,381342,Sternberg Task,58,44834,58,yes,1024
100,100,770.779661,770.779661,black,experiment,legacy,legacy,legacy,0,uniform,1,undefined,1,right,58,0,58,58,58,0,0,58,0,58,0,58,0,58,58,10/16/19 12:55,The main experiment item,yes,SternbergTask.osexp,C:/Users/Carolyn/Desktop,no,mono,no,18,no,white,no,yes,768,legacy,46,11,C:/Users/Carolyn/Desktop/cp_subject-2.csv,legacy,3 4 2,Kafkaesque Koffka,3.2.8,0,n,0,right,right,right,NA,right,642,15452,2482,NA,642,2,legacy,3,1024,2,48000,-16,experiment,2,even,5,381374,96437,382552,384758,NA,3353,93954,383555,18806,386761,NA,382548,3348,386762,387406,Sternberg Task,59,45476,59,yes,1024
100,100,771.8,771.8,black,experiment,legacy,legacy,legacy,0,uniform,1,undefined,1,right,59,0,59,59,59,0,0,59,0,59,0,59,0,59,59,10/16/19 12:55,The main experiment item,yes,SternbergTask.osexp,C:/Users/Carolyn/Desktop,no,mono,no,18,no,white,no,yes,768,legacy,47,11,C:/Users/Carolyn/Desktop/cp_subject-2.csv,legacy,8 4 3 5,Kafkaesque Koffka,3.2.8,0,n,0,right,right,right,NA,right,832,15452,2482,NA,832,2,legacy,4,1024,2,48000,-16,experiment,2,even,6,387449,96437,388626,390832,NA,3353,93954,389629,18806,392836,NA,388622,3348,392836,393670,Sternberg Task,60,46308,60,yes,1024
100,100,772.2295082,772.2295082,black,experiment,legacy,legacy,legacy,0,uniform,1,undefined,1,left,60,0,60,60,60,0,0,60,0,60,0,60,0,60,60,10/16/19 12:55,The main experiment item,yes,SternbergTask.osexp,C:/Users/Carolyn/Desktop,no,mono,no,18,no,white,no,yes,768,legacy,48,11,C:/Users/Carolyn/Desktop/cp_subject-2.csv,legacy,5 2 9 6 1 7,Kafkaesque Koffka,3.2.8,3,y,0,left,right,right,NA,left,798,15452,2482,NA,798,2,legacy,6,1024,2,48000,-16,experiment,2,even,9,393707,96437,394882,397090,NA,3353,93954,395886,18806,399093,NA,394879,3348,399094,399894,Sternberg Task,61,47106,61,yes,1024
100,100,770.0322581,770.0322581,black,experiment,legacy,legacy,legacy,0,uniform,1,undefined,1,right,61,0,61,61,61,0,0,61,0,61,0,61,0,61,61,10/16/19 12:55,The main experiment item,yes,SternbergTask.osexp,C:/Users/Carolyn/Desktop,no,mono,no,18,no,white,no,yes,768,legacy,49,11,C:/Users/Carolyn/Desktop/cp_subject-2.csv,legacy,7 1,Kafkaesque Koffka,3.2.8,0,n,0,right,right,right,NA,right,636,15452,2482,NA,636,2,legacy,2,1024,2,48000,-16,experiment,2,even,8,399924,96437,401102,403309,NA,3353,93954,402105,18806,405312,NA,401098,3348,405312,405950,Sternberg Task,62,47742,62,yes,1024
100,100,772.6190476,772.6190476,black,experiment,legacy,legacy,legacy,0,uniform,1,undefined,1,right,62,0,62,62,62,0,0,62,0,62,0,62,0,62,62,10/16/19 12:55,The main experiment item,yes,SternbergTask.osexp,C:/Users/Carolyn/Desktop,no,mono,no,18,no,white,no,yes,768,legacy,50,11,C:/Users/Carolyn/Desktop/cp_subject-2.csv,legacy,1 3 2 6 9,Kafkaesque Koffka,3.2.8,0,n,0,right,right,right,NA,right,933,15452,2482,NA,933,2,legacy,5,1024,2,48000,-16,experiment,2,even,5,406129,96437,407308,409515,NA,3353,93954,408311,18806,411518,NA,407304,3348,411519,412454,Sternberg Task,63,48675,63,yes,1024
100,100,769.375,769.375,black,experiment,legacy,legacy,legacy,0,uniform,1,undefined,1,left,63,0,63,63,63,0,0,63,0,63,0,63,0,63,63,10/16/19 12:55,The main experiment item,yes,SternbergTask.osexp,C:/Users/Carolyn/Desktop,no,mono,no,18,no,white,no,yes,768,legacy,51,11,C:/Users/Carolyn/Desktop/cp_subject-2.csv,legacy,9 4 2,Kafkaesque Koffka,3.2.8,1,y,0,left,right,right,NA,left,565,15452,2482,NA,565,2,legacy,3,1024,2,48000,-16,experiment,2,even,9,412490,96437,413668,415875,NA,3353,93954,414671,18806,417878,NA,413664,3348,417879,418446,Sternberg Task,64,49240,64,yes,1024
100,100,770.8923077,770.8923077,black,experiment,legacy,legacy,legacy,0,uniform,1,undefined,1,right,64,0,64,64,64,0,0,64,0,64,0,64,0,64,64,10/16/19 12:55,The main experiment item,yes,SternbergTask.osexp,C:/Users/Carolyn/Desktop,no,mono,no,18,no,white,no,yes,768,legacy,52,11,C:/Users/Carolyn/Desktop/cp_subject-2.csv,legacy,8 6 3 4 7,Kafkaesque Koffka,3.2.8,0,n,0,right,right,right,NA,right,868,15452,2482,NA,868,2,legacy,5,1024,2,48000,-16,experiment,2,even,1,418490,96437,419669,421876,NA,3353,93954,420672,18806,423879,NA,419665,3348,423880,424750,Sternberg Task,65,50108,65,yes,1024
98.48484848,98.48484848,778.969697,778.969697,black,experiment,legacy,legacy,legacy,0,uniform,0,undefined,0,left,65,0,65,65,65,0,0,65,0,65,0,65,0,65,65,10/16/19 12:55,The main experiment item,yes,SternbergTask.osexp,C:/Users/Carolyn/Desktop,no,mono,no,18,no,white,no,yes,768,legacy,53,11,C:/Users/Carolyn/Desktop/cp_subject-2.csv,legacy,2 3 7 4,Kafkaesque Koffka,3.2.8,1,y,0,right,right,right,NA,right,1304,15452,2482,NA,1304,2,legacy,4,1024,2,48000,-16,experiment,2,even,2,424799,96437,425978,428185,NA,3353,93954,426981,18806,430188,NA,425974,3348,430188,431494,Sternberg Task,65,51412,66,yes,1024
98.50746269,98.50746269,777.5074627,777.5074627,black,experiment,legacy,legacy,legacy,0,uniform,1,undefined,1,left,66,0,66,66,66,0,0,66,0,66,0,66,0,66,66,10/16/19 12:55,The main experiment item,yes,SternbergTask.osexp,C:/Users/Carolyn/Desktop,no,mono,no,18,no,white,no,yes,768,legacy,54,11,C:/Users/Carolyn/Desktop/cp_subject-2.csv,legacy,7 8 6 3 1,Kafkaesque Koffka,3.2.8,5,y,0,left,right,right,NA,left,681,15452,2482,NA,681,2,legacy,5,1024,2,48000,-16,experiment,2,even,1,424799,96437,432704,434911,431524,3353,93954,433707,18806,436914,NA,432700,3348,436915,437598,Sternberg Task,66,52093,67,yes,1024
98.52941176,98.52941176,782.7794118,782.7794118,black,experiment,legacy,legacy,legacy,0,uniform,1,undefined,1,left,67,0,67,67,67,0,0,67,0,67,0,67,0,67,67,10/16/19 12:55,The main experiment item,yes,SternbergTask.osexp,C:/Users/Carolyn/Desktop,no,mono,no,18,no,white,no,yes,768,legacy,55,11,C:/Users/Carolyn/Desktop/cp_subject-2.csv,legacy,2 4 6 9,Kafkaesque Koffka,3.2.8,3,y,0,left,right,right,NA,left,1136,15452,2482,NA,1136,2,legacy,4,1024,2,48000,-16,experiment,2,even,6,437640,96437,438818,441024,431524,3353,93954,439821,18806,443027,NA,438814,3348,443028,444166,Sternberg Task,67,53229,68,yes,1024
98.55072464,98.55072464,784.7536232,784.7536232,black,experiment,legacy,legacy,legacy,0,uniform,1,undefined,1,left,68,0,68,68,68,0,0,68,0,68,0,68,0,68,68,10/16/19 12:55,The main experiment item,yes,SternbergTask.osexp,C:/Users/Carolyn/Desktop,no,mono,no,18,no,white,no,yes,768,legacy,56,11,C:/Users/Carolyn/Desktop/cp_subject-2.csv,legacy,3 9 6 2,Kafkaesque Koffka,3.2.8,4,y,0,left,right,right,NA,left,919,15452,2482,NA,919,2,legacy,4,1024,2,48000,-16,experiment,2,even,2,444232,96437,445410,447617,431524,3353,93954,446413,18806,449620,NA,445406,3348,449621,450542,Sternberg Task,68,54148,69,yes,1024
98.57142857,98.57142857,782.3428571,782.3428571,black,experiment,legacy,legacy,legacy,0,uniform,1,undefined,1,left,69,0,69,69,69,0,0,69,0,69,0,69,0,69,69,10/16/19 12:55,The main experiment item,yes,SternbergTask.osexp,C:/Users/Carolyn/Desktop,no,mono,no,18,no,white,no,yes,768,legacy,57,11,C:/Users/Carolyn/Desktop/cp_subject-2.csv,legacy,9 3 8 2 1 4,Kafkaesque Koffka,3.2.8,3,y,0,left,right,right,NA,left,616,15452,2482,NA,616,2,legacy,6,1024,2,48000,-16,experiment,2,even,8,450582,96437,451761,453968,431524,3353,93954,452764,18806,455971,NA,451757,3348,455972,456590,Sternberg Task,69,54764,70,yes,1024
98.5915493,98.5915493,777.8732394,777.8732394,black,experiment,legacy,legacy,legacy,0,uniform,1,undefined,1,left,70,0,70,70,70,0,0,70,0,70,0,70,0,70,70,10/16/19 12:55,The main experiment item,yes,SternbergTask.osexp,C:/Users/Carolyn/Desktop,no,mono,no,18,no,white,no,yes,768,legacy,58,11,C:/Users/Carolyn/Desktop/cp_subject-2.csv,legacy,3 4 9 6 2 9,Kafkaesque Koffka,3.2.8,5,y,0,left,right,right,NA,left,465,15452,2482,NA,465,2,legacy,6,1024,2,48000,-16,experiment,2,even,2,456631,96437,457809,460015,431524,3353,93954,458812,18806,462018,NA,457805,3348,462019,462486,Sternberg Task,70,55229,71,yes,1024
98.61111111,98.61111111,773.7222222,773.7222222,black,experiment,legacy,legacy,legacy,0,uniform,1,undefined,1,left,71,0,71,71,71,0,0,71,0,71,0,71,0,71,71,10/16/19 12:55,The main experiment item,yes,SternbergTask.osexp,C:/Users/Carolyn/Desktop,no,mono,no,18,no,white,no,yes,768,legacy,59,11,C:/Users/Carolyn/Desktop/cp_subject-2.csv,legacy,9 8 4,Kafkaesque Koffka,3.2.8,1,y,0,left,right,right,NA,left,479,15452,2482,NA,479,2,legacy,3,1024,2,48000,-16,experiment,2,even,9,462523,96437,463699,465905,431524,3353,93954,464702,18806,467908,NA,463695,3348,467909,468390,Sternberg Task,71,55708,72,yes,1024
98.63013699,98.63013699,782.6712329,782.6712329,black,experiment,legacy,legacy,legacy,0,uniform,1,undefined,1,left,72,0,72,72,72,0,0,72,0,72,0,72,0,72,72,10/16/19 12:55,The main experiment item,yes,SternbergTask.osexp,C:/Users/Carolyn/Desktop,no,mono,no,18,no,white,no,yes,768,legacy,60,11,C:/Users/Carolyn/Desktop/cp_subject-2.csv,legacy,8 9 5 7 1 6,Kafkaesque Koffka,3.2.8,4,y,0,left,right,right,NA,left,1427,15452,2482,NA,1427,2,legacy,6,1024,2,48000,-16,experiment,2,even,7,468432,96437,469607,471814,431524,3353,93954,470610,18806,473817,NA,469603,3348,473817,475246,Sternberg Task,72,57135,73,yes,1024
98.64864865,98.64864865,782.8513514,782.8513514,black,experiment,legacy,legacy,legacy,0,uniform,1,undefined,1,right,73,0,73,73,73,0,0,73,0,73,0,73,0,73,73,10/16/19 12:55,The main experiment item,yes,SternbergTask.osexp,C:/Users/Carolyn/Desktop,no,mono,no,18,no,white,no,yes,768,legacy,61,11,C:/Users/Carolyn/Desktop/cp_subject-2.csv,legacy,1 6 4 3 9 7,Kafkaesque Koffka,3.2.8,0,n,0,right,right,right,NA,right,796,15452,2482,NA,796,2,legacy,6,1024,2,48000,-16,experiment,2,even,8,475290,96437,476468,478676,431524,3353,93954,477471,18806,480679,NA,476464,3348,480680,481478,Sternberg Task,73,57931,74,yes,1024
98.66666667,98.66666667,781.9866667,781.9866667,black,experiment,legacy,legacy,legacy,0,uniform,1,undefined,1,left,74,0,74,74,74,0,0,74,0,74,0,74,0,74,74,10/16/19 12:55,The main experiment item,yes,SternbergTask.osexp,C:/Users/Carolyn/Desktop,no,mono,no,18,no,white,no,yes,768,legacy,62,11,C:/Users/Carolyn/Desktop/cp_subject-2.csv,legacy,3 2 1 4 7,Kafkaesque Koffka,3.2.8,2,y,0,left,right,right,NA,left,718,15452,2482,NA,718,2,legacy,5,1024,2,48000,-16,experiment,2,even,2,481523,96437,482700,484906,431524,3353,93954,483703,18806,486909,NA,482696,3348,486910,487630,Sternberg Task,74,58649,75,yes,1024
98.68421053,98.68421053,785.1578947,785.1578947,black,experiment,legacy,legacy,legacy,0,uniform,1,undefined,1,right,75,0,75,75,75,0,0,75,0,75,0,75,0,75,75,10/16/19 12:55,The main experiment item,yes,SternbergTask.osexp,C:/Users/Carolyn/Desktop,no,mono,no,18,no,white,no,yes,768,legacy,63,11,C:/Users/Carolyn/Desktop/cp_subject-2.csv,legacy,7 6 4 8 1 2,Kafkaesque Koffka,3.2.8,0,n,0,right,right,right,NA,right,1023,15452,2482,NA,1023,2,legacy,6,1024,2,48000,-16,experiment,2,even,9,487665,96437,488842,491049,431524,3353,93954,489845,18806,493052,NA,488838,3348,493053,494078,Sternberg Task,75,59672,76,yes,1024
98.7012987,98.7012987,785.2337662,785.2337662,black,experiment,legacy,legacy,legacy,0,uniform,1,undefined,1,right,76,0,76,76,76,0,0,76,0,76,0,76,0,76,76,10/16/19 12:55,The main experiment item,yes,SternbergTask.osexp,C:/Users/Carolyn/Desktop,no,mono,no,18,no,white,no,yes,768,legacy,64,11,C:/Users/Carolyn/Desktop/cp_subject-2.csv,legacy,1 8 7,Kafkaesque Koffka,3.2.8,0,n,0,right,right,right,NA,right,791,15452,2482,NA,791,2,legacy,3,1024,2,48000,-16,experiment,2,even,4,494115,96437,495290,497497,431524,3353,93954,496293,18806,499500,NA,495286,3348,499501,500294,Sternberg Task,76,60463,77,yes,1024
97.43589744,97.43589744,782.7435897,782.7435897,black,experiment,legacy,legacy,legacy,0,uniform,0,undefined,0,left,77,0,77,77,77,0,0,77,0,77,0,77,0,77,77,10/16/19 12:55,The main experiment item,yes,SternbergTask.osexp,C:/Users/Carolyn/Desktop,no,mono,no,18,no,white,no,yes,768,legacy,65,11,C:/Users/Carolyn/Desktop/cp_subject-2.csv,legacy,7 6,Kafkaesque Koffka,3.2.8,2,y,0,right,right,right,NA,right,591,15452,2482,NA,591,2,legacy,2,1024,2,48000,-16,experiment,2,even,6,500340,96437,501516,503722,431524,3353,93954,502519,18806,505725,NA,501512,3348,505725,506318,Sternberg Task,76,61054,78,yes,1024
97.46835443,97.46835443,785.0506329,785.0506329,black,experiment,legacy,legacy,legacy,0,uniform,1,undefined,1,left,78,0,78,78,78,0,0,78,0,78,0,78,0,78,78,10/16/19 12:55,The main experiment item,yes,SternbergTask.osexp,C:/Users/Carolyn/Desktop,no,mono,no,18,no,white,no,yes,768,legacy,66,11,C:/Users/Carolyn/Desktop/cp_subject-2.csv,legacy,7 8 4 6 9 5,Kafkaesque Koffka,3.2.8,4,y,0,left,right,right,NA,left,965,15452,2482,NA,965,2,legacy,6,1024,2,48000,-16,experiment,2,even,6,500340,96437,507542,509748,506365,3353,93954,508545,18806,511751,NA,507538,3348,511752,512719,Sternberg Task,77,62019,79,yes,1024
96.25,96.25,781.3875,781.3875,black,experiment,legacy,legacy,legacy,0,uniform,0,undefined,0,right,79,0,79,79,79,0,0,79,0,79,0,79,0,79,79,10/16/19 12:55,The main experiment item,yes,SternbergTask.osexp,C:/Users/Carolyn/Desktop,no,mono,no,18,no,white,no,yes,768,legacy,67,11,C:/Users/Carolyn/Desktop/cp_subject-2.csv,legacy,5 3 8 7 2 4,Kafkaesque Koffka,3.2.8,0,n,0,left,right,right,NA,left,492,15452,2482,NA,492,2,legacy,6,1024,2,48000,-16,experiment,2,even,9,512757,96437,513935,516142,506365,3353,93954,514938,18806,518145,NA,513930,3348,518145,518639,Sternberg Task,77,62511,80,yes,1024
96.2962963,96.2962963,780.8888889,780.8888889,black,experiment,legacy,legacy,legacy,0,uniform,1,undefined,1,left,80,0,80,80,80,0,0,80,0,80,0,80,0,80,80,10/16/19 12:55,The main experiment item,yes,SternbergTask.osexp,C:/Users/Carolyn/Desktop,no,mono,no,18,no,white,no,yes,768,legacy,68,11,C:/Users/Carolyn/Desktop/cp_subject-2.csv,legacy,4 1 8 7 5,Kafkaesque Koffka,3.2.8,3,y,0,left,right,right,NA,left,741,15452,2482,NA,741,2,legacy,5,1024,2,48000,-16,experiment,2,even,8,512757,96437,519848,522053,518673,3353,93954,520851,18806,524056,NA,519843,3348,524056,524798,Sternberg Task,78,63252,81,yes,1024
96.34146341,96.34146341,783.3414634,783.3414634,black,experiment,legacy,legacy,legacy,0,uniform,1,undefined,1,right,81,0,81,81,81,0,0,81,0,81,0,81,0,81,81,10/16/19 12:55,The main experiment item,yes,SternbergTask.osexp,C:/Users/Carolyn/Desktop,no,mono,no,18,no,white,no,yes,768,legacy,69,11,C:/Users/Carolyn/Desktop/cp_subject-2.csv,legacy,8 5 7 3 6,Kafkaesque Koffka,3.2.8,0,n,0,right,right,right,NA,right,982,15452,2482,NA,982,2,legacy,5,1024,2,48000,-16,experiment,2,even,9,524871,96437,526046,528252,518673,3353,93954,527049,18806,530255,NA,526041,3348,530255,531239,Sternberg Task,79,64234,82,yes,1024
96.38554217,96.38554217,782.0963855,782.0963855,black,experiment,legacy,legacy,legacy,0,uniform,1,undefined,1,right,82,0,82,82,82,0,0,82,0,82,0,82,0,82,82,10/16/19 12:55,The main experiment item,yes,SternbergTask.osexp,C:/Users/Carolyn/Desktop,no,mono,no,18,no,white,no,yes,768,legacy,70,11,C:/Users/Carolyn/Desktop/cp_subject-2.csv,legacy,7 1 5 6 3,Kafkaesque Koffka,3.2.8,0,n,0,right,right,right,NA,right,680,15452,2482,NA,680,2,legacy,5,1024,2,48000,-16,experiment,2,even,8,531273,96437,532452,534658,518673,3353,93954,533455,18806,536661,NA,532448,3348,536661,537342,Sternberg Task,80,64914,83,yes,1024
96.42857143,96.42857143,783.2738095,783.2738095,black,experiment,legacy,legacy,legacy,0,uniform,1,undefined,1,right,83,0,83,83,83,0,0,83,0,83,0,83,0,83,83,10/16/19 12:55,The main experiment item,yes,SternbergTask.osexp,C:/Users/Carolyn/Desktop,no,mono,no,18,no,white,no,yes,768,legacy,71,11,C:/Users/Carolyn/Desktop/cp_subject-2.csv,legacy,7 9 1 6,Kafkaesque Koffka,3.2.8,0,n,0,right,right,right,NA,right,881,15452,2482,NA,881,2,legacy,4,1024,2,48000,-16,experiment,2,even,4,537381,96437,538562,540769,518673,3353,93954,539565,18806,542772,NA,538557,3348,542772,543655,Sternberg Task,81,65795,84,yes,1024
96.47058824,96.47058824,784.8705882,784.8705882,black,experiment,legacy,legacy,legacy,0,uniform,1,undefined,1,right,84,0,84,84,84,0,0,84,0,84,0,84,0,84,84,10/16/19 12:55,The main experiment item,yes,SternbergTask.osexp,C:/Users/Carolyn/Desktop,no,mono,no,18,no,white,no,yes,768,legacy,72,11,C:/Users/Carolyn/Desktop/cp_subject-2.csv,legacy,1 4 3 6 5,Kafkaesque Koffka,3.2.8,0,n,0,right,right,right,NA,right,919,15452,2482,NA,919,2,legacy,5,1024,2,48000,-16,experiment,2,even,8,543698,96437,544876,547083,518673,3353,93954,545879,18806,549086,NA,544871,3348,549086,550007,Sternberg Task,82,66714,85,yes,1024
95.34883721,95.34883721,786.1627907,786.1627907,black,experiment,legacy,legacy,legacy,0,uniform,0,undefined,0,left,85,0,85,85,85,0,0,85,0,85,0,85,0,85,85,10/16/19 12:55,The main experiment item,yes,SternbergTask.osexp,C:/Users/Carolyn/Desktop,no,mono,no,18,no,white,no,yes,768,legacy,73,11,C:/Users/Carolyn/Desktop/cp_subject-2.csv,legacy,9 1 6 7 8,Kafkaesque Koffka,3.2.8,1,y,0,right,right,right,NA,right,896,15452,2482,NA,896,2,legacy,5,1024,2,48000,-16,experiment,2,even,9,550040,96437,551218,553426,518673,3353,93954,552222,18806,555429,NA,551214,3348,555429,556327,Sternberg Task,82,67610,86,yes,1024
95.40229885,95.40229885,789.3218391,789.3218391,black,experiment,legacy,legacy,legacy,0,uniform,1,undefined,1,left,86,0,86,86,86,0,0,86,0,86,0,86,0,86,86,10/16/19 12:55,The main experiment item,yes,SternbergTask.osexp,C:/Users/Carolyn/Desktop,no,mono,no,18,no,white,no,yes,768,legacy,74,11,C:/Users/Carolyn/Desktop/cp_subject-2.csv,legacy,3 5 7 1,Kafkaesque Koffka,3.2.8,3,y,0,left,right,right,NA,left,1061,15452,2482,NA,1061,2,legacy,4,1024,2,48000,-16,experiment,2,even,7,550040,96437,557543,559750,556365,3353,93954,558546,18806,561752,NA,557539,3348,561752,562815,Sternberg Task,83,68671,87,yes,1024
95.45454545,95.45454545,788.5681818,788.5681818,black,experiment,legacy,legacy,legacy,0,uniform,1,undefined,1,left,87,0,87,87,87,0,0,87,0,87,0,87,0,87,87,10/16/19 12:55,The main experiment item,yes,SternbergTask.osexp,C:/Users/Carolyn/Desktop,no,mono,no,18,no,white,no,yes,768,legacy,75,11,C:/Users/Carolyn/Desktop/cp_subject-2.csv,legacy,2 5 4 8 7,Kafkaesque Koffka,3.2.8,3,y,0,left,right,right,NA,left,723,15452,2482,NA,723,2,legacy,5,1024,2,48000,-16,experiment,2,even,4,562856,96437,564032,566238,556365,3353,93954,565035,18806,568241,NA,564028,3348,568242,568967,Sternberg Task,84,69394,88,yes,1024
95.50561798,95.50561798,787.5955056,787.5955056,black,experiment,legacy,legacy,legacy,0,uniform,1,undefined,1,right,88,0,88,88,88,0,0,88,0,88,0,88,0,88,88,10/16/19 12:55,The main experiment item,yes,SternbergTask.osexp,C:/Users/Carolyn/Desktop,no,mono,no,18,no,white,no,yes,768,legacy,76,11,C:/Users/Carolyn/Desktop/cp_subject-2.csv,legacy,1,Kafkaesque Koffka,3.2.8,0,n,0,right,right,right,NA,right,702,15452,2482,NA,702,2,legacy,1,1024,2,48000,-16,experiment,2,even,7,568998,96437,570173,572380,556365,3353,93954,571176,18806,574383,NA,570168,3348,574383,575086,Sternberg Task,85,70096,89,yes,1024
95.55555556,95.55555556,787.4777778,787.4777778,black,experiment,legacy,legacy,legacy,0,uniform,1,undefined,1,right,89,0,89,89,89,0,0,89,0,89,0,89,0,89,89,10/16/19 12:55,The main experiment item,yes,SternbergTask.osexp,C:/Users/Carolyn/Desktop,no,mono,no,18,no,white,no,yes,768,legacy,77,11,C:/Users/Carolyn/Desktop/cp_subject-2.csv,legacy,3 9 1,Kafkaesque Koffka,3.2.8,0,n,0,right,right,right,NA,right,777,15452,2482,NA,777,2,legacy,3,1024,2,48000,-16,experiment,2,even,7,575131,96437,576305,578512,556365,3353,93954,577308,18806,580515,NA,576301,3348,580516,581295,Sternberg Task,86,70873,90,yes,1024
95.6043956,95.6043956,796.3736264,796.3736264,black,experiment,legacy,legacy,legacy,0,uniform,1,undefined,1,left,90,0,90,90,90,0,0,90,0,90,0,90,0,90,90,10/16/19 12:55,The main experiment item,yes,SternbergTask.osexp,C:/Users/Carolyn/Desktop,no,mono,no,18,no,white,no,yes,768,legacy,78,11,C:/Users/Carolyn/Desktop/cp_subject-2.csv,legacy,8 5 4 7 3 1,Kafkaesque Koffka,3.2.8,2,y,0,left,right,right,NA,left,1597,15452,2482,NA,1597,2,legacy,6,1024,2,48000,-16,experiment,2,even,5,581331,96437,582509,584716,556365,3353,93954,583512,18806,586719,NA,582505,3348,586720,588319,Sternberg Task,87,72470,91,yes,1024
95.65217391,95.65217391,796.4347826,796.4347826,black,experiment,legacy,legacy,legacy,0,uniform,1,undefined,1,right,91,0,91,91,91,0,0,91,0,91,0,91,0,91,91,10/16/19 12:55,The main experiment item,yes,SternbergTask.osexp,C:/Users/Carolyn/Desktop,no,mono,no,18,no,white,no,yes,768,legacy,79,11,C:/Users/Carolyn/Desktop/cp_subject-2.csv,legacy,4 8 1 2,Kafkaesque Koffka,3.2.8,0,n,0,right,right,right,NA,right,802,15452,2482,NA,802,2,legacy,4,1024,2,48000,-16,experiment,2,even,7,588365,96437,589544,591751,556365,3353,93954,590547,18806,593754,NA,589540,3348,593755,594559,Sternberg Task,88,73272,92,yes,1024
95.69892473,95.69892473,795.1182796,795.1182796,black,experiment,legacy,legacy,legacy,0,uniform,1,undefined,1,left,92,0,92,92,92,0,0,92,0,92,0,92,0,92,92,10/16/19 12:55,The main experiment item,yes,SternbergTask.osexp,C:/Users/Carolyn/Desktop,no,mono,no,18,no,white,no,yes,768,legacy,80,11,C:/Users/Carolyn/Desktop/cp_subject-2.csv,legacy,4 9 7 8 5 3,Kafkaesque Koffka,3.2.8,4,y,0,left,right,right,NA,left,674,15452,2482,NA,674,2,legacy,6,1024,2,48000,-16,experiment,2,even,8,594590,96437,595768,597975,556365,3353,93954,596771,18806,599978,NA,595764,3348,599979,600655,Sternberg Task,89,73946,93,yes,1024
95.74468085,95.74468085,794.1489362,794.1489362,black,experiment,legacy,legacy,legacy,0,uniform,1,undefined,1,left,93,0,93,93,93,0,0,93,0,93,0,93,0,93,93,10/16/19 12:55,The main experiment item,yes,SternbergTask.osexp,C:/Users/Carolyn/Desktop,no,mono,no,18,no,white,no,yes,768,legacy,81,11,C:/Users/Carolyn/Desktop/cp_subject-2.csv,legacy,9 6 2 4 1,Kafkaesque Koffka,3.2.8,4,y,0,left,right,right,NA,left,704,15452,2482,NA,704,2,legacy,5,1024,2,48000,-16,experiment,2,even,4,600698,96437,601876,604082,556365,3353,93954,602879,18806,606085,NA,601872,3348,606085,606791,Sternberg Task,90,74650,94,yes,1024
95.78947368,95.78947368,796.4947368,796.4947368,black,experiment,legacy,legacy,legacy,0,uniform,1,undefined,1,left,94,0,94,94,94,0,0,94,0,94,0,94,0,94,94,10/16/19 12:55,The main experiment item,yes,SternbergTask.osexp,C:/Users/Carolyn/Desktop,no,mono,no,18,no,white,no,yes,768,legacy,82,11,C:/Users/Carolyn/Desktop/cp_subject-2.csv,legacy,2 8 5 1,Kafkaesque Koffka,3.2.8,4,y,0,left,right,right,NA,left,1017,15452,2482,NA,1017,2,legacy,4,1024,2,48000,-16,experiment,2,even,1,606831,96437,608009,610216,556365,3353,93954,609012,18806,612219,NA,608005,3348,612220,613239,Sternberg Task,91,75667,95,yes,1024
95.83333333,95.83333333,799.9270833,799.9270833,black,experiment,legacy,legacy,legacy,0,uniform,1,undefined,1,right,95,0,95,95,95,0,0,95,0,95,0,95,0,95,95,10/16/19 12:55,The main experiment item,yes,SternbergTask.osexp,C:/Users/Carolyn/Desktop,no,mono,no,18,no,white,no,yes,768,legacy,83,11,C:/Users/Carolyn/Desktop/cp_subject-2.csv,legacy,8 5 4 2 9 6,Kafkaesque Koffka,3.2.8,0,n,0,right,right,right,NA,right,1126,15452,2482,NA,1126,2,legacy,6,1024,2,48000,-16,experiment,2,even,3,613281,96437,614460,616667,556365,3353,93954,615463,18806,618670,NA,614456,3348,618671,619799,Sternberg Task,92,76793,96,yes,1024
95.87628866,95.87628866,805.8969072,805.8969072,black,experiment,legacy,legacy,legacy,0,uniform,1,undefined,1,right,96,0,96,96,96,0,0,96,0,96,0,96,0,96,96,10/16/19 12:55,The main experiment item,yes,SternbergTask.osexp,C:/Users/Carolyn/Desktop,no,mono,no,18,no,white,no,yes,768,legacy,84,11,C:/Users/Carolyn/Desktop/cp_subject-2.csv,legacy,7 8 6 1,Kafkaesque Koffka,3.2.8,0,n,0,right,right,right,NA,right,1379,15452,2482,NA,1379,2,legacy,4,1024,2,48000,-16,experiment,2,even,3,619831,96437,621007,623214,556365,3353,93954,622010,18806,625217,NA,621003,3348,625218,626599,Sternberg Task,93,78172,97,yes,1024
95.91836735,95.91836735,806.6632653,806.6632653,black,experiment,legacy,legacy,legacy,0,uniform,1,undefined,1,right,97,0,97,97,97,0,0,97,0,97,0,97,0,97,97,10/16/19 12:55,The main experiment item,yes,SternbergTask.osexp,C:/Users/Carolyn/Desktop,no,mono,no,18,no,white,no,yes,768,legacy,85,11,C:/Users/Carolyn/Desktop/cp_subject-2.csv,legacy,2 8 9,Kafkaesque Koffka,3.2.8,0,n,0,right,right,right,NA,right,881,15452,2482,NA,881,2,legacy,3,1024,2,48000,-16,experiment,2,even,6,626639,96437,627817,630024,556365,3353,93954,628820,18806,632027,NA,627813,3348,632028,632911,Sternberg Task,94,79053,98,yes,1024
95.95959596,95.95959596,807.3737374,807.3737374,black,experiment,legacy,legacy,legacy,0,uniform,1,undefined,1,right,98,0,98,98,98,0,0,98,0,98,0,98,0,98,98,10/16/19 12:55,The main experiment item,yes,SternbergTask.osexp,C:/Users/Carolyn/Desktop,no,mono,no,18,no,white,no,yes,768,legacy,86,11,C:/Users/Carolyn/Desktop/cp_subject-2.csv,legacy,5,Kafkaesque Koffka,3.2.8,0,n,0,right,right,right,NA,right,877,15452,2482,NA,877,2,legacy,1,1024,2,48000,-16,experiment,2,even,8,632956,96437,634133,636340,556365,3353,93954,635136,18806,638343,NA,634129,3348,638344,639223,Sternberg Task,95,79930,99,yes,1024
96,96,806.36,806.36,black,experiment,legacy,legacy,legacy,0,uniform,1,undefined,1,left,99,0,99,99,99,0,0,99,0,99,0,99,0,99,99,10/16/19 12:55,The main experiment item,yes,SternbergTask.osexp,C:/Users/Carolyn/Desktop,no,mono,no,18,no,white,no,yes,768,legacy,87,11,C:/Users/Carolyn/Desktop/cp_subject-2.csv,legacy,6 7 9 3 1 2,Kafkaesque Koffka,3.2.8,1,y,0,left,right,right,NA,left,706,15452,2482,NA,706,2,legacy,6,1024,2,48000,-16,experiment,2,even,6,639264,96437,640441,642648,556365,3353,93954,641444,18806,644651,NA,640437,3348,644651,645359,Sternberg Task,96,80636,100,yes,1024
95.04950495,95.04950495,818.1782178,818.1782178,black,experiment,legacy,legacy,legacy,0,uniform,0,undefined,0,right,100,0,100,100,100,0,0,100,0,100,0,100,0,100,100,10/16/19 12:55,The main experiment item,yes,SternbergTask.osexp,C:/Users/Carolyn/Desktop,no,mono,no,18,no,white,no,yes,768,legacy,88,11,C:/Users/Carolyn/Desktop/cp_subject-2.csv,legacy,1 4 9 3,Kafkaesque Koffka,3.2.8,0,n,0,None,right,right,NA,None,2000,15452,2482,NA,2000,2,legacy,4,1024,2,48000,-16,experiment,2,even,5,645397,96437,646572,648780,556365,3353,93954,647575,18806,650783,NA,646568,3348,650784,652786,Sternberg Task,96,82636,101,yes,1024
95.09803922,95.09803922,816.4705882,816.4705882,black,experiment,legacy,legacy,legacy,0,uniform,1,undefined,1,left,101,0,101,101,101,0,0,101,0,101,0,101,0,101,101,10/16/19 12:55,The main experiment item,yes,SternbergTask.osexp,C:/Users/Carolyn/Desktop,no,mono,no,18,no,white,no,yes,768,legacy,89,11,C:/Users/Carolyn/Desktop/cp_subject-2.csv,legacy,9 5 8 1,Kafkaesque Koffka,3.2.8,2,y,0,left,right,right,NA,left,644,15452,2482,NA,644,2,legacy,4,1024,2,48000,-16,experiment,2,even,5,645397,96437,654007,656213,652830,3353,93954,655010,18806,658217,NA,654003,3348,658217,658863,Sternberg Task,97,83280,102,yes,1024
95.14563107,95.14563107,820.8446602,820.8446602,black,experiment,legacy,legacy,legacy,0,uniform,1,undefined,1,right,102,0,102,102,102,0,0,102,0,102,0,102,0,102,102,10/16/19 12:55,The main experiment item,yes,SternbergTask.osexp,C:/Users/Carolyn/Desktop,no,mono,no,18,no,white,no,yes,768,legacy,90,11,C:/Users/Carolyn/Desktop/cp_subject-2.csv,legacy,2 8 9 4 1,Kafkaesque Koffka,3.2.8,0,n,0,right,right,right,NA,right,1267,15452,2482,NA,1267,2,legacy,5,1024,2,48000,-16,experiment,2,even,5,658905,96437,660080,662287,652830,3353,93954,661083,18806,664290,NA,660076,3348,664290,665559,Sternberg Task,98,84547,103,yes,1024
95.19230769,95.19230769,819.4519231,819.4519231,black,experiment,legacy,legacy,legacy,0,uniform,1,undefined,1,right,103,0,103,103,103,0,0,103,0,103,0,103,0,103,103,10/16/19 12:55,The main experiment item,yes,SternbergTask.osexp,C:/Users/Carolyn/Desktop,no,mono,no,18,no,white,no,yes,768,legacy,91,11,C:/Users/Carolyn/Desktop/cp_subject-2.csv,legacy,4 1,Kafkaesque Koffka,3.2.8,0,n,0,right,right,right,NA,right,676,15452,2482,NA,676,2,legacy,2,1024,2,48000,-16,experiment,2,even,6,665647,96437,666823,669029,652830,3353,93954,667826,18806,671032,NA,666819,3348,671033,671711,Sternberg Task,99,85223,104,yes,1024
94.28571429,94.28571429,821.3238095,821.3238095,black,experiment,legacy,legacy,legacy,0,uniform,0,undefined,0,left,104,0,104,104,104,0,0,104,0,104,0,104,0,104,104,10/16/19 12:55,The main experiment item,yes,SternbergTask.osexp,C:/Users/Carolyn/Desktop,no,mono,no,18,no,white,no,yes,768,legacy,92,11,C:/Users/Carolyn/Desktop/cp_subject-2.csv,legacy,8,Kafkaesque Koffka,3.2.8,1,y,0,right,right,right,NA,right,1016,15452,2482,NA,1016,2,legacy,1,1024,2,48000,-16,experiment,2,even,8,671747,96437,672922,675129,652830,3353,93954,673925,18806,677132,NA,672918,3348,677133,678151,Sternberg Task,99,86239,105,yes,1024
94.33962264,94.33962264,822.0566038,822.0566038,black,experiment,legacy,legacy,legacy,0,uniform,1,undefined,1,left,105,0,105,105,105,0,0,105,0,105,0,105,0,105,105,10/16/19 12:55,The main experiment item,yes,SternbergTask.osexp,C:/Users/Carolyn/Desktop,no,mono,no,18,no,white,no,yes,768,legacy,93,11,C:/Users/Carolyn/Desktop/cp_subject-2.csv,legacy,7 1 3,Kafkaesque Koffka,3.2.8,2,y,0,left,right,right,NA,left,899,15452,2482,NA,899,2,legacy,3,1024,2,48000,-16,experiment,2,even,1,671747,96437,679375,681582,678197,3353,93954,680378,18806,683585,NA,679371,3348,683586,684487,Sternberg Task,100,87138,106,yes,1024
94.39252336,94.39252336,823.7196262,823.7196262,black,experiment,legacy,legacy,legacy,0,uniform,1,undefined,1,right,106,0,106,106,106,0,0,106,0,106,0,106,0,106,106,10/16/19 12:55,The main experiment item,yes,SternbergTask.osexp,C:/Users/Carolyn/Desktop,no,mono,no,18,no,white,no,yes,768,legacy,94,11,C:/Users/Carolyn/Desktop/cp_subject-2.csv,legacy,2 8 7 9 5 3,Kafkaesque Koffka,3.2.8,0,n,0,right,right,right,NA,right,1000,15452,2482,NA,1000,2,legacy,6,1024,2,48000,-16,experiment,2,even,6,684530,96437,685706,687912,678197,3353,93954,686709,18806,689916,NA,685701,3348,689917,690919,Sternberg Task,101,88138,107,yes,1024
94.44444444,94.44444444,825.2592593,825.2592593,black,experiment,legacy,legacy,legacy,0,uniform,1,undefined,1,right,107,0,107,107,107,0,0,107,0,107,0,107,0,107,107,10/16/19 12:55,The main experiment item,yes,SternbergTask.osexp,C:/Users/Carolyn/Desktop,no,mono,no,18,no,white,no,yes,768,legacy,95,11,C:/Users/Carolyn/Desktop/cp_subject-2.csv,legacy,1 5 3 2 8,Kafkaesque Koffka,3.2.8,0,n,0,right,right,right,NA,right,990,15452,2482,NA,990,2,legacy,5,1024,2,48000,-16,experiment,2,even,4,690963,96437,692140,694347,678197,3353,93954,693143,18806,696350,NA,692136,3348,696351,697343,Sternberg Task,102,89128,108,yes,1024
94.49541284,94.49541284,823.0642202,823.0642202,black,experiment,legacy,legacy,legacy,0,uniform,1,undefined,1,left,108,0,108,108,108,0,0,108,0,108,0,108,0,108,108,10/16/19 12:55,The main experiment item,yes,SternbergTask.osexp,C:/Users/Carolyn/Desktop,no,mono,no,18,no,white,no,yes,768,legacy,96,11,C:/Users/Carolyn/Desktop/cp_subject-2.csv,legacy,7 1 8 5 6 2,Kafkaesque Koffka,3.2.8,2,y,0,left,right,right,NA,left,586,15452,2482,NA,586,2,legacy,6,1024,2,48000,-16,experiment,2,even,1,697388,96437,698568,700776,678197,3353,93954,699571,18806,702779,NA,698564,3348,702779,703367,Sternberg Task,103,89714,109,yes,1024
94.54545455,94.54545455,826.1818182,826.1818182,black,experiment,legacy,legacy,legacy,0,uniform,1,undefined,1,right,109,0,109,109,109,0,0,109,0,109,0,109,0,109,109,10/16/19 12:55,The main experiment item,yes,SternbergTask.osexp,C:/Users/Carolyn/Desktop,no,mono,no,18,no,white,no,yes,768,legacy,97,11,C:/Users/Carolyn/Desktop/cp_subject-2.csv,legacy,6 8,Kafkaesque Koffka,3.2.8,0,n,0,right,right,right,NA,right,1166,15452,2482,NA,1166,2,legacy,2,1024,2,48000,-16,experiment,2,even,9,703413,96437,704589,706796,678197,3353,93954,705592,18806,708799,NA,704585,3348,708799,709967,Sternberg Task,104,90880,110,yes,1024
94.59459459,94.59459459,825.0810811,825.0810811,black,experiment,legacy,legacy,legacy,0,uniform,1,undefined,1,left,110,0,110,110,110,0,0,110,0,110,0,110,0,110,110,10/16/19 12:55,The main experiment item,yes,SternbergTask.osexp,C:/Users/Carolyn/Desktop,no,mono,no,18,no,white,no,yes,768,legacy,98,11,C:/Users/Carolyn/Desktop/cp_subject-2.csv,legacy,8 5 3 7 4 6,Kafkaesque Koffka,3.2.8,6,y,0,left,right,right,NA,left,704,15452,2482,NA,704,2,legacy,6,1024,2,48000,-16,experiment,2,even,6,710013,96437,711188,713394,678197,3353,93954,712191,18806,715397,NA,711184,3348,715397,716103,Sternberg Task,105,91584,111,yes,1024
94.64285714,94.64285714,824.9821429,824.9821429,black,experiment,legacy,legacy,legacy,0,uniform,1,undefined,1,right,111,0,111,111,111,0,0,111,0,111,0,111,0,111,111,10/16/19 12:55,The main experiment item,yes,SternbergTask.osexp,C:/Users/Carolyn/Desktop,no,mono,no,18,no,white,no,yes,768,legacy,99,11,C:/Users/Carolyn/Desktop/cp_subject-2.csv,legacy,1 7 5 2,Kafkaesque Koffka,3.2.8,0,n,0,right,right,right,NA,right,814,15452,2482,NA,814,2,legacy,4,1024,2,48000,-16,experiment,2,even,3,716147,96437,717323,719530,678197,3353,93954,718326,18806,721534,NA,717319,3348,721535,722351,Sternberg Task,106,92398,112,yes,1024
94.69026549,94.69026549,825.3628319,825.3628319,black,experiment,legacy,legacy,legacy,0,uniform,1,undefined,1,right,112,0,112,112,112,0,0,112,0,112,0,112,0,112,112,10/16/19 12:55,The main experiment item,yes,SternbergTask.osexp,C:/Users/Carolyn/Desktop,no,mono,no,18,no,white,no,yes,768,legacy,100,11,C:/Users/Carolyn/Desktop/cp_subject-2.csv,legacy,1 4 9 2 5,Kafkaesque Koffka,3.2.8,0,n,0,right,right,right,NA,right,868,15452,2482,NA,868,2,legacy,5,1024,2,48000,-16,experiment,2,even,7,722397,96437,723573,725780,678197,3353,93954,724577,18806,727783,NA,723569,3348,727784,728655,Sternberg Task,107,93266,113,yes,1024
93.85964912,93.85964912,825.3508772,825.3508772,black,experiment,legacy,legacy,legacy,0,uniform,0,undefined,0,right,113,0,113,113,113,0,0,113,0,113,0,113,0,113,113,10/16/19 12:55,The main experiment item,yes,SternbergTask.osexp,C:/Users/Carolyn/Desktop,no,mono,no,18,no,white,no,yes,768,legacy,101,11,C:/Users/Carolyn/Desktop/cp_subject-2.csv,legacy,3 4 9 6 7 8,Kafkaesque Koffka,3.2.8,0,n,0,left,right,right,NA,left,824,15452,2482,NA,824,2,legacy,6,1024,2,48000,-16,experiment,2,even,2,728696,96437,729873,732080,678197,3353,93954,730876,18806,734083,NA,729869,3348,734084,734911,Sternberg Task,107,94090,114,yes,1024
93.91304348,93.91304348,823.9304348,823.9304348,black,experiment,legacy,legacy,legacy,0,uniform,1,undefined,1,right,114,0,114,114,114,0,0,114,0,114,0,114,0,114,114,10/16/19 12:55,The main experiment item,yes,SternbergTask.osexp,C:/Users/Carolyn/Desktop,no,mono,no,18,no,white,no,yes,768,legacy,102,11,C:/Users/Carolyn/Desktop/cp_subject-2.csv,legacy,6 8 4,Kafkaesque Koffka,3.2.8,0,n,0,right,right,right,NA,right,662,15452,2482,NA,662,2,legacy,3,1024,2,48000,-16,experiment,2,even,1,728696,96437,736147,738354,734970,3353,93954,737150,18806,740357,NA,736143,3348,740358,741023,Sternberg Task,108,94752,115,yes,1024
93.96551724,93.96551724,823.6206897,823.6206897,black,experiment,legacy,legacy,legacy,0,uniform,1,undefined,1,right,115,0,115,115,115,0,0,115,0,115,0,115,0,115,115,10/16/19 12:55,The main experiment item,yes,SternbergTask.osexp,C:/Users/Carolyn/Desktop,no,mono,no,18,no,white,no,yes,768,legacy,103,11,C:/Users/Carolyn/Desktop/cp_subject-2.csv,legacy,6 9 5,Kafkaesque Koffka,3.2.8,0,n,0,right,right,right,NA,right,788,15452,2482,NA,788,2,legacy,3,1024,2,48000,-16,experiment,2,even,8,741071,96437,742245,744452,734970,3353,93954,743248,18806,746455,NA,742241,3348,746456,747247,Sternberg Task,109,95540,116,yes,1024
94.01709402,94.01709402,821.9059829,821.9059829,black,experiment,legacy,legacy,legacy,0,uniform,1,undefined,1,left,116,0,116,116,116,0,0,116,0,116,0,116,0,116,116,10/16/19 12:55,The main experiment item,yes,SternbergTask.osexp,C:/Users/Carolyn/Desktop,no,mono,no,18,no,white,no,yes,768,legacy,104,11,C:/Users/Carolyn/Desktop/cp_subject-2.csv,legacy,5 2 6,Kafkaesque Koffka,3.2.8,2,y,0,left,right,right,NA,left,623,15452,2482,NA,623,2,legacy,3,1024,2,48000,-16,experiment,2,even,2,747279,96437,748458,750665,734970,3353,93954,749461,18806,752668,NA,748454,3348,752669,753295,Sternberg Task,110,96163,117,yes,1024
94.06779661,94.06779661,826.0677966,826.0677966,black,experiment,legacy,legacy,legacy,0,uniform,1,undefined,1,right,117,0,117,117,117,0,0,117,0,117,0,117,0,117,117,10/16/19 12:55,The main experiment item,yes,SternbergTask.osexp,C:/Users/Carolyn/Desktop,no,mono,no,18,no,white,no,yes,768,legacy,105,11,C:/Users/Carolyn/Desktop/cp_subject-2.csv,legacy,5 7 3,Kafkaesque Koffka,3.2.8,0,n,0,right,right,right,NA,right,1313,15452,2482,NA,1313,2,legacy,3,1024,2,48000,-16,experiment,2,even,9,753338,96437,754514,756720,734970,3353,93954,755517,18806,758723,NA,754510,3348,758723,760039,Sternberg Task,111,97476,118,yes,1024
94.11764706,94.11764706,826.3529412,826.3529412,black,experiment,legacy,legacy,legacy,0,uniform,1,undefined,1,right,118,0,118,118,118,0,0,118,0,118,0,118,0,118,118,10/16/19 12:55,The main experiment item,yes,SternbergTask.osexp,C:/Users/Carolyn/Desktop,no,mono,no,18,no,white,no,yes,768,legacy,106,11,C:/Users/Carolyn/Desktop/cp_subject-2.csv,legacy,2 7 5,Kafkaesque Koffka,3.2.8,0,n,0,right,right,right,NA,right,860,15452,2482,NA,860,2,legacy,3,1024,2,48000,-16,experiment,2,even,8,760079,96437,761254,763461,734970,3353,93954,762257,18806,765464,NA,761250,3348,765464,766327,Sternberg Task,112,98336,119,yes,1024
94.16666667,94.16666667,824.6166667,824.6166667,black,experiment,legacy,legacy,legacy,0,uniform,1,undefined,1,right,119,0,119,119,119,0,0,119,0,119,0,119,0,119,119,10/16/19 12:55,The main experiment item,yes,SternbergTask.osexp,C:/Users/Carolyn/Desktop,no,mono,no,18,no,white,no,yes,768,legacy,107,11,C:/Users/Carolyn/Desktop/cp_subject-2.csv,legacy,5 2,Kafkaesque Koffka,3.2.8,0,n,0,right,right,right,NA,right,618,15452,2482,NA,618,2,legacy,2,1024,2,48000,-16,experiment,2,even,7,766368,96437,767543,769750,734970,3353,93954,768547,18806,771753,NA,767540,3348,771754,772375,Sternberg Task,113,98954,120,yes,1024
93.38842975,93.38842975,823.785124,823.785124,black,experiment,legacy,legacy,legacy,0,uniform,0,undefined,0,left,120,0,120,120,120,0,0,120,0,120,0,120,0,120,120,10/16/19 12:55,The main experiment item,yes,SternbergTask.osexp,C:/Users/Carolyn/Desktop,no,mono,no,18,no,white,no,yes,768,legacy,108,11,C:/Users/Carolyn/Desktop/cp_subject-2.csv,legacy,6 8 9 3 4 9,Kafkaesque Koffka,3.2.8,5,y,0,right,right,right,NA,right,724,15452,2482,NA,724,2,legacy,6,1024,2,48000,-16,experiment,2,even,4,772421,96437,773598,775804,734970,3353,93954,774601,18806,777807,NA,773594,3348,777808,778535,Sternberg Task,113,99678,121,yes,1024
93.44262295,93.44262295,822.5245902,822.5245902,black,experiment,legacy,legacy,legacy,0,uniform,1,undefined,1,right,121,0,121,121,121,0,0,121,0,121,0,121,0,121,121,10/16/19 12:55,The main experiment item,yes,SternbergTask.osexp,C:/Users/Carolyn/Desktop,no,mono,no,18,no,white,no,yes,768,legacy,109,11,C:/Users/Carolyn/Desktop/cp_subject-2.csv,legacy,9 8 2 7 4,Kafkaesque Koffka,3.2.8,0,n,0,right,right,right,NA,right,670,15452,2482,NA,670,2,legacy,5,1024,2,48000,-16,experiment,2,even,5,772421,96437,779747,781954,778571,3353,93954,780750,18806,783957,NA,779743,3348,783958,784631,Sternberg Task,114,100348,122,yes,1024
93.49593496,93.49593496,822.5691057,822.5691057,black,experiment,legacy,legacy,legacy,0,uniform,1,undefined,1,right,122,0,122,122,122,0,0,122,0,122,0,122,0,122,122,10/16/19 12:55,The main experiment item,yes,SternbergTask.osexp,C:/Users/Carolyn/Desktop,no,mono,no,18,no,white,no,yes,768,legacy,110,11,C:/Users/Carolyn/Desktop/cp_subject-2.csv,legacy,6 9 4 5 2,Kafkaesque Koffka,3.2.8,0,n,0,right,right,right,NA,right,828,15452,2482,NA,828,2,legacy,5,1024,2,48000,-16,experiment,2,even,1,784679,96437,785854,788060,778571,3353,93954,786857,18806,790063,NA,785850,3348,790064,790895,Sternberg Task,115,101176,123,yes,1024
93.5483871,93.5483871,821.0806452,821.0806452,black,experiment,legacy,legacy,legacy,0,uniform,1,undefined,1,left,123,0,123,123,123,0,0,123,0,123,0,123,0,123,123,10/16/19 12:55,The main experiment item,yes,SternbergTask.osexp,C:/Users/Carolyn/Desktop,no,mono,no,18,no,white,no,yes,768,legacy,111,11,C:/Users/Carolyn/Desktop/cp_subject-2.csv,legacy,2 6 1 7 4,Kafkaesque Koffka,3.2.8,2,y,0,left,right,right,NA,left,638,15452,2482,NA,638,2,legacy,5,1024,2,48000,-16,experiment,2,even,6,790938,96437,792114,794321,778571,3353,93954,793117,18806,796325,NA,792110,3348,796326,796967,Sternberg Task,116,101814,124,yes,1024
93.6,93.6,819.96,819.96,black,experiment,legacy,legacy,legacy,0,uniform,1,undefined,1,right,124,0,124,124,124,0,0,124,0,124,0,124,0,124,124,10/16/19 12:55,The main experiment item,yes,SternbergTask.osexp,C:/Users/Carolyn/Desktop,no,mono,no,18,no,white,no,yes,768,legacy,112,11,C:/Users/Carolyn/Desktop/cp_subject-2.csv,legacy,4 2 6 9,Kafkaesque Koffka,3.2.8,0,n,0,right,right,right,NA,right,681,15452,2482,NA,681,2,legacy,4,1024,2,48000,-16,experiment,2,even,7,797012,96437,798192,800399,778571,3353,93954,799195,18806,802402,NA,798188,3348,802403,803087,Sternberg Task,117,102495,125,yes,1024
93.65079365,93.65079365,821.6269841,821.6269841,black,experiment,legacy,legacy,legacy,0,uniform,1,undefined,1,right,125,0,125,125,125,0,0,125,0,125,0,125,0,125,125,10/16/19 12:55,The main experiment item,yes,SternbergTask.osexp,C:/Users/Carolyn/Desktop,no,mono,no,18,no,white,no,yes,768,legacy,113,11,C:/Users/Carolyn/Desktop/cp_subject-2.csv,legacy,7 9,Kafkaesque Koffka,3.2.8,0,n,0,right,right,right,NA,right,1030,15452,2482,NA,1030,2,legacy,2,1024,2,48000,-16,experiment,2,even,1,803120,96437,804299,806505,778571,3353,93954,805302,18806,808509,NA,804294,3348,808510,809543,Sternberg Task,118,103525,126,yes,1024
93.7007874,93.7007874,823.511811,823.511811,black,experiment,legacy,legacy,legacy,0,uniform,1,undefined,1,left,126,0,126,126,126,0,0,126,0,126,0,126,0,126,126,10/16/19 12:55,The main experiment item,yes,SternbergTask.osexp,C:/Users/Carolyn/Desktop,no,mono,no,18,no,white,no,yes,768,legacy,114,11,C:/Users/Carolyn/Desktop/cp_subject-2.csv,legacy,9 5 3 8 4,Kafkaesque Koffka,3.2.8,1,y,0,left,right,right,NA,left,1061,15452,2482,NA,1061,2,legacy,5,1024,2,48000,-16,experiment,2,even,9,809587,96437,810764,812971,778571,3353,93954,811767,18806,814974,NA,810760,3348,814975,816039,Sternberg Task,119,104586,127,yes,1024
93.75,93.75,824.265625,824.265625,black,experiment,legacy,legacy,legacy,0,uniform,1,undefined,1,right,127,0,127,127,127,0,0,127,0,127,0,127,0,127,127,10/16/19 12:55,The main experiment item,yes,SternbergTask.osexp,C:/Users/Carolyn/Desktop,no,mono,no,18,no,white,no,yes,768,legacy,115,11,C:/Users/Carolyn/Desktop/cp_subject-2.csv,legacy,6 2 9 3 8 4,Kafkaesque Koffka,3.2.8,0,n,0,right,right,right,NA,right,920,15452,2482,NA,920,2,legacy,6,1024,2,48000,-16,experiment,2,even,1,816087,96437,817265,819472,778571,3353,93954,818268,18806,821475,NA,817261,3348,821476,822399,Sternberg Task,120,105506,128,yes,1024
93.79844961,93.79844961,827.1705426,827.1705426,black,experiment,legacy,legacy,legacy,0,uniform,1,undefined,1,left,128,0,128,128,128,0,0,128,0,128,0,128,0,128,128,10/16/19 12:55,The main experiment item,yes,SternbergTask.osexp,C:/Users/Carolyn/Desktop,no,mono,no,18,no,white,no,yes,768,legacy,116,11,C:/Users/Carolyn/Desktop/cp_subject-2.csv,legacy,7 4 2 6 3 5,Kafkaesque Koffka,3.2.8,6,y,0,left,right,right,NA,left,1199,15452,2482,NA,1199,2,legacy,6,1024,2,48000,-16,experiment,2,even,5,822446,96437,823625,825832,778571,3353,93954,824628,18806,827836,NA,823621,3348,827837,829039,Sternberg Task,121,106705,129,yes,1024
93.84615385,93.84615385,824.9307692,824.9307692,black,experiment,legacy,legacy,legacy,0,uniform,1,undefined,1,left,129,0,129,129,129,0,0,129,0,129,0,129,0,129,129,10/16/19 12:55,The main experiment item,yes,SternbergTask.osexp,C:/Users/Carolyn/Desktop,no,mono,no,18,no,white,no,yes,768,legacy,117,11,C:/Users/Carolyn/Desktop/cp_subject-2.csv,legacy,6 2,Kafkaesque Koffka,3.2.8,1,y,0,left,right,right,NA,left,536,15452,2482,NA,536,2,legacy,2,1024,2,48000,-16,experiment,2,even,6,829087,96437,830266,832473,778571,3353,93954,831269,18806,834476,NA,830262,3348,834476,835016,Sternberg Task,122,107241,130,yes,1024
93.89312977,93.89312977,825.2900763,825.2900763,black,experiment,legacy,legacy,legacy,0,uniform,1,undefined,1,right,130,0,130,130,130,0,0,130,0,130,0,130,0,130,130,10/16/19 12:55,The main experiment item,yes,SternbergTask.osexp,C:/Users/Carolyn/Desktop,no,mono,no,18,no,white,no,yes,768,legacy,118,11,C:/Users/Carolyn/Desktop/cp_subject-2.csv,legacy,9 5 3 2 8 6,Kafkaesque Koffka,3.2.8,0,n,0,right,right,right,NA,right,872,15452,2482,NA,872,2,legacy,6,1024,2,48000,-16,experiment,2,even,7,835062,96437,836241,838448,778571,3353,93954,837244,18806,840451,NA,836237,3348,840452,841327,Sternberg Task,123,108113,131,yes,1024
93.93939394,93.93939394,824.0454545,824.0454545,black,experiment,legacy,legacy,legacy,0,uniform,1,undefined,1,left,131,0,131,131,131,0,0,131,0,131,0,131,0,131,131,10/16/19 12:55,The main experiment item,yes,SternbergTask.osexp,C:/Users/Carolyn/Desktop,no,mono,no,18,no,white,no,yes,768,legacy,119,11,C:/Users/Carolyn/Desktop/cp_subject-2.csv,legacy,6 9 3 1,Kafkaesque Koffka,3.2.8,4,y,0,left,right,right,NA,left,661,15452,2482,NA,661,2,legacy,4,1024,2,48000,-16,experiment,2,even,1,841362,96437,842541,844747,778571,3353,93954,843544,18806,846750,NA,842536,3348,846751,847415,Sternberg Task,124,108774,132,yes,1024
93.98496241,93.98496241,824.112782,824.112782,black,experiment,legacy,legacy,legacy,0,uniform,1,undefined,1,right,132,0,132,132,132,0,0,132,0,132,0,132,0,132,132,10/16/19 12:55,The main experiment item,yes,SternbergTask.osexp,C:/Users/Carolyn/Desktop,no,mono,no,18,no,white,no,yes,768,legacy,120,11,C:/Users/Carolyn/Desktop/cp_subject-2.csv,legacy,4 2 7 6 1 3,Kafkaesque Koffka,3.2.8,0,n,0,right,right,right,NA,right,833,15452,2482,NA,833,2,legacy,6,1024,2,48000,-16,experiment,2,even,8,847454,96437,848633,850840,778571,3353,93954,849636,18806,852843,NA,848629,3348,852843,853679,Sternberg Task,125,109607,133,yes,1024
94.02985075,94.02985075,822.8358209,822.8358209,black,experiment,legacy,legacy,legacy,0,uniform,1,undefined,1,left,133,0,133,133,133,0,0,133,0,133,0,133,0,133,133,10/16/19 12:55,The main experiment item,yes,SternbergTask.osexp,C:/Users/Carolyn/Desktop,no,mono,no,18,no,white,no,yes,768,legacy,121,11,C:/Users/Carolyn/Desktop/cp_subject-2.csv,legacy,4 6 2 5 1,Kafkaesque Koffka,3.2.8,5,y,0,left,right,right,NA,left,653,15452,2482,NA,653,2,legacy,5,1024,2,48000,-16,experiment,2,even,1,853720,96437,854900,857107,778571,3353,93954,855903,18806,859110,NA,854896,3348,859111,859767,Sternberg Task,126,110260,134,yes,1024
94.07407407,94.07407407,825.1333333,825.1333333,black,experiment,legacy,legacy,legacy,0,uniform,1,undefined,1,right,134,0,134,134,134,0,0,134,0,134,0,134,0,134,134,10/16/19 12:55,The main experiment item,yes,SternbergTask.osexp,C:/Users/Carolyn/Desktop,no,mono,no,18,no,white,no,yes,768,legacy,122,11,C:/Users/Carolyn/Desktop/cp_subject-2.csv,legacy,6 9 7 3 8 2,Kafkaesque Koffka,3.2.8,0,n,0,right,right,right,NA,right,1133,15452,2482,NA,1133,2,legacy,6,1024,2,48000,-16,experiment,2,even,5,859820,96437,860995,863203,778571,3353,93954,861999,18806,865207,NA,860991,3348,865207,866343,Sternberg Task,127,111393,135,yes,1024
94.11764706,94.11764706,824.3455882,824.3455882,black,experiment,legacy,legacy,legacy,0,uniform,1,undefined,1,left,135,0,135,135,135,0,0,135,0,135,0,135,0,135,135,10/16/19 12:55,The main experiment item,yes,SternbergTask.osexp,C:/Users/Carolyn/Desktop,no,mono,no,18,no,white,no,yes,768,legacy,123,11,C:/Users/Carolyn/Desktop/cp_subject-2.csv,legacy,7 2 3,Kafkaesque Koffka,3.2.8,3,y,0,left,right,right,NA,left,718,15452,2482,NA,718,2,legacy,3,1024,2,48000,-16,experiment,2,even,3,866378,96437,867555,869762,778571,3353,93954,868558,18806,871765,NA,867551,3348,871766,872487,Sternberg Task,128,112111,136,yes,1024
94.16058394,94.16058394,824.1459854,824.1459854,black,experiment,legacy,legacy,legacy,0,uniform,1,undefined,1,right,136,0,136,136,136,0,0,136,0,136,0,136,0,136,136,10/16/19 12:55,The main experiment item,yes,SternbergTask.osexp,C:/Users/Carolyn/Desktop,no,mono,no,18,no,white,no,yes,768,legacy,124,11,C:/Users/Carolyn/Desktop/cp_subject-2.csv,legacy,9 7 4 5 8,Kafkaesque Koffka,3.2.8,0,n,0,right,right,right,NA,right,797,15452,2482,NA,797,2,legacy,5,1024,2,48000,-16,experiment,2,even,6,872528,96437,873707,875914,778571,3353,93954,874711,18806,877918,NA,873703,3348,877919,878719,Sternberg Task,129,112908,137,yes,1024
94.20289855,94.20289855,824.7536232,824.7536232,black,experiment,legacy,legacy,legacy,0,uniform,1,undefined,1,right,137,0,137,137,137,0,0,137,0,137,0,137,0,137,137,10/16/19 12:55,The main experiment item,yes,SternbergTask.osexp,C:/Users/Carolyn/Desktop,no,mono,no,18,no,white,no,yes,768,legacy,125,11,C:/Users/Carolyn/Desktop/cp_subject-2.csv,legacy,9,Kafkaesque Koffka,3.2.8,0,n,0,right,right,right,NA,right,908,15452,2482,NA,908,2,legacy,1,1024,2,48000,-16,experiment,2,even,6,878762,96437,879940,882147,778571,3353,93954,880943,18806,884151,NA,879936,3348,884152,885063,Sternberg Task,130,113816,138,yes,1024