"acc","accuracy","average_response_time","avg_rt","background","block","canvas_backend","clock_backend","color_backend","compensation","coordinates","correct","correct_instruction1","correct_keyboard_response","correct_response","count_correctFeedback","count_expSequence","count_experiment","count_experimentLoop","count_fixation","count_iSi","count_incorrectFeedback","count_instruction1","count_instructions2","count_keyboard_response","count_logger","count_memorySet","count_practiceLoop","count_probe","count_thankYou","datetime","description","disable_garbage_collection","experiment_file","experiment_path","font_bold","font_family","font_italic","font_size","font_underline","foreground","form_clicks","fullscreen","height","keyboard_backend","live_row","live_row_practiceLoop","logfile","mouse_backend","numberSet","opensesame_codename","opensesame_version","posInSet","present","repeat_cycle","response","response_instruction1","response_instructions2","response_keyboard_response","response_thankYou","response_time","response_time_instruction1","response_time_instructions2","response_time_keyboard_response","response_time_thankYou","round_decimals","sampler_backend","setSize","sound_buf_size","sound_channels","sound_freq","sound_sample_size","start","subject_nr","subject_parity","target","time_correctFeedback","time_expSequence","time_experiment","time_experimentLoop","time_fixation","time_iSi","time_incorrectFeedback","time_instruction1","time_instructions2","time_keyboard_response","time_logger","time_memorySet","time_practiceLoop","time_probe","time_thankYou","title","total_correct","total_response_time","total_responses","uniform_coordinates","width"
"100","100","859","859","black","practice","legacy","legacy","legacy","0","uniform","1","undefined","1","left","0","0","0","0","0","0","0","0","0","0","0","0","0","0","0","Sun Oct 24 18:24:49 2021","The main experiment item","yes","Sternbergtask.osexp","C:/Users/rayra/Documents","no","mono","no","18","no","white","no","yes","768","legacy","0","0","C:/Users/rayra/Documents/subject-2.csv","legacy","1 5 2 9","Lentiform Loewenfeld","3.3.9","2","y","0","left","right","NA","left","NA","859","9239","NA","859","NA","2","legacy","4","1024","2","48000","-16","experiment","2","even","5","NA","13038","2895","NA","13042","15248","NA","2899","NA","17252","18112","14045","12139","17251","NA","Sternberg task","1","859","1","yes","1024"
"100","100","844","844","black","practice","legacy","legacy","legacy","0","uniform","1","undefined","1","right","1","1","0","0","1","1","1","0","0","1","1","1","0","1","0","Sun Oct 24 18:24:49 2021","The main experiment item","yes","Sternbergtask.osexp","C:/Users/rayra/Documents","no","mono","no","18","no","white","no","yes","768","legacy","1","1","C:/Users/rayra/Documents/subject-2.csv","legacy","5","Lentiform Loewenfeld","3.3.9","0","n","0","right","right","NA","right","NA","829","9239","NA","829","NA","2","legacy","1","1024","2","48000","-16","experiment","2","even","3","18164","19371","2895","NA","19373","21581","NA","2899","NA","23585","24414","20377","12139","23585","NA","Sternberg task","2","1688","2","yes","1024"
"100","100","890.3333333333334","890.3333333333334","black","practice","legacy","legacy","legacy","0","uniform","1","undefined","1","left","2","2","0","0","2","2","2","0","0","2","2","2","0","2","0","Sun Oct 24 18:24:49 2021","The main experiment item","yes","Sternbergtask.osexp","C:/Users/rayra/Documents","no","mono","no","18","no","white","no","yes","768","legacy","2","2","C:/Users/rayra/Documents/subject-2.csv","legacy","4 8","Lentiform Loewenfeld","3.3.9","1","y","0","left","right","NA","left","NA","983","9239","NA","983","NA","2","legacy","2","1024","2","48000","-16","experiment","2","even","4","24421","25629","2895","NA","25631","27839","NA","2899","NA","29842","30825","26635","12139","29842","NA","Sternberg task","3","2671","3","yes","1024"
"100","100","861.75","861.75","black","practice","legacy","legacy","legacy","0","uniform","1","undefined","1","right","3","3","0","0","3","3","3","0","0","3","3","3","0","3","0","Sun Oct 24 18:24:49 2021","The main experiment item","yes","Sternbergtask.osexp","C:/Users/rayra/Documents","no","mono","no","18","no","white","no","yes","768","legacy","3","3","C:/Users/rayra/Documents/subject-2.csv","legacy","9 6 7 4 5","Lentiform Loewenfeld","3.3.9","0","n","0","right","right","NA","right","NA","776","9239","NA","776","NA","2","legacy","5","1024","2","48000","-16","experiment","2","even","3","30831","32042","2895","NA","32044","34252","NA","2899","NA","36257","37034","33048","12139","36257","NA","Sternberg task","4","3447","4","yes","1024"
"100","100","904.6","904.6","black","practice","legacy","legacy","legacy","0","uniform","1","undefined","1","right","4","4","0","0","4","4","4","0","0","4","4","4","0","4","0","Sun Oct 24 18:24:49 2021","The main experiment item","yes","Sternbergtask.osexp","C:/Users/rayra/Documents","no","mono","no","18","no","white","no","yes","768","legacy","4","4","C:/Users/rayra/Documents/subject-2.csv","legacy","3 1 9 4","Lentiform Loewenfeld","3.3.9","0","n","0","right","right","NA","right","NA","1076","9239","NA","1076","NA","2","legacy","4","1024","2","48000","-16","experiment","2","even","6","37041","38240","2895","NA","38242","40452","NA","2899","NA","42457","43533","39246","12139","42456","NA","Sternberg task","5","4523","5","yes","1024"
"100","100","906","906","black","practice","legacy","legacy","legacy","0","uniform","1","undefined","1","right","5","5","0","0","5","5","5","0","0","5","5","5","0","5","0","Sun Oct 24 18:24:49 2021","The main experiment item","yes","Sternbergtask.osexp","C:/Users/rayra/Documents","no","mono","no","18","no","white","no","yes","768","legacy","5","5","C:/Users/rayra/Documents/subject-2.csv","legacy","5 7 8 4 1 2","Lentiform Loewenfeld","3.3.9","0","n","0","right","right","NA","right","NA","913","9239","NA","913","NA","2","legacy","6","1024","2","48000","-16","experiment","2","even","6","43555","44741","2895","NA","44744","46952","NA","2899","NA","48956","49869","45747","12139","48956","NA","Sternberg task","6","5436","6","yes","1024"
"100","100","978.8571428571429","978.8571428571429","black","practice","legacy","legacy","legacy","0","uniform","1","undefined","1","left","6","6","0","0","6","6","6","0","0","6","6","6","0","6","0","Sun Oct 24 18:24:49 2021","The main experiment item","yes","Sternbergtask.osexp","C:/Users/rayra/Documents","no","mono","no","18","no","white","no","yes","768","legacy","6","6","C:/Users/rayra/Documents/subject-2.csv","legacy","1 7 9 8 5","Lentiform Loewenfeld","3.3.9","4","y","0","left","right","NA","left","NA","1416","9239","NA","1416","NA","2","legacy","5","1024","2","48000","-16","experiment","2","even","8","49875","51081","2895","NA","51082","53290","NA","2899","NA","55295","56712","52086","12139","55295","NA","Sternberg task","7","6852","7","yes","1024"
"100","100","965.875","965.875","black","practice","legacy","legacy","legacy","0","uniform","1","undefined","1","left","7","7","0","0","7","7","7","0","0","7","7","7","0","7","0","Sun Oct 24 18:24:49 2021","The main experiment item","yes","Sternbergtask.osexp","C:/Users/rayra/Documents","no","mono","no","18","no","white","no","yes","768","legacy","7","7","C:/Users/rayra/Documents/subject-2.csv","legacy","4 3 1 7 9 8","Lentiform Loewenfeld","3.3.9","1","y","0","left","right","NA","left","NA","875","9239","NA","875","NA","2","legacy","6","1024","2","48000","-16","experiment","2","even","4","56718","57920","2895","NA","57922","60131","NA","2899","NA","62135","63011","58926","12139","62135","NA","Sternberg task","8","7727","8","yes","1024"
"100","100","933.4444444444445","933.4444444444445","black","practice","legacy","legacy","legacy","0","uniform","1","undefined","1","left","8","8","0","0","8","8","8","0","0","8","8","8","0","8","0","Sun Oct 24 18:24:49 2021","The main experiment item","yes","Sternbergtask.osexp","C:/Users/rayra/Documents","no","mono","no","18","no","white","no","yes","768","legacy","8","8","C:/Users/rayra/Documents/subject-2.csv","legacy","2 9 4","Lentiform Loewenfeld","3.3.9","3","y","0","left","right","NA","left","NA","674","9239","NA","674","NA","2","legacy","3","1024","2","48000","-16","experiment","2","even","4","63016","64208","2895","NA","64211","66420","NA","2899","NA","68424","69099","65215","12139","68424","NA","Sternberg task","9","8401","9","yes","1024"
"100","100","918.1","918.1","black","practice","legacy","legacy","legacy","0","uniform","1","undefined","1","right","9","9","0","0","9","9","9","0","0","9","9","9","0","9","0","Sun Oct 24 18:24:49 2021","The main experiment item","yes","Sternbergtask.osexp","C:/Users/rayra/Documents","no","mono","no","18","no","white","no","yes","768","legacy","9","9","C:/Users/rayra/Documents/subject-2.csv","legacy","4 1 5","Lentiform Loewenfeld","3.3.9","0","n","0","right","right","NA","right","NA","780","9239","NA","780","NA","2","legacy","3","1024","2","48000","-16","experiment","2","even","2","69108","70309","2895","NA","70311","72520","NA","2899","NA","74525","75305","71315","12139","74524","NA","Sternberg task","10","9181","10","yes","1024"
"100","100","907.1818181818181","907.1818181818181","black","practice","legacy","legacy","legacy","0","uniform","1","undefined","1","right","10","10","0","0","10","10","10","0","0","10","10","10","0","10","0","Sun Oct 24 18:24:49 2021","The main experiment item","yes","Sternbergtask.osexp","C:/Users/rayra/Documents","no","mono","no","18","no","white","no","yes","768","legacy","10","10","C:/Users/rayra/Documents/subject-2.csv","legacy","2 1","Lentiform Loewenfeld","3.3.9","0","n","0","right","right","NA","right","NA","798","9239","NA","798","NA","2","legacy","2","1024","2","48000","-16","experiment","2","even","5","75312","76491","2895","NA","76494","78702","NA","2899","NA","80707","81505","77498","12139","80706","NA","Sternberg task","11","9979","11","yes","1024"
"100","100","882.5","882.5","black","practice","legacy","legacy","legacy","0","uniform","1","undefined","1","left","11","11","0","0","11","11","11","0","0","11","11","11","0","11","0","Sun Oct 24 18:24:49 2021","The main experiment item","yes","Sternbergtask.osexp","C:/Users/rayra/Documents","no","mono","no","18","no","white","no","yes","768","legacy","11","11","C:/Users/rayra/Documents/subject-2.csv","legacy","6","Lentiform Loewenfeld","3.3.9","1","y","0","left","right","NA","left","NA","611","9239","NA","611","NA","2","legacy","1","1024","2","48000","-16","experiment","2","even","6","81511","82711","2895","NA","82713","84921","NA","2899","NA","86925","87536","83717","12139","86925","NA","Sternberg task","12","10590","12","yes","1024"
"100","100","869.6923076923077","869.6923076923077","black","experiment","legacy","legacy","legacy","0","uniform","1","undefined","1","right","12","12","0","0","12","12","12","0","0","12","12","12","0","12","0","Sun Oct 24 18:24:49 2021","The main experiment item","yes","Sternbergtask.osexp","C:/Users/rayra/Documents","no","mono","no","18","no","white","no","yes","768","legacy","0","11","C:/Users/rayra/Documents/subject-2.csv","legacy","6 7 5 9","Lentiform Loewenfeld","3.3.9","0","n","0","right","right","right","right","NA","716","9239","7944","716","NA","2","legacy","4","1024","2","48000","-16","experiment","2","even","2","87542","96723","2895","96555","96725","98931","NA","2899","88611","100934","101650","97728","12139","100934","NA","Sternberg task","13","11306","13","yes","1024"
"100","100","906","906","black","experiment","legacy","legacy","legacy","0","uniform","1","undefined","1","left","13","13","0","0","13","13","13","0","0","13","13","13","0","13","0","Sun Oct 24 18:24:49 2021","The main experiment item","yes","Sternbergtask.osexp","C:/Users/rayra/Documents","no","mono","no","18","no","white","no","yes","768","legacy","1","11","C:/Users/rayra/Documents/subject-2.csv","legacy","5 7 3 6 2","Lentiform Loewenfeld","3.3.9","5","y","0","left","right","right","left","NA","1378","9239","7944","1378","NA","2","legacy","5","1024","2","48000","-16","experiment","2","even","2","101656","102832","2895","96555","102835","105045","NA","2899","88611","107050","108428","103840","12139","107049","NA","Sternberg task","14","12684","14","yes","1024"
"100","100","885.4","885.4","black","experiment","legacy","legacy","legacy","0","uniform","1","undefined","1","right","14","14","0","0","14","14","14","0","0","14","14","14","0","14","0","Sun Oct 24 18:24:49 2021","The main experiment item","yes","Sternbergtask.osexp","C:/Users/rayra/Documents","no","mono","no","18","no","white","no","yes","768","legacy","2","11","C:/Users/rayra/Documents/subject-2.csv","legacy","4 1","Lentiform Loewenfeld","3.3.9","0","n","0","right","right","right","right","NA","597","9239","7944","597","NA","2","legacy","2","1024","2","48000","-16","experiment","2","even","6","108435","109627","2895","96555","109628","111835","NA","2899","88611","113839","114436","110631","12139","113839","NA","Sternberg task","15","13281","15","yes","1024"
"100","100","897.6875","897.6875","black","experiment","legacy","legacy","legacy","0","uniform","1","undefined","1","left","15","15","0","0","15","15","15","0","0","15","15","15","0","15","0","Sun Oct 24 18:24:49 2021","The main experiment item","yes","Sternbergtask.osexp","C:/Users/rayra/Documents","no","mono","no","18","no","white","no","yes","768","legacy","3","11","C:/Users/rayra/Documents/subject-2.csv","legacy","6 8 9 3 4 9","Lentiform Loewenfeld","3.3.9","5","y","0","left","right","right","left","NA","1082","9239","7944","1082","NA","2","legacy","6","1024","2","48000","-16","experiment","2","even","4","114442","115672","2895","96555","115675","117884","NA","2899","88611","119889","120972","116679","12139","119888","NA","Sternberg task","16","14363","16","yes","1024"
"100","100","920.2352941176471","920.2352941176471","black","experiment","legacy","legacy","legacy","0","uniform","1","undefined","1","right","16","16","0","0","16","16","16","0","0","16","16","16","0","16","0","Sun Oct 24 18:24:49 2021","The main experiment item","yes","Sternbergtask.osexp","C:/Users/rayra/Documents","no","mono","no","18","no","white","no","yes","768","legacy","4","11","C:/Users/rayra/Documents/subject-2.csv","legacy","8 5 4 2 9 6","Lentiform Loewenfeld","3.3.9","0","n","0","right","right","right","right","NA","1281","9239","7944","1281","NA","2","legacy","6","1024","2","48000","-16","experiment","2","even","3","120980","122182","2895","96555","122185","124394","NA","2899","88611","126399","127680","123190","12139","126398","NA","Sternberg task","17","15644","17","yes","1024"
"100","100","911.0555555555555","911.0555555555555","black","experiment","legacy","legacy","legacy","0","uniform","1","undefined","1","right","17","17","0","0","17","17","17","0","0","17","17","17","0","17","0","Sun Oct 24 18:24:49 2021","The main experiment item","yes","Sternbergtask.osexp","C:/Users/rayra/Documents","no","mono","no","18","no","white","no","yes","768","legacy","5","11","C:/Users/rayra/Documents/subject-2.csv","legacy","2 8 9","Lentiform Loewenfeld","3.3.9","0","n","0","right","right","right","right","NA","755","9239","7944","755","NA","2","legacy","3","1024","2","48000","-16","experiment","2","even","6","127687","128867","2895","96555","128869","131077","NA","2899","88611","133081","133837","129872","12139","133081","NA","Sternberg task","18","16399","18","yes","1024"
"100","100","906.7368421052631","906.7368421052631","black","experiment","legacy","legacy","legacy","0","uniform","1","undefined","1","left","18","18","0","0","18","18","18","0","0","18","18","18","0","18","0","Sun Oct 24 18:24:49 2021","The main experiment item","yes","Sternbergtask.osexp","C:/Users/rayra/Documents","no","mono","no","18","no","white","no","yes","768","legacy","6","11","C:/Users/rayra/Documents/subject-2.csv","legacy","7 2 3","Lentiform Loewenfeld","3.3.9","3","y","0","left","right","right","left","NA","829","9239","7944","829","NA","2","legacy","3","1024","2","48000","-16","experiment","2","even","3","133863","135041","2895","96555","135044","137252","NA","2899","88611","139256","140086","136047","12139","139256","NA","Sternberg task","19","17228","19","yes","1024"
"100","100","921.15","921.15","black","experiment","legacy","legacy","legacy","0","uniform","1","undefined","1","right","19","19","0","0","19","19","19","0","0","19","19","19","0","19","0","Sun Oct 24 18:24:49 2021","The main experiment item","yes","Sternbergtask.osexp","C:/Users/rayra/Documents","no","mono","no","18","no","white","no","yes","768","legacy","7","11","C:/Users/rayra/Documents/subject-2.csv","legacy","6 9 4 5 3 2","Lentiform Loewenfeld","3.3.9","0","n","0","right","right","right","right","NA","1195","9239","7944","1195","NA","2","legacy","6","1024","2","48000","-16","experiment","2","even","8","140107","141316","2895","96555","141319","143527","NA","2899","88611","145531","146726","142323","12139","145531","NA","Sternberg task","20","18423","20","yes","1024"
"100","100","931.1428571428571","931.1428571428571","black","experiment","legacy","legacy","legacy","0","uniform","1","undefined","1","right","20","20","0","0","20","20","20","0","0","20","20","20","0","20","0","Sun Oct 24 18:24:49 2021","The main experiment item","yes","Sternbergtask.osexp","C:/Users/rayra/Documents","no","mono","no","18","no","white","no","yes","768","legacy","8","11","C:/Users/rayra/Documents/subject-2.csv","legacy","2 8 9 4 1","Lentiform Loewenfeld","3.3.9","0","n","0","right","right","right","right","NA","1131","9239","7944","1131","NA","2","legacy","5","1024","2","48000","-16","experiment","2","even","5","146732","147934","2895","96555","147937","150143","NA","2899","88611","152147","153279","148939","12139","152146","NA","Sternberg task","21","19554","21","yes","1024"
"100","100","920","920","black","experiment","legacy","legacy","legacy","0","uniform","1","undefined","1","left","21","21","0","0","21","21","21","0","0","21","21","21","0","21","0","Sun Oct 24 18:24:49 2021","The main experiment item","yes","Sternbergtask.osexp","C:/Users/rayra/Documents","no","mono","no","18","no","white","no","yes","768","legacy","9","11","C:/Users/rayra/Documents/subject-2.csv","legacy","9 5 8 1","Lentiform Loewenfeld","3.3.9","2","y","0","left","right","right","left","NA","686","9239","7944","686","NA","2","legacy","4","1024","2","48000","-16","experiment","2","even","5","153285","154468","2895","96555","154471","156679","NA","2899","88611","158683","159370","155474","12139","158682","NA","Sternberg task","22","20240","22","yes","1024"
"100","100","909.4782608695652","909.4782608695652","black","experiment","legacy","legacy","legacy","0","uniform","1","undefined","1","left","22","22","0","0","22","22","22","0","0","22","22","22","0","22","0","Sun Oct 24 18:24:49 2021","The main experiment item","yes","Sternbergtask.osexp","C:/Users/rayra/Documents","no","mono","no","18","no","white","no","yes","768","legacy","10","11","C:/Users/rayra/Documents/subject-2.csv","legacy","2 3 7 4","Lentiform Loewenfeld","3.3.9","1","y","0","left","right","right","left","NA","678","9239","7944","678","NA","2","legacy","4","1024","2","48000","-16","experiment","2","even","2","159391","160590","2895","96555","160592","162800","NA","2899","88611","164804","165482","161596","12139","164804","NA","Sternberg task","23","20918","23","yes","1024"
"100","100","900.5833333333334","900.5833333333334","black","experiment","legacy","legacy","legacy","0","uniform","1","undefined","1","left","23","23","0","0","23","23","23","0","0","23","23","23","0","23","0","Sun Oct 24 18:24:49 2021","The main experiment item","yes","Sternbergtask.osexp","C:/Users/rayra/Documents","no","mono","no","18","no","white","no","yes","768","legacy","11","11","C:/Users/rayra/Documents/subject-2.csv","legacy","4 9 7 8 5 3","Lentiform Loewenfeld","3.3.9","4","y","0","left","right","right","left","NA","696","9239","7944","696","NA","2","legacy","6","1024","2","48000","-16","experiment","2","even","8","165488","166666","2895","96555","166669","168877","NA","2899","88611","170882","171579","167673","12139","170882","NA","Sternberg task","24","21614","24","yes","1024"
"100","100","898.04","898.04","black","experiment","legacy","legacy","legacy","0","uniform","1","undefined","1","right","24","24","0","0","24","24","24","0","0","24","24","24","0","24","0","Sun Oct 24 18:24:49 2021","The main experiment item","yes","Sternbergtask.osexp","C:/Users/rayra/Documents","no","mono","no","18","no","white","no","yes","768","legacy","12","11","C:/Users/rayra/Documents/subject-2.csv","legacy","6 8 4","Lentiform Loewenfeld","3.3.9","0","n","0","right","right","right","right","NA","837","9239","7944","837","NA","2","legacy","3","1024","2","48000","-16","experiment","2","even","1","171584","172757","2895","96555","172760","174969","NA","2899","88611","176973","177811","173764","12139","176973","NA","Sternberg task","25","22451","25","yes","1024"
"100","100","909.7692307692307","909.7692307692307","black","experiment","legacy","legacy","legacy","0","uniform","1","undefined","1","right","25","25","0","0","25","25","25","0","0","25","25","25","0","25","0","Sun Oct 24 18:24:49 2021","The main experiment item","yes","Sternbergtask.osexp","C:/Users/rayra/Documents","no","mono","no","18","no","white","no","yes","768","legacy","13","11","C:/Users/rayra/Documents/subject-2.csv","legacy","8 2 1 4 5 9","Lentiform Loewenfeld","3.3.9","0","n","0","right","right","right","right","NA","1203","9239","7944","1203","NA","2","legacy","6","1024","2","48000","-16","experiment","2","even","7","177818","179043","2895","96555","179045","181252","NA","2899","88611","183256","184459","180048","12139","183256","NA","Sternberg task","26","23654","26","yes","1024"
"100","100","902.8518518518518","902.8518518518518","black","experiment","legacy","legacy","legacy","0","uniform","1","undefined","1","left","26","26","0","0","26","26","26","0","0","26","26","26","0","26","0","Sun Oct 24 18:24:49 2021","The main experiment item","yes","Sternbergtask.osexp","C:/Users/rayra/Documents","no","mono","no","18","no","white","no","yes","768","legacy","14","11","C:/Users/rayra/Documents/subject-2.csv","legacy","9 8 4","Lentiform Loewenfeld","3.3.9","1","y","0","left","right","right","left","NA","723","9239","7944","723","NA","2","legacy","3","1024","2","48000","-16","experiment","2","even","9","184481","185662","2895","96555","185664","187872","NA","2899","88611","189876","190599","186668","12139","189876","NA","Sternberg task","27","24377","27","yes","1024"
"100","100","904.4642857142857","904.4642857142857","black","experiment","legacy","legacy","legacy","0","uniform","1","undefined","1","right","27","27","0","0","27","27","27","0","0","27","27","27","0","27","0","Sun Oct 24 18:24:49 2021","The main experiment item","yes","Sternbergtask.osexp","C:/Users/rayra/Documents","no","mono","no","18","no","white","no","yes","768","legacy","15","11","C:/Users/rayra/Documents/subject-2.csv","legacy","4 8 1 2","Lentiform Loewenfeld","3.3.9","0","n","0","right","right","right","right","NA","948","9239","7944","948","NA","2","legacy","4","1024","2","48000","-16","experiment","2","even","7","190606","191805","2895","96555","191807","194016","NA","2899","88611","196021","196969","192812","12139","196020","NA","Sternberg task","28","25325","28","yes","1024"
"100","100","909.4137931034483","909.4137931034483","black","experiment","legacy","legacy","legacy","0","uniform","1","undefined","1","right","28","28","0","0","28","28","28","0","0","28","28","28","0","28","0","Sun Oct 24 18:24:49 2021","The main experiment item","yes","Sternbergtask.osexp","C:/Users/rayra/Documents","no","mono","no","18","no","white","no","yes","768","legacy","16","11","C:/Users/rayra/Documents/subject-2.csv","legacy","3 4 2","Lentiform Loewenfeld","3.3.9","0","n","0","right","right","right","right","NA","1048","9239","7944","1048","NA","2","legacy","3","1024","2","48000","-16","experiment","2","even","5","196974","198162","2895","96555","198164","200372","NA","2899","88611","202376","203424","199168","12139","202376","NA","Sternberg task","29","26373","29","yes","1024"
"100","100","915.8666666666667","915.8666666666667","black","experiment","legacy","legacy","legacy","0","uniform","1","undefined","1","right","29","29","0","0","29","29","29","0","0","29","29","29","0","29","0","Sun Oct 24 18:24:49 2021","The main experiment item","yes","Sternbergtask.osexp","C:/Users/rayra/Documents","no","mono","no","18","no","white","no","yes","768","legacy","17","11","C:/Users/rayra/Documents/subject-2.csv","legacy","1 7 5 2 9","Lentiform Loewenfeld","3.3.9","0","n","0","right","right","right","right","NA","1103","9239","7944","1103","NA","2","legacy","5","1024","2","48000","-16","experiment","2","even","3","203431","204636","2895","96555","204639","206848","NA","2899","88611","208851","209955","205643","12139","208851","NA","Sternberg task","30","27476","30","yes","1024"
"100","100","923.2903225806451","923.2903225806451","black","experiment","legacy","legacy","legacy","0","uniform","1","undefined","1","right","30","30","0","0","30","30","30","0","0","30","30","30","0","30","0","Sun Oct 24 18:24:49 2021","The main experiment item","yes","Sternbergtask.osexp","C:/Users/rayra/Documents","no","mono","no","18","no","white","no","yes","768","legacy","18","11","C:/Users/rayra/Documents/subject-2.csv","legacy","9 7 4 5 8","Lentiform Loewenfeld","3.3.9","0","n","0","right","right","right","right","NA","1146","9239","7944","1146","NA","2","legacy","5","1024","2","48000","-16","experiment","2","even","6","209960","211148","2895","96555","211151","213359","NA","2899","88611","215364","216511","212154","12139","215364","NA","Sternberg task","31","28622","31","yes","1024"
"100","100","919.25","919.25","black","experiment","legacy","legacy","legacy","0","uniform","1","undefined","1","left","31","31","0","0","31","31","31","0","0","31","31","31","0","31","0","Sun Oct 24 18:24:49 2021","The main experiment item","yes","Sternbergtask.osexp","C:/Users/rayra/Documents","no","mono","no","18","no","white","no","yes","768","legacy","19","11","C:/Users/rayra/Documents/subject-2.csv","legacy","3 9 6 2","Lentiform Loewenfeld","3.3.9","4","y","0","left","right","right","left","NA","794","9239","7944","794","NA","2","legacy","4","1024","2","48000","-16","experiment","2","even","2","216517","217706","2895","96555","217709","219917","NA","2899","88611","221922","222716","218714","12139","221922","NA","Sternberg task","32","29416","32","yes","1024"
"100","100","913.6363636363636","913.6363636363636","black","experiment","legacy","legacy","legacy","0","uniform","1","undefined","1","left","32","32","0","0","32","32","32","0","0","32","32","32","0","32","0","Sun Oct 24 18:24:49 2021","The main experiment item","yes","Sternbergtask.osexp","C:/Users/rayra/Documents","no","mono","no","18","no","white","no","yes","768","legacy","20","11","C:/Users/rayra/Documents/subject-2.csv","legacy","8 9 5 7 1 6","Lentiform Loewenfeld","3.3.9","4","y","0","left","right","right","left","NA","734","9239","7944","734","NA","2","legacy","6","1024","2","48000","-16","experiment","2","even","7","222722","223906","2895","96555","223908","226116","NA","2899","88611","228122","228857","224912","12139","228122","NA","Sternberg task","33","30150","33","yes","1024"
"100","100","905.0588235294117","905.0588235294117","black","experiment","legacy","legacy","legacy","0","uniform","1","undefined","1","left","33","33","0","0","33","33","33","0","0","33","33","33","0","33","0","Sun Oct 24 18:24:49 2021","The main experiment item","yes","Sternbergtask.osexp","C:/Users/rayra/Documents","no","mono","no","18","no","white","no","yes","768","legacy","21","11","C:/Users/rayra/Documents/subject-2.csv","legacy","3 4","Lentiform Loewenfeld","3.3.9","1","y","0","left","right","right","left","NA","622","9239","7944","622","NA","2","legacy","2","1024","2","48000","-16","experiment","2","even","3","228863","230051","2895","96555","230053","232261","NA","2899","88611","234265","234887","231056","12139","234265","NA","Sternberg task","34","30772","34","yes","1024"
"100","100","920.2857142857143","920.2857142857143","black","experiment","legacy","legacy","legacy","0","uniform","1","undefined","1","right","34","34","0","0","34","34","34","0","0","34","34","34","0","34","0","Sun Oct 24 18:24:49 2021","The main experiment item","yes","Sternbergtask.osexp","C:/Users/rayra/Documents","no","mono","no","18","no","white","no","yes","768","legacy","22","11","C:/Users/rayra/Documents/subject-2.csv","legacy","7 8 6 1","Lentiform Loewenfeld","3.3.9","0","n","0","right","right","right","right","NA","1438","9239","7944","1438","NA","2","legacy","4","1024","2","48000","-16","experiment","2","even","3","234894","236085","2895","96555","236087","238295","NA","2899","88611","240300","241739","237090","12139","240300","NA","Sternberg task","35","32210","35","yes","1024"
"100","100","927.9166666666666","927.9166666666666","black","experiment","legacy","legacy","legacy","0","uniform","1","undefined","1","left","35","35","0","0","35","35","35","0","0","35","35","35","0","35","0","Sun Oct 24 18:24:49 2021","The main experiment item","yes","Sternbergtask.osexp","C:/Users/rayra/Documents","no","mono","no","18","no","white","no","yes","768","legacy","23","11","C:/Users/rayra/Documents/subject-2.csv","legacy","8 5 1 3 9","Lentiform Loewenfeld","3.3.9","4","y","0","left","right","right","left","NA","1195","9239","7944","1195","NA","2","legacy","5","1024","2","48000","-16","experiment","2","even","3","241745","242942","2895","96555","242944","245150","NA","2899","88611","247153","248349","243946","12139","247153","NA","Sternberg task","36","33405","36","yes","1024"
"100","100","928.5675675675676","928.5675675675676","black","experiment","legacy","legacy","legacy","0","uniform","1","undefined","1","left","36","36","0","0","36","36","36","0","0","36","36","36","0","36","0","Sun Oct 24 18:24:49 2021","The main experiment item","yes","Sternbergtask.osexp","C:/Users/rayra/Documents","no","mono","no","18","no","white","no","yes","768","legacy","24","11","C:/Users/rayra/Documents/subject-2.csv","legacy","3 5 7 1","Lentiform Loewenfeld","3.3.9","3","y","0","left","right","right","left","NA","952","9239","7944","952","NA","2","legacy","4","1024","2","48000","-16","experiment","2","even","7","248353","249532","2895","96555","249534","251742","NA","2899","88611","253747","254699","250537","12139","253746","NA","Sternberg task","37","34357","37","yes","1024"
"100","100","928.578947368421","928.578947368421","black","experiment","legacy","legacy","legacy","0","uniform","1","undefined","1","right","37","37","0","0","37","37","37","0","0","37","37","37","0","37","0","Sun Oct 24 18:24:49 2021","The main experiment item","yes","Sternbergtask.osexp","C:/Users/rayra/Documents","no","mono","no","18","no","white","no","yes","768","legacy","25","11","C:/Users/rayra/Documents/subject-2.csv","legacy","9 8 2 7 4","Lentiform Loewenfeld","3.3.9","0","n","0","right","right","right","right","NA","929","9239","7944","929","NA","2","legacy","5","1024","2","48000","-16","experiment","2","even","5","254706","255888","2895","96555","255890","258098","NA","2899","88611","260102","261032","256894","12139","260102","NA","Sternberg task","38","35286","38","yes","1024"
"100","100","939.6153846153846","939.6153846153846","black","experiment","legacy","legacy","legacy","0","uniform","1","undefined","1","left","38","38","0","0","38","38","38","0","0","38","38","38","0","38","0","Sun Oct 24 18:24:49 2021","The main experiment item","yes","Sternbergtask.osexp","C:/Users/rayra/Documents","no","mono","no","18","no","white","no","yes","768","legacy","26","11","C:/Users/rayra/Documents/subject-2.csv","legacy","5 2 9 6 1 7","Lentiform Loewenfeld","3.3.9","3","y","0","left","right","right","left","NA","1359","9239","7944","1359","NA","2","legacy","6","1024","2","48000","-16","experiment","2","even","9","261037","262234","2895","96555","262236","264444","NA","2899","88611","266449","267809","263240","12139","266449","NA","Sternberg task","39","36645","39","yes","1024"
"100","100","942.975","942.975","black","experiment","legacy","legacy","legacy","0","uniform","1","undefined","1","right","39","39","0","0","39","39","39","0","0","39","39","39","0","39","0","Sun Oct 24 18:24:49 2021","The main experiment item","yes","Sternbergtask.osexp","C:/Users/rayra/Documents","no","mono","no","18","no","white","no","yes","768","legacy","27","11","C:/Users/rayra/Documents/subject-2.csv","legacy","1 3 2 6 9","Lentiform Loewenfeld","3.3.9","0","n","0","right","right","right","right","NA","1074","9239","7944","1074","NA","2","legacy","5","1024","2","48000","-16","experiment","2","even","5","267815","269019","2895","96555","269021","271229","NA","2899","88611","273233","274308","270025","12139","273233","NA","Sternberg task","40","37719","40","yes","1024"
"100","100","941.219512195122","941.219512195122","black","experiment","legacy","legacy","legacy","0","uniform","1","undefined","1","right","40","40","0","0","40","40","40","0","0","40","40","40","0","40","0","Sun Oct 24 18:24:49 2021","The main experiment item","yes","Sternbergtask.osexp","C:/Users/rayra/Documents","no","mono","no","18","no","white","no","yes","768","legacy","28","11","C:/Users/rayra/Documents/subject-2.csv","legacy","1 6 4 3 9 7","Lentiform Loewenfeld","3.3.9","0","n","0","right","right","right","right","NA","871","9239","7944","871","NA","2","legacy","6","1024","2","48000","-16","experiment","2","even","8","274331","275508","2895","96555","275511","277719","NA","2899","88611","279723","280595","276515","12139","279723","NA","Sternberg task","41","38590","41","yes","1024"
"100","100","954.047619047619","954.047619047619","black","experiment","legacy","legacy","legacy","0","uniform","1","undefined","1","right","41","41","0","0","41","41","41","0","0","41","41","41","0","41","0","Sun Oct 24 18:24:49 2021","The main experiment item","yes","Sternbergtask.osexp","C:/Users/rayra/Documents","no","mono","no","18","no","white","no","yes","768","legacy","29","11","C:/Users/rayra/Documents/subject-2.csv","legacy","7 4 2 8 1 9","Lentiform Loewenfeld","3.3.9","0","n","0","right","right","right","right","NA","1480","9239","7944","1480","NA","2","legacy","6","1024","2","48000","-16","experiment","2","even","5","280615","281804","2895","96555","281807","284016","NA","2899","88611","286020","287500","282812","12139","286020","NA","Sternberg task","42","40070","42","yes","1024"
"100","100","965.0930232558139","965.0930232558139","black","experiment","legacy","legacy","legacy","0","uniform","1","undefined","1","right","42","42","0","0","42","42","42","0","0","42","42","42","0","42","0","Sun Oct 24 18:24:49 2021","The main experiment item","yes","Sternbergtask.osexp","C:/Users/rayra/Documents","no","mono","no","18","no","white","no","yes","768","legacy","30","11","C:/Users/rayra/Documents/subject-2.csv","legacy","3 9 8 1 6 4","Lentiform Loewenfeld","3.3.9","0","n","0","right","right","right","right","NA","1429","9239","7944","1429","NA","2","legacy","6","1024","2","48000","-16","experiment","2","even","7","287507","288678","2895","96555","288680","290886","NA","2899","88611","292890","294320","289683","12139","292890","NA","Sternberg task","43","41499","43","yes","1024"
"100","100","971.4772727272727","971.4772727272727","black","experiment","legacy","legacy","legacy","0","uniform","1","undefined","1","right","43","43","0","0","43","43","43","0","0","43","43","43","0","43","0","Sun Oct 24 18:24:49 2021","The main experiment item","yes","Sternbergtask.osexp","C:/Users/rayra/Documents","no","mono","no","18","no","white","no","yes","768","legacy","31","11","C:/Users/rayra/Documents/subject-2.csv","legacy","8 4 3 5","Lentiform Loewenfeld","3.3.9","0","n","0","right","right","right","right","NA","1246","9239","7944","1246","NA","2","legacy","4","1024","2","48000","-16","experiment","2","even","6","294326","295544","2895","96555","295547","297755","NA","2899","88611","299759","301006","296551","12139","299759","NA","Sternberg task","44","42745","44","yes","1024"
"100","100","973.2","973.2","black","experiment","legacy","legacy","legacy","0","uniform","1","undefined","1","left","44","44","0","0","44","44","44","0","0","44","44","44","0","44","0","Sun Oct 24 18:24:49 2021","The main experiment item","yes","Sternbergtask.osexp","C:/Users/rayra/Documents","no","mono","no","18","no","white","no","yes","768","legacy","32","11","C:/Users/rayra/Documents/subject-2.csv","legacy","4 6 5 8","Lentiform Loewenfeld","3.3.9","1","y","0","left","right","right","left","NA","1049","9239","7944","1049","NA","2","legacy","4","1024","2","48000","-16","experiment","2","even","4","301011","302187","2895","96555","302190","304399","NA","2899","88611","306403","307453","303194","12139","306403","NA","Sternberg task","45","43794","45","yes","1024"
"100","100","977.1304347826087","977.1304347826087","black","experiment","legacy","legacy","legacy","0","uniform","1","undefined","1","left","45","45","0","0","45","45","45","0","0","45","45","45","0","45","0","Sun Oct 24 18:24:49 2021","The main experiment item","yes","Sternbergtask.osexp","C:/Users/rayra/Documents","no","mono","no","18","no","white","no","yes","768","legacy","33","11","C:/Users/rayra/Documents/subject-2.csv","legacy","7 6","Lentiform Loewenfeld","3.3.9","2","y","0","left","right","right","left","NA","1154","9239","7944","1154","NA","2","legacy","2","1024","2","48000","-16","experiment","2","even","6","307459","308645","2895","96555","308648","310856","NA","2899","88611","312860","314015","309651","12139","312860","NA","Sternberg task","46","44948","46","yes","1024"
"100","100","995.1276595744681","995.1276595744681","black","experiment","legacy","legacy","legacy","0","uniform","1","undefined","1","right","46","46","0","0","46","46","46","0","0","46","46","46","0","46","0","Sun Oct 24 18:24:49 2021","The main experiment item","yes","Sternbergtask.osexp","C:/Users/rayra/Documents","no","mono","no","18","no","white","no","yes","768","legacy","34","11","C:/Users/rayra/Documents/subject-2.csv","legacy","1 7 8 3 9","Lentiform Loewenfeld","3.3.9","0","n","0","right","right","right","right","NA","1823","9239","7944","1823","NA","2","legacy","5","1024","2","48000","-16","experiment","2","even","2","314020","315207","2895","96555","315209","317417","NA","2899","88611","319421","321245","316212","12139","319421","NA","Sternberg task","47","46771","47","yes","1024"
"100","100","995","995","black","experiment","legacy","legacy","legacy","0","uniform","1","undefined","1","left","47","47","0","0","47","47","47","0","0","47","47","47","0","47","0","Sun Oct 24 18:24:49 2021","The main experiment item","yes","Sternbergtask.osexp","C:/Users/rayra/Documents","no","mono","no","18","no","white","no","yes","768","legacy","35","11","C:/Users/rayra/Documents/subject-2.csv","legacy","2 6 1 7 4","Lentiform Loewenfeld","3.3.9","2","y","0","left","right","right","left","NA","989","9239","7944","989","NA","2","legacy","5","1024","2","48000","-16","experiment","2","even","6","321267","322426","2895","96555","322429","324637","NA","2899","88611","326641","327631","323433","12139","326641","NA","Sternberg task","48","47760","48","yes","1024"
"97.95918367346938","97.95918367346938","1002.1632653061224","1002.1632653061224","black","experiment","legacy","legacy","legacy","0","uniform","0","undefined","0","right","48","48","0","0","48","48","48","0","0","48","48","48","0","48","0","Sun Oct 24 18:24:49 2021","The main experiment item","yes","Sternbergtask.osexp","C:/Users/rayra/Documents","no","mono","no","18","no","white","no","yes","768","legacy","36","11","C:/Users/rayra/Documents/subject-2.csv","legacy","7 1 8 4 9 3","Lentiform Loewenfeld","3.3.9","0","n","0","left","right","right","left","NA","1346","9239","7944","1346","NA","2","legacy","6","1024","2","48000","-16","experiment","2","even","6","327638","328838","2895","96555","328840","331050","NA","2899","88611","333054","334401","329845","12139","333054","NA","Sternberg task","48","49106","49","yes","1024"
"98","98","1009.64","1009.64","black","experiment","legacy","legacy","legacy","0","uniform","1","undefined","1","right","49","49","0","0","49","49","49","0","0","49","49","49","0","49","0","Sun Oct 24 18:24:49 2021","The main experiment item","yes","Sternbergtask.osexp","C:/Users/rayra/Documents","no","mono","no","18","no","white","no","yes","768","legacy","37","11","C:/Users/rayra/Documents/subject-2.csv","legacy","8 6 3 4 7","Lentiform Loewenfeld","3.3.9","0","n","0","right","right","right","right","NA","1376","9239","7944","1376","NA","2","legacy","5","1024","2","48000","-16","experiment","2","even","1","327638","335622","2895","96555","335624","337833","334424","2899","88611","339837","341214","336627","12139","339837","NA","Sternberg task","49","50482","50","yes","1024"
"98.03921568627452","98.03921568627452","1005.0588235294117","1005.0588235294117","black","experiment","legacy","legacy","legacy","0","uniform","1","undefined","1","left","50","50","0","0","50","50","50","0","0","50","50","50","0","50","0","Sun Oct 24 18:24:49 2021","The main experiment item","yes","Sternbergtask.osexp","C:/Users/rayra/Documents","no","mono","no","18","no","white","no","yes","768","legacy","38","11","C:/Users/rayra/Documents/subject-2.csv","legacy","9 3 1 2 5","Lentiform Loewenfeld","3.3.9","4","y","0","left","right","right","left","NA","776","9239","7944","776","NA","2","legacy","5","1024","2","48000","-16","experiment","2","even","2","341220","342402","2895","96555","342404","344610","334424","2899","88611","346615","347392","343407","12139","346615","NA","Sternberg task","50","51258","51","yes","1024"
"98.07692307692308","98.07692307692308","1018.5769230769231","1018.5769230769231","black","experiment","legacy","legacy","legacy","0","uniform","1","undefined","1","left","51","51","0","0","51","51","51","0","0","51","51","51","0","51","0","Sun Oct 24 18:24:49 2021","The main experiment item","yes","Sternbergtask.osexp","C:/Users/rayra/Documents","no","mono","no","18","no","white","no","yes","768","legacy","39","11","C:/Users/rayra/Documents/subject-2.csv","legacy","4 7 6 8 2 3","Lentiform Loewenfeld","3.3.9","6","y","0","left","right","right","left","NA","1708","9239","7944","1708","NA","2","legacy","6","1024","2","48000","-16","experiment","2","even","3","347397","348584","2895","96555","348586","350793","334424","2899","88611","352798","354506","349589","12139","352797","NA","Sternberg task","51","52966","52","yes","1024"
"98.11320754716981","98.11320754716981","1025.132075471698","1025.132075471698","black","experiment","legacy","legacy","legacy","0","uniform","1","undefined","1","left","52","52","0","0","52","52","52","0","0","52","52","52","0","52","0","Sun Oct 24 18:24:49 2021","The main experiment item","yes","Sternbergtask.osexp","C:/Users/rayra/Documents","no","mono","no","18","no","white","no","yes","768","legacy","40","11","C:/Users/rayra/Documents/subject-2.csv","legacy","7 1 8 5 6 2","Lentiform Loewenfeld","3.3.9","2","y","0","left","right","right","left","NA","1366","9239","7944","1366","NA","2","legacy","6","1024","2","48000","-16","experiment","2","even","1","354513","355701","2895","96555","355703","357910","334424","2899","88611","359914","361281","356706","12139","359914","NA","Sternberg task","52","54332","53","yes","1024"
"98.14814814814815","98.14814814814815","1017.3703703703703","1017.3703703703703","black","experiment","legacy","legacy","legacy","0","uniform","1","undefined","1","right","53","53","0","0","53","53","53","0","0","53","53","53","0","53","0","Sun Oct 24 18:24:49 2021","The main experiment item","yes","Sternbergtask.osexp","C:/Users/rayra/Documents","no","mono","no","18","no","white","no","yes","768","legacy","41","11","C:/Users/rayra/Documents/subject-2.csv","legacy","1","Lentiform Loewenfeld","3.3.9","0","n","0","right","right","right","right","NA","606","9239","7944","606","NA","2","legacy","1","1024","2","48000","-16","experiment","2","even","7","361302","362492","2895","96555","362494","364702","334424","2899","88611","366706","367313","363498","12139","366706","NA","Sternberg task","53","54938","54","yes","1024"
"98.18181818181819","98.18181818181819","1017.3818181818182","1017.3818181818182","black","experiment","legacy","legacy","legacy","0","uniform","1","undefined","1","right","54","54","0","0","54","54","54","0","0","54","54","54","0","54","0","Sun Oct 24 18:24:49 2021","The main experiment item","yes","Sternbergtask.osexp","C:/Users/rayra/Documents","no","mono","no","18","no","white","no","yes","768","legacy","42","11","C:/Users/rayra/Documents/subject-2.csv","legacy","6 9 7 3 8 2","Lentiform Loewenfeld","3.3.9","0","n","0","right","right","right","right","NA","1018","9239","7944","1018","NA","2","legacy","6","1024","2","48000","-16","experiment","2","even","5","367319","368531","2895","96555","368533","370743","334424","2899","88611","372747","373765","369538","12139","372746","NA","Sternberg task","54","55956","55","yes","1024"
"96.42857142857143","96.42857142857143","1025.5714285714287","1025.5714285714287","black","experiment","legacy","legacy","legacy","0","uniform","0","undefined","0","left","55","55","0","0","55","55","55","0","0","55","55","55","0","55","0","Sun Oct 24 18:24:49 2021","The main experiment item","yes","Sternbergtask.osexp","C:/Users/rayra/Documents","no","mono","no","18","no","white","no","yes","768","legacy","43","11","C:/Users/rayra/Documents/subject-2.csv","legacy","6 9 7 4 5 1","Lentiform Loewenfeld","3.3.9","2","y","0","right","right","right","right","NA","1476","9239","7944","1476","NA","2","legacy","6","1024","2","48000","-16","experiment","2","even","9","373772","374961","2895","96555","374963","377172","334424","2899","88611","379178","380654","375968","12139","379176","NA","Sternberg task","54","57432","56","yes","1024"
"96.49122807017544","96.49122807017544","1026.298245614035","1026.298245614035","black","experiment","legacy","legacy","legacy","0","uniform","1","undefined","1","left","56","56","0","0","56","56","56","0","0","56","56","56","0","56","0","Sun Oct 24 18:24:49 2021","The main experiment item","yes","Sternbergtask.osexp","C:/Users/rayra/Documents","no","mono","no","18","no","white","no","yes","768","legacy","44","11","C:/Users/rayra/Documents/subject-2.csv","legacy","8 5 4 7 3 1","Lentiform Loewenfeld","3.3.9","2","y","0","left","right","right","left","NA","1067","9239","7944","1067","NA","2","legacy","6","1024","2","48000","-16","experiment","2","even","5","373772","381869","2895","96555","381871","384079","380675","2899","88611","386084","387151","382874","12139","386084","NA","Sternberg task","55","58499","57","yes","1024"
"96.55172413793103","96.55172413793103","1035.4137931034484","1035.4137931034484","black","experiment","legacy","legacy","legacy","0","uniform","1","undefined","1","right","57","57","0","0","57","57","57","0","0","57","57","57","0","57","0","Sun Oct 24 18:24:49 2021","The main experiment item","yes","Sternbergtask.osexp","C:/Users/rayra/Documents","no","mono","no","18","no","white","no","yes","768","legacy","45","11","C:/Users/rayra/Documents/subject-2.csv","legacy","5","Lentiform Loewenfeld","3.3.9","0","n","0","right","right","right","right","NA","1555","9239","7944","1555","NA","2","legacy","1","1024","2","48000","-16","experiment","2","even","8","387155","388333","2895","96555","388336","390545","380675","2899","88611","392549","394106","389339","12139","392549","NA","Sternberg task","56","60054","58","yes","1024"
"96.61016949152543","96.61016949152543","1036.7796610169491","1036.7796610169491","black","experiment","legacy","legacy","legacy","0","uniform","1","undefined","1","left","58","58","0","0","58","58","58","0","0","58","58","58","0","58","0","Sun Oct 24 18:24:49 2021","The main experiment item","yes","Sternbergtask.osexp","C:/Users/rayra/Documents","no","mono","no","18","no","white","no","yes","768","legacy","46","11","C:/Users/rayra/Documents/subject-2.csv","legacy","9 1 6 7 8","Lentiform Loewenfeld","3.3.9","1","y","0","left","right","right","left","NA","1116","9239","7944","1116","NA","2","legacy","5","1024","2","48000","-16","experiment","2","even","9","394112","395290","2895","96555","395292","397501","380675","2899","88611","399505","400622","396296","12139","399505","NA","Sternberg task","57","61170","59","yes","1024"
"96.66666666666667","96.66666666666667","1032.2166666666667","1032.2166666666667","black","experiment","legacy","legacy","legacy","0","uniform","1","undefined","1","left","59","59","0","0","59","59","59","0","0","59","59","59","0","59","0","Sun Oct 24 18:24:49 2021","The main experiment item","yes","Sternbergtask.osexp","C:/Users/rayra/Documents","no","mono","no","18","no","white","no","yes","768","legacy","47","11","C:/Users/rayra/Documents/subject-2.csv","legacy","9 1 7 2","Lentiform Loewenfeld","3.3.9","2","y","0","left","right","right","left","NA","763","9239","7944","763","NA","2","legacy","4","1024","2","48000","-16","experiment","2","even","1","400644","401831","2895","96555","401834","404042","380675","2899","88611","406046","406809","402837","12139","406046","NA","Sternberg task","58","61933","60","yes","1024"
"96.72131147540983","96.72131147540983","1043.7377049180327","1043.7377049180327","black","experiment","legacy","legacy","legacy","0","uniform","1","undefined","1","right","60","60","0","0","60","60","60","0","0","60","60","60","0","60","0","Sun Oct 24 18:24:49 2021","The main experiment item","yes","Sternbergtask.osexp","C:/Users/rayra/Documents","no","mono","no","18","no","white","no","yes","768","legacy","48","11","C:/Users/rayra/Documents/subject-2.csv","legacy","7 6 4 8 1 2","Lentiform Loewenfeld","3.3.9","0","n","0","right","right","right","right","NA","1735","9239","7944","1735","NA","2","legacy","6","1024","2","48000","-16","experiment","2","even","9","406831","408029","2895","96555","408032","410242","380675","2899","88611","412246","413981","409037","12139","412246","NA","Sternberg task","59","63668","61","yes","1024"
"95.16129032258064","95.16129032258064","1048.6774193548388","1048.6774193548388","black","experiment","legacy","legacy","legacy","0","uniform","0","undefined","0","left","61","61","0","0","61","61","61","0","0","61","61","61","0","61","0","Sun Oct 24 18:24:49 2021","The main experiment item","yes","Sternbergtask.osexp","C:/Users/rayra/Documents","no","mono","no","18","no","white","no","yes","768","legacy","49","11","C:/Users/rayra/Documents/subject-2.csv","legacy","5 7 8 2 3 8","Lentiform Loewenfeld","3.3.9","5","y","0","right","right","right","right","NA","1350","9239","7944","1350","NA","2","legacy","6","1024","2","48000","-16","experiment","2","even","3","413987","415176","2895","96555","415179","417387","380675","2899","88611","419391","420742","416183","12139","419391","NA","Sternberg task","59","65018","62","yes","1024"
"95.23809523809524","95.23809523809524","1050.5873015873017","1050.5873015873017","black","experiment","legacy","legacy","legacy","0","uniform","1","undefined","1","left","62","62","0","0","62","62","62","0","0","62","62","62","0","62","0","Sun Oct 24 18:24:49 2021","The main experiment item","yes","Sternbergtask.osexp","C:/Users/rayra/Documents","no","mono","no","18","no","white","no","yes","768","legacy","50","11","C:/Users/rayra/Documents/subject-2.csv","legacy","8 3","Lentiform Loewenfeld","3.3.9","2","y","0","left","right","right","left","NA","1169","9239","7944","1169","NA","2","legacy","2","1024","2","48000","-16","experiment","2","even","3","413987","421937","2895","96555","421940","424147","420763","2899","88611","426151","427322","422943","12139","426151","NA","Sternberg task","60","66187","63","yes","1024"
"95.3125","95.3125","1051.578125","1051.578125","black","experiment","legacy","legacy","legacy","0","uniform","1","undefined","1","right","63","63","0","0","63","63","63","0","0","63","63","63","0","63","0","Sun Oct 24 18:24:49 2021","The main experiment item","yes","Sternbergtask.osexp","C:/Users/rayra/Documents","no","mono","no","18","no","white","no","yes","768","legacy","51","11","C:/Users/rayra/Documents/subject-2.csv","legacy","6 2 9 3 8 4","Lentiform Loewenfeld","3.3.9","0","n","0","right","right","right","right","NA","1114","9239","7944","1114","NA","2","legacy","6","1024","2","48000","-16","experiment","2","even","1","427327","428531","2895","96555","428533","430742","420763","2899","88611","432746","433861","429537","12139","432746","NA","Sternberg task","61","67301","64","yes","1024"
"95.38461538461539","95.38461538461539","1058.553846153846","1058.553846153846","black","experiment","legacy","legacy","legacy","0","uniform","1","undefined","1","right","64","64","0","0","64","64","64","0","0","64","64","64","0","64","0","Sun Oct 24 18:24:49 2021","The main experiment item","yes","Sternbergtask.osexp","C:/Users/rayra/Documents","no","mono","no","18","no","white","no","yes","768","legacy","52","11","C:/Users/rayra/Documents/subject-2.csv","legacy","7 1","Lentiform Loewenfeld","3.3.9","0","n","0","right","right","right","right","NA","1505","9239","7944","1505","NA","2","legacy","2","1024","2","48000","-16","experiment","2","even","8","433869","435068","2895","96555","435070","437278","420763","2899","88611","439283","440789","436074","12139","439283","NA","Sternberg task","62","68806","65","yes","1024"
"93.93939393939394","93.93939393939394","1070.530303030303","1070.530303030303","black","experiment","legacy","legacy","legacy","0","uniform","0","undefined","0","left","65","65","0","0","65","65","65","0","0","65","65","65","0","65","0","Sun Oct 24 18:24:49 2021","The main experiment item","yes","Sternbergtask.osexp","C:/Users/rayra/Documents","no","mono","no","18","no","white","no","yes","768","legacy","53","11","C:/Users/rayra/Documents/subject-2.csv","legacy","4 6 2 5 1","Lentiform Loewenfeld","3.3.9","5","y","0","right","right","right","right","NA","1849","9239","7944","1849","NA","2","legacy","5","1024","2","48000","-16","experiment","2","even","1","440795","441972","2895","96555","441975","444183","420763","2899","88611","446186","448036","442978","12139","446186","NA","Sternberg task","62","70655","66","yes","1024"
"94.02985074626865","94.02985074626865","1080.6119402985075","1080.6119402985075","black","experiment","legacy","legacy","legacy","0","uniform","1","undefined","1","left","66","66","0","0","66","66","66","0","0","66","66","66","0","66","0","Sun Oct 24 18:24:49 2021","The main experiment item","yes","Sternbergtask.osexp","C:/Users/rayra/Documents","no","mono","no","18","no","white","no","yes","768","legacy","54","11","C:/Users/rayra/Documents/subject-2.csv","legacy","7 4 2 6 3 5","Lentiform Loewenfeld","3.3.9","6","y","0","left","right","right","left","NA","1746","9239","7944","1746","NA","2","legacy","6","1024","2","48000","-16","experiment","2","even","5","440795","449227","2895","96555","449230","451438","448043","2899","88611","453443","455190","450234","12139","453443","NA","Sternberg task","63","72401","67","yes","1024"
"94.11764705882354","94.11764705882354","1090.6029411764705","1090.6029411764705","black","experiment","legacy","legacy","legacy","0","uniform","1","undefined","1","right","67","67","0","0","67","67","67","0","0","67","67","67","0","67","0","Sun Oct 24 18:24:49 2021","The main experiment item","yes","Sternbergtask.osexp","C:/Users/rayra/Documents","no","mono","no","18","no","white","no","yes","768","legacy","55","11","C:/Users/rayra/Documents/subject-2.csv","legacy","7 1 5 6 3","Lentiform Loewenfeld","3.3.9","0","n","0","right","right","right","right","NA","1760","9239","7944","1760","NA","2","legacy","5","1024","2","48000","-16","experiment","2","even","8","455197","456388","2895","96555","456390","458597","448043","2899","88611","460601","462362","457393","12139","460601","NA","Sternberg task","64","74161","68","yes","1024"
"94.20289855072464","94.20289855072464","1091.855072463768","1091.855072463768","black","experiment","legacy","legacy","legacy","0","uniform","1","undefined","1","left","68","68","0","0","68","68","68","0","0","68","68","68","0","68","0","Sun Oct 24 18:24:49 2021","The main experiment item","yes","Sternbergtask.osexp","C:/Users/rayra/Documents","no","mono","no","18","no","white","no","yes","768","legacy","56","11","C:/Users/rayra/Documents/subject-2.csv","legacy","6 1 2","Lentiform Loewenfeld","3.3.9","3","y","0","left","right","right","left","NA","1177","9239","7944","1177","NA","2","legacy","3","1024","2","48000","-16","experiment","2","even","2","462368","463539","2895","96555","463541","465748","448043","2899","88611","467752","468930","464544","12139","467752","NA","Sternberg task","65","75338","69","yes","1024"
"94.28571428571429","94.28571428571429","1096.4571428571428","1096.4571428571428","black","experiment","legacy","legacy","legacy","0","uniform","1","undefined","1","right","69","69","0","0","69","69","69","0","0","69","69","69","0","69","0","Sun Oct 24 18:24:49 2021","The main experiment item","yes","Sternbergtask.osexp","C:/Users/rayra/Documents","no","mono","no","18","no","white","no","yes","768","legacy","57","11","C:/Users/rayra/Documents/subject-2.csv","legacy","3 9 1","Lentiform Loewenfeld","3.3.9","0","n","0","right","right","right","right","NA","1414","9239","7944","1414","NA","2","legacy","3","1024","2","48000","-16","experiment","2","even","7","468936","470133","2895","96555","470136","472344","448043","2899","88611","474348","475762","471140","12139","474348","NA","Sternberg task","66","76752","70","yes","1024"
"94.36619718309859","94.36619718309859","1097.774647887324","1097.774647887324","black","experiment","legacy","legacy","legacy","0","uniform","1","undefined","1","right","70","70","0","0","70","70","70","0","0","70","70","70","0","70","0","Sun Oct 24 18:24:49 2021","The main experiment item","yes","Sternbergtask.osexp","C:/Users/rayra/Documents","no","mono","no","18","no","white","no","yes","768","legacy","58","11","C:/Users/rayra/Documents/subject-2.csv","legacy","6 9 5","Lentiform Loewenfeld","3.3.9","0","n","0","right","right","right","right","NA","1190","9239","7944","1190","NA","2","legacy","3","1024","2","48000","-16","experiment","2","even","8","475769","476937","2895","96555","476940","479148","448043","2899","88611","481152","482343","477944","12139","481152","NA","Sternberg task","67","77942","71","yes","1024"
"94.44444444444444","94.44444444444444","1100.6805555555557","1100.6805555555557","black","experiment","legacy","legacy","legacy","0","uniform","1","undefined","1","left","71","71","0","0","71","71","71","0","0","71","71","71","0","71","0","Sun Oct 24 18:24:49 2021","The main experiment item","yes","Sternbergtask.osexp","C:/Users/rayra/Documents","no","mono","no","18","no","white","no","yes","768","legacy","59","11","C:/Users/rayra/Documents/subject-2.csv","legacy","3 9 7 6 4","Lentiform Loewenfeld","3.3.9","3","y","0","left","right","right","left","NA","1307","9239","7944","1307","NA","2","legacy","5","1024","2","48000","-16","experiment","2","even","7","482364","483551","2895","96555","483553","485761","448043","2899","88611","487765","489073","484556","12139","487765","NA","Sternberg task","68","79249","72","yes","1024"
"93.15068493150685","93.15068493150685","1105.041095890411","1105.041095890411","black","experiment","legacy","legacy","legacy","0","uniform","0","undefined","0","left","72","72","0","0","72","72","72","0","0","72","72","72","0","72","0","Sun Oct 24 18:24:49 2021","The main experiment item","yes","Sternbergtask.osexp","C:/Users/rayra/Documents","no","mono","no","18","no","white","no","yes","768","legacy","60","11","C:/Users/rayra/Documents/subject-2.csv","legacy","2 3","Lentiform Loewenfeld","3.3.9","1","y","0","right","right","right","right","NA","1419","9239","7944","1419","NA","2","legacy","2","1024","2","48000","-16","experiment","2","even","2","489079","490252","2895","96555","490254","492463","448043","2899","88611","494467","495887","491258","12139","494467","NA","Sternberg task","68","80668","73","yes","1024"
"93.24324324324324","93.24324324324324","1099.2837837837837","1099.2837837837837","black","experiment","legacy","legacy","legacy","0","uniform","1","undefined","1","left","73","73","0","0","73","73","73","0","0","73","73","73","0","73","0","Sun Oct 24 18:24:49 2021","The main experiment item","yes","Sternbergtask.osexp","C:/Users/rayra/Documents","no","mono","no","18","no","white","no","yes","768","legacy","61","11","C:/Users/rayra/Documents/subject-2.csv","legacy","3 5 4 7","Lentiform Loewenfeld","3.3.9","1","y","0","left","right","right","left","NA","679","9239","7944","679","NA","2","legacy","4","1024","2","48000","-16","experiment","2","even","3","489079","497077","2895","96555","497079","499286","495893","2899","88611","501291","501972","498083","12139","501291","NA","Sternberg task","69","81347","74","yes","1024"
"93.33333333333333","93.33333333333333","1103.4266666666667","1103.4266666666667","black","experiment","legacy","legacy","legacy","0","uniform","1","undefined","1","right","74","74","0","0","74","74","74","0","0","74","74","74","0","74","0","Sun Oct 24 18:24:49 2021","The main experiment item","yes","Sternbergtask.osexp","C:/Users/rayra/Documents","no","mono","no","18","no","white","no","yes","768","legacy","62","11","C:/Users/rayra/Documents/subject-2.csv","legacy","2 7 5","Lentiform Loewenfeld","3.3.9","0","n","0","right","right","right","right","NA","1410","9239","7944","1410","NA","2","legacy","3","1024","2","48000","-16","experiment","2","even","8","501981","503174","2895","96555","503176","505385","495893","2899","88611","507389","508800","504181","12139","507389","NA","Sternberg task","70","82757","75","yes","1024"
"93.42105263157895","93.42105263157895","1102.328947368421","1102.328947368421","black","experiment","legacy","legacy","legacy","0","uniform","1","undefined","1","right","75","75","0","0","75","75","75","0","0","75","75","75","0","75","0","Sun Oct 24 18:24:49 2021","The main experiment item","yes","Sternbergtask.osexp","C:/Users/rayra/Documents","no","mono","no","18","no","white","no","yes","768","legacy","63","11","C:/Users/rayra/Documents/subject-2.csv","legacy","8 5 7 3 6","Lentiform Loewenfeld","3.3.9","0","n","0","right","right","right","right","NA","1020","9239","7944","1020","NA","2","legacy","5","1024","2","48000","-16","experiment","2","even","9","508806","509983","2895","96555","509985","512193","495893","2899","88611","514197","515218","510989","12139","514197","NA","Sternberg task","71","83777","76","yes","1024"
"93.50649350649351","93.50649350649351","1104.5194805194806","1104.5194805194806","black","experiment","legacy","legacy","legacy","0","uniform","1","undefined","1","left","76","76","0","0","76","76","76","0","0","76","76","76","0","76","0","Sun Oct 24 18:24:49 2021","The main experiment item","yes","Sternbergtask.osexp","C:/Users/rayra/Documents","no","mono","no","18","no","white","no","yes","768","legacy","64","11","C:/Users/rayra/Documents/subject-2.csv","legacy","8 9 6 1","Lentiform Loewenfeld","3.3.9","2","y","0","left","right","right","left","NA","1271","9239","7944","1271","NA","2","legacy","4","1024","2","48000","-16","experiment","2","even","9","515225","516403","2895","96555","516406","518613","495893","2899","88611","520617","521890","517409","12139","520617","NA","Sternberg task","72","85048","77","yes","1024"
"93.58974358974359","93.58974358974359","1096.6666666666667","1096.6666666666667","black","experiment","legacy","legacy","legacy","0","uniform","1","undefined","1","left","77","77","0","0","77","77","77","0","0","77","77","77","0","77","0","Sun Oct 24 18:24:49 2021","The main experiment item","yes","Sternbergtask.osexp","C:/Users/rayra/Documents","no","mono","no","18","no","white","no","yes","768","legacy","65","11","C:/Users/rayra/Documents/subject-2.csv","legacy","4","Lentiform Loewenfeld","3.3.9","1","y","0","left","right","right","left","NA","492","9239","7944","492","NA","2","legacy","1","1024","2","48000","-16","experiment","2","even","4","521895","523087","2895","96555","523089","525297","495893","2899","88611","527301","527794","524093","12139","527301","NA","Sternberg task","73","85540","78","yes","1024"
"93.67088607594937","93.67088607594937","1093.8987341772151","1093.8987341772151","black","experiment","legacy","legacy","legacy","0","uniform","1","undefined","1","right","78","78","0","0","78","78","78","0","0","78","78","78","0","78","0","Sun Oct 24 18:24:49 2021","The main experiment item","yes","Sternbergtask.osexp","C:/Users/rayra/Documents","no","mono","no","18","no","white","no","yes","768","legacy","66","11","C:/Users/rayra/Documents/subject-2.csv","legacy","2 6 4 3 9","Lentiform Loewenfeld","3.3.9","0","n","0","right","right","right","right","NA","878","9239","7944","878","NA","2","legacy","5","1024","2","48000","-16","experiment","2","even","1","527801","529019","2895","96555","529021","531231","495893","2899","88611","533236","534115","530027","12139","533235","NA","Sternberg task","74","86418","79","yes","1024"
"93.75","93.75","1092.6375","1092.6375","black","experiment","legacy","legacy","legacy","0","uniform","1","undefined","1","left","79","79","0","0","79","79","79","0","0","79","79","79","0","79","0","Sun Oct 24 18:24:49 2021","The main experiment item","yes","Sternbergtask.osexp","C:/Users/rayra/Documents","no","mono","no","18","no","white","no","yes","768","legacy","67","11","C:/Users/rayra/Documents/subject-2.csv","legacy","1 4 9 3 2 5","Lentiform Loewenfeld","3.3.9","3","y","0","left","right","right","left","NA","993","9239","7944","993","NA","2","legacy","6","1024","2","48000","-16","experiment","2","even","9","534121","535306","2895","96555","535308","537516","495893","2899","88611","539519","540513","536312","12139","539519","NA","Sternberg task","75","87411","80","yes","1024"
"93.82716049382717","93.82716049382717","1098.679012345679","1098.679012345679","black","experiment","legacy","legacy","legacy","0","uniform","1","undefined","1","right","80","80","0","0","80","80","80","0","0","80","80","80","0","80","0","Sun Oct 24 18:24:49 2021","The main experiment item","yes","Sternbergtask.osexp","C:/Users/rayra/Documents","no","mono","no","18","no","white","no","yes","768","legacy","68","11","C:/Users/rayra/Documents/subject-2.csv","legacy","7 3 2 8","Lentiform Loewenfeld","3.3.9","0","n","0","right","right","right","right","NA","1582","9239","7944","1582","NA","2","legacy","4","1024","2","48000","-16","experiment","2","even","4","540519","541698","2895","96555","541700","543908","495893","2899","88611","545912","547496","542704","12139","545912","NA","Sternberg task","76","88993","81","yes","1024"
"93.90243902439025","93.90243902439025","1097.4146341463415","1097.4146341463415","black","experiment","legacy","legacy","legacy","0","uniform","1","undefined","1","right","81","81","0","0","81","81","81","0","0","81","81","81","0","81","0","Sun Oct 24 18:24:49 2021","The main experiment item","yes","Sternbergtask.osexp","C:/Users/rayra/Documents","no","mono","no","18","no","white","no","yes","768","legacy","69","11","C:/Users/rayra/Documents/subject-2.csv","legacy","1 4 9 2 5","Lentiform Loewenfeld","3.3.9","0","n","0","right","right","right","right","NA","995","9239","7944","995","NA","2","legacy","5","1024","2","48000","-16","experiment","2","even","7","547502","548695","2895","96555","548697","550906","495893","2899","88611","552910","553906","549702","12139","552910","NA","Sternberg task","77","89988","82","yes","1024"
"92.7710843373494","92.7710843373494","1107.987951807229","1107.987951807229","black","experiment","legacy","legacy","legacy","0","uniform","0","undefined","0","right","82","82","0","0","82","82","82","0","0","82","82","82","0","82","0","Sun Oct 24 18:24:49 2021","The main experiment item","yes","Sternbergtask.osexp","C:/Users/rayra/Documents","no","mono","no","18","no","white","no","yes","768","legacy","70","11","C:/Users/rayra/Documents/subject-2.csv","legacy","9 5 3 2 8 6","Lentiform Loewenfeld","3.3.9","0","n","0","left","right","right","left","NA","1975","9239","7944","1975","NA","2","legacy","6","1024","2","48000","-16","experiment","2","even","7","553912","555097","2895","96555","555100","557308","495893","2899","88611","559312","561288","556103","12139","559312","NA","Sternberg task","77","91963","83","yes","1024"
"92.85714285714286","92.85714285714286","1117.2261904761904","1117.2261904761904","black","experiment","legacy","legacy","legacy","0","uniform","1","undefined","1","left","83","83","0","0","83","83","83","0","0","83","83","83","0","83","0","Sun Oct 24 18:24:49 2021","The main experiment item","yes","Sternbergtask.osexp","C:/Users/rayra/Documents","no","mono","no","18","no","white","no","yes","768","legacy","71","11","C:/Users/rayra/Documents/subject-2.csv","legacy","3 5 9 6 2 4","Lentiform Loewenfeld","3.3.9","1","y","0","left","right","right","left","NA","1884","9239","7944","1884","NA","2","legacy","6","1024","2","48000","-16","experiment","2","even","3","553912","562502","2895","96555","562504","564711","561310","2899","88611","566715","568601","563507","12139","566715","NA","Sternberg task","78","93847","84","yes","1024"
"92.94117647058823","92.94117647058823","1116.8","1116.8","black","experiment","legacy","legacy","legacy","0","uniform","1","undefined","1","right","84","84","0","0","84","84","84","0","0","84","84","84","0","84","0","Sun Oct 24 18:24:49 2021","The main experiment item","yes","Sternbergtask.osexp","C:/Users/rayra/Documents","no","mono","no","18","no","white","no","yes","768","legacy","72","11","C:/Users/rayra/Documents/subject-2.csv","legacy","4 2 6 9","Lentiform Loewenfeld","3.3.9","0","n","0","right","right","right","right","NA","1081","9239","7944","1081","NA","2","legacy","4","1024","2","48000","-16","experiment","2","even","7","568607","569772","2895","96555","569774","571982","561310","2899","88611","573986","575068","570778","12139","573986","NA","Sternberg task","79","94928","85","yes","1024"
"93.02325581395348","93.02325581395348","1117.093023255814","1117.093023255814","black","experiment","legacy","legacy","legacy","0","uniform","1","undefined","1","right","85","85","0","0","85","85","85","0","0","85","85","85","0","85","0","Sun Oct 24 18:24:49 2021","The main experiment item","yes","Sternbergtask.osexp","C:/Users/rayra/Documents","no","mono","no","18","no","white","no","yes","768","legacy","73","11","C:/Users/rayra/Documents/subject-2.csv","legacy","6 8","Lentiform Loewenfeld","3.3.9","0","n","0","right","right","right","right","NA","1142","9239","7944","1142","NA","2","legacy","2","1024","2","48000","-16","experiment","2","even","9","575074","576274","2895","96555","576276","578484","561310","2899","88611","580488","581631","577280","12139","580488","NA","Sternberg task","80","96070","86","yes","1024"
"93.10344827586206","93.10344827586206","1119.2183908045977","1119.2183908045977","black","experiment","legacy","legacy","legacy","0","uniform","1","undefined","1","right","86","86","0","0","86","86","86","0","0","86","86","86","0","86","0","Sun Oct 24 18:24:49 2021","The main experiment item","yes","Sternbergtask.osexp","C:/Users/rayra/Documents","no","mono","no","18","no","white","no","yes","768","legacy","74","11","C:/Users/rayra/Documents/subject-2.csv","legacy","2 8 6 3 1","Lentiform Loewenfeld","3.3.9","0","n","0","right","right","right","right","NA","1302","9239","7944","1302","NA","2","legacy","5","1024","2","48000","-16","experiment","2","even","7","581638","582820","2895","96555","582823","585031","561310","2899","88611","587035","588339","583827","12139","587035","NA","Sternberg task","81","97372","87","yes","1024"
"93.18181818181819","93.18181818181819","1124.6136363636363","1124.6136363636363","black","experiment","legacy","legacy","legacy","0","uniform","1","undefined","1","left","87","87","0","0","87","87","87","0","0","87","87","87","0","87","0","Sun Oct 24 18:24:49 2021","The main experiment item","yes","Sternbergtask.osexp","C:/Users/rayra/Documents","no","mono","no","18","no","white","no","yes","768","legacy","75","11","C:/Users/rayra/Documents/subject-2.csv","legacy","2 4 6 9","Lentiform Loewenfeld","3.3.9","3","y","0","left","right","right","left","NA","1594","9239","7944","1594","NA","2","legacy","4","1024","2","48000","-16","experiment","2","even","6","588345","589513","2895","96555","589516","591723","561310","2899","88611","593728","595324","590519","12139","593727","NA","Sternberg task","82","98966","88","yes","1024"
"93.25842696629213","93.25842696629213","1117.7303370786517","1117.7303370786517","black","experiment","legacy","legacy","legacy","0","uniform","1","undefined","1","left","88","88","0","0","88","88","88","0","0","88","88","88","0","88","0","Sun Oct 24 18:24:49 2021","The main experiment item","yes","Sternbergtask.osexp","C:/Users/rayra/Documents","no","mono","no","18","no","white","no","yes","768","legacy","76","11","C:/Users/rayra/Documents/subject-2.csv","legacy","8","Lentiform Loewenfeld","3.3.9","1","y","0","left","right","right","left","NA","512","9239","7944","512","NA","2","legacy","1","1024","2","48000","-16","experiment","2","even","8","595330","596517","2895","96555","596519","598726","561310","2899","88611","600730","601243","597522","12139","600729","NA","Sternberg task","83","99478","89","yes","1024"
"93.33333333333333","93.33333333333333","1112.588888888889","1112.588888888889","black","experiment","legacy","legacy","legacy","0","uniform","1","undefined","1","right","89","89","0","0","89","89","89","0","0","89","89","89","0","89","0","Sun Oct 24 18:24:49 2021","The main experiment item","yes","Sternbergtask.osexp","C:/Users/rayra/Documents","no","mono","no","18","no","white","no","yes","768","legacy","77","11","C:/Users/rayra/Documents/subject-2.csv","legacy","7 9","Lentiform Loewenfeld","3.3.9","0","n","0","right","right","right","right","NA","655","9239","7944","655","NA","2","legacy","2","1024","2","48000","-16","experiment","2","even","1","601265","602444","2895","96555","602446","604655","561310","2899","88611","606660","607316","603451","12139","606660","NA","Sternberg task","84","100133","90","yes","1024"
"93.4065934065934","93.4065934065934","1108.5274725274726","1108.5274725274726","black","experiment","legacy","legacy","legacy","0","uniform","1","undefined","1","right","90","90","0","0","90","90","90","0","0","90","90","90","0","90","0","Sun Oct 24 18:24:49 2021","The main experiment item","yes","Sternbergtask.osexp","C:/Users/rayra/Documents","no","mono","no","18","no","white","no","yes","768","legacy","78","11","C:/Users/rayra/Documents/subject-2.csv","legacy","1 7 5 2","Lentiform Loewenfeld","3.3.9","0","n","0","right","right","right","right","NA","743","9239","7944","743","NA","2","legacy","4","1024","2","48000","-16","experiment","2","even","3","607324","608532","2895","96555","608534","610741","561310","2899","88611","612745","613489","609537","12139","612745","NA","Sternberg task","85","100876","91","yes","1024"
"93.47826086956522","93.47826086956522","1111.4565217391305","1111.4565217391305","black","experiment","legacy","legacy","legacy","0","uniform","1","undefined","1","right","91","91","0","0","91","91","91","0","0","91","91","91","0","91","0","Sun Oct 24 18:24:49 2021","The main experiment item","yes","Sternbergtask.osexp","C:/Users/rayra/Documents","no","mono","no","18","no","white","no","yes","768","legacy","79","11","C:/Users/rayra/Documents/subject-2.csv","legacy","5 3 2 6 9 8","Lentiform Loewenfeld","3.3.9","0","n","0","right","right","right","right","NA","1378","9239","7944","1378","NA","2","legacy","6","1024","2","48000","-16","experiment","2","even","4","613495","614710","2895","96555","614713","616921","561310","2899","88611","618925","620303","615717","12139","618925","NA","Sternberg task","86","102254","92","yes","1024"
"93.54838709677419","93.54838709677419","1111.4301075268818","1111.4301075268818","black","experiment","legacy","legacy","legacy","0","uniform","1","undefined","1","right","92","92","0","0","92","92","92","0","0","92","92","92","0","92","0","Sun Oct 24 18:24:49 2021","The main experiment item","yes","Sternbergtask.osexp","C:/Users/rayra/Documents","no","mono","no","18","no","white","no","yes","768","legacy","80","11","C:/Users/rayra/Documents/subject-2.csv","legacy","3 4 9 6 7 8","Lentiform Loewenfeld","3.3.9","0","n","0","right","right","right","right","NA","1109","9239","7944","1109","NA","2","legacy","6","1024","2","48000","-16","experiment","2","even","2","620309","621501","2895","96555","621503","623711","561310","2899","88611","625715","626825","622507","12139","625715","NA","Sternberg task","87","103363","93","yes","1024"
"93.61702127659575","93.61702127659575","1113.2021276595744","1113.2021276595744","black","experiment","legacy","legacy","legacy","0","uniform","1","undefined","1","left","93","93","0","0","93","93","93","0","0","93","93","93","0","93","0","Sun Oct 24 18:24:49 2021","The main experiment item","yes","Sternbergtask.osexp","C:/Users/rayra/Documents","no","mono","no","18","no","white","no","yes","768","legacy","81","11","C:/Users/rayra/Documents/subject-2.csv","legacy","2 5 4 8 7","Lentiform Loewenfeld","3.3.9","3","y","0","left","right","right","left","NA","1278","9239","7944","1278","NA","2","legacy","5","1024","2","48000","-16","experiment","2","even","4","626847","628033","2895","96555","628035","630242","561310","2899","88611","632246","633525","629038","12139","632246","NA","Sternberg task","88","104641","94","yes","1024"
"93.6842105263158","93.6842105263158","1115.0842105263157","1115.0842105263157","black","experiment","legacy","legacy","legacy","0","uniform","1","undefined","1","left","94","94","0","0","94","94","94","0","0","94","94","94","0","94","0","Sun Oct 24 18:24:49 2021","The main experiment item","yes","Sternbergtask.osexp","C:/Users/rayra/Documents","no","mono","no","18","no","white","no","yes","768","legacy","82","11","C:/Users/rayra/Documents/subject-2.csv","legacy","9 6 2 4 1","Lentiform Loewenfeld","3.3.9","4","y","0","left","right","right","left","NA","1292","9239","7944","1292","NA","2","legacy","5","1024","2","48000","-16","experiment","2","even","4","633531","634716","2895","96555","634718","636926","561310","2899","88611","638930","640223","635722","12139","638930","NA","Sternberg task","89","105933","95","yes","1024"
"93.75","93.75","1116.3333333333333","1116.3333333333333","black","experiment","legacy","legacy","legacy","0","uniform","1","undefined","1","right","95","95","0","0","95","95","95","0","0","95","95","95","0","95","0","Sun Oct 24 18:24:49 2021","The main experiment item","yes","Sternbergtask.osexp","C:/Users/rayra/Documents","no","mono","no","18","no","white","no","yes","768","legacy","83","11","C:/Users/rayra/Documents/subject-2.csv","legacy","1 5 3 2 8","Lentiform Loewenfeld","3.3.9","0","n","0","right","right","right","right","NA","1235","9239","7944","1235","NA","2","legacy","5","1024","2","48000","-16","experiment","2","even","4","640229","641440","2895","96555","641443","643650","561310","2899","88611","645654","646890","642446","12139","645654","NA","Sternberg task","90","107168","96","yes","1024"
"93.81443298969072","93.81443298969072","1115.5567010309278","1115.5567010309278","black","experiment","legacy","legacy","legacy","0","uniform","1","undefined","1","right","96","96","0","0","96","96","96","0","0","96","96","96","0","96","0","Sun Oct 24 18:24:49 2021","The main experiment item","yes","Sternbergtask.osexp","C:/Users/rayra/Documents","no","mono","no","18","no","white","no","yes","768","legacy","84","11","C:/Users/rayra/Documents/subject-2.csv","legacy","7 9 1 6","Lentiform Loewenfeld","3.3.9","0","n","0","right","right","right","right","NA","1041","9239","7944","1041","NA","2","legacy","4","1024","2","48000","-16","experiment","2","even","4","646911","648099","2895","96555","648102","650310","561310","2899","88611","652314","653356","649106","12139","652314","NA","Sternberg task","91","108209","97","yes","1024"
"93.87755102040816","93.87755102040816","1116.2857142857142","1116.2857142857142","black","experiment","legacy","legacy","legacy","0","uniform","1","undefined","1","left","97","97","0","0","97","97","97","0","0","97","97","97","0","97","0","Sun Oct 24 18:24:49 2021","The main experiment item","yes","Sternbergtask.osexp","C:/Users/rayra/Documents","no","mono","no","18","no","white","no","yes","768","legacy","85","11","C:/Users/rayra/Documents/subject-2.csv","legacy","9 4 2","Lentiform Loewenfeld","3.3.9","1","y","0","left","right","right","left","NA","1187","9239","7944","1187","NA","2","legacy","3","1024","2","48000","-16","experiment","2","even","9","653363","654545","2895","96555","654547","656753","561310","2899","88611","658757","659945","655550","12139","658757","NA","Sternberg task","92","109396","98","yes","1024"
"93.93939393939394","93.93939393939394","1111.8383838383838","1111.8383838383838","black","experiment","legacy","legacy","legacy","0","uniform","1","undefined","1","right","98","98","0","0","98","98","98","0","0","98","98","98","0","98","0","Sun Oct 24 18:24:49 2021","The main experiment item","yes","Sternbergtask.osexp","C:/Users/rayra/Documents","no","mono","no","18","no","white","no","yes","768","legacy","86","11","C:/Users/rayra/Documents/subject-2.csv","legacy","8 9","Lentiform Loewenfeld","3.3.9","0","n","0","right","right","right","right","NA","676","9239","7944","676","NA","2","legacy","2","1024","2","48000","-16","experiment","2","even","5","659951","661132","2895","96555","661134","663342","561310","2899","88611","665346","666024","662138","12139","665346","NA","Sternberg task","93","110072","99","yes","1024"
"94","94","1114.6","1114.6","black","experiment","legacy","legacy","legacy","0","uniform","1","undefined","1","right","99","99","0","0","99","99","99","0","0","99","99","99","0","99","0","Sun Oct 24 18:24:49 2021","The main experiment item","yes","Sternbergtask.osexp","C:/Users/rayra/Documents","no","mono","no","18","no","white","no","yes","768","legacy","87","11","C:/Users/rayra/Documents/subject-2.csv","legacy","1 4 9 3","Lentiform Loewenfeld","3.3.9","0","n","0","right","right","right","right","NA","1388","9239","7944","1388","NA","2","legacy","4","1024","2","48000","-16","experiment","2","even","5","666045","667245","2895","96555","667248","669456","561310","2899","88611","671460","672849","668252","12139","671460","NA","Sternberg task","94","111460","100","yes","1024"
"94.05940594059406","94.05940594059406","1118.3663366336634","1118.3663366336634","black","experiment","legacy","legacy","legacy","0","uniform","1","undefined","1","right","100","100","0","0","100","100","100","0","0","100","100","100","0","100","0","Sun Oct 24 18:24:49 2021","The main experiment item","yes","Sternbergtask.osexp","C:/Users/rayra/Documents","no","mono","no","18","no","white","no","yes","768","legacy","88","11","C:/Users/rayra/Documents/subject-2.csv","legacy","5 9 2 3","Lentiform Loewenfeld","3.3.9","0","n","0","right","right","right","right","NA","1495","9239","7944","1495","NA","2","legacy","4","1024","2","48000","-16","experiment","2","even","8","672853","674022","2895","96555","674024","676231","561310","2899","88611","678235","679731","675027","12139","678235","NA","Sternberg task","95","112955","101","yes","1024"
"94.11764705882354","94.11764705882354","1115.137254901961","1115.137254901961","black","experiment","legacy","legacy","legacy","0","uniform","1","undefined","1","left","101","101","0","0","101","101","101","0","0","101","101","101","0","101","0","Sun Oct 24 18:24:49 2021","The main experiment item","yes","Sternbergtask.osexp","C:/Users/rayra/Documents","no","mono","no","18","no","white","no","yes","768","legacy","89","11","C:/Users/rayra/Documents/subject-2.csv","legacy","3 4 9 6 2 9","Lentiform Loewenfeld","3.3.9","5","y","0","left","right","right","left","NA","789","9239","7944","789","NA","2","legacy","6","1024","2","48000","-16","experiment","2","even","2","679737","680918","2895","96555","680919","683129","561310","2899","88611","685133","685924","681923","12139","685132","NA","Sternberg task","96","113744","102","yes","1024"
"94.1747572815534","94.1747572815534","1114.368932038835","1114.368932038835","black","experiment","legacy","legacy","legacy","0","uniform","1","undefined","1","right","102","102","0","0","102","102","102","0","0","102","102","102","0","102","0","Sun Oct 24 18:24:49 2021","The main experiment item","yes","Sternbergtask.osexp","C:/Users/rayra/Documents","no","mono","no","18","no","white","no","yes","768","legacy","90","11","C:/Users/rayra/Documents/subject-2.csv","legacy","4 2 7 6 1 3","Lentiform Loewenfeld","3.3.9","0","n","0","right","right","right","right","NA","1036","9239","7944","1036","NA","2","legacy","6","1024","2","48000","-16","experiment","2","even","8","685929","687124","2895","96555","687126","689334","561310","2899","88611","691338","692376","688130","12139","691338","NA","Sternberg task","97","114780","103","yes","1024"
"94.23076923076923","94.23076923076923","1111.3076923076924","1111.3076923076924","black","experiment","legacy","legacy","legacy","0","uniform","1","undefined","1","left","103","103","0","0","103","103","103","0","0","103","103","103","0","103","0","Sun Oct 24 18:24:49 2021","The main experiment item","yes","Sternbergtask.osexp","C:/Users/rayra/Documents","no","mono","no","18","no","white","no","yes","768","legacy","91","11","C:/Users/rayra/Documents/subject-2.csv","legacy","6 2","Lentiform Loewenfeld","3.3.9","1","y","0","left","right","right","left","NA","796","9239","7944","796","NA","2","legacy","2","1024","2","48000","-16","experiment","2","even","6","692380","693554","2895","96555","693556","695764","561310","2899","88611","697767","698565","694560","12139","697767","NA","Sternberg task","98","115576","104","yes","1024"
"94.28571428571429","94.28571428571429","1106.9238095238095","1106.9238095238095","black","experiment","legacy","legacy","legacy","0","uniform","1","undefined","1","right","104","104","0","0","104","104","104","0","0","104","104","104","0","104","0","Sun Oct 24 18:24:49 2021","The main experiment item","yes","Sternbergtask.osexp","C:/Users/rayra/Documents","no","mono","no","18","no","white","no","yes","768","legacy","92","11","C:/Users/rayra/Documents/subject-2.csv","legacy","8 4 3 9","Lentiform Loewenfeld","3.3.9","0","n","0","right","right","right","right","NA","651","9239","7944","651","NA","2","legacy","4","1024","2","48000","-16","experiment","2","even","5","698571","699740","2895","96555","699742","701950","561310","2899","88611","703954","704606","700746","12139","703954","NA","Sternberg task","99","116227","105","yes","1024"
"94.33962264150944","94.33962264150944","1104.1415094339623","1104.1415094339623","black","experiment","legacy","legacy","legacy","0","uniform","1","undefined","1","left","105","105","0","0","105","105","105","0","0","105","105","105","0","105","0","Sun Oct 24 18:24:49 2021","The main experiment item","yes","Sternbergtask.osexp","C:/Users/rayra/Documents","no","mono","no","18","no","white","no","yes","768","legacy","93","11","C:/Users/rayra/Documents/subject-2.csv","legacy","5 2 6","Lentiform Loewenfeld","3.3.9","2","y","0","left","right","right","left","NA","812","9239","7944","812","NA","2","legacy","3","1024","2","48000","-16","experiment","2","even","2","704613","705814","2895","96555","705817","708025","561310","2899","88611","710029","710842","706821","12139","710029","NA","Sternberg task","100","117039","106","yes","1024"
"94.39252336448598","94.39252336448598","1105.6728971962616","1105.6728971962616","black","experiment","legacy","legacy","legacy","0","uniform","1","undefined","1","left","106","106","0","0","106","106","106","0","0","106","106","106","0","106","0","Sun Oct 24 18:24:49 2021","The main experiment item","yes","Sternbergtask.osexp","C:/Users/rayra/Documents","no","mono","no","18","no","white","no","yes","768","legacy","94","11","C:/Users/rayra/Documents/subject-2.csv","legacy","6 7 9 3 1 2","Lentiform Loewenfeld","3.3.9","1","y","0","left","right","right","left","NA","1268","9239","7944","1268","NA","2","legacy","6","1024","2","48000","-16","experiment","2","even","6","710864","712037","2895","96555","712038","714246","561310","2899","88611","716250","717519","713042","12139","716250","NA","Sternberg task","101","118307","107","yes","1024"
"94.44444444444444","94.44444444444444","1109.7777777777778","1109.7777777777778","black","experiment","legacy","legacy","legacy","0","uniform","1","undefined","1","left","107","107","0","0","107","107","107","0","0","107","107","107","0","107","0","Sun Oct 24 18:24:49 2021","The main experiment item","yes","Sternbergtask.osexp","C:/Users/rayra/Documents","no","mono","no","18","no","white","no","yes","768","legacy","95","11","C:/Users/rayra/Documents/subject-2.csv","legacy","8 5 3 7 4 6","Lentiform Loewenfeld","3.3.9","6","y","0","left","right","right","left","NA","1549","9239","7944","1549","NA","2","legacy","6","1024","2","48000","-16","experiment","2","even","6","717540","718718","2895","96555","718720","720929","561310","2899","88611","722933","724484","719724","12139","722933","NA","Sternberg task","102","119856","108","yes","1024"
"94.4954128440367","94.4954128440367","1106.1100917431193","1106.1100917431193","black","experiment","legacy","legacy","legacy","0","uniform","1","undefined","1","right","108","108","0","0","108","108","108","0","0","108","108","108","0","108","0","Sun Oct 24 18:24:49 2021","The main experiment item","yes","Sternbergtask.osexp","C:/Users/rayra/Documents","no","mono","no","18","no","white","no","yes","768","legacy","96","11","C:/Users/rayra/Documents/subject-2.csv","legacy","5 2","Lentiform Loewenfeld","3.3.9","0","n","0","right","right","right","right","NA","710","9239","7944","710","NA","2","legacy","2","1024","2","48000","-16","experiment","2","even","7","724489","725678","2895","96555","725681","727888","561310","2899","88611","729892","730603","726684","12139","729892","NA","Sternberg task","103","120566","109","yes","1024"
"94.54545454545455","94.54545454545455","1102.9272727272728","1102.9272727272728","black","experiment","legacy","legacy","legacy","0","uniform","1","undefined","1","right","109","109","0","0","109","109","109","0","0","109","109","109","0","109","0","Sun Oct 24 18:24:49 2021","The main experiment item","yes","Sternbergtask.osexp","C:/Users/rayra/Documents","no","mono","no","18","no","white","no","yes","768","legacy","97","11","C:/Users/rayra/Documents/subject-2.csv","legacy","1 8 7","Lentiform Loewenfeld","3.3.9","0","n","0","right","right","right","right","NA","756","9239","7944","756","NA","2","legacy","3","1024","2","48000","-16","experiment","2","even","4","730610","731798","2895","96555","731801","734008","561310","2899","88611","736012","736769","732805","12139","736012","NA","Sternberg task","104","121322","110","yes","1024"
"94.5945945945946","94.5945945945946","1110.036036036036","1110.036036036036","black","experiment","legacy","legacy","legacy","0","uniform","1","undefined","1","right","110","110","0","0","110","110","110","0","0","110","110","110","0","110","0","Sun Oct 24 18:24:49 2021","The main experiment item","yes","Sternbergtask.osexp","C:/Users/rayra/Documents","no","mono","no","18","no","white","no","yes","768","legacy","98","11","C:/Users/rayra/Documents/subject-2.csv","legacy","6 3 1 7 9 8","Lentiform Loewenfeld","3.3.9","0","n","0","right","right","right","right","NA","1892","9239","7944","1892","NA","2","legacy","6","1024","2","48000","-16","experiment","2","even","4","736776","737959","2895","96555","737962","740169","561310","2899","88611","742174","744067","738966","12139","742174","NA","Sternberg task","105","123214","111","yes","1024"
"94.64285714285714","94.64285714285714","1104.1785714285713","1104.1785714285713","black","experiment","legacy","legacy","legacy","0","uniform","1","undefined","1","left","111","111","0","0","111","111","111","0","0","111","111","111","0","111","0","Sun Oct 24 18:24:49 2021","The main experiment item","yes","Sternbergtask.osexp","C:/Users/rayra/Documents","no","mono","no","18","no","white","no","yes","768","legacy","99","11","C:/Users/rayra/Documents/subject-2.csv","legacy","7","Lentiform Loewenfeld","3.3.9","1","y","0","left","right","right","left","NA","454","9239","7944","454","NA","2","legacy","1","1024","2","48000","-16","experiment","2","even","7","744073","745258","2895","96555","745261","747468","561310","2899","88611","749472","749927","746264","12139","749472","NA","Sternberg task","106","123668","112","yes","1024"
"94.69026548672566","94.69026548672566","1108.504424778761","1108.504424778761","black","experiment","legacy","legacy","legacy","0","uniform","1","undefined","1","right","112","112","0","0","112","112","112","0","0","112","112","112","0","112","0","Sun Oct 24 18:24:49 2021","The main experiment item","yes","Sternbergtask.osexp","C:/Users/rayra/Documents","no","mono","no","18","no","white","no","yes","768","legacy","100","11","C:/Users/rayra/Documents/subject-2.csv","legacy","5 3 8 7 2 4","Lentiform Loewenfeld","3.3.9","0","n","0","right","right","right","right","NA","1593","9239","7944","1593","NA","2","legacy","6","1024","2","48000","-16","experiment","2","even","9","749933","751126","2895","96555","751128","753335","561310","2899","88611","755341","756935","752132","12139","755341","NA","Sternberg task","107","125261","113","yes","1024"
"94.73684210526316","94.73684210526316","1111.719298245614","1111.719298245614","black","experiment","legacy","legacy","legacy","0","uniform","1","undefined","1","left","113","113","0","0","113","113","113","0","0","113","113","113","0","113","0","Sun Oct 24 18:24:49 2021","The main experiment item","yes","Sternbergtask.osexp","C:/Users/rayra/Documents","no","mono","no","18","no","white","no","yes","768","legacy","101","11","C:/Users/rayra/Documents/subject-2.csv","legacy","4 3 2 5 8","Lentiform Loewenfeld","3.3.9","2","y","0","left","right","right","left","NA","1475","9239","7944","1475","NA","2","legacy","5","1024","2","48000","-16","experiment","2","even","3","756941","758110","2895","96555","758112","760319","561310","2899","88611","762323","763799","759115","12139","762323","NA","Sternberg task","108","126736","114","yes","1024"
"94.78260869565217","94.78260869565217","1110.1652173913044","1110.1652173913044","black","experiment","legacy","legacy","legacy","0","uniform","1","undefined","1","left","114","114","0","0","114","114","114","0","0","114","114","114","0","114","0","Sun Oct 24 18:24:49 2021","The main experiment item","yes","Sternbergtask.osexp","C:/Users/rayra/Documents","no","mono","no","18","no","white","no","yes","768","legacy","102","11","C:/Users/rayra/Documents/subject-2.csv","legacy","9 3 8 2 1 4","Lentiform Loewenfeld","3.3.9","3","y","0","left","right","right","left","NA","933","9239","7944","933","NA","2","legacy","6","1024","2","48000","-16","experiment","2","even","8","763805","764980","2895","96555","764983","767191","561310","2899","88611","769195","770130","765987","12139","769195","NA","Sternberg task","109","127669","115","yes","1024"
"94.82758620689656","94.82758620689656","1106.9568965517242","1106.9568965517242","black","experiment","legacy","legacy","legacy","0","uniform","1","undefined","1","left","115","115","0","0","115","115","115","0","0","115","115","115","0","115","0","Sun Oct 24 18:24:49 2021","The main experiment item","yes","Sternbergtask.osexp","C:/Users/rayra/Documents","no","mono","no","18","no","white","no","yes","768","legacy","103","11","C:/Users/rayra/Documents/subject-2.csv","legacy","8 9 5 6 7","Lentiform Loewenfeld","3.3.9","1","y","0","left","right","right","left","NA","738","9239","7944","738","NA","2","legacy","5","1024","2","48000","-16","experiment","2","even","8","770136","771331","2895","96555","771334","773542","561310","2899","88611","775548","776288","772338","12139","775547","NA","Sternberg task","110","128407","116","yes","1024"
"94.87179487179488","94.87179487179488","1108.4444444444443","1108.4444444444443","black","experiment","legacy","legacy","legacy","0","uniform","1","undefined","1","left","116","116","0","0","116","116","116","0","0","116","116","116","0","116","0","Sun Oct 24 18:24:49 2021","The main experiment item","yes","Sternbergtask.osexp","C:/Users/rayra/Documents","no","mono","no","18","no","white","no","yes","768","legacy","104","11","C:/Users/rayra/Documents/subject-2.csv","legacy","6 5","Lentiform Loewenfeld","3.3.9","2","y","0","left","right","right","left","NA","1281","9239","7944","1281","NA","2","legacy","2","1024","2","48000","-16","experiment","2","even","5","776309","777487","2895","96555","777491","779700","561310","2899","88611","781704","782987","778495","12139","781704","NA","Sternberg task","111","129688","117","yes","1024"
"94.91525423728814","94.91525423728814","1109.8559322033898","1109.8559322033898","black","experiment","legacy","legacy","legacy","0","uniform","1","undefined","1","left","117","117","0","0","117","117","117","0","0","117","117","117","0","117","0","Sun Oct 24 18:24:49 2021","The main experiment item","yes","Sternbergtask.osexp","C:/Users/rayra/Documents","no","mono","no","18","no","white","no","yes","768","legacy","105","11","C:/Users/rayra/Documents/subject-2.csv","legacy","2 8 5 1","Lentiform Loewenfeld","3.3.9","4","y","0","left","right","right","left","NA","1275","9239","7944","1275","NA","2","legacy","4","1024","2","48000","-16","experiment","2","even","1","783008","784197","2895","96555","784200","786407","561310","2899","88611","788411","789688","785203","12139","788411","NA","Sternberg task","112","130963","118","yes","1024"
"94.95798319327731","94.95798319327731","1109.3445378151262","1109.3445378151262","black","experiment","legacy","legacy","legacy","0","uniform","1","undefined","1","right","118","118","0","0","118","118","118","0","0","118","118","118","0","118","0","Sun Oct 24 18:24:49 2021","The main experiment item","yes","Sternbergtask.osexp","C:/Users/rayra/Documents","no","mono","no","18","no","white","no","yes","768","legacy","106","11","C:/Users/rayra/Documents/subject-2.csv","legacy","2 3 8 5 6 7","Lentiform Loewenfeld","3.3.9","0","n","0","right","right","right","right","NA","1049","9239","7944","1049","NA","2","legacy","6","1024","2","48000","-16","experiment","2","even","1","789694","790882","2895","96555","790885","793094","561310","2899","88611","795098","796149","791889","12139","795098","NA","Sternberg task","113","132012","119","yes","1024"
"95","95","1109.7666666666667","1109.7666666666667","black","experiment","legacy","legacy","legacy","0","uniform","1","undefined","1","left","119","119","0","0","119","119","119","0","0","119","119","119","0","119","0","Sun Oct 24 18:24:49 2021","The main experiment item","yes","Sternbergtask.osexp","C:/Users/rayra/Documents","no","mono","no","18","no","white","no","yes","768","legacy","107","11","C:/Users/rayra/Documents/subject-2.csv","legacy","7 8 6 3 1","Lentiform Loewenfeld","3.3.9","5","y","0","left","right","right","left","NA","1160","9239","7944","1160","NA","2","legacy","5","1024","2","48000","-16","experiment","2","even","1","796155","797324","2895","96555","797326","799535","561310","2899","88611","801540","802702","798331","12139","801539","NA","Sternberg task","114","133172","120","yes","1024"
