"acc","accuracy","average_response_time","avg_rt","background","block","canvas_backend","clock_backend","color_backend","compensation","coordinates","correct","correct_instruction1","correct_keyboard_response","correct_response","count_correctFeedback","count_expSequence","count_experiment","count_experimentLoop","count_fixation","count_incorrectFeedback","count_instruction1","count_instructions2","count_isi","count_keyboard_response","count_logger","count_memorySet","count_practiceloop","count_prob","count_thankYou","datetime","description","disable_garbage_collection","experiment_file","experiment_path","font_bold","font_family","font_italic","font_size","font_underline","foreground","form_clicks","fullscreen","height","keyboard_backend","live_row","live_row_practiceloop","logfile","mouse_backend","numberSet","opensesame_codename","opensesame_version","posInSet","present","repeat_cycle","response","response_instruction1","response_instructions2","response_keyboard_response","response_thankYou","response_time","response_time_instruction1","response_time_instructions2","response_time_keyboard_response","response_time_thankYou","round_decimals","sampler_backend","setSize","sound_buf_size","sound_channels","sound_freq","sound_sample_size","start","subject_nr","subject_parity","target","time_correctFeedback","time_expSequence","time_experiment","time_experimentLoop","time_fixation","time_incorrectFeedback","time_instruction1","time_instructions2","time_isi","time_keyboard_response","time_logger","time_memorySet","time_practiceloop","time_prob","time_thankYou","title","total_correct","total_response_time","total_responses","uniform_coordinates","width"
"100","100","729","729","black","practice","legacy","legacy","legacy","0","uniform","1","undefined","1","left","0","0","0","0","0","0","0","0","0","0","0","0","0","0","0","10/22/20 21:58:44","The main experiment item","yes","SternbergTask.osexp","C:\Users\18177\OneDrive\Documents\School\Grad School\Fall 2020\Lab 3 Sternberg Memory","no","mono","no","18","no","white","no","yes","768","legacy","0","0","C:/Users/18177/OneDrive/Documents/School/Grad School/Fall 2020/Lab 3 Sternberg Memory/subject-4.csv","legacy","1 7 9 8 5","Lentiform Loewenfeld","3.3.3","4","y","0","left","right","NA","left","NA","729","7984","NA","729","NA","2","legacy","5","1024","2","48000","-16","experiment","4","even","8","NA","12737","4190","NA","12740","NA","4197","NA","14945","16946","17676","13741","12182","16946","NA","Sternberg Task","1","729","1","yes","1024"
"50","50","1364.5","1364.5","black","practice","legacy","legacy","legacy","0","uniform","0","undefined","0","left","1","1","0","0","1","1","0","0","1","1","1","1","0","1","0","10/22/20 21:58:44","The main experiment item","yes","SternbergTask.osexp","C:\Users\18177\OneDrive\Documents\School\Grad School\Fall 2020\Lab 3 Sternberg Memory","no","mono","no","18","no","white","no","yes","768","legacy","1","1","C:/Users/18177/OneDrive/Documents/School/Grad School/Fall 2020/Lab 3 Sternberg Memory/subject-4.csv","legacy","6","Lentiform Loewenfeld","3.3.3","1","y","0","None","right","NA","None","NA","2000","7984","NA","2000","NA","2","legacy","1","1024","2","48000","-16","experiment","4","even","6","17719","18776","4190","NA","18778","NA","4197","NA","20982","22984","24984","19779","12182","22983","NA","Sternberg Task","1","2729","2","yes","1024"
"66.6666666667","66.6666666667","1270","1270","black","practice","legacy","legacy","legacy","0","uniform","1","undefined","1","left","2","2","0","0","2","2","0","0","2","2","2","2","0","2","0","10/22/20 21:58:44","The main experiment item","yes","SternbergTask.osexp","C:\Users\18177\OneDrive\Documents\School\Grad School\Fall 2020\Lab 3 Sternberg Memory","no","mono","no","18","no","white","no","yes","768","legacy","2","2","C:/Users/18177/OneDrive/Documents/School/Grad School/Fall 2020/Lab 3 Sternberg Memory/subject-4.csv","legacy","4 8","Lentiform Loewenfeld","3.3.3","1","y","0","left","right","NA","left","NA","1081","7984","NA","1081","NA","2","legacy","2","1024","2","48000","-16","experiment","4","even","4","17719","26068","4190","NA","26070","24998","4197","NA","28275","30276","31358","27071","12182","30276","NA","Sternberg Task","2","3810","3","yes","1024"
"75","75","1186.5","1186.5","black","practice","legacy","legacy","legacy","0","uniform","1","undefined","1","right","3","3","0","0","3","3","0","0","3","3","3","3","0","3","0","10/22/20 21:58:44","The main experiment item","yes","SternbergTask.osexp","C:\Users\18177\OneDrive\Documents\School\Grad School\Fall 2020\Lab 3 Sternberg Memory","no","mono","no","18","no","white","no","yes","768","legacy","3","3","C:/Users/18177/OneDrive/Documents/School/Grad School/Fall 2020/Lab 3 Sternberg Memory/subject-4.csv","legacy","5 7 8 4 1 2","Lentiform Loewenfeld","3.3.3","0","n","0","right","right","NA","right","NA","936","7984","NA","936","NA","2","legacy","6","1024","2","48000","-16","experiment","4","even","6","31369","32427","4190","NA","32428","24998","4197","NA","34635","36637","37574","33430","12182","36637","NA","Sternberg Task","3","4746","4","yes","1024"
"60","60","1171","1171","black","practice","legacy","legacy","legacy","0","uniform","0","undefined","0","right","4","4","0","0","4","4","0","0","4","4","4","4","0","4","0","10/22/20 21:58:44","The main experiment item","yes","SternbergTask.osexp","C:\Users\18177\OneDrive\Documents\School\Grad School\Fall 2020\Lab 3 Sternberg Memory","no","mono","no","18","no","white","no","yes","768","legacy","4","4","C:/Users/18177/OneDrive/Documents/School/Grad School/Fall 2020/Lab 3 Sternberg Memory/subject-4.csv","legacy","4 1 5","Lentiform Loewenfeld","3.3.3","0","n","0","left","right","NA","left","NA","1109","7984","NA","1109","NA","2","legacy","3","1024","2","48000","-16","experiment","4","even","2","37586","38641","4190","NA","38643","24998","4197","NA","40845","42849","43959","39644","12182","42848","NA","Sternberg Task","3","5855","5","yes","1024"
"50","50","1139.5","1139.5","black","practice","legacy","legacy","legacy","0","uniform","0","undefined","0","right","5","5","0","0","5","5","0","0","5","5","5","5","0","5","0","10/22/20 21:58:44","The main experiment item","yes","SternbergTask.osexp","C:\Users\18177\OneDrive\Documents\School\Grad School\Fall 2020\Lab 3 Sternberg Memory","no","mono","no","18","no","white","no","yes","768","legacy","5","5","C:/Users/18177/OneDrive/Documents/School/Grad School/Fall 2020/Lab 3 Sternberg Memory/subject-4.csv","legacy","2 1","Lentiform Loewenfeld","3.3.3","0","n","0","left","right","NA","left","NA","982","7984","NA","982","NA","2","legacy","2","1024","2","48000","-16","experiment","4","even","5","37586","45026","4190","NA","45027","43972","4197","NA","47233","49235","50218","46029","12182","49235","NA","Sternberg Task","3","6837","6","yes","1024"
"57.1428571429","57.1428571429","1131.14285714","1131.14285714","black","practice","legacy","legacy","legacy","0","uniform","1","undefined","1","left","6","6","0","0","6","6","0","0","6","6","6","6","0","6","0","10/22/20 21:58:44","The main experiment item","yes","SternbergTask.osexp","C:\Users\18177\OneDrive\Documents\School\Grad School\Fall 2020\Lab 3 Sternberg Memory","no","mono","no","18","no","white","no","yes","768","legacy","6","6","C:/Users/18177/OneDrive/Documents/School/Grad School/Fall 2020/Lab 3 Sternberg Memory/subject-4.csv","legacy","4 3 1 7 9 8","Lentiform Loewenfeld","3.3.3","1","y","0","left","right","NA","left","NA","1081","7984","NA","1081","NA","2","legacy","6","1024","2","48000","-16","experiment","4","even","4","37586","51285","4190","NA","51286","50229","4197","NA","53494","55495","56576","52290","12182","55495","NA","Sternberg Task","4","7918","7","yes","1024"
"50","50","1239.75","1239.75","black","practice","legacy","legacy","legacy","0","uniform","0","undefined","0","left","7","7","0","0","7","7","0","0","7","7","7","7","0","7","0","10/22/20 21:58:44","The main experiment item","yes","SternbergTask.osexp","C:\Users\18177\OneDrive\Documents\School\Grad School\Fall 2020\Lab 3 Sternberg Memory","no","mono","no","18","no","white","no","yes","768","legacy","7","7","C:/Users/18177/OneDrive/Documents/School/Grad School/Fall 2020/Lab 3 Sternberg Memory/subject-4.csv","legacy","1 5 2 9","Lentiform Loewenfeld","3.3.3","2","y","0","None","right","NA","None","NA","2000","7984","NA","2000","NA","2","legacy","4","1024","2","48000","-16","experiment","4","even","5","56589","57644","4190","NA","57646","50229","4197","NA","59849","61850","63850","58647","12182","61850","NA","Sternberg Task","4","9918","8","yes","1024"
"55.5555555556","55.5555555556","1217.77777778","1217.77777778","black","practice","legacy","legacy","legacy","0","uniform","1","undefined","1","right","8","8","0","0","8","8","0","0","8","8","8","8","0","8","0","10/22/20 21:58:44","The main experiment item","yes","SternbergTask.osexp","C:\Users\18177\OneDrive\Documents\School\Grad School\Fall 2020\Lab 3 Sternberg Memory","no","mono","no","18","no","white","no","yes","768","legacy","8","8","C:/Users/18177/OneDrive/Documents/School/Grad School/Fall 2020/Lab 3 Sternberg Memory/subject-4.csv","legacy","5","Lentiform Loewenfeld","3.3.3","0","n","0","right","right","NA","right","NA","1042","7984","NA","1042","NA","2","legacy","1","1024","2","48000","-16","experiment","4","even","3","56589","64915","4190","NA","64917","63862","4197","NA","67119","69120","70163","65918","12182","69120","NA","Sternberg Task","5","10960","9","yes","1024"
"60","60","1184.3","1184.3","black","practice","legacy","legacy","legacy","0","uniform","1","undefined","1","right","9","9","0","0","9","9","0","0","9","9","9","9","0","9","0","10/22/20 21:58:44","The main experiment item","yes","SternbergTask.osexp","C:\Users\18177\OneDrive\Documents\School\Grad School\Fall 2020\Lab 3 Sternberg Memory","no","mono","no","18","no","white","no","yes","768","legacy","9","9","C:/Users/18177/OneDrive/Documents/School/Grad School/Fall 2020/Lab 3 Sternberg Memory/subject-4.csv","legacy","9 6 7 4 5","Lentiform Loewenfeld","3.3.3","0","n","0","right","right","NA","right","NA","883","7984","NA","883","NA","2","legacy","5","1024","2","48000","-16","experiment","4","even","3","70175","71229","4190","NA","71231","63862","4197","NA","73434","75435","76319","72232","12182","75435","NA","Sternberg Task","6","11843","10","yes","1024"
"63.6363636364","63.6363636364","1144.09090909","1144.09090909","black","practice","legacy","legacy","legacy","0","uniform","1","undefined","1","right","10","10","0","0","10","10","0","0","10","10","10","10","0","10","0","10/22/20 21:58:44","The main experiment item","yes","SternbergTask.osexp","C:\Users\18177\OneDrive\Documents\School\Grad School\Fall 2020\Lab 3 Sternberg Memory","no","mono","no","18","no","white","no","yes","768","legacy","10","10","C:/Users/18177/OneDrive/Documents/School/Grad School/Fall 2020/Lab 3 Sternberg Memory/subject-4.csv","legacy","3 1 9 4","Lentiform Loewenfeld","3.3.3","0","n","0","right","right","NA","right","NA","742","7984","NA","742","NA","2","legacy","4","1024","2","48000","-16","experiment","4","even","6","76333","77412","4190","NA","77413","63862","4197","NA","79615","81617","82360","78414","12182","81617","NA","Sternberg Task","7","12585","11","yes","1024"
"66.6666666667","66.6666666667","1138","1138","black","practice","legacy","legacy","legacy","0","uniform","1","undefined","1","left","11","11","0","0","11","11","0","0","11","11","11","11","0","11","0","10/22/20 21:58:44","The main experiment item","yes","SternbergTask.osexp","C:\Users\18177\OneDrive\Documents\School\Grad School\Fall 2020\Lab 3 Sternberg Memory","no","mono","no","18","no","white","no","yes","768","legacy","11","11","C:/Users/18177/OneDrive/Documents/School/Grad School/Fall 2020/Lab 3 Sternberg Memory/subject-4.csv","legacy","2 9 4","Lentiform Loewenfeld","3.3.3","3","y","0","left","right","NA","left","NA","1071","7984","NA","1071","NA","2","legacy","3","1024","2","48000","-16","experiment","4","even","4","82370","83425","4190","NA","83427","63862","4197","NA","85632","87633","88705","84428","12182","87633","NA","Sternberg Task","8","13656","12","yes","1024"
"69.2307692308","69.2307692308","1112","1112","black","experiment","legacy","legacy","legacy","0","uniform","1","undefined","1","right","12","12","0","0","12","12","0","0","12","12","12","12","0","12","0","10/22/20 21:58:44","The main experiment item","yes","SternbergTask.osexp","C:\Users\18177\OneDrive\Documents\School\Grad School\Fall 2020\Lab 3 Sternberg Memory","no","mono","no","18","no","white","no","yes","768","legacy","0","11","C:/Users/18177/OneDrive/Documents/School/Grad School/Fall 2020/Lab 3 Sternberg Memory/subject-4.csv","legacy","1 7 5 2","Lentiform Loewenfeld","3.3.3","0","n","0","right","right","right","right","NA","800","7984","18285","800","NA","2","legacy","4","1024","2","48000","-16","experiment","4","even","3","88718","108089","4190","108016","108090","63862","4197","89730","110292","112294","113095","109091","12182","112293","NA","Sternberg Task","9","14456","13","yes","1024"
"71.4285714286","71.4285714286","1090.92857143","1090.92857143","black","experiment","legacy","legacy","legacy","0","uniform","1","undefined","1","right","13","13","0","0","13","13","0","0","13","13","13","13","0","13","0","10/22/20 21:58:44","The main experiment item","yes","SternbergTask.osexp","C:\Users\18177\OneDrive\Documents\School\Grad School\Fall 2020\Lab 3 Sternberg Memory","no","mono","no","18","no","white","no","yes","768","legacy","1","11","C:/Users/18177/OneDrive/Documents/School/Grad School/Fall 2020/Lab 3 Sternberg Memory/subject-4.csv","legacy","6 7 5 9","Lentiform Loewenfeld","3.3.3","0","n","0","right","right","right","right","NA","817","7984","18285","817","NA","2","legacy","4","1024","2","48000","-16","experiment","4","even","2","113108","114163","4190","108016","114165","63862","4197","89730","116370","118371","119189","115166","12182","118371","NA","Sternberg Task","10","15273","14","yes","1024"
"73.3333333333","73.3333333333","1081.6","1081.6","black","experiment","legacy","legacy","legacy","0","uniform","1","undefined","1","left","14","14","0","0","14","14","0","0","14","14","14","14","0","14","0","10/22/20 21:58:44","The main experiment item","yes","SternbergTask.osexp","C:\Users\18177\OneDrive\Documents\School\Grad School\Fall 2020\Lab 3 Sternberg Memory","no","mono","no","18","no","white","no","yes","768","legacy","2","11","C:/Users/18177/OneDrive/Documents/School/Grad School/Fall 2020/Lab 3 Sternberg Memory/subject-4.csv","legacy","7 4 2 6 3 5","Lentiform Loewenfeld","3.3.3","6","y","0","left","right","right","left","NA","951","7984","18285","951","NA","2","legacy","6","1024","2","48000","-16","experiment","4","even","5","119201","120256","4190","108016","120258","63862","4197","89730","122461","124462","125413","121260","12182","124462","NA","Sternberg Task","11","16224","15","yes","1024"
"75","75","1066.6875","1066.6875","black","experiment","legacy","legacy","legacy","0","uniform","1","undefined","1","right","15","15","0","0","15","15","0","0","15","15","15","15","0","15","0","10/22/20 21:58:44","The main experiment item","yes","SternbergTask.osexp","C:\Users\18177\OneDrive\Documents\School\Grad School\Fall 2020\Lab 3 Sternberg Memory","no","mono","no","18","no","white","no","yes","768","legacy","3","11","C:/Users/18177/OneDrive/Documents/School/Grad School/Fall 2020/Lab 3 Sternberg Memory/subject-4.csv","legacy","9","Lentiform Loewenfeld","3.3.3","0","n","0","right","right","right","right","NA","843","7984","18285","843","NA","2","legacy","1","1024","2","48000","-16","experiment","4","even","6","125426","126479","4190","108016","126481","63862","4197","89730","128685","130687","131531","127482","12182","130687","NA","Sternberg Task","12","17067","16","yes","1024"
"76.4705882353","76.4705882353","1049.29411765","1049.29411765","black","experiment","legacy","legacy","legacy","0","uniform","1","undefined","1","right","16","16","0","0","16","16","0","0","16","16","16","16","0","16","0","10/22/20 21:58:44","The main experiment item","yes","SternbergTask.osexp","C:\Users\18177\OneDrive\Documents\School\Grad School\Fall 2020\Lab 3 Sternberg Memory","no","mono","no","18","no","white","no","yes","768","legacy","4","11","C:/Users/18177/OneDrive/Documents/School/Grad School/Fall 2020/Lab 3 Sternberg Memory/subject-4.csv","legacy","2 7 5","Lentiform Loewenfeld","3.3.3","0","n","0","right","right","right","right","NA","771","7984","18285","771","NA","2","legacy","3","1024","2","48000","-16","experiment","4","even","8","131542","132597","4190","108016","132598","63862","4197","89730","134804","136805","137577","133600","12182","136805","NA","Sternberg Task","13","17838","17","yes","1024"
"72.2222222222","72.2222222222","1034.44444444","1034.44444444","black","experiment","legacy","legacy","legacy","0","uniform","0","undefined","0","left","17","17","0","0","17","17","0","0","17","17","17","17","0","17","0","10/22/20 21:58:44","The main experiment item","yes","SternbergTask.osexp","C:\Users\18177\OneDrive\Documents\School\Grad School\Fall 2020\Lab 3 Sternberg Memory","no","mono","no","18","no","white","no","yes","768","legacy","5","11","C:/Users/18177/OneDrive/Documents/School/Grad School/Fall 2020/Lab 3 Sternberg Memory/subject-4.csv","legacy","2 3 7 4","Lentiform Loewenfeld","3.3.3","1","y","0","right","right","right","right","NA","782","7984","18285","782","NA","2","legacy","4","1024","2","48000","-16","experiment","4","even","2","137581","138634","4190","108016","138636","63862","4197","89730","140840","142841","143623","139637","12182","142841","NA","Sternberg Task","13","18620","18","yes","1024"
"73.6842105263","73.6842105263","1015.15789474","1015.15789474","black","experiment","legacy","legacy","legacy","0","uniform","1","undefined","1","left","18","18","0","0","18","18","0","0","18","18","18","18","0","18","0","10/22/20 21:58:44","The main experiment item","yes","SternbergTask.osexp","C:\Users\18177\OneDrive\Documents\School\Grad School\Fall 2020\Lab 3 Sternberg Memory","no","mono","no","18","no","white","no","yes","768","legacy","6","11","C:/Users/18177/OneDrive/Documents/School/Grad School/Fall 2020/Lab 3 Sternberg Memory/subject-4.csv","legacy","3 2 1 4 7","Lentiform Loewenfeld","3.3.3","2","y","0","left","right","right","left","NA","668","7984","18285","668","NA","2","legacy","5","1024","2","48000","-16","experiment","4","even","2","137581","144688","4190","108016","144690","143635","4197","89730","146892","148893","149562","145691","12182","148893","NA","Sternberg Task","14","19288","19","yes","1024"
"75","75","1006.4","1006.4","black","experiment","legacy","legacy","legacy","0","uniform","1","undefined","1","right","19","19","0","0","19","19","0","0","19","19","19","19","0","19","0","10/22/20 21:58:44","The main experiment item","yes","SternbergTask.osexp","C:\Users\18177\OneDrive\Documents\School\Grad School\Fall 2020\Lab 3 Sternberg Memory","no","mono","no","18","no","white","no","yes","768","legacy","7","11","C:/Users/18177/OneDrive/Documents/School/Grad School/Fall 2020/Lab 3 Sternberg Memory/subject-4.csv","legacy","8 6 3 4 7","Lentiform Loewenfeld","3.3.3","0","n","0","right","right","right","right","NA","840","7984","18285","840","NA","2","legacy","5","1024","2","48000","-16","experiment","4","even","1","149574","150629","4190","108016","150632","143635","4197","89730","152836","154837","155677","151633","12182","154837","NA","Sternberg Task","15","20128","20","yes","1024"
"76.1904761905","76.1904761905","992.095238095","992.095238095","black","experiment","legacy","legacy","legacy","0","uniform","1","undefined","1","right","20","20","0","0","20","20","0","0","20","20","20","20","0","20","0","10/22/20 21:58:44","The main experiment item","yes","SternbergTask.osexp","C:\Users\18177\OneDrive\Documents\School\Grad School\Fall 2020\Lab 3 Sternberg Memory","no","mono","no","18","no","white","no","yes","768","legacy","8","11","C:/Users/18177/OneDrive/Documents/School/Grad School/Fall 2020/Lab 3 Sternberg Memory/subject-4.csv","legacy","6 8","Lentiform Loewenfeld","3.3.3","0","n","0","right","right","right","right","NA","706","7984","18285","706","NA","2","legacy","2","1024","2","48000","-16","experiment","4","even","9","155690","156762","4190","108016","156765","143635","4197","89730","158971","160972","161679","157766","12182","160972","NA","Sternberg Task","16","20834","21","yes","1024"
"77.2727272727","77.2727272727","986.727272727","986.727272727","black","experiment","legacy","legacy","legacy","0","uniform","1","undefined","1","left","21","21","0","0","21","21","0","0","21","21","21","21","0","21","0","10/22/20 21:58:44","The main experiment item","yes","SternbergTask.osexp","C:\Users\18177\OneDrive\Documents\School\Grad School\Fall 2020\Lab 3 Sternberg Memory","no","mono","no","18","no","white","no","yes","768","legacy","9","11","C:/Users/18177/OneDrive/Documents/School/Grad School/Fall 2020/Lab 3 Sternberg Memory/subject-4.csv","legacy","4 7 6 8 2 3","Lentiform Loewenfeld","3.3.3","6","y","0","left","right","right","left","NA","874","7984","18285","874","NA","2","legacy","6","1024","2","48000","-16","experiment","4","even","3","161693","162746","4190","108016","162748","143635","4197","89730","164950","166951","167825","163749","12182","166951","NA","Sternberg Task","17","21708","22","yes","1024"
"78.2608695652","78.2608695652","972.565217391","972.565217391","black","experiment","legacy","legacy","legacy","0","uniform","1","undefined","1","left","22","22","0","0","22","22","0","0","22","22","22","22","0","22","0","10/22/20 21:58:44","The main experiment item","yes","SternbergTask.osexp","C:\Users\18177\OneDrive\Documents\School\Grad School\Fall 2020\Lab 3 Sternberg Memory","no","mono","no","18","no","white","no","yes","768","legacy","10","11","C:/Users/18177/OneDrive/Documents/School/Grad School/Fall 2020/Lab 3 Sternberg Memory/subject-4.csv","legacy","7 8 6 3 1","Lentiform Loewenfeld","3.3.3","5","y","0","left","right","right","left","NA","661","7984","18285","661","NA","2","legacy","5","1024","2","48000","-16","experiment","4","even","1","167829","168904","4190","108016","168905","143635","4197","89730","171109","173110","173771","169906","12182","173110","NA","Sternberg Task","18","22369","23","yes","1024"
"79.1666666667","79.1666666667","955.833333333","955.833333333","black","experiment","legacy","legacy","legacy","0","uniform","1","undefined","1","left","23","23","0","0","23","23","0","0","23","23","23","23","0","23","0","10/22/20 21:58:44","The main experiment item","yes","SternbergTask.osexp","C:\Users\18177\OneDrive\Documents\School\Grad School\Fall 2020\Lab 3 Sternberg Memory","no","mono","no","18","no","white","no","yes","768","legacy","11","11","C:/Users/18177/OneDrive/Documents/School/Grad School/Fall 2020/Lab 3 Sternberg Memory/subject-4.csv","legacy","5 7 3 6 2","Lentiform Loewenfeld","3.3.3","5","y","0","left","right","right","left","NA","571","7984","18285","571","NA","2","legacy","5","1024","2","48000","-16","experiment","4","even","2","173783","174836","4190","108016","174837","143635","4197","89730","177041","179045","179617","175839","12182","179044","NA","Sternberg Task","19","22940","24","yes","1024"
"76","76","978.52","978.52","black","experiment","legacy","legacy","legacy","0","uniform","0","undefined","0","left","24","24","0","0","24","24","0","0","24","24","24","24","0","24","0","10/22/20 21:58:44","The main experiment item","yes","SternbergTask.osexp","C:\Users\18177\OneDrive\Documents\School\Grad School\Fall 2020\Lab 3 Sternberg Memory","no","mono","no","18","no","white","no","yes","768","legacy","12","11","C:/Users/18177/OneDrive/Documents/School/Grad School/Fall 2020/Lab 3 Sternberg Memory/subject-4.csv","legacy","8 9 6 1","Lentiform Loewenfeld","3.3.3","2","y","0","right","right","right","right","NA","1523","7984","18285","1523","NA","2","legacy","4","1024","2","48000","-16","experiment","4","even","9","179630","180684","4190","108016","180686","143635","4197","89730","182892","184893","186418","181688","12182","184893","NA","Sternberg Task","19","24463","25","yes","1024"
"76.9230769231","76.9230769231","968.461538462","968.461538462","black","experiment","legacy","legacy","legacy","0","uniform","1","undefined","1","left","25","25","0","0","25","25","0","0","25","25","25","25","0","25","0","10/22/20 21:58:44","The main experiment item","yes","SternbergTask.osexp","C:\Users\18177\OneDrive\Documents\School\Grad School\Fall 2020\Lab 3 Sternberg Memory","no","mono","no","18","no","white","no","yes","768","legacy","13","11","C:/Users/18177/OneDrive/Documents/School/Grad School/Fall 2020/Lab 3 Sternberg Memory/subject-4.csv","legacy","5 2 6","Lentiform Loewenfeld","3.3.3","2","y","0","left","right","right","left","NA","717","7984","18285","717","NA","2","legacy","3","1024","2","48000","-16","experiment","4","even","2","179630","187486","4190","108016","187488","186432","4197","89730","189693","191694","192411","188489","12182","191694","NA","Sternberg Task","20","25180","26","yes","1024"
"77.7777777778","77.7777777778","963.851851852","963.851851852","black","experiment","legacy","legacy","legacy","0","uniform","1","undefined","1","right","26","26","0","0","26","26","0","0","26","26","26","26","0","26","0","10/22/20 21:58:44","The main experiment item","yes","SternbergTask.osexp","C:\Users\18177\OneDrive\Documents\School\Grad School\Fall 2020\Lab 3 Sternberg Memory","no","mono","no","18","no","white","no","yes","768","legacy","14","11","C:/Users/18177/OneDrive/Documents/School/Grad School/Fall 2020/Lab 3 Sternberg Memory/subject-4.csv","legacy","7 9 1 6","Lentiform Loewenfeld","3.3.3","0","n","0","right","right","right","right","NA","844","7984","18285","844","NA","2","legacy","4","1024","2","48000","-16","experiment","4","even","4","192426","193497","4190","108016","193498","186432","4197","89730","195703","197704","198548","194499","12182","197704","NA","Sternberg Task","21","26024","27","yes","1024"
"78.5714285714","78.5714285714","961.714285714","961.714285714","black","experiment","legacy","legacy","legacy","0","uniform","1","undefined","1","right","27","27","0","0","27","27","0","0","27","27","27","27","0","27","0","10/22/20 21:58:44","The main experiment item","yes","SternbergTask.osexp","C:\Users\18177\OneDrive\Documents\School\Grad School\Fall 2020\Lab 3 Sternberg Memory","no","mono","no","18","no","white","no","yes","768","legacy","15","11","C:/Users/18177/OneDrive/Documents/School/Grad School/Fall 2020/Lab 3 Sternberg Memory/subject-4.csv","legacy","1 6 4 3 9 7","Lentiform Loewenfeld","3.3.3","0","n","0","right","right","right","right","NA","904","7984","18285","904","NA","2","legacy","6","1024","2","48000","-16","experiment","4","even","8","198563","199617","4190","108016","199619","186432","4197","89730","201821","203822","204727","200620","12182","203822","NA","Sternberg Task","22","26928","28","yes","1024"
"79.3103448276","79.3103448276","949.655172414","949.655172414","black","experiment","legacy","legacy","legacy","0","uniform","1","undefined","1","left","28","28","0","0","28","28","0","0","28","28","28","28","0","28","0","10/22/20 21:58:44","The main experiment item","yes","SternbergTask.osexp","C:\Users\18177\OneDrive\Documents\School\Grad School\Fall 2020\Lab 3 Sternberg Memory","no","mono","no","18","no","white","no","yes","768","legacy","16","11","C:/Users/18177/OneDrive/Documents/School/Grad School/Fall 2020/Lab 3 Sternberg Memory/subject-4.csv","legacy","7 2 3","Lentiform Loewenfeld","3.3.3","3","y","0","left","right","right","left","NA","612","7984","18285","612","NA","2","legacy","3","1024","2","48000","-16","experiment","4","even","3","204739","205794","4190","108016","205796","186432","4197","89730","208003","210004","210617","206800","12182","210004","NA","Sternberg Task","23","27540","29","yes","1024"
"76.6666666667","76.6666666667","956.133333333","956.133333333","black","experiment","legacy","legacy","legacy","0","uniform","0","undefined","0","left","29","29","0","0","29","29","0","0","29","29","29","29","0","29","0","10/22/20 21:58:44","The main experiment item","yes","SternbergTask.osexp","C:\Users\18177\OneDrive\Documents\School\Grad School\Fall 2020\Lab 3 Sternberg Memory","no","mono","no","18","no","white","no","yes","768","legacy","17","11","C:/Users/18177/OneDrive/Documents/School/Grad School/Fall 2020/Lab 3 Sternberg Memory/subject-4.csv","legacy","3 5 7 1","Lentiform Loewenfeld","3.3.3","3","y","0","right","right","right","right","NA","1144","7984","18285","1144","NA","2","legacy","4","1024","2","48000","-16","experiment","4","even","7","210629","211684","4190","108016","211686","186432","4197","89730","213889","215890","217035","212687","12182","215890","NA","Sternberg Task","23","28684","30","yes","1024"
"77.4193548387","77.4193548387","954.419354839","954.419354839","black","experiment","legacy","legacy","legacy","0","uniform","1","undefined","1","right","30","30","0","0","30","30","0","0","30","30","30","30","0","30","0","10/22/20 21:58:44","The main experiment item","yes","SternbergTask.osexp","C:\Users\18177\OneDrive\Documents\School\Grad School\Fall 2020\Lab 3 Sternberg Memory","no","mono","no","18","no","white","no","yes","768","legacy","18","11","C:/Users/18177/OneDrive/Documents/School/Grad School/Fall 2020/Lab 3 Sternberg Memory/subject-4.csv","legacy","6 9 4 5 3 2","Lentiform Loewenfeld","3.3.3","0","n","0","right","right","right","right","NA","903","7984","18285","903","NA","2","legacy","6","1024","2","48000","-16","experiment","4","even","8","210629","218101","4190","108016","218103","217047","4197","89730","220308","222309","223213","219104","12182","222309","NA","Sternberg Task","24","29587","31","yes","1024"
"78.125","78.125","945.875","945.875","black","experiment","legacy","legacy","legacy","0","uniform","1","undefined","1","right","31","31","0","0","31","31","0","0","31","31","31","31","0","31","0","10/22/20 21:58:44","The main experiment item","yes","SternbergTask.osexp","C:\Users\18177\OneDrive\Documents\School\Grad School\Fall 2020\Lab 3 Sternberg Memory","no","mono","no","18","no","white","no","yes","768","legacy","19","11","C:/Users/18177/OneDrive/Documents/School/Grad School/Fall 2020/Lab 3 Sternberg Memory/subject-4.csv","legacy","6 8 4","Lentiform Loewenfeld","3.3.3","0","n","0","right","right","right","right","NA","681","7984","18285","681","NA","2","legacy","3","1024","2","48000","-16","experiment","4","even","1","223224","224296","4190","108016","224299","217047","4197","89730","226504","228505","229187","225300","12182","228505","NA","Sternberg Task","25","30268","32","yes","1024"
"75.7575757576","75.7575757576","942.454545455","942.454545455","black","experiment","legacy","legacy","legacy","0","uniform","0","undefined","0","left","32","32","0","0","32","32","0","0","32","32","32","32","0","32","0","10/22/20 21:58:44","The main experiment item","yes","SternbergTask.osexp","C:\Users\18177\OneDrive\Documents\School\Grad School\Fall 2020\Lab 3 Sternberg Memory","no","mono","no","18","no","white","no","yes","768","legacy","20","11","C:/Users/18177/OneDrive/Documents/School/Grad School/Fall 2020/Lab 3 Sternberg Memory/subject-4.csv","legacy","9 5 8 1","Lentiform Loewenfeld","3.3.3","2","y","0","right","right","right","right","NA","833","7984","18285","833","NA","2","legacy","4","1024","2","48000","-16","experiment","4","even","5","229191","230245","4190","108016","230247","217047","4197","89730","232457","234461","235294","231252","12182","234461","NA","Sternberg Task","25","31101","33","yes","1024"
"76.4705882353","76.4705882353","941.058823529","941.058823529","black","experiment","legacy","legacy","legacy","0","uniform","1","undefined","1","right","33","33","0","0","33","33","0","0","33","33","33","33","0","33","0","10/22/20 21:58:44","The main experiment item","yes","SternbergTask.osexp","C:\Users\18177\OneDrive\Documents\School\Grad School\Fall 2020\Lab 3 Sternberg Memory","no","mono","no","18","no","white","no","yes","768","legacy","21","11","C:/Users/18177/OneDrive/Documents/School/Grad School/Fall 2020/Lab 3 Sternberg Memory/subject-4.csv","legacy","1 4 9 2 5","Lentiform Loewenfeld","3.3.3","0","n","0","right","right","right","right","NA","895","7984","18285","895","NA","2","legacy","5","1024","2","48000","-16","experiment","4","even","7","229191","236366","4190","108016","236369","235306","4197","89730","238574","240579","241474","237370","12182","240579","NA","Sternberg Task","26","31996","34","yes","1024"
"77.1428571429","77.1428571429","930.742857143","930.742857143","black","experiment","legacy","legacy","legacy","0","uniform","1","undefined","1","left","34","34","0","0","34","34","0","0","34","34","34","34","0","34","0","10/22/20 21:58:44","The main experiment item","yes","SternbergTask.osexp","C:\Users\18177\OneDrive\Documents\School\Grad School\Fall 2020\Lab 3 Sternberg Memory","no","mono","no","18","no","white","no","yes","768","legacy","22","11","C:/Users/18177/OneDrive/Documents/School/Grad School/Fall 2020/Lab 3 Sternberg Memory/subject-4.csv","legacy","8","Lentiform Loewenfeld","3.3.3","1","y","0","left","right","right","left","NA","580","7984","18285","580","NA","2","legacy","1","1024","2","48000","-16","experiment","4","even","8","241486","242539","4190","108016","242541","235306","4197","89730","244746","246751","247332","243542","12182","246751","NA","Sternberg Task","27","32576","35","yes","1024"
"75","75","937.083333333","937.083333333","black","experiment","legacy","legacy","legacy","0","uniform","0","undefined","0","left","35","35","0","0","35","35","0","0","35","35","35","35","0","35","0","10/22/20 21:58:44","The main experiment item","yes","SternbergTask.osexp","C:\Users\18177\OneDrive\Documents\School\Grad School\Fall 2020\Lab 3 Sternberg Memory","no","mono","no","18","no","white","no","yes","768","legacy","23","11","C:/Users/18177/OneDrive/Documents/School/Grad School/Fall 2020/Lab 3 Sternberg Memory/subject-4.csv","legacy","6 7 9 3 1 2","Lentiform Loewenfeld","3.3.3","1","y","0","right","right","right","right","NA","1159","7984","18285","1159","NA","2","legacy","6","1024","2","48000","-16","experiment","4","even","6","247345","248399","4190","108016","248402","235306","4197","89730","250608","252609","253769","249403","12182","252609","NA","Sternberg Task","27","33735","36","yes","1024"
"75.6756756757","75.6756756757","937.486486486","937.486486486","black","experiment","legacy","legacy","legacy","0","uniform","1","undefined","1","left","36","36","0","0","36","36","0","0","36","36","36","36","0","36","0","10/22/20 21:58:44","The main experiment item","yes","SternbergTask.osexp","C:\Users\18177\OneDrive\Documents\School\Grad School\Fall 2020\Lab 3 Sternberg Memory","no","mono","no","18","no","white","no","yes","768","legacy","24","11","C:/Users/18177/OneDrive/Documents/School/Grad School/Fall 2020/Lab 3 Sternberg Memory/subject-4.csv","legacy","3 5 4 7","Lentiform Loewenfeld","3.3.3","1","y","0","left","right","right","left","NA","952","7984","18285","952","NA","2","legacy","4","1024","2","48000","-16","experiment","4","even","3","247345","254834","4190","108016","254836","253781","4197","89730","257039","259044","259997","255838","12182","259043","NA","Sternberg Task","28","34687","37","yes","1024"
"76.3157894737","76.3157894737","934.526315789","934.526315789","black","experiment","legacy","legacy","legacy","0","uniform","1","undefined","1","right","37","37","0","0","37","37","0","0","37","37","37","37","0","37","0","10/22/20 21:58:44","The main experiment item","yes","SternbergTask.osexp","C:\Users\18177\OneDrive\Documents\School\Grad School\Fall 2020\Lab 3 Sternberg Memory","no","mono","no","18","no","white","no","yes","768","legacy","25","11","C:/Users/18177/OneDrive/Documents/School/Grad School/Fall 2020/Lab 3 Sternberg Memory/subject-4.csv","legacy","2 6 4 3 9","Lentiform Loewenfeld","3.3.3","0","n","0","right","right","right","right","NA","825","7984","18285","825","NA","2","legacy","5","1024","2","48000","-16","experiment","4","even","1","260000","261069","4190","108016","261071","253781","4197","89730","263276","265277","266103","262072","12182","265277","NA","Sternberg Task","29","35512","38","yes","1024"
"76.9230769231","76.9230769231","925.615384615","925.615384615","black","experiment","legacy","legacy","legacy","0","uniform","1","undefined","1","left","38","38","0","0","38","38","0","0","38","38","38","38","0","38","0","10/22/20 21:58:44","The main experiment item","yes","SternbergTask.osexp","C:\Users\18177\OneDrive\Documents\School\Grad School\Fall 2020\Lab 3 Sternberg Memory","no","mono","no","18","no","white","no","yes","768","legacy","26","11","C:/Users/18177/OneDrive/Documents/School/Grad School/Fall 2020/Lab 3 Sternberg Memory/subject-4.csv","legacy","6 2","Lentiform Loewenfeld","3.3.3","1","y","0","left","right","right","left","NA","587","7984","18285","587","NA","2","legacy","2","1024","2","48000","-16","experiment","4","even","6","266116","267176","4190","108016","267178","253781","4197","89730","269383","271384","271972","268179","12182","271384","NA","Sternberg Task","30","36099","39","yes","1024"
"77.5","77.5","921.55","921.55","black","experiment","legacy","legacy","legacy","0","uniform","1","undefined","1","right","39","39","0","0","39","39","0","0","39","39","39","39","0","39","0","10/22/20 21:58:44","The main experiment item","yes","SternbergTask.osexp","C:\Users\18177\OneDrive\Documents\School\Grad School\Fall 2020\Lab 3 Sternberg Memory","no","mono","no","18","no","white","no","yes","768","legacy","27","11","C:/Users/18177/OneDrive/Documents/School/Grad School/Fall 2020/Lab 3 Sternberg Memory/subject-4.csv","legacy","8 4 3 9","Lentiform Loewenfeld","3.3.3","0","n","0","right","right","right","right","NA","763","7984","18285","763","NA","2","legacy","4","1024","2","48000","-16","experiment","4","even","5","271985","273040","4190","108016","273041","253781","4197","89730","275243","277244","278008","274042","12182","277244","NA","Sternberg Task","31","36862","40","yes","1024"
"78.0487804878","78.0487804878","918.048780488","918.048780488","black","experiment","legacy","legacy","legacy","0","uniform","1","undefined","1","left","40","40","0","0","40","40","0","0","40","40","40","40","0","40","0","10/22/20 21:58:44","The main experiment item","yes","SternbergTask.osexp","C:\Users\18177\OneDrive\Documents\School\Grad School\Fall 2020\Lab 3 Sternberg Memory","no","mono","no","18","no","white","no","yes","768","legacy","28","11","C:/Users/18177/OneDrive/Documents/School/Grad School/Fall 2020/Lab 3 Sternberg Memory/subject-4.csv","legacy","7 8 4 6 9 5","Lentiform Loewenfeld","3.3.3","4","y","0","left","right","right","left","NA","778","7984","18285","778","NA","2","legacy","6","1024","2","48000","-16","experiment","4","even","6","278019","279074","4190","108016","279075","253781","4197","89730","281281","283282","284061","280077","12182","283282","NA","Sternberg Task","32","37640","41","yes","1024"
"78.5714285714","78.5714285714","913.880952381","913.880952381","black","experiment","legacy","legacy","legacy","0","uniform","1","undefined","1","left","41","41","0","0","41","41","0","0","41","41","41","41","0","41","0","10/22/20 21:58:44","The main experiment item","yes","SternbergTask.osexp","C:\Users\18177\OneDrive\Documents\School\Grad School\Fall 2020\Lab 3 Sternberg Memory","no","mono","no","18","no","white","no","yes","768","legacy","29","11","C:/Users/18177/OneDrive/Documents/School/Grad School/Fall 2020/Lab 3 Sternberg Memory/subject-4.csv","legacy","8 5 1 3 9","Lentiform Loewenfeld","3.3.3","4","y","0","left","right","right","left","NA","743","7984","18285","743","NA","2","legacy","5","1024","2","48000","-16","experiment","4","even","3","284073","285129","4190","108016","285130","253781","4197","89730","287334","289335","290079","286131","12182","289335","NA","Sternberg Task","33","38383","42","yes","1024"
"79.0697674419","79.0697674419","911.372093023","911.372093023","black","experiment","legacy","legacy","legacy","0","uniform","1","undefined","1","left","42","42","0","0","42","42","0","0","42","42","42","42","0","42","0","10/22/20 21:58:44","The main experiment item","yes","SternbergTask.osexp","C:\Users\18177\OneDrive\Documents\School\Grad School\Fall 2020\Lab 3 Sternberg Memory","no","mono","no","18","no","white","no","yes","768","legacy","30","11","C:/Users/18177/OneDrive/Documents/School/Grad School/Fall 2020/Lab 3 Sternberg Memory/subject-4.csv","legacy","9 5 3 8 4","Lentiform Loewenfeld","3.3.3","1","y","0","left","right","right","left","NA","806","7984","18285","806","NA","2","legacy","5","1024","2","48000","-16","experiment","4","even","9","290093","291148","4190","108016","291149","253781","4197","89730","293355","295356","296163","292151","12182","295356","NA","Sternberg Task","34","39189","43","yes","1024"
"79.5454545455","79.5454545455","907.931818182","907.931818182","black","experiment","legacy","legacy","legacy","0","uniform","1","undefined","1","right","43","43","0","0","43","43","0","0","43","43","43","43","0","43","0","10/22/20 21:58:44","The main experiment item","yes","SternbergTask.osexp","C:\Users\18177\OneDrive\Documents\School\Grad School\Fall 2020\Lab 3 Sternberg Memory","no","mono","no","18","no","white","no","yes","768","legacy","31","11","C:/Users/18177/OneDrive/Documents/School/Grad School/Fall 2020/Lab 3 Sternberg Memory/subject-4.csv","legacy","5 2","Lentiform Loewenfeld","3.3.3","0","n","0","right","right","right","right","NA","760","7984","18285","760","NA","2","legacy","2","1024","2","48000","-16","experiment","4","even","7","296175","297229","4190","108016","297231","253781","4197","89730","299435","301440","302201","298232","12182","301440","NA","Sternberg Task","35","39949","44","yes","1024"
"80","80","911.933333333","911.933333333","black","experiment","legacy","legacy","legacy","0","uniform","1","undefined","1","right","44","44","0","0","44","44","0","0","44","44","44","44","0","44","0","10/22/20 21:58:44","The main experiment item","yes","SternbergTask.osexp","C:\Users\18177\OneDrive\Documents\School\Grad School\Fall 2020\Lab 3 Sternberg Memory","no","mono","no","18","no","white","no","yes","768","legacy","32","11","C:/Users/18177/OneDrive/Documents/School/Grad School/Fall 2020/Lab 3 Sternberg Memory/subject-4.csv","legacy","7 3 2 8","Lentiform Loewenfeld","3.3.3","0","n","0","right","right","right","right","NA","1088","7984","18285","1088","NA","2","legacy","4","1024","2","48000","-16","experiment","4","even","4","302213","303267","4190","108016","303269","253781","4197","89730","305474","307475","308564","304271","12182","307475","NA","Sternberg Task","36","41037","45","yes","1024"
"80.4347826087","80.4347826087","907.717391304","907.717391304","black","experiment","legacy","legacy","legacy","0","uniform","1","undefined","1","left","45","45","0","0","45","45","0","0","45","45","45","45","0","45","0","10/22/20 21:58:44","The main experiment item","yes","SternbergTask.osexp","C:\Users\18177\OneDrive\Documents\School\Grad School\Fall 2020\Lab 3 Sternberg Memory","no","mono","no","18","no","white","no","yes","768","legacy","33","11","C:/Users/18177/OneDrive/Documents/School/Grad School/Fall 2020/Lab 3 Sternberg Memory/subject-4.csv","legacy","6 1 2","Lentiform Loewenfeld","3.3.3","3","y","0","left","right","right","left","NA","718","7984","18285","718","NA","2","legacy","3","1024","2","48000","-16","experiment","4","even","2","308578","309632","4190","108016","309634","253781","4197","89730","311839","313840","314559","310635","12182","313840","NA","Sternberg Task","37","41755","46","yes","1024"
"80.8510638298","80.8510638298","905.489361702","905.489361702","black","experiment","legacy","legacy","legacy","0","uniform","1","undefined","1","left","46","46","0","0","46","46","0","0","46","46","46","46","0","46","0","10/22/20 21:58:44","The main experiment item","yes","SternbergTask.osexp","C:\Users\18177\OneDrive\Documents\School\Grad School\Fall 2020\Lab 3 Sternberg Memory","no","mono","no","18","no","white","no","yes","768","legacy","34","11","C:/Users/18177/OneDrive/Documents/School/Grad School/Fall 2020/Lab 3 Sternberg Memory/subject-4.csv","legacy","3 4","Lentiform Loewenfeld","3.3.3","1","y","0","left","right","right","left","NA","803","7984","18285","803","NA","2","legacy","2","1024","2","48000","-16","experiment","4","even","3","314571","315626","4190","108016","315628","253781","4197","89730","317834","319836","320640","316629","12182","319836","NA","Sternberg Task","38","42558","47","yes","1024"
"81.25","81.25","910.958333333","910.958333333","black","experiment","legacy","legacy","legacy","0","uniform","1","undefined","1","right","47","47","0","0","47","47","0","0","47","47","47","47","0","47","0","10/22/20 21:58:44","The main experiment item","yes","SternbergTask.osexp","C:\Users\18177\OneDrive\Documents\School\Grad School\Fall 2020\Lab 3 Sternberg Memory","no","mono","no","18","no","white","no","yes","768","legacy","35","11","C:/Users/18177/OneDrive/Documents/School/Grad School/Fall 2020/Lab 3 Sternberg Memory/subject-4.csv","legacy","1 7 5 2 9","Lentiform Loewenfeld","3.3.3","0","n","0","right","right","right","right","NA","1168","7984","18285","1168","NA","2","legacy","5","1024","2","48000","-16","experiment","4","even","3","320653","321707","4190","108016","321708","253781","4197","89730","323912","325913","327082","322709","12182","325913","NA","Sternberg Task","39","43726","48","yes","1024"
"81.6326530612","81.6326530612","907.306122449","907.306122449","black","experiment","legacy","legacy","legacy","0","uniform","1","undefined","1","right","48","48","0","0","48","48","0","0","48","48","48","48","0","48","0","10/22/20 21:58:44","The main experiment item","yes","SternbergTask.osexp","C:\Users\18177\OneDrive\Documents\School\Grad School\Fall 2020\Lab 3 Sternberg Memory","no","mono","no","18","no","white","no","yes","768","legacy","36","11","C:/Users/18177/OneDrive/Documents/School/Grad School/Fall 2020/Lab 3 Sternberg Memory/subject-4.csv","legacy","3 4 2","Lentiform Loewenfeld","3.3.3","0","n","0","right","right","right","right","NA","732","7984","18285","732","NA","2","legacy","3","1024","2","48000","-16","experiment","4","even","5","327095","328148","4190","108016","328149","253781","4197","89730","330355","332356","333089","329151","12182","332356","NA","Sternberg Task","40","44458","49","yes","1024"
"82","82","907.02","907.02","black","experiment","legacy","legacy","legacy","0","uniform","1","undefined","1","right","49","49","0","0","49","49","0","0","49","49","49","49","0","49","0","10/22/20 21:58:44","The main experiment item","yes","SternbergTask.osexp","C:\Users\18177\OneDrive\Documents\School\Grad School\Fall 2020\Lab 3 Sternberg Memory","no","mono","no","18","no","white","no","yes","768","legacy","37","11","C:/Users/18177/OneDrive/Documents/School/Grad School/Fall 2020/Lab 3 Sternberg Memory/subject-4.csv","legacy","4 2 6 9","Lentiform Loewenfeld","3.3.3","0","n","0","right","right","right","right","NA","893","7984","18285","893","NA","2","legacy","4","1024","2","48000","-16","experiment","4","even","7","333101","334155","4190","108016","334156","253781","4197","89730","336361","338362","339255","335158","12182","338362","NA","Sternberg Task","41","45351","50","yes","1024"
"82.3529411765","82.3529411765","913","913","black","experiment","legacy","legacy","legacy","0","uniform","1","undefined","1","right","50","50","0","0","50","50","0","0","50","50","50","50","0","50","0","10/22/20 21:58:44","The main experiment item","yes","SternbergTask.osexp","C:\Users\18177\OneDrive\Documents\School\Grad School\Fall 2020\Lab 3 Sternberg Memory","no","mono","no","18","no","white","no","yes","768","legacy","38","11","C:/Users/18177/OneDrive/Documents/School/Grad School/Fall 2020/Lab 3 Sternberg Memory/subject-4.csv","legacy","8 5 7 3 6","Lentiform Loewenfeld","3.3.3","0","n","0","right","right","right","right","NA","1212","7984","18285","1212","NA","2","legacy","5","1024","2","48000","-16","experiment","4","even","9","339268","340322","4190","108016","340324","253781","4197","89730","342530","344531","345744","341325","12182","344531","NA","Sternberg Task","42","46563","51","yes","1024"
"82.6923076923","82.6923076923","908.538461538","908.538461538","black","experiment","legacy","legacy","legacy","0","uniform","1","undefined","1","left","51","51","0","0","51","51","0","0","51","51","51","51","0","51","0","10/22/20 21:58:44","The main experiment item","yes","SternbergTask.osexp","C:\Users\18177\OneDrive\Documents\School\Grad School\Fall 2020\Lab 3 Sternberg Memory","no","mono","no","18","no","white","no","yes","768","legacy","39","11","C:/Users/18177/OneDrive/Documents/School/Grad School/Fall 2020/Lab 3 Sternberg Memory/subject-4.csv","legacy","2 8 5 1","Lentiform Loewenfeld","3.3.3","4","y","0","left","right","right","left","NA","681","7984","18285","681","NA","2","legacy","4","1024","2","48000","-16","experiment","4","even","1","345759","346813","4190","108016","346815","253781","4197","89730","349017","351018","351701","347816","12182","351018","NA","Sternberg Task","43","47244","52","yes","1024"
"83.0188679245","83.0188679245","907.490566038","907.490566038","black","experiment","legacy","legacy","legacy","0","uniform","1","undefined","1","right","52","52","0","0","52","52","0","0","52","52","52","52","0","52","0","10/22/20 21:58:44","The main experiment item","yes","SternbergTask.osexp","C:\Users\18177\OneDrive\Documents\School\Grad School\Fall 2020\Lab 3 Sternberg Memory","no","mono","no","18","no","white","no","yes","768","legacy","40","11","C:/Users/18177/OneDrive/Documents/School/Grad School/Fall 2020/Lab 3 Sternberg Memory/subject-4.csv","legacy","7 8 6 1","Lentiform Loewenfeld","3.3.3","0","n","0","right","right","right","right","NA","853","7984","18285","853","NA","2","legacy","4","1024","2","48000","-16","experiment","4","even","3","351704","352757","4190","108016","352759","253781","4197","89730","354964","356966","357820","353760","12182","356966","NA","Sternberg Task","44","48097","53","yes","1024"
"81.4814814815","81.4814814815","905.796296296","905.796296296","black","experiment","legacy","legacy","legacy","0","uniform","0","undefined","0","left","53","53","0","0","53","53","0","0","53","53","53","53","0","53","0","10/22/20 21:58:44","The main experiment item","yes","SternbergTask.osexp","C:\Users\18177\OneDrive\Documents\School\Grad School\Fall 2020\Lab 3 Sternberg Memory","no","mono","no","18","no","white","no","yes","768","legacy","41","11","C:/Users/18177/OneDrive/Documents/School/Grad School/Fall 2020/Lab 3 Sternberg Memory/subject-4.csv","legacy","8 9 5 6 7","Lentiform Loewenfeld","3.3.3","1","y","0","right","right","right","right","NA","816","7984","18285","816","NA","2","legacy","5","1024","2","48000","-16","experiment","4","even","8","357832","358886","4190","108016","358887","253781","4197","89730","361091","363092","363909","359888","12182","363092","NA","Sternberg Task","44","48913","54","yes","1024"
"81.8181818182","81.8181818182","912.145454545","912.145454545","black","experiment","legacy","legacy","legacy","0","uniform","1","undefined","1","left","54","54","0","0","54","54","0","0","54","54","54","54","0","54","0","10/22/20 21:58:44","The main experiment item","yes","SternbergTask.osexp","C:\Users\18177\OneDrive\Documents\School\Grad School\Fall 2020\Lab 3 Sternberg Memory","no","mono","no","18","no","white","no","yes","768","legacy","42","11","C:/Users/18177/OneDrive/Documents/School/Grad School/Fall 2020/Lab 3 Sternberg Memory/subject-4.csv","legacy","1 4 9 3 2 5","Lentiform Loewenfeld","3.3.3","3","y","0","left","right","right","left","NA","1255","7984","18285","1255","NA","2","legacy","6","1024","2","48000","-16","experiment","4","even","9","357832","364977","4190","108016","364979","363923","4197","89730","367180","369181","370437","365980","12182","369181","NA","Sternberg Task","45","50168","55","yes","1024"
"82.1428571429","82.1428571429","909.75","909.75","black","experiment","legacy","legacy","legacy","0","uniform","1","undefined","1","right","55","55","0","0","55","55","0","0","55","55","55","55","0","55","0","10/22/20 21:58:44","The main experiment item","yes","SternbergTask.osexp","C:\Users\18177\OneDrive\Documents\School\Grad School\Fall 2020\Lab 3 Sternberg Memory","no","mono","no","18","no","white","no","yes","768","legacy","43","11","C:/Users/18177/OneDrive/Documents/School/Grad School/Fall 2020/Lab 3 Sternberg Memory/subject-4.csv","legacy","4 8 1 2","Lentiform Loewenfeld","3.3.3","0","n","0","right","right","right","right","NA","778","7984","18285","778","NA","2","legacy","4","1024","2","48000","-16","experiment","4","even","7","370449","371508","4190","108016","371509","363923","4197","89730","373716","375720","376499","372511","12182","375720","NA","Sternberg Task","46","50946","56","yes","1024"
"82.4561403509","82.4561403509","906.140350877","906.140350877","black","experiment","legacy","legacy","legacy","0","uniform","1","undefined","1","right","56","56","0","0","56","56","0","0","56","56","56","56","0","56","0","10/22/20 21:58:44","The main experiment item","yes","SternbergTask.osexp","C:\Users\18177\OneDrive\Documents\School\Grad School\Fall 2020\Lab 3 Sternberg Memory","no","mono","no","18","no","white","no","yes","768","legacy","44","11","C:/Users/18177/OneDrive/Documents/School/Grad School/Fall 2020/Lab 3 Sternberg Memory/subject-4.csv","legacy","4 1","Lentiform Loewenfeld","3.3.3","0","n","0","right","right","right","right","NA","704","7984","18285","704","NA","2","legacy","2","1024","2","48000","-16","experiment","4","even","6","376513","377566","4190","108016","377569","363923","4197","89730","379775","381779","382483","378570","12182","381779","NA","Sternberg Task","47","51650","57","yes","1024"
"82.7586206897","82.7586206897","903.862068966","903.862068966","black","experiment","legacy","legacy","legacy","0","uniform","1","undefined","1","right","57","57","0","0","57","57","0","0","57","57","57","57","0","57","0","10/22/20 21:58:44","The main experiment item","yes","SternbergTask.osexp","C:\Users\18177\OneDrive\Documents\School\Grad School\Fall 2020\Lab 3 Sternberg Memory","no","mono","no","18","no","white","no","yes","768","legacy","45","11","C:/Users/18177/OneDrive/Documents/School/Grad School/Fall 2020/Lab 3 Sternberg Memory/subject-4.csv","legacy","1 8 7","Lentiform Loewenfeld","3.3.3","0","n","0","right","right","right","right","NA","774","7984","18285","774","NA","2","legacy","3","1024","2","48000","-16","experiment","4","even","4","382496","383551","4190","108016","383552","363923","4197","89730","385756","387757","388532","384554","12182","387757","NA","Sternberg Task","48","52424","58","yes","1024"
"83.0508474576","83.0508474576","902.06779661","902.06779661","black","experiment","legacy","legacy","legacy","0","uniform","1","undefined","1","right","58","58","0","0","58","58","0","0","58","58","58","58","0","58","0","10/22/20 21:58:44","The main experiment item","yes","SternbergTask.osexp","C:\Users\18177\OneDrive\Documents\School\Grad School\Fall 2020\Lab 3 Sternberg Memory","no","mono","no","18","no","white","no","yes","768","legacy","46","11","C:/Users/18177/OneDrive/Documents/School/Grad School/Fall 2020/Lab 3 Sternberg Memory/subject-4.csv","legacy","6 9 5","Lentiform Loewenfeld","3.3.3","0","n","0","right","right","right","right","NA","798","7984","18285","798","NA","2","legacy","3","1024","2","48000","-16","experiment","4","even","8","388544","389597","4190","108016","389599","363923","4197","89730","391803","393804","394603","390601","12182","393804","NA","Sternberg Task","49","53222","59","yes","1024"
"83.3333333333","83.3333333333","900.166666667","900.166666667","black","experiment","legacy","legacy","legacy","0","uniform","1","undefined","1","left","59","59","0","0","59","59","0","0","59","59","59","59","0","59","0","10/22/20 21:58:44","The main experiment item","yes","SternbergTask.osexp","C:\Users\18177\OneDrive\Documents\School\Grad School\Fall 2020\Lab 3 Sternberg Memory","no","mono","no","18","no","white","no","yes","768","legacy","47","11","C:/Users/18177/OneDrive/Documents/School/Grad School/Fall 2020/Lab 3 Sternberg Memory/subject-4.csv","legacy","3 5 9 6 2 4","Lentiform Loewenfeld","3.3.3","1","y","0","left","right","right","left","NA","788","7984","18285","788","NA","2","legacy","6","1024","2","48000","-16","experiment","4","even","3","394615","395670","4190","108016","395671","363923","4197","89730","397876","399877","400666","396672","12182","399877","NA","Sternberg Task","50","54010","60","yes","1024"
"83.606557377","83.606557377","900.704918033","900.704918033","black","experiment","legacy","legacy","legacy","0","uniform","1","undefined","1","right","60","60","0","0","60","60","0","0","60","60","60","60","0","60","0","10/22/20 21:58:44","The main experiment item","yes","SternbergTask.osexp","C:\Users\18177\OneDrive\Documents\School\Grad School\Fall 2020\Lab 3 Sternberg Memory","no","mono","no","18","no","white","no","yes","768","legacy","48","11","C:/Users/18177/OneDrive/Documents/School/Grad School/Fall 2020/Lab 3 Sternberg Memory/subject-4.csv","legacy","7 6 4 8 1 2","Lentiform Loewenfeld","3.3.3","0","n","0","right","right","right","right","NA","933","7984","18285","933","NA","2","legacy","6","1024","2","48000","-16","experiment","4","even","9","400678","401732","4190","108016","401734","363923","4197","89730","403940","405941","406875","402735","12182","405941","NA","Sternberg Task","51","54943","61","yes","1024"
"82.2580645161","82.2580645161","911.14516129","911.14516129","black","experiment","legacy","legacy","legacy","0","uniform","0","undefined","0","left","61","61","0","0","61","61","0","0","61","61","61","61","0","61","0","10/22/20 21:58:44","The main experiment item","yes","SternbergTask.osexp","C:\Users\18177\OneDrive\Documents\School\Grad School\Fall 2020\Lab 3 Sternberg Memory","no","mono","no","18","no","white","no","yes","768","legacy","49","11","C:/Users/18177/OneDrive/Documents/School/Grad School/Fall 2020/Lab 3 Sternberg Memory/subject-4.csv","legacy","5 2 9 6 1 7","Lentiform Loewenfeld","3.3.3","3","y","0","right","right","right","right","NA","1548","7984","18285","1548","NA","2","legacy","6","1024","2","48000","-16","experiment","4","even","9","406889","407944","4190","108016","407945","363923","4197","89730","410148","412149","413698","408947","12182","412149","NA","Sternberg Task","51","56491","62","yes","1024"
"82.5396825397","82.5396825397","906.587301587","906.587301587","black","experiment","legacy","legacy","legacy","0","uniform","1","undefined","1","left","62","62","0","0","62","62","0","0","62","62","62","62","0","62","0","10/22/20 21:58:44","The main experiment item","yes","SternbergTask.osexp","C:\Users\18177\OneDrive\Documents\School\Grad School\Fall 2020\Lab 3 Sternberg Memory","no","mono","no","18","no","white","no","yes","768","legacy","50","11","C:/Users/18177/OneDrive/Documents/School/Grad School/Fall 2020/Lab 3 Sternberg Memory/subject-4.csv","legacy","2 3","Lentiform Loewenfeld","3.3.3","1","y","0","left","right","right","left","NA","624","7984","18285","624","NA","2","legacy","2","1024","2","48000","-16","experiment","4","even","2","406889","414755","4190","108016","414756","413701","4197","89730","416960","418961","419586","415757","12182","418961","NA","Sternberg Task","52","57115","63","yes","1024"
"82.8125","82.8125","904.75","904.75","black","experiment","legacy","legacy","legacy","0","uniform","1","undefined","1","right","63","63","0","0","63","63","0","0","63","63","63","63","0","63","0","10/22/20 21:58:44","The main experiment item","yes","SternbergTask.osexp","C:\Users\18177\OneDrive\Documents\School\Grad School\Fall 2020\Lab 3 Sternberg Memory","no","mono","no","18","no","white","no","yes","768","legacy","51","11","C:/Users/18177/OneDrive/Documents/School/Grad School/Fall 2020/Lab 3 Sternberg Memory/subject-4.csv","legacy","8 4 3 5","Lentiform Loewenfeld","3.3.3","0","n","0","right","right","right","right","NA","789","7984","18285","789","NA","2","legacy","4","1024","2","48000","-16","experiment","4","even","6","419598","420655","4190","108016","420656","413701","4197","89730","422860","424864","425654","421657","12182","424864","NA","Sternberg Task","53","57904","64","yes","1024"
"83.0769230769","83.0769230769","902.107692308","902.107692308","black","experiment","legacy","legacy","legacy","0","uniform","1","undefined","1","right","64","64","0","0","64","64","0","0","64","64","64","64","0","64","0","10/22/20 21:58:44","The main experiment item","yes","SternbergTask.osexp","C:\Users\18177\OneDrive\Documents\School\Grad School\Fall 2020\Lab 3 Sternberg Memory","no","mono","no","18","no","white","no","yes","768","legacy","52","11","C:/Users/18177/OneDrive/Documents/School/Grad School/Fall 2020/Lab 3 Sternberg Memory/subject-4.csv","legacy","7 9","Lentiform Loewenfeld","3.3.3","0","n","0","right","right","right","right","NA","733","7984","18285","733","NA","2","legacy","2","1024","2","48000","-16","experiment","4","even","1","425666","426722","4190","108016","426723","413701","4197","89730","428928","430929","431663","427724","12182","430929","NA","Sternberg Task","54","58637","65","yes","1024"
"83.3333333333","83.3333333333","898.924242424","898.924242424","black","experiment","legacy","legacy","legacy","0","uniform","1","undefined","1","left","65","65","0","0","65","65","0","0","65","65","65","65","0","65","0","10/22/20 21:58:44","The main experiment item","yes","SternbergTask.osexp","C:\Users\18177\OneDrive\Documents\School\Grad School\Fall 2020\Lab 3 Sternberg Memory","no","mono","no","18","no","white","no","yes","768","legacy","53","11","C:/Users/18177/OneDrive/Documents/School/Grad School/Fall 2020/Lab 3 Sternberg Memory/subject-4.csv","legacy","4 1 5","Lentiform Loewenfeld","3.3.3","2","y","0","left","right","right","left","NA","692","7984","18285","692","NA","2","legacy","3","1024","2","48000","-16","experiment","4","even","1","431676","432730","4190","108016","432731","413701","4197","89730","434933","436934","437627","433732","12182","436934","NA","Sternberg Task","55","59329","66","yes","1024"
"83.5820895522","83.5820895522","895.074626866","895.074626866","black","experiment","legacy","legacy","legacy","0","uniform","1","undefined","1","left","66","66","0","0","66","66","0","0","66","66","66","66","0","66","0","10/22/20 21:58:44","The main experiment item","yes","SternbergTask.osexp","C:\Users\18177\OneDrive\Documents\School\Grad School\Fall 2020\Lab 3 Sternberg Memory","no","mono","no","18","no","white","no","yes","768","legacy","54","11","C:/Users/18177/OneDrive/Documents/School/Grad School/Fall 2020/Lab 3 Sternberg Memory/subject-4.csv","legacy","8 3","Lentiform Loewenfeld","3.3.3","2","y","0","left","right","right","left","NA","641","7984","18285","641","NA","2","legacy","2","1024","2","48000","-16","experiment","4","even","3","437641","438695","4190","108016","438697","413701","4197","89730","440900","442901","443543","439698","12182","442901","NA","Sternberg Task","56","59970","67","yes","1024"
"83.8235294118","83.8235294118","892.132352941","892.132352941","black","experiment","legacy","legacy","legacy","0","uniform","1","undefined","1","right","67","67","0","0","67","67","0","0","67","67","67","67","0","67","0","10/22/20 21:58:44","The main experiment item","yes","SternbergTask.osexp","C:\Users\18177\OneDrive\Documents\School\Grad School\Fall 2020\Lab 3 Sternberg Memory","no","mono","no","18","no","white","no","yes","768","legacy","55","11","C:/Users/18177/OneDrive/Documents/School/Grad School/Fall 2020/Lab 3 Sternberg Memory/subject-4.csv","legacy","1","Lentiform Loewenfeld","3.3.3","0","n","0","right","right","right","right","NA","695","7984","18285","695","NA","2","legacy","1","1024","2","48000","-16","experiment","4","even","7","443555","444609","4190","108016","444610","413701","4197","89730","446817","448822","449518","445612","12182","448821","NA","Sternberg Task","57","60665","68","yes","1024"
"84.0579710145","84.0579710145","889.695652174","889.695652174","black","experiment","legacy","legacy","legacy","0","uniform","1","undefined","1","left","68","68","0","0","68","68","0","0","68","68","68","68","0","68","0","10/22/20 21:58:44","The main experiment item","yes","SternbergTask.osexp","C:\Users\18177\OneDrive\Documents\School\Grad School\Fall 2020\Lab 3 Sternberg Memory","no","mono","no","18","no","white","no","yes","768","legacy","56","11","C:/Users/18177/OneDrive/Documents/School/Grad School/Fall 2020/Lab 3 Sternberg Memory/subject-4.csv","legacy","3 9 7 6 4","Lentiform Loewenfeld","3.3.3","3","y","0","left","right","right","left","NA","724","7984","18285","724","NA","2","legacy","5","1024","2","48000","-16","experiment","4","even","7","449531","450585","4190","108016","450587","413701","4197","89730","452793","454794","455519","451588","12182","454794","NA","Sternberg Task","58","61389","69","yes","1024"
"84.2857142857","84.2857142857","886.871428571","886.871428571","black","experiment","legacy","legacy","legacy","0","uniform","1","undefined","1","left","69","69","0","0","69","69","0","0","69","69","69","69","0","69","0","10/22/20 21:58:44","The main experiment item","yes","SternbergTask.osexp","C:\Users\18177\OneDrive\Documents\School\Grad School\Fall 2020\Lab 3 Sternberg Memory","no","mono","no","18","no","white","no","yes","768","legacy","57","11","C:/Users/18177/OneDrive/Documents/School/Grad School/Fall 2020/Lab 3 Sternberg Memory/subject-4.csv","legacy","4 3 2 5 8","Lentiform Loewenfeld","3.3.3","2","y","0","left","right","right","left","NA","692","7984","18285","692","NA","2","legacy","5","1024","2","48000","-16","experiment","4","even","3","455533","456586","4190","108016","456588","413701","4197","89730","458796","460797","461490","457592","12182","460797","NA","Sternberg Task","59","62081","70","yes","1024"
"84.5070422535","84.5070422535","883.690140845","883.690140845","black","experiment","legacy","legacy","legacy","0","uniform","1","undefined","1","left","70","70","0","0","70","70","0","0","70","70","70","70","0","70","0","10/22/20 21:58:44","The main experiment item","yes","SternbergTask.osexp","C:\Users\18177\OneDrive\Documents\School\Grad School\Fall 2020\Lab 3 Sternberg Memory","no","mono","no","18","no","white","no","yes","768","legacy","58","11","C:/Users/18177/OneDrive/Documents/School/Grad School/Fall 2020/Lab 3 Sternberg Memory/subject-4.csv","legacy","4 1 8 7 5","Lentiform Loewenfeld","3.3.3","3","y","0","left","right","right","left","NA","661","7984","18285","661","NA","2","legacy","5","1024","2","48000","-16","experiment","4","even","8","461502","462556","4190","108016","462557","413701","4197","89730","464762","466763","467425","463559","12182","466763","NA","Sternberg Task","60","62742","71","yes","1024"
"84.7222222222","84.7222222222","883.805555556","883.805555556","black","experiment","legacy","legacy","legacy","0","uniform","1","undefined","1","right","71","71","0","0","71","71","0","0","71","71","71","71","0","71","0","10/22/20 21:58:44","The main experiment item","yes","SternbergTask.osexp","C:\Users\18177\OneDrive\Documents\School\Grad School\Fall 2020\Lab 3 Sternberg Memory","no","mono","no","18","no","white","no","yes","768","legacy","59","11","C:/Users/18177/OneDrive/Documents/School/Grad School/Fall 2020/Lab 3 Sternberg Memory/subject-4.csv","legacy","9 5 3 2 8 6","Lentiform Loewenfeld","3.3.3","0","n","0","right","right","right","right","NA","892","7984","18285","892","NA","2","legacy","6","1024","2","48000","-16","experiment","4","even","7","467428","468482","4190","108016","468484","413701","4197","89730","470690","472691","473584","469486","12182","472691","NA","Sternberg Task","61","63634","72","yes","1024"
"83.5616438356","83.5616438356","882.712328767","882.712328767","black","experiment","legacy","legacy","legacy","0","uniform","0","undefined","0","left","72","72","0","0","72","72","0","0","72","72","72","72","0","72","0","10/22/20 21:58:44","The main experiment item","yes","SternbergTask.osexp","C:\Users\18177\OneDrive\Documents\School\Grad School\Fall 2020\Lab 3 Sternberg Memory","no","mono","no","18","no","white","no","yes","768","legacy","60","11","C:/Users/18177/OneDrive/Documents/School/Grad School/Fall 2020/Lab 3 Sternberg Memory/subject-4.csv","legacy","8 5 4 7 3 1","Lentiform Loewenfeld","3.3.3","2","y","0","right","right","right","right","NA","804","7984","18285","804","NA","2","legacy","6","1024","2","48000","-16","experiment","4","even","5","473597","474651","4190","108016","474653","413701","4197","89730","476859","478861","479666","475654","12182","478861","NA","Sternberg Task","61","64438","73","yes","1024"
"83.7837837838","83.7837837838","882.527027027","882.527027027","black","experiment","legacy","legacy","legacy","0","uniform","1","undefined","1","right","73","73","0","0","73","73","0","0","73","73","73","73","0","73","0","10/22/20 21:58:44","The main experiment item","yes","SternbergTask.osexp","C:\Users\18177\OneDrive\Documents\School\Grad School\Fall 2020\Lab 3 Sternberg Memory","no","mono","no","18","no","white","no","yes","768","legacy","61","11","C:/Users/18177/OneDrive/Documents/School/Grad School/Fall 2020/Lab 3 Sternberg Memory/subject-4.csv","legacy","5 3 8 7 2 4","Lentiform Loewenfeld","3.3.3","0","n","0","right","right","right","right","NA","869","7984","18285","869","NA","2","legacy","6","1024","2","48000","-16","experiment","4","even","9","473597","480734","4190","108016","480736","479679","4197","89730","482940","484941","485811","481737","12182","484941","NA","Sternberg Task","62","65307","74","yes","1024"
"84","84","881.106666667","881.106666667","black","experiment","legacy","legacy","legacy","0","uniform","1","undefined","1","left","74","74","0","0","74","74","0","0","74","74","74","74","0","74","0","10/22/20 21:58:44","The main experiment item","yes","SternbergTask.osexp","C:\Users\18177\OneDrive\Documents\School\Grad School\Fall 2020\Lab 3 Sternberg Memory","no","mono","no","18","no","white","no","yes","768","legacy","62","11","C:/Users/18177/OneDrive/Documents/School/Grad School/Fall 2020/Lab 3 Sternberg Memory/subject-4.csv","legacy","2 5 4 8 7","Lentiform Loewenfeld","3.3.3","3","y","0","left","right","right","left","NA","776","7984","18285","776","NA","2","legacy","5","1024","2","48000","-16","experiment","4","even","4","485824","486879","4190","108016","486881","479679","4197","89730","489084","491085","491862","487882","12182","491085","NA","Sternberg Task","63","66083","75","yes","1024"
"84.2105263158","84.2105263158","882.078947368","882.078947368","black","experiment","legacy","legacy","legacy","0","uniform","1","undefined","1","right","75","75","0","0","75","75","0","0","75","75","75","75","0","75","0","10/22/20 21:58:44","The main experiment item","yes","SternbergTask.osexp","C:\Users\18177\OneDrive\Documents\School\Grad School\Fall 2020\Lab 3 Sternberg Memory","no","mono","no","18","no","white","no","yes","768","legacy","63","11","C:/Users/18177/OneDrive/Documents/School/Grad School/Fall 2020/Lab 3 Sternberg Memory/subject-4.csv","legacy","8 2 1 4 5 9","Lentiform Loewenfeld","3.3.3","0","n","0","right","right","right","right","NA","955","7984","18285","955","NA","2","legacy","6","1024","2","48000","-16","experiment","4","even","7","491873","492928","4190","108016","492930","479679","4197","89730","495135","497136","498092","493931","12182","497136","NA","Sternberg Task","64","67038","76","yes","1024"
"84.4155844156","84.4155844156","878.532467532","878.532467532","black","experiment","legacy","legacy","legacy","0","uniform","1","undefined","1","left","76","76","0","0","76","76","0","0","76","76","76","76","0","76","0","10/22/20 21:58:44","The main experiment item","yes","SternbergTask.osexp","C:\Users\18177\OneDrive\Documents\School\Grad School\Fall 2020\Lab 3 Sternberg Memory","no","mono","no","18","no","white","no","yes","768","legacy","64","11","C:/Users/18177/OneDrive/Documents/School/Grad School/Fall 2020/Lab 3 Sternberg Memory/subject-4.csv","legacy","7 1 3","Lentiform Loewenfeld","3.3.3","2","y","0","left","right","right","left","NA","609","7984","18285","609","NA","2","legacy","3","1024","2","48000","-16","experiment","4","even","1","498105","499167","4190","108016","499168","479679","4197","89730","501373","503374","503983","500169","12182","503374","NA","Sternberg Task","65","67647","77","yes","1024"
"84.6153846154","84.6153846154","876.974358974","876.974358974","black","experiment","legacy","legacy","legacy","0","uniform","1","undefined","1","right","77","77","0","0","77","77","0","0","77","77","77","77","0","77","0","10/22/20 21:58:44","The main experiment item","yes","SternbergTask.osexp","C:\Users\18177\OneDrive\Documents\School\Grad School\Fall 2020\Lab 3 Sternberg Memory","no","mono","no","18","no","white","no","yes","768","legacy","65","11","C:/Users/18177/OneDrive/Documents/School/Grad School/Fall 2020/Lab 3 Sternberg Memory/subject-4.csv","legacy","5 3 2 6 9 8","Lentiform Loewenfeld","3.3.3","0","n","0","right","right","right","right","NA","757","7984","18285","757","NA","2","legacy","6","1024","2","48000","-16","experiment","4","even","4","503995","505051","4190","108016","505052","479679","4197","89730","507255","509256","510014","506053","12182","509256","NA","Sternberg Task","66","68404","78","yes","1024"
"84.8101265823","84.8101265823","874.392405063","874.392405063","black","experiment","legacy","legacy","legacy","0","uniform","1","undefined","1","right","78","78","0","0","78","78","0","0","78","78","78","78","0","78","0","10/22/20 21:58:44","The main experiment item","yes","SternbergTask.osexp","C:\Users\18177\OneDrive\Documents\School\Grad School\Fall 2020\Lab 3 Sternberg Memory","no","mono","no","18","no","white","no","yes","768","legacy","66","11","C:/Users/18177/OneDrive/Documents/School/Grad School/Fall 2020/Lab 3 Sternberg Memory/subject-4.csv","legacy","2 3 8 5 6 7","Lentiform Loewenfeld","3.3.3","0","n","0","right","right","right","right","NA","673","7984","18285","673","NA","2","legacy","6","1024","2","48000","-16","experiment","4","even","1","510028","511082","4190","108016","511084","479679","4197","89730","513288","515289","515963","512085","12182","515289","NA","Sternberg Task","67","69077","79","yes","1024"
"85","85","872.325","872.325","black","experiment","legacy","legacy","legacy","0","uniform","1","undefined","1","left","79","79","0","0","79","79","0","0","79","79","79","79","0","79","0","10/22/20 21:58:44","The main experiment item","yes","SternbergTask.osexp","C:\Users\18177\OneDrive\Documents\School\Grad School\Fall 2020\Lab 3 Sternberg Memory","no","mono","no","18","no","white","no","yes","768","legacy","67","11","C:/Users/18177/OneDrive/Documents/School/Grad School/Fall 2020/Lab 3 Sternberg Memory/subject-4.csv","legacy","3 4 9 6 2 9","Lentiform Loewenfeld","3.3.3","5","y","0","left","right","right","left","NA","709","7984","18285","709","NA","2","legacy","6","1024","2","48000","-16","experiment","4","even","2","515977","517052","4190","108016","517053","479679","4197","89730","519259","521260","521969","518054","12182","521260","NA","Sternberg Task","68","69786","80","yes","1024"
"85.1851851852","85.1851851852","870.283950617","870.283950617","black","experiment","legacy","legacy","legacy","0","uniform","1","undefined","1","left","80","80","0","0","80","80","0","0","80","80","80","80","0","80","0","10/22/20 21:58:44","The main experiment item","yes","SternbergTask.osexp","C:\Users\18177\OneDrive\Documents\School\Grad School\Fall 2020\Lab 3 Sternberg Memory","no","mono","no","18","no","white","no","yes","768","legacy","68","11","C:/Users/18177/OneDrive/Documents/School/Grad School/Fall 2020/Lab 3 Sternberg Memory/subject-4.csv","legacy","3 9 6 2","Lentiform Loewenfeld","3.3.3","4","y","0","left","right","right","left","NA","707","7984","18285","707","NA","2","legacy","4","1024","2","48000","-16","experiment","4","even","2","521982","523041","4190","108016","523042","479679","4197","89730","525245","527250","527957","524044","12182","527249","NA","Sternberg Task","69","70493","81","yes","1024"
"85.3658536585","85.3658536585","869.304878049","869.304878049","black","experiment","legacy","legacy","legacy","0","uniform","1","undefined","1","right","81","81","0","0","81","81","0","0","81","81","81","81","0","81","0","10/22/20 21:58:44","The main experiment item","yes","SternbergTask.osexp","C:\Users\18177\OneDrive\Documents\School\Grad School\Fall 2020\Lab 3 Sternberg Memory","no","mono","no","18","no","white","no","yes","768","legacy","69","11","C:/Users/18177/OneDrive/Documents/School/Grad School/Fall 2020/Lab 3 Sternberg Memory/subject-4.csv","legacy","2 8 9","Lentiform Loewenfeld","3.3.3","0","n","0","right","right","right","right","NA","790","7984","18285","790","NA","2","legacy","3","1024","2","48000","-16","experiment","4","even","6","527970","529032","4190","108016","529034","479679","4197","89730","531238","533239","534030","530037","12182","533239","NA","Sternberg Task","70","71283","82","yes","1024"
"85.5421686747","85.5421686747","871.337349398","871.337349398","black","experiment","legacy","legacy","legacy","0","uniform","1","undefined","1","right","82","82","0","0","82","82","0","0","82","82","82","82","0","82","0","10/22/20 21:58:44","The main experiment item","yes","SternbergTask.osexp","C:\Users\18177\OneDrive\Documents\School\Grad School\Fall 2020\Lab 3 Sternberg Memory","no","mono","no","18","no","white","no","yes","768","legacy","70","11","C:/Users/18177/OneDrive/Documents/School/Grad School/Fall 2020/Lab 3 Sternberg Memory/subject-4.csv","legacy","6 3 1 7 9 8","Lentiform Loewenfeld","3.3.3","0","n","0","right","right","right","right","NA","1038","7984","18285","1038","NA","2","legacy","6","1024","2","48000","-16","experiment","4","even","4","534042","535096","4190","108016","535099","479679","4197","89730","537302","539303","540342","536100","12182","539303","NA","Sternberg Task","71","72321","83","yes","1024"
"85.7142857143","85.7142857143","869.142857143","869.142857143","black","experiment","legacy","legacy","legacy","0","uniform","1","undefined","1","right","83","83","0","0","83","83","0","0","83","83","83","83","0","83","0","10/22/20 21:58:44","The main experiment item","yes","SternbergTask.osexp","C:\Users\18177\OneDrive\Documents\School\Grad School\Fall 2020\Lab 3 Sternberg Memory","no","mono","no","18","no","white","no","yes","768","legacy","71","11","C:/Users/18177/OneDrive/Documents/School/Grad School/Fall 2020/Lab 3 Sternberg Memory/subject-4.csv","legacy","7 1","Lentiform Loewenfeld","3.3.3","0","n","0","right","right","right","right","NA","687","7984","18285","687","NA","2","legacy","2","1024","2","48000","-16","experiment","4","even","8","540354","541412","4190","108016","541413","479679","4197","89730","543621","545626","546314","542417","12182","545624","NA","Sternberg Task","72","73008","84","yes","1024"
"85.8823529412","85.8823529412","867.435294118","867.435294118","black","experiment","legacy","legacy","legacy","0","uniform","1","undefined","1","right","84","84","0","0","84","84","0","0","84","84","84","84","0","84","0","10/22/20 21:58:44","The main experiment item","yes","SternbergTask.osexp","C:\Users\18177\OneDrive\Documents\School\Grad School\Fall 2020\Lab 3 Sternberg Memory","no","mono","no","18","no","white","no","yes","768","legacy","72","11","C:/Users/18177/OneDrive/Documents/School/Grad School/Fall 2020/Lab 3 Sternberg Memory/subject-4.csv","legacy","3 9 1","Lentiform Loewenfeld","3.3.3","0","n","0","right","right","right","right","NA","724","7984","18285","724","NA","2","legacy","3","1024","2","48000","-16","experiment","4","even","7","546327","547382","4190","108016","547384","479679","4197","89730","549586","551587","552312","548385","12182","551587","NA","Sternberg Task","73","73732","85","yes","1024"
"86.0465116279","86.0465116279","866.953488372","866.953488372","black","experiment","legacy","legacy","legacy","0","uniform","1","undefined","1","right","85","85","0","0","85","85","0","0","85","85","85","85","0","85","0","10/22/20 21:58:44","The main experiment item","yes","SternbergTask.osexp","C:\Users\18177\OneDrive\Documents\School\Grad School\Fall 2020\Lab 3 Sternberg Memory","no","mono","no","18","no","white","no","yes","768","legacy","73","11","C:/Users/18177/OneDrive/Documents/School/Grad School/Fall 2020/Lab 3 Sternberg Memory/subject-4.csv","legacy","2 8 9 4 1","Lentiform Loewenfeld","3.3.3","0","n","0","right","right","right","right","NA","826","7984","18285","826","NA","2","legacy","5","1024","2","48000","-16","experiment","4","even","5","552326","553380","4190","108016","553382","479679","4197","89730","555584","557586","558412","554383","12182","557585","NA","Sternberg Task","74","74558","86","yes","1024"
"86.2068965517","86.2068965517","866.793103448","866.793103448","black","experiment","legacy","legacy","legacy","0","uniform","1","undefined","1","left","86","86","0","0","86","86","0","0","86","86","86","86","0","86","0","10/22/20 21:58:44","The main experiment item","yes","SternbergTask.osexp","C:\Users\18177\OneDrive\Documents\School\Grad School\Fall 2020\Lab 3 Sternberg Memory","no","mono","no","18","no","white","no","yes","768","legacy","74","11","C:/Users/18177/OneDrive/Documents/School/Grad School/Fall 2020/Lab 3 Sternberg Memory/subject-4.csv","legacy","9 3 1 2 5","Lentiform Loewenfeld","3.3.3","4","y","0","left","right","right","left","NA","853","7984","18285","853","NA","2","legacy","5","1024","2","48000","-16","experiment","4","even","2","558428","559489","4190","108016","559492","479679","4197","89730","561697","563698","564552","560492","12182","563698","NA","Sternberg Task","75","75411","87","yes","1024"
"86.3636363636","86.3636363636","865.215909091","865.215909091","black","experiment","legacy","legacy","legacy","0","uniform","1","undefined","1","right","87","87","0","0","87","87","0","0","87","87","87","87","0","87","0","10/22/20 21:58:44","The main experiment item","yes","SternbergTask.osexp","C:\Users\18177\OneDrive\Documents\School\Grad School\Fall 2020\Lab 3 Sternberg Memory","no","mono","no","18","no","white","no","yes","768","legacy","75","11","C:/Users/18177/OneDrive/Documents/School/Grad School/Fall 2020/Lab 3 Sternberg Memory/subject-4.csv","legacy","1 4 3 6 5","Lentiform Loewenfeld","3.3.3","0","n","0","right","right","right","right","NA","728","7984","18285","728","NA","2","legacy","5","1024","2","48000","-16","experiment","4","even","8","564556","565610","4190","108016","565612","479679","4197","89730","567818","569819","570548","566613","12182","569819","NA","Sternberg Task","76","76139","88","yes","1024"
"86.5168539326","86.5168539326","863.359550562","863.359550562","black","experiment","legacy","legacy","legacy","0","uniform","1","undefined","1","left","88","88","0","0","88","88","0","0","88","88","88","88","0","88","0","10/22/20 21:58:44","The main experiment item","yes","SternbergTask.osexp","C:\Users\18177\OneDrive\Documents\School\Grad School\Fall 2020\Lab 3 Sternberg Memory","no","mono","no","18","no","white","no","yes","768","legacy","76","11","C:/Users/18177/OneDrive/Documents/School/Grad School/Fall 2020/Lab 3 Sternberg Memory/subject-4.csv","legacy","9 8 4","Lentiform Loewenfeld","3.3.3","1","y","0","left","right","right","left","NA","700","7984","18285","700","NA","2","legacy","3","1024","2","48000","-16","experiment","4","even","9","570563","571617","4190","108016","571618","479679","4197","89730","573823","575824","576525","572619","12182","575824","NA","Sternberg Task","77","76839","89","yes","1024"
"86.6666666667","86.6666666667","861.888888889","861.888888889","black","experiment","legacy","legacy","legacy","0","uniform","1","undefined","1","left","89","89","0","0","89","89","0","0","89","89","89","89","0","89","0","10/22/20 21:58:44","The main experiment item","yes","SternbergTask.osexp","C:\Users\18177\OneDrive\Documents\School\Grad School\Fall 2020\Lab 3 Sternberg Memory","no","mono","no","18","no","white","no","yes","768","legacy","77","11","C:/Users/18177/OneDrive/Documents/School/Grad School/Fall 2020/Lab 3 Sternberg Memory/subject-4.csv","legacy","8 9 5 7 1 6","Lentiform Loewenfeld","3.3.3","4","y","0","left","right","right","left","NA","731","7984","18285","731","NA","2","legacy","6","1024","2","48000","-16","experiment","4","even","7","576539","577593","4190","108016","577595","479679","4197","89730","579801","581806","582539","578597","12182","581805","NA","Sternberg Task","78","77570","90","yes","1024"
"86.8131868132","86.8131868132","860.56043956","860.56043956","black","experiment","legacy","legacy","legacy","0","uniform","1","undefined","1","right","90","90","0","0","90","90","0","0","90","90","90","90","0","90","0","10/22/20 21:58:44","The main experiment item","yes","SternbergTask.osexp","C:\Users\18177\OneDrive\Documents\School\Grad School\Fall 2020\Lab 3 Sternberg Memory","no","mono","no","18","no","white","no","yes","768","legacy","78","11","C:/Users/18177/OneDrive/Documents/School/Grad School/Fall 2020/Lab 3 Sternberg Memory/subject-4.csv","legacy","5 9 2 3","Lentiform Loewenfeld","3.3.3","0","n","0","right","right","right","right","NA","741","7984","18285","741","NA","2","legacy","4","1024","2","48000","-16","experiment","4","even","8","582550","583604","4190","108016","583605","479679","4197","89730","585812","587817","588559","584609","12182","587816","NA","Sternberg Task","79","78311","91","yes","1024"
"86.9565217391","86.9565217391","859.706521739","859.706521739","black","experiment","legacy","legacy","legacy","0","uniform","1","undefined","1","right","91","91","0","0","91","91","0","0","91","91","91","91","0","91","0","10/22/20 21:58:44","The main experiment item","yes","SternbergTask.osexp","C:\Users\18177\OneDrive\Documents\School\Grad School\Fall 2020\Lab 3 Sternberg Memory","no","mono","no","18","no","white","no","yes","768","legacy","79","11","C:/Users/18177/OneDrive/Documents/School/Grad School/Fall 2020/Lab 3 Sternberg Memory/subject-4.csv","legacy","6 2 9 3 8 4","Lentiform Loewenfeld","3.3.3","0","n","0","right","right","right","right","NA","782","7984","18285","782","NA","2","legacy","6","1024","2","48000","-16","experiment","4","even","1","588571","589627","4190","108016","589628","479679","4197","89730","591834","593835","594618","590629","12182","593835","NA","Sternberg Task","80","79093","92","yes","1024"
"86.0215053763","86.0215053763","858.182795699","858.182795699","black","experiment","legacy","legacy","legacy","0","uniform","0","undefined","0","left","92","92","0","0","92","92","0","0","92","92","92","92","0","92","0","10/22/20 21:58:44","The main experiment item","yes","SternbergTask.osexp","C:\Users\18177\OneDrive\Documents\School\Grad School\Fall 2020\Lab 3 Sternberg Memory","no","mono","no","18","no","white","no","yes","768","legacy","80","11","C:/Users/18177/OneDrive/Documents/School/Grad School/Fall 2020/Lab 3 Sternberg Memory/subject-4.csv","legacy","2 6 1 7 4","Lentiform Loewenfeld","3.3.3","2","y","0","right","right","right","right","NA","718","7984","18285","718","NA","2","legacy","5","1024","2","48000","-16","experiment","4","even","6","594622","595676","4190","108016","595678","479679","4197","89730","597883","599884","600603","596679","12182","599884","NA","Sternberg Task","80","79811","93","yes","1024"
"86.170212766","86.170212766","855.968085106","855.968085106","black","experiment","legacy","legacy","legacy","0","uniform","1","undefined","1","left","93","93","0","0","93","93","0","0","93","93","93","93","0","93","0","10/22/20 21:58:44","The main experiment item","yes","SternbergTask.osexp","C:\Users\18177\OneDrive\Documents\School\Grad School\Fall 2020\Lab 3 Sternberg Memory","no","mono","no","18","no","white","no","yes","768","legacy","81","11","C:/Users/18177/OneDrive/Documents/School/Grad School/Fall 2020/Lab 3 Sternberg Memory/subject-4.csv","legacy","6 8 9 3 4 9","Lentiform Loewenfeld","3.3.3","5","y","0","left","right","right","left","NA","650","7984","18285","650","NA","2","legacy","6","1024","2","48000","-16","experiment","4","even","4","594622","601671","4190","108016","601672","600616","4197","89730","603877","605878","606529","602673","12182","605878","NA","Sternberg Task","81","80461","94","yes","1024"
"86.3157894737","86.3157894737","853.147368421","853.147368421","black","experiment","legacy","legacy","legacy","0","uniform","1","undefined","1","left","94","94","0","0","94","94","0","0","94","94","94","94","0","94","0","10/22/20 21:58:44","The main experiment item","yes","SternbergTask.osexp","C:\Users\18177\OneDrive\Documents\School\Grad School\Fall 2020\Lab 3 Sternberg Memory","no","mono","no","18","no","white","no","yes","768","legacy","82","11","C:/Users/18177/OneDrive/Documents/School/Grad School/Fall 2020/Lab 3 Sternberg Memory/subject-4.csv","legacy","4","Lentiform Loewenfeld","3.3.3","1","y","0","left","right","right","left","NA","588","7984","18285","588","NA","2","legacy","1","1024","2","48000","-16","experiment","4","even","4","606541","607595","4190","108016","607597","600616","4197","89730","609803","611809","612398","608599","12182","611808","NA","Sternberg Task","82","81049","95","yes","1024"
"86.4583333333","86.4583333333","853.885416667","853.885416667","black","experiment","legacy","legacy","legacy","0","uniform","1","undefined","1","left","95","95","0","0","95","95","0","0","95","95","95","95","0","95","0","10/22/20 21:58:44","The main experiment item","yes","SternbergTask.osexp","C:\Users\18177\OneDrive\Documents\School\Grad School\Fall 2020\Lab 3 Sternberg Memory","no","mono","no","18","no","white","no","yes","768","legacy","83","11","C:/Users/18177/OneDrive/Documents/School/Grad School/Fall 2020/Lab 3 Sternberg Memory/subject-4.csv","legacy","6 9 7 4 5 1","Lentiform Loewenfeld","3.3.3","2","y","0","left","right","right","left","NA","924","7984","18285","924","NA","2","legacy","6","1024","2","48000","-16","experiment","4","even","9","612411","613465","4190","108016","613466","600616","4197","89730","615672","617675","618600","614467","12182","617675","NA","Sternberg Task","83","81973","96","yes","1024"
"86.5979381443","86.5979381443","851.855670103","851.855670103","black","experiment","legacy","legacy","legacy","0","uniform","1","undefined","1","left","96","96","0","0","96","96","0","0","96","96","96","96","0","96","0","10/22/20 21:58:44","The main experiment item","yes","SternbergTask.osexp","C:\Users\18177\OneDrive\Documents\School\Grad School\Fall 2020\Lab 3 Sternberg Memory","no","mono","no","18","no","white","no","yes","768","legacy","84","11","C:/Users/18177/OneDrive/Documents/School/Grad School/Fall 2020/Lab 3 Sternberg Memory/subject-4.csv","legacy","7 6","Lentiform Loewenfeld","3.3.3","2","y","0","left","right","right","left","NA","657","7984","18285","657","NA","2","legacy","2","1024","2","48000","-16","experiment","4","even","6","618611","619666","4190","108016","619667","600616","4197","89730","621873","623874","624533","620669","12182","623874","NA","Sternberg Task","84","82630","97","yes","1024"
"86.7346938776","86.7346938776","849.43877551","849.43877551","black","experiment","legacy","legacy","legacy","0","uniform","1","undefined","1","left","97","97","0","0","97","97","0","0","97","97","97","97","0","97","0","10/22/20 21:58:44","The main experiment item","yes","SternbergTask.osexp","C:\Users\18177\OneDrive\Documents\School\Grad School\Fall 2020\Lab 3 Sternberg Memory","no","mono","no","18","no","white","no","yes","768","legacy","85","11","C:/Users/18177/OneDrive/Documents/School/Grad School/Fall 2020/Lab 3 Sternberg Memory/subject-4.csv","legacy","2 4 6 9","Lentiform Loewenfeld","3.3.3","3","y","0","left","right","right","left","NA","615","7984","18285","615","NA","2","legacy","4","1024","2","48000","-16","experiment","4","even","6","624545","625621","4190","108016","625622","600616","4197","89730","627828","629830","630446","626623","12182","629830","NA","Sternberg Task","85","83245","98","yes","1024"
"86.8686868687","86.8686868687","848.080808081","848.080808081","black","experiment","legacy","legacy","legacy","0","uniform","1","undefined","1","right","98","98","0","0","98","98","0","0","98","98","98","98","0","98","0","10/22/20 21:58:44","The main experiment item","yes","SternbergTask.osexp","C:\Users\18177\OneDrive\Documents\School\Grad School\Fall 2020\Lab 3 Sternberg Memory","no","mono","no","18","no","white","no","yes","768","legacy","86","11","C:/Users/18177/OneDrive/Documents/School/Grad School/Fall 2020/Lab 3 Sternberg Memory/subject-4.csv","legacy","5 7 3","Lentiform Loewenfeld","3.3.3","0","n","0","right","right","right","right","NA","715","7984","18285","715","NA","2","legacy","3","1024","2","48000","-16","experiment","4","even","9","630458","631517","4190","108016","631518","600616","4197","89730","633726","635727","636443","632522","12182","635727","NA","Sternberg Task","86","83960","99","yes","1024"
"87","87","846.91","846.91","black","experiment","legacy","legacy","legacy","0","uniform","1","undefined","1","right","99","99","0","0","99","99","0","0","99","99","99","99","0","99","0","10/22/20 21:58:44","The main experiment item","yes","SternbergTask.osexp","C:\Users\18177\OneDrive\Documents\School\Grad School\Fall 2020\Lab 3 Sternberg Memory","no","mono","no","18","no","white","no","yes","768","legacy","87","11","C:/Users/18177/OneDrive/Documents/School/Grad School/Fall 2020/Lab 3 Sternberg Memory/subject-4.csv","legacy","2 8 6 3 1","Lentiform Loewenfeld","3.3.3","0","n","0","right","right","right","right","NA","731","7984","18285","731","NA","2","legacy","5","1024","2","48000","-16","experiment","4","even","7","636455","637511","4190","108016","637512","600616","4197","89730","639714","641715","642446","638513","12182","641715","NA","Sternberg Task","87","84691","100","yes","1024"
"87.1287128713","87.1287128713","845.801980198","845.801980198","black","experiment","legacy","legacy","legacy","0","uniform","1","undefined","1","left","100","100","0","0","100","100","0","0","100","100","100","100","0","100","0","10/22/20 21:58:44","The main experiment item","yes","SternbergTask.osexp","C:\Users\18177\OneDrive\Documents\School\Grad School\Fall 2020\Lab 3 Sternberg Memory","no","mono","no","18","no","white","no","yes","768","legacy","88","11","C:/Users/18177/OneDrive/Documents/School/Grad School/Fall 2020/Lab 3 Sternberg Memory/subject-4.csv","legacy","5 7 8 2 3 8","Lentiform Loewenfeld","3.3.3","5","y","0","left","right","right","left","NA","735","7984","18285","735","NA","2","legacy","6","1024","2","48000","-16","experiment","4","even","3","642459","643513","4190","108016","643514","600616","4197","89730","645720","647721","648457","644516","12182","647721","NA","Sternberg Task","88","85426","101","yes","1024"
"87.2549019608","87.2549019608","844.274509804","844.274509804","black","experiment","legacy","legacy","legacy","0","uniform","1","undefined","1","left","101","101","0","0","101","101","0","0","101","101","101","101","0","101","0","10/22/20 21:58:44","The main experiment item","yes","SternbergTask.osexp","C:\Users\18177\OneDrive\Documents\School\Grad School\Fall 2020\Lab 3 Sternberg Memory","no","mono","no","18","no","white","no","yes","768","legacy","89","11","C:/Users/18177/OneDrive/Documents/School/Grad School/Fall 2020/Lab 3 Sternberg Memory/subject-4.csv","legacy","4 9 7 8 5 3","Lentiform Loewenfeld","3.3.3","4","y","0","left","right","right","left","NA","690","7984","18285","690","NA","2","legacy","6","1024","2","48000","-16","experiment","4","even","8","648461","649515","4190","108016","649518","600616","4197","89730","651723","653724","654415","650519","12182","653724","NA","Sternberg Task","89","86116","102","yes","1024"
"86.4077669903","86.4077669903","840.86407767","840.86407767","black","experiment","legacy","legacy","legacy","0","uniform","0","undefined","0","right","102","102","0","0","102","102","0","0","102","102","102","102","0","102","0","10/22/20 21:58:44","The main experiment item","yes","SternbergTask.osexp","C:\Users\18177\OneDrive\Documents\School\Grad School\Fall 2020\Lab 3 Sternberg Memory","no","mono","no","18","no","white","no","yes","768","legacy","90","11","C:/Users/18177/OneDrive/Documents/School/Grad School/Fall 2020/Lab 3 Sternberg Memory/subject-4.csv","legacy","8 5 4 2 9 6","Lentiform Loewenfeld","3.3.3","0","n","0","left","right","right","left","NA","493","7984","18285","493","NA","2","legacy","6","1024","2","48000","-16","experiment","4","even","3","654426","655480","4190","108016","655482","600616","4197","89730","657687","659688","660183","656483","12182","659688","NA","Sternberg Task","89","86609","103","yes","1024"
"86.5384615385","86.5384615385","840.317307692","840.317307692","black","experiment","legacy","legacy","legacy","0","uniform","1","undefined","1","right","103","103","0","0","103","103","0","0","103","103","103","103","0","103","0","10/22/20 21:58:44","The main experiment item","yes","SternbergTask.osexp","C:\Users\18177\OneDrive\Documents\School\Grad School\Fall 2020\Lab 3 Sternberg Memory","no","mono","no","18","no","white","no","yes","768","legacy","91","11","C:/Users/18177/OneDrive/Documents/School/Grad School/Fall 2020/Lab 3 Sternberg Memory/subject-4.csv","legacy","6 9 4 5 2","Lentiform Loewenfeld","3.3.3","0","n","0","right","right","right","right","NA","784","7984","18285","784","NA","2","legacy","5","1024","2","48000","-16","experiment","4","even","1","654426","661257","4190","108016","661258","660195","4197","89730","663462","665463","666248","662259","12182","665463","NA","Sternberg Task","90","87393","104","yes","1024"
"86.6666666667","86.6666666667","838.2","838.2","black","experiment","legacy","legacy","legacy","0","uniform","1","undefined","1","left","104","104","0","0","104","104","0","0","104","104","104","104","0","104","0","10/22/20 21:58:44","The main experiment item","yes","SternbergTask.osexp","C:\Users\18177\OneDrive\Documents\School\Grad School\Fall 2020\Lab 3 Sternberg Memory","no","mono","no","18","no","white","no","yes","768","legacy","92","11","C:/Users/18177/OneDrive/Documents/School/Grad School/Fall 2020/Lab 3 Sternberg Memory/subject-4.csv","legacy","8 5 3 7 4 6","Lentiform Loewenfeld","3.3.3","6","y","0","left","right","right","left","NA","618","7984","18285","618","NA","2","legacy","6","1024","2","48000","-16","experiment","4","even","6","666261","667316","4190","108016","667318","660195","4197","89730","669523","671524","672143","668319","12182","671524","NA","Sternberg Task","91","88011","105","yes","1024"
"86.7924528302","86.7924528302","836.254716981","836.254716981","black","experiment","legacy","legacy","legacy","0","uniform","1","undefined","1","left","105","105","0","0","105","105","0","0","105","105","105","105","0","105","0","10/22/20 21:58:44","The main experiment item","yes","SternbergTask.osexp","C:\Users\18177\OneDrive\Documents\School\Grad School\Fall 2020\Lab 3 Sternberg Memory","no","mono","no","18","no","white","no","yes","768","legacy","93","11","C:/Users/18177/OneDrive/Documents/School/Grad School/Fall 2020/Lab 3 Sternberg Memory/subject-4.csv","legacy","8 7 3","Lentiform Loewenfeld","3.3.3","1","y","0","left","right","right","left","NA","632","7984","18285","632","NA","2","legacy","3","1024","2","48000","-16","experiment","4","even","8","672146","673200","4190","108016","673202","660195","4197","89730","675405","677406","678039","674203","12182","677406","NA","Sternberg Task","92","88643","106","yes","1024"
