"acc","accuracy","average_response_time","avg_rt","background","block","canvas_backend","clock_backend","color_backend","compensation","coordinates","correct","correct_instruction1","correct_keyboard_response","correct_response","count_ISI","count_Practiceloop","count_correctFeedback","count_expSequence","count_experiment","count_experimentLoop","count_fixation","count_incorrectFeedback","count_instruction1","count_instructions2","count_keyboard_response","count_logger","count_memorySet","count_probe","count_thankYou","datetime","description","disable_garbage_collection","experiment_file","experiment_path","font_bold","font_family","font_italic","font_size","font_underline","foreground","form_clicks","fullscreen","height","keyboard_backend","live_row","live_row_Practiceloop","logfile","mouse_backend","numberSet","opensesame_codename","opensesame_version","posInSet","present","repeat_cycle","response","response_instruction1","response_instructions2","response_keyboard_response","response_thankYou","response_time","response_time_instruction1","response_time_instructions2","response_time_keyboard_response","response_time_thankYou","round_decimals","sampler_backend","setSize","sound_buf_size","sound_channels","sound_freq","sound_sample_size","start","subject_nr","subject_parity","target","time_ISI","time_Practiceloop","time_correctFeedback","time_expSequence","time_experiment","time_experimentLoop","time_fixation","time_incorrectFeedback","time_instruction1","time_instructions2","time_keyboard_response","time_logger","time_memorySet","time_probe","time_thankYou","title","total_correct","total_response_time","total_responses","uniform_coordinates","width"
"100","100","1378","1378","black","practice","legacy","legacy","legacy","0","uniform","1","undefined","1","right","0","0","0","0","0","0","0","0","0","0","0","0","0","0","0","Wed Oct 20 12:25:59 2021","The main experiment item","yes","Sternbergtask.osexp","C:/Users/Simon M. Rook/Documents/School/1Tarleton/Classes/Adv Quant/Lab 3","no","mono","no","18","no","white","no","no","768","legacy","0","0","C:/Users/Simon M. Rook/Documents/School/1Tarleton/Classes/Adv Quant/Lab 3/New folder/sr-subject-4.csv","legacy","5 7 8 4 1 2","Lentiform Loewenfeld","3.3.10","0","n","0","right","left","NA","right","NA","1378","1442","NA","1378","NA","2","legacy","6","1024","2","48000","-16","experiment","4","even","6","6721","2653","NA","4510","1207","NA","4513","NA","1210","NA","8722","10100","5514","8722","NA","Sternberg task","1","1378","1","yes","1024"
"100","100","1079","1079","black","practice","legacy","legacy","legacy","0","uniform","1","undefined","1","right","1","0","1","1","0","0","1","1","0","0","1","1","1","1","0","Wed Oct 20 12:25:59 2021","The main experiment item","yes","Sternbergtask.osexp","C:/Users/Simon M. Rook/Documents/School/1Tarleton/Classes/Adv Quant/Lab 3","no","mono","no","18","no","white","no","no","768","legacy","1","1","C:/Users/Simon M. Rook/Documents/School/1Tarleton/Classes/Adv Quant/Lab 3/New folder/sr-subject-4.csv","legacy","9 6 7 4 5","Lentiform Loewenfeld","3.3.10","0","n","0","right","left","NA","right","NA","780","1442","NA","780","NA","2","legacy","5","1024","2","48000","-16","experiment","4","even","3","13488","2653","10167","11284","1207","NA","11286","NA","1210","NA","15489","16269","12287","15489","NA","Sternberg task","2","2158","2","yes","1024"
"100","100","906","906","black","practice","legacy","legacy","legacy","0","uniform","1","undefined","1","right","2","0","2","2","0","0","2","2","0","0","2","2","2","2","0","Wed Oct 20 12:25:59 2021","The main experiment item","yes","Sternbergtask.osexp","C:/Users/Simon M. Rook/Documents/School/1Tarleton/Classes/Adv Quant/Lab 3","no","mono","no","18","no","white","no","no","768","legacy","2","2","C:/Users/Simon M. Rook/Documents/School/1Tarleton/Classes/Adv Quant/Lab 3/New folder/sr-subject-4.csv","legacy","5","Lentiform Loewenfeld","3.3.10","0","n","0","right","left","NA","right","NA","560","1442","NA","560","NA","2","legacy","1","1024","2","48000","-16","experiment","4","even","3","19572","2653","16281","17368","1207","NA","17370","NA","1210","NA","21573","22134","18371","21573","NA","Sternberg task","3","2718","3","yes","1024"
"100","100","955.5","955.5","black","practice","legacy","legacy","legacy","0","uniform","1","undefined","1","left","3","0","3","3","0","0","3","3","0","0","3","3","3","3","0","Wed Oct 20 12:25:59 2021","The main experiment item","yes","Sternbergtask.osexp","C:/Users/Simon M. Rook/Documents/School/1Tarleton/Classes/Adv Quant/Lab 3","no","mono","no","18","no","white","no","no","768","legacy","3","3","C:/Users/Simon M. Rook/Documents/School/1Tarleton/Classes/Adv Quant/Lab 3/New folder/sr-subject-4.csv","legacy","4 8","Lentiform Loewenfeld","3.3.10","1","y","0","left","left","NA","left","NA","1104","1442","NA","1104","NA","2","legacy","2","1024","2","48000","-16","experiment","4","even","4","25429","2653","22139","23225","1207","NA","23227","NA","1210","NA","27430","28535","24228","27430","NA","Sternberg task","4","3822","4","yes","1024"
"100","100","956.2","956.2","black","practice","legacy","legacy","legacy","0","uniform","1","undefined","1","left","4","0","4","4","0","0","4","4","0","0","4","4","4","4","0","Wed Oct 20 12:25:59 2021","The main experiment item","yes","Sternbergtask.osexp","C:/Users/Simon M. Rook/Documents/School/1Tarleton/Classes/Adv Quant/Lab 3","no","mono","no","18","no","white","no","no","768","legacy","4","4","C:/Users/Simon M. Rook/Documents/School/1Tarleton/Classes/Adv Quant/Lab 3/New folder/sr-subject-4.csv","legacy","1 5 2 9","Lentiform Loewenfeld","3.3.10","2","y","0","left","left","NA","left","NA","959","1442","NA","959","NA","2","legacy","4","1024","2","48000","-16","experiment","4","even","5","31831","2653","28541","29628","1207","NA","29629","NA","1210","NA","33832","34792","30630","33832","NA","Sternberg task","5","4781","5","yes","1024"
"100","100","961","961","black","practice","legacy","legacy","legacy","0","uniform","1","undefined","1","left","5","0","5","5","0","0","5","5","0","0","5","5","5","5","0","Wed Oct 20 12:25:59 2021","The main experiment item","yes","Sternbergtask.osexp","C:/Users/Simon M. Rook/Documents/School/1Tarleton/Classes/Adv Quant/Lab 3","no","mono","no","18","no","white","no","no","768","legacy","5","5","C:/Users/Simon M. Rook/Documents/School/1Tarleton/Classes/Adv Quant/Lab 3/New folder/sr-subject-4.csv","legacy","6","Lentiform Loewenfeld","3.3.10","1","y","0","left","left","NA","left","NA","985","1442","NA","985","NA","2","legacy","1","1024","2","48000","-16","experiment","4","even","6","38086","2653","34796","35883","1207","NA","35884","NA","1210","NA","40087","41072","36885","40087","NA","Sternberg task","6","5766","6","yes","1024"
"100","100","922","922","black","practice","legacy","legacy","legacy","0","uniform","1","undefined","1","left","6","0","6","6","0","0","6","6","0","0","6","6","6","6","0","Wed Oct 20 12:25:59 2021","The main experiment item","yes","Sternbergtask.osexp","C:/Users/Simon M. Rook/Documents/School/1Tarleton/Classes/Adv Quant/Lab 3","no","mono","no","18","no","white","no","no","768","legacy","6","6","C:/Users/Simon M. Rook/Documents/School/1Tarleton/Classes/Adv Quant/Lab 3/New folder/sr-subject-4.csv","legacy","4 3 1 7 9 8","Lentiform Loewenfeld","3.3.10","1","y","0","left","left","NA","left","NA","688","1442","NA","688","NA","2","legacy","6","1024","2","48000","-16","experiment","4","even","4","44367","2653","41076","42163","1207","NA","42164","NA","1210","NA","46368","47057","43166","46368","NA","Sternberg task","7","6454","7","yes","1024"
"100","100","946.75","946.75","black","practice","legacy","legacy","legacy","0","uniform","1","undefined","1","right","7","0","7","7","0","0","7","7","0","0","7","7","7","7","0","Wed Oct 20 12:25:59 2021","The main experiment item","yes","Sternbergtask.osexp","C:/Users/Simon M. Rook/Documents/School/1Tarleton/Classes/Adv Quant/Lab 3","no","mono","no","18","no","white","no","no","768","legacy","7","7","C:/Users/Simon M. Rook/Documents/School/1Tarleton/Classes/Adv Quant/Lab 3/New folder/sr-subject-4.csv","legacy","4 1 5","Lentiform Loewenfeld","3.3.10","0","n","0","right","left","NA","right","NA","1120","1442","NA","1120","NA","2","legacy","3","1024","2","48000","-16","experiment","4","even","2","50353","2653","47062","48149","1207","NA","48151","NA","1210","NA","52354","53474","49152","52354","NA","Sternberg task","8","7574","8","yes","1024"
"100","100","1008.4444444444445","1008.4444444444445","black","practice","legacy","legacy","legacy","0","uniform","1","undefined","1","left","8","0","8","8","0","0","8","8","0","0","8","8","8","8","0","Wed Oct 20 12:25:59 2021","The main experiment item","yes","Sternbergtask.osexp","C:/Users/Simon M. Rook/Documents/School/1Tarleton/Classes/Adv Quant/Lab 3","no","mono","no","18","no","white","no","no","768","legacy","8","8","C:/Users/Simon M. Rook/Documents/School/1Tarleton/Classes/Adv Quant/Lab 3/New folder/sr-subject-4.csv","legacy","1 7 9 8 5","Lentiform Loewenfeld","3.3.10","4","y","0","left","left","NA","left","NA","1502","1442","NA","1502","NA","2","legacy","5","1024","2","48000","-16","experiment","4","even","8","56771","2653","53480","54567","1207","NA","54568","NA","1210","NA","58772","60275","55570","58772","NA","Sternberg task","9","9076","9","yes","1024"
"100","100","1005.1","1005.1","black","practice","legacy","legacy","legacy","0","uniform","1","undefined","1","right","9","0","9","9","0","0","9","9","0","0","9","9","9","9","0","Wed Oct 20 12:25:59 2021","The main experiment item","yes","Sternbergtask.osexp","C:/Users/Simon M. Rook/Documents/School/1Tarleton/Classes/Adv Quant/Lab 3","no","mono","no","18","no","white","no","no","768","legacy","9","9","C:/Users/Simon M. Rook/Documents/School/1Tarleton/Classes/Adv Quant/Lab 3/New folder/sr-subject-4.csv","legacy","3 1 9 4","Lentiform Loewenfeld","3.3.10","0","n","0","right","left","NA","right","NA","975","1442","NA","975","NA","2","legacy","4","1024","2","48000","-16","experiment","4","even","6","63571","2653","60279","61368","1207","NA","61369","NA","1210","NA","65572","66548","62370","65572","NA","Sternberg task","10","10051","10","yes","1024"
"100","100","970.0909090909091","970.0909090909091","black","practice","legacy","legacy","legacy","0","uniform","1","undefined","1","right","10","0","10","10","0","0","10","10","0","0","10","10","10","10","0","Wed Oct 20 12:25:59 2021","The main experiment item","yes","Sternbergtask.osexp","C:/Users/Simon M. Rook/Documents/School/1Tarleton/Classes/Adv Quant/Lab 3","no","mono","no","18","no","white","no","no","768","legacy","10","10","C:/Users/Simon M. Rook/Documents/School/1Tarleton/Classes/Adv Quant/Lab 3/New folder/sr-subject-4.csv","legacy","2 1","Lentiform Loewenfeld","3.3.10","0","n","0","right","left","NA","right","NA","620","1442","NA","620","NA","2","legacy","2","1024","2","48000","-16","experiment","4","even","5","69846","2653","66551","67642","1207","NA","67644","NA","1210","NA","71847","72468","68645","71847","NA","Sternberg task","11","10671","11","yes","1024"
"100","100","994.1666666666666","994.1666666666666","black","practice","legacy","legacy","legacy","0","uniform","1","undefined","1","left","11","0","11","11","0","0","11","11","0","0","11","11","11","11","0","Wed Oct 20 12:25:59 2021","The main experiment item","yes","Sternbergtask.osexp","C:/Users/Simon M. Rook/Documents/School/1Tarleton/Classes/Adv Quant/Lab 3","no","mono","no","18","no","white","no","no","768","legacy","11","11","C:/Users/Simon M. Rook/Documents/School/1Tarleton/Classes/Adv Quant/Lab 3/New folder/sr-subject-4.csv","legacy","2 9 4","Lentiform Loewenfeld","3.3.10","3","y","0","left","left","NA","left","NA","1259","1442","NA","1259","NA","2","legacy","3","1024","2","48000","-16","experiment","4","even","4","75764","2653","72472","73561","1207","NA","73562","NA","1210","NA","77765","79024","74563","77765","NA","Sternberg task","12","11930","12","yes","1024"
"100","100","1000.4615384615385","1000.4615384615385","black","experiment","legacy","legacy","legacy","0","uniform","1","undefined","1","right","12","0","12","12","0","0","12","12","0","0","12","12","12","12","0","Wed Oct 20 12:25:59 2021","The main experiment item","yes","Sternbergtask.osexp","C:/Users/Simon M. Rook/Documents/School/1Tarleton/Classes/Adv Quant/Lab 3","no","mono","no","18","no","white","no","no","768","legacy","0","11","C:/Users/Simon M. Rook/Documents/School/1Tarleton/Classes/Adv Quant/Lab 3/New folder/sr-subject-4.csv","legacy","9 7 4 5 8","Lentiform Loewenfeld","3.3.10","0","n","0","right","left","right","right","NA","1076","1442","21724","1076","NA","2","legacy","5","1024","2","48000","-16","experiment","4","even","6","104115","2653","79029","101911","1207","101807","101913","NA","1210","80083","106116","107192","102914","106116","NA","Sternberg task","13","13006","13","yes","1024"
"100","100","1037.857142857143","1037.857142857143","black","experiment","legacy","legacy","legacy","0","uniform","1","undefined","1","right","13","0","13","13","0","0","13","13","0","0","13","13","13","13","0","Wed Oct 20 12:25:59 2021","The main experiment item","yes","Sternbergtask.osexp","C:/Users/Simon M. Rook/Documents/School/1Tarleton/Classes/Adv Quant/Lab 3","no","mono","no","18","no","white","no","no","768","legacy","1","11","C:/Users/Simon M. Rook/Documents/School/1Tarleton/Classes/Adv Quant/Lab 3/New folder/sr-subject-4.csv","legacy","5 9 2 3","Lentiform Loewenfeld","3.3.10","0","n","0","right","left","right","right","NA","1524","1442","21724","1524","NA","2","legacy","4","1024","2","48000","-16","experiment","4","even","8","110547","2653","107198","108342","1207","101807","108345","NA","1210","80083","112548","114073","109346","112548","NA","Sternberg task","14","14530","14","yes","1024"
"100","100","1040","1040","black","experiment","legacy","legacy","legacy","0","uniform","1","undefined","1","left","14","0","14","14","0","0","14","14","0","0","14","14","14","14","0","Wed Oct 20 12:25:59 2021","The main experiment item","yes","Sternbergtask.osexp","C:/Users/Simon M. Rook/Documents/School/1Tarleton/Classes/Adv Quant/Lab 3","no","mono","no","18","no","white","no","no","768","legacy","2","11","C:/Users/Simon M. Rook/Documents/School/1Tarleton/Classes/Adv Quant/Lab 3/New folder/sr-subject-4.csv","legacy","4 7 6 8 2 3","Lentiform Loewenfeld","3.3.10","6","y","0","left","left","right","left","NA","1070","1442","21724","1070","NA","2","legacy","6","1024","2","48000","-16","experiment","4","even","3","117370","2653","114078","115166","1207","101807","115167","NA","1210","80083","119371","120441","116169","119371","NA","Sternberg task","15","15600","15","yes","1024"
"100","100","1050.9375","1050.9375","black","experiment","legacy","legacy","legacy","0","uniform","1","undefined","1","left","15","0","15","15","0","0","15","15","0","0","15","15","15","15","0","Wed Oct 20 12:25:59 2021","The main experiment item","yes","Sternbergtask.osexp","C:/Users/Simon M. Rook/Documents/School/1Tarleton/Classes/Adv Quant/Lab 3","no","mono","no","18","no","white","no","no","768","legacy","3","11","C:/Users/Simon M. Rook/Documents/School/1Tarleton/Classes/Adv Quant/Lab 3/New folder/sr-subject-4.csv","legacy","7","Lentiform Loewenfeld","3.3.10","1","y","0","left","left","right","left","NA","1215","1442","21724","1215","NA","2","legacy","1","1024","2","48000","-16","experiment","4","even","7","123737","2653","120446","121533","1207","101807","121535","NA","1210","80083","125738","126954","122536","125738","NA","Sternberg task","16","16815","16","yes","1024"
"100","100","1030.4705882352941","1030.4705882352941","black","experiment","legacy","legacy","legacy","0","uniform","1","undefined","1","left","16","0","16","16","0","0","16","16","0","0","16","16","16","16","0","Wed Oct 20 12:25:59 2021","The main experiment item","yes","Sternbergtask.osexp","C:/Users/Simon M. Rook/Documents/School/1Tarleton/Classes/Adv Quant/Lab 3","no","mono","no","18","no","white","no","no","768","legacy","4","11","C:/Users/Simon M. Rook/Documents/School/1Tarleton/Classes/Adv Quant/Lab 3/New folder/sr-subject-4.csv","legacy","3 5 4 7","Lentiform Loewenfeld","3.3.10","1","y","0","left","left","right","left","NA","703","1442","21724","703","NA","2","legacy","4","1024","2","48000","-16","experiment","4","even","3","130250","2653","126960","128047","1207","101807","128048","NA","1210","80083","132251","132955","129049","132251","NA","Sternberg task","17","17518","17","yes","1024"
"100","100","1013.1666666666666","1013.1666666666666","black","experiment","legacy","legacy","legacy","0","uniform","1","undefined","1","left","17","0","17","17","0","0","17","17","0","0","17","17","17","17","0","Wed Oct 20 12:25:59 2021","The main experiment item","yes","Sternbergtask.osexp","C:/Users/Simon M. Rook/Documents/School/1Tarleton/Classes/Adv Quant/Lab 3","no","mono","no","18","no","white","no","no","768","legacy","5","11","C:/Users/Simon M. Rook/Documents/School/1Tarleton/Classes/Adv Quant/Lab 3/New folder/sr-subject-4.csv","legacy","4 3 2 5 8","Lentiform Loewenfeld","3.3.10","2","y","0","left","left","right","left","NA","719","1442","21724","719","NA","2","legacy","5","1024","2","48000","-16","experiment","4","even","3","136251","2653","132960","134048","1207","101807","134049","NA","1210","80083","138252","138971","135050","138252","NA","Sternberg task","18","18237","18","yes","1024"
"100","100","1024.7368421052631","1024.7368421052631","black","experiment","legacy","legacy","legacy","0","uniform","1","undefined","1","left","18","0","18","18","0","0","18","18","0","0","18","18","18","18","0","Wed Oct 20 12:25:59 2021","The main experiment item","yes","Sternbergtask.osexp","C:/Users/Simon M. Rook/Documents/School/1Tarleton/Classes/Adv Quant/Lab 3","no","mono","no","18","no","white","no","no","768","legacy","6","11","C:/Users/Simon M. Rook/Documents/School/1Tarleton/Classes/Adv Quant/Lab 3/New folder/sr-subject-4.csv","legacy","5 7 8 2 3 8","Lentiform Loewenfeld","3.3.10","5","y","0","left","left","right","left","NA","1233","1442","21724","1233","NA","2","legacy","6","1024","2","48000","-16","experiment","4","even","3","142267","2653","138977","140064","1207","101807","140065","NA","1210","80083","144268","145501","141066","144268","NA","Sternberg task","19","19470","19","yes","1024"
"100","100","998.35","998.35","black","experiment","legacy","legacy","legacy","0","uniform","1","undefined","1","left","19","0","19","19","0","0","19","19","0","0","19","19","19","19","0","Wed Oct 20 12:25:59 2021","The main experiment item","yes","Sternbergtask.osexp","C:/Users/Simon M. Rook/Documents/School/1Tarleton/Classes/Adv Quant/Lab 3","no","mono","no","18","no","white","no","no","768","legacy","7","11","C:/Users/Simon M. Rook/Documents/School/1Tarleton/Classes/Adv Quant/Lab 3/New folder/sr-subject-4.csv","legacy","7 2 3","Lentiform Loewenfeld","3.3.10","3","y","0","left","left","right","left","NA","497","1442","21724","497","NA","2","legacy","3","1024","2","48000","-16","experiment","4","even","3","148795","2653","145505","146591","1207","101807","146593","NA","1210","80083","150796","151293","147594","150796","NA","Sternberg task","20","19967","20","yes","1024"
"100","100","992.2857142857143","992.2857142857143","black","experiment","legacy","legacy","legacy","0","uniform","1","undefined","1","right","20","0","20","20","0","0","20","20","0","0","20","20","20","20","0","Wed Oct 20 12:25:59 2021","The main experiment item","yes","Sternbergtask.osexp","C:/Users/Simon M. Rook/Documents/School/1Tarleton/Classes/Adv Quant/Lab 3","no","mono","no","18","no","white","no","no","768","legacy","8","11","C:/Users/Simon M. Rook/Documents/School/1Tarleton/Classes/Adv Quant/Lab 3/New folder/sr-subject-4.csv","legacy","7 9 1 6","Lentiform Loewenfeld","3.3.10","0","n","0","right","left","right","right","NA","871","1442","21724","871","NA","2","legacy","4","1024","2","48000","-16","experiment","4","even","4","154589","2653","151297","152386","1207","101807","152387","NA","1210","80083","156590","157462","153388","156590","NA","Sternberg task","21","20838","21","yes","1024"
"100","100","1000.3636363636364","1000.3636363636364","black","experiment","legacy","legacy","legacy","0","uniform","1","undefined","1","right","21","0","21","21","0","0","21","21","0","0","21","21","21","21","0","Wed Oct 20 12:25:59 2021","The main experiment item","yes","Sternbergtask.osexp","C:/Users/Simon M. Rook/Documents/School/1Tarleton/Classes/Adv Quant/Lab 3","no","mono","no","18","no","white","no","no","768","legacy","9","11","C:/Users/Simon M. Rook/Documents/School/1Tarleton/Classes/Adv Quant/Lab 3/New folder/sr-subject-4.csv","legacy","1 7 5 2","Lentiform Loewenfeld","3.3.10","0","n","0","right","left","right","right","NA","1170","1442","21724","1170","NA","2","legacy","4","1024","2","48000","-16","experiment","4","even","3","160763","2653","157471","158560","1207","101807","158561","NA","1210","80083","162764","163934","159562","162764","NA","Sternberg task","22","22008","22","yes","1024"
"100","100","1001.695652173913","1001.695652173913","black","experiment","legacy","legacy","legacy","0","uniform","1","undefined","1","left","22","0","22","22","0","0","22","22","0","0","22","22","22","22","0","Wed Oct 20 12:25:59 2021","The main experiment item","yes","Sternbergtask.osexp","C:/Users/Simon M. Rook/Documents/School/1Tarleton/Classes/Adv Quant/Lab 3","no","mono","no","18","no","white","no","no","768","legacy","10","11","C:/Users/Simon M. Rook/Documents/School/1Tarleton/Classes/Adv Quant/Lab 3/New folder/sr-subject-4.csv","legacy","2 8 5 1","Lentiform Loewenfeld","3.3.10","4","y","0","left","left","right","left","NA","1031","1442","21724","1031","NA","2","legacy","4","1024","2","48000","-16","experiment","4","even","1","167231","2653","163941","165028","1207","101807","165029","NA","1210","80083","169232","170263","166030","169232","NA","Sternberg task","23","23039","23","yes","1024"
"100","100","989.25","989.25","black","experiment","legacy","legacy","legacy","0","uniform","1","undefined","1","left","23","0","23","23","0","0","23","23","0","0","23","23","23","23","0","Wed Oct 20 12:25:59 2021","The main experiment item","yes","Sternbergtask.osexp","C:/Users/Simon M. Rook/Documents/School/1Tarleton/Classes/Adv Quant/Lab 3","no","mono","no","18","no","white","no","no","768","legacy","11","11","C:/Users/Simon M. Rook/Documents/School/1Tarleton/Classes/Adv Quant/Lab 3/New folder/sr-subject-4.csv","legacy","2 3 7 4","Lentiform Loewenfeld","3.3.10","1","y","0","left","left","right","left","NA","703","1442","21724","703","NA","2","legacy","4","1024","2","48000","-16","experiment","4","even","2","173559","2653","170268","171356","1207","101807","171357","NA","1210","80083","175560","176264","172358","175560","NA","Sternberg task","24","23742","24","yes","1024"
"100","100","997.2","997.2","black","experiment","legacy","legacy","legacy","0","uniform","1","undefined","1","left","24","0","24","24","0","0","24","24","0","0","24","24","24","24","0","Wed Oct 20 12:25:59 2021","The main experiment item","yes","Sternbergtask.osexp","C:/Users/Simon M. Rook/Documents/School/1Tarleton/Classes/Adv Quant/Lab 3","no","mono","no","18","no","white","no","no","768","legacy","12","11","C:/Users/Simon M. Rook/Documents/School/1Tarleton/Classes/Adv Quant/Lab 3/New folder/sr-subject-4.csv","legacy","4 1 5","Lentiform Loewenfeld","3.3.10","2","y","0","left","left","right","left","NA","1188","1442","21724","1188","NA","2","legacy","3","1024","2","48000","-16","experiment","4","even","1","179563","2653","176271","177359","1207","101807","177361","NA","1210","80083","181564","182752","178362","181564","NA","Sternberg task","25","24930","25","yes","1024"
"100","100","1025.7307692307693","1025.7307692307693","black","experiment","legacy","legacy","legacy","0","uniform","1","undefined","1","right","25","0","25","25","0","0","25","25","0","0","25","25","25","25","0","Wed Oct 20 12:25:59 2021","The main experiment item","yes","Sternbergtask.osexp","C:/Users/Simon M. Rook/Documents/School/1Tarleton/Classes/Adv Quant/Lab 3","no","mono","no","18","no","white","no","no","768","legacy","13","11","C:/Users/Simon M. Rook/Documents/School/1Tarleton/Classes/Adv Quant/Lab 3/New folder/sr-subject-4.csv","legacy","7 6 4 8 1 2","Lentiform Loewenfeld","3.3.10","0","n","0","right","left","right","right","NA","1739","1442","21724","1739","NA","2","legacy","6","1024","2","48000","-16","experiment","4","even","9","186045","2653","182756","183842","1207","101807","183843","NA","1210","80083","188046","189786","184844","188046","NA","Sternberg task","26","26669","26","yes","1024"
"100","100","1025.5925925925926","1025.5925925925926","black","experiment","legacy","legacy","legacy","0","uniform","1","undefined","1","right","26","0","26","26","0","0","26","26","0","0","26","26","26","26","0","Wed Oct 20 12:25:59 2021","The main experiment item","yes","Sternbergtask.osexp","C:/Users/Simon M. Rook/Documents/School/1Tarleton/Classes/Adv Quant/Lab 3","no","mono","no","18","no","white","no","no","768","legacy","14","11","C:/Users/Simon M. Rook/Documents/School/1Tarleton/Classes/Adv Quant/Lab 3/New folder/sr-subject-4.csv","legacy","8 5 4 2 9 6","Lentiform Loewenfeld","3.3.10","0","n","0","right","left","right","right","NA","1022","1442","21724","1022","NA","2","legacy","6","1024","2","48000","-16","experiment","4","even","3","193106","2653","189796","190902","1207","101807","190904","NA","1210","80083","195107","196130","191905","195107","NA","Sternberg task","27","27691","27","yes","1024"
"100","100","1031.3214285714287","1031.3214285714287","black","experiment","legacy","legacy","legacy","0","uniform","1","undefined","1","right","27","0","27","27","0","0","27","27","0","0","27","27","27","27","0","Wed Oct 20 12:25:59 2021","The main experiment item","yes","Sternbergtask.osexp","C:/Users/Simon M. Rook/Documents/School/1Tarleton/Classes/Adv Quant/Lab 3","no","mono","no","18","no","white","no","no","768","legacy","15","11","C:/Users/Simon M. Rook/Documents/School/1Tarleton/Classes/Adv Quant/Lab 3/New folder/sr-subject-4.csv","legacy","5","Lentiform Loewenfeld","3.3.10","0","n","0","right","left","right","right","NA","1186","1442","21724","1186","NA","2","legacy","1","1024","2","48000","-16","experiment","4","even","8","199425","2653","196136","197221","1207","101807","197223","NA","1210","80083","201426","202612","198224","201426","NA","Sternberg task","28","28877","28","yes","1024"
"100","100","1058.655172413793","1058.655172413793","black","experiment","legacy","legacy","legacy","0","uniform","1","undefined","1","right","28","0","28","28","0","0","28","28","0","0","28","28","28","28","0","Wed Oct 20 12:25:59 2021","The main experiment item","yes","Sternbergtask.osexp","C:/Users/Simon M. Rook/Documents/School/1Tarleton/Classes/Adv Quant/Lab 3","no","mono","no","18","no","white","no","no","768","legacy","16","11","C:/Users/Simon M. Rook/Documents/School/1Tarleton/Classes/Adv Quant/Lab 3/New folder/sr-subject-4.csv","legacy","3 4 9 6 7 8","Lentiform Loewenfeld","3.3.10","0","n","0","right","left","right","right","NA","1824","1442","21724","1824","NA","2","legacy","6","1024","2","48000","-16","experiment","4","even","2","205914","2653","202624","203711","1207","101807","203712","NA","1210","80083","207915","209740","204713","207915","NA","Sternberg task","29","30701","29","yes","1024"
"100","100","1058.4333333333334","1058.4333333333334","black","experiment","legacy","legacy","legacy","0","uniform","1","undefined","1","right","29","0","29","29","0","0","29","29","0","0","29","29","29","29","0","Wed Oct 20 12:25:59 2021","The main experiment item","yes","Sternbergtask.osexp","C:/Users/Simon M. Rook/Documents/School/1Tarleton/Classes/Adv Quant/Lab 3","no","mono","no","18","no","white","no","no","768","legacy","17","11","C:/Users/Simon M. Rook/Documents/School/1Tarleton/Classes/Adv Quant/Lab 3/New folder/sr-subject-4.csv","legacy","4 1","Lentiform Loewenfeld","3.3.10","0","n","0","right","left","right","right","NA","1052","1442","21724","1052","NA","2","legacy","2","1024","2","48000","-16","experiment","4","even","6","213055","2653","209744","210851","1207","101807","210853","NA","1210","80083","215056","216109","211854","215056","NA","Sternberg task","30","31753","30","yes","1024"
"100","100","1047.2903225806451","1047.2903225806451","black","experiment","legacy","legacy","legacy","0","uniform","1","undefined","1","left","30","0","30","30","0","0","30","30","0","0","30","30","30","30","0","Wed Oct 20 12:25:59 2021","The main experiment item","yes","Sternbergtask.osexp","C:/Users/Simon M. Rook/Documents/School/1Tarleton/Classes/Adv Quant/Lab 3","no","mono","no","18","no","white","no","no","768","legacy","18","11","C:/Users/Simon M. Rook/Documents/School/1Tarleton/Classes/Adv Quant/Lab 3/New folder/sr-subject-4.csv","legacy","3 5 7 1","Lentiform Loewenfeld","3.3.10","3","y","0","left","left","right","left","NA","713","1442","21724","713","NA","2","legacy","4","1024","2","48000","-16","experiment","4","even","7","219403","2653","216114","217200","1207","101807","217201","NA","1210","80083","221404","222118","218202","221404","NA","Sternberg task","31","32466","31","yes","1024"
"100","100","1053.0625","1053.0625","black","experiment","legacy","legacy","legacy","0","uniform","1","undefined","1","left","31","0","31","31","0","0","31","31","0","0","31","31","31","31","0","Wed Oct 20 12:25:59 2021","The main experiment item","yes","Sternbergtask.osexp","C:/Users/Simon M. Rook/Documents/School/1Tarleton/Classes/Adv Quant/Lab 3","no","mono","no","18","no","white","no","no","768","legacy","19","11","C:/Users/Simon M. Rook/Documents/School/1Tarleton/Classes/Adv Quant/Lab 3/New folder/sr-subject-4.csv","legacy","8 7 3","Lentiform Loewenfeld","3.3.10","1","y","0","left","left","right","left","NA","1232","1442","21724","1232","NA","2","legacy","3","1024","2","48000","-16","experiment","4","even","8","225412","2653","222121","223208","1207","101807","223210","NA","1210","80083","227413","228646","224211","227413","NA","Sternberg task","32","33698","32","yes","1024"
"100","100","1054.4545454545455","1054.4545454545455","black","experiment","legacy","legacy","legacy","0","uniform","1","undefined","1","right","32","0","32","32","0","0","32","32","0","0","32","32","32","32","0","Wed Oct 20 12:25:59 2021","The main experiment item","yes","Sternbergtask.osexp","C:/Users/Simon M. Rook/Documents/School/1Tarleton/Classes/Adv Quant/Lab 3","no","mono","no","18","no","white","no","no","768","legacy","20","11","C:/Users/Simon M. Rook/Documents/School/1Tarleton/Classes/Adv Quant/Lab 3/New folder/sr-subject-4.csv","legacy","5 3 2 6 9 8","Lentiform Loewenfeld","3.3.10","0","n","0","right","left","right","right","NA","1099","1442","21724","1099","NA","2","legacy","6","1024","2","48000","-16","experiment","4","even","4","231947","2653","228657","229744","1207","101807","229745","NA","1210","80083","233948","235047","230746","233948","NA","Sternberg task","33","34797","33","yes","1024"
"100","100","1051.3823529411766","1051.3823529411766","black","experiment","legacy","legacy","legacy","0","uniform","1","undefined","1","left","33","0","33","33","0","0","33","33","0","0","33","33","33","33","0","Wed Oct 20 12:25:59 2021","The main experiment item","yes","Sternbergtask.osexp","C:/Users/Simon M. Rook/Documents/School/1Tarleton/Classes/Adv Quant/Lab 3","no","mono","no","18","no","white","no","no","768","legacy","21","11","C:/Users/Simon M. Rook/Documents/School/1Tarleton/Classes/Adv Quant/Lab 3/New folder/sr-subject-4.csv","legacy","3 9 6 2","Lentiform Loewenfeld","3.3.10","4","y","0","left","left","right","left","NA","950","1442","21724","950","NA","2","legacy","4","1024","2","48000","-16","experiment","4","even","2","238343","2653","235053","236139","1207","101807","236141","NA","1210","80083","240344","241295","237142","240344","NA","Sternberg task","34","35747","34","yes","1024"
"100","100","1050.4","1050.4","black","experiment","legacy","legacy","legacy","0","uniform","1","undefined","1","right","34","0","34","34","0","0","34","34","0","0","34","34","34","34","0","Wed Oct 20 12:25:59 2021","The main experiment item","yes","Sternbergtask.osexp","C:/Users/Simon M. Rook/Documents/School/1Tarleton/Classes/Adv Quant/Lab 3","no","mono","no","18","no","white","no","no","768","legacy","22","11","C:/Users/Simon M. Rook/Documents/School/1Tarleton/Classes/Adv Quant/Lab 3/New folder/sr-subject-4.csv","legacy","7 4 2 8 1 9","Lentiform Loewenfeld","3.3.10","0","n","0","right","left","right","right","NA","1017","1442","21724","1017","NA","2","legacy","6","1024","2","48000","-16","experiment","4","even","5","244590","2653","241300","242387","1207","101807","242388","NA","1210","80083","246591","247609","243389","246591","NA","Sternberg task","35","36764","35","yes","1024"
"100","100","1038.111111111111","1038.111111111111","black","experiment","legacy","legacy","legacy","0","uniform","1","undefined","1","left","35","0","35","35","0","0","35","35","0","0","35","35","35","35","0","Wed Oct 20 12:25:59 2021","The main experiment item","yes","Sternbergtask.osexp","C:/Users/Simon M. Rook/Documents/School/1Tarleton/Classes/Adv Quant/Lab 3","no","mono","no","18","no","white","no","no","768","legacy","23","11","C:/Users/Simon M. Rook/Documents/School/1Tarleton/Classes/Adv Quant/Lab 3/New folder/sr-subject-4.csv","legacy","6 7 9 3 1 2","Lentiform Loewenfeld","3.3.10","1","y","0","left","left","right","left","NA","608","1442","21724","608","NA","2","legacy","6","1024","2","48000","-16","experiment","4","even","6","250903","2653","247613","248700","1207","101807","248701","NA","1210","80083","252904","253513","249702","252904","NA","Sternberg task","36","37372","36","yes","1024"
"100","100","1026.027027027027","1026.027027027027","black","experiment","legacy","legacy","legacy","0","uniform","1","undefined","1","left","36","0","36","36","0","0","36","36","0","0","36","36","36","36","0","Wed Oct 20 12:25:59 2021","The main experiment item","yes","Sternbergtask.osexp","C:/Users/Simon M. Rook/Documents/School/1Tarleton/Classes/Adv Quant/Lab 3","no","mono","no","18","no","white","no","no","768","legacy","24","11","C:/Users/Simon M. Rook/Documents/School/1Tarleton/Classes/Adv Quant/Lab 3/New folder/sr-subject-4.csv","legacy","4 1 8 7 5","Lentiform Loewenfeld","3.3.10","3","y","0","left","left","right","left","NA","591","1442","21724","591","NA","2","legacy","5","1024","2","48000","-16","experiment","4","even","8","256809","2653","253519","254605","1207","101807","254607","NA","1210","80083","258810","259401","255608","258810","NA","Sternberg task","37","37963","37","yes","1024"
"100","100","1014.0526315789474","1014.0526315789474","black","experiment","legacy","legacy","legacy","0","uniform","1","undefined","1","left","37","0","37","37","0","0","37","37","0","0","37","37","37","37","0","Wed Oct 20 12:25:59 2021","The main experiment item","yes","Sternbergtask.osexp","C:/Users/Simon M. Rook/Documents/School/1Tarleton/Classes/Adv Quant/Lab 3","no","mono","no","18","no","white","no","no","768","legacy","25","11","C:/Users/Simon M. Rook/Documents/School/1Tarleton/Classes/Adv Quant/Lab 3/New folder/sr-subject-4.csv","legacy","6 5","Lentiform Loewenfeld","3.3.10","2","y","0","left","left","right","left","NA","571","1442","21724","571","NA","2","legacy","2","1024","2","48000","-16","experiment","4","even","5","262702","2653","259408","260498","1207","101807","260500","NA","1210","80083","264703","265275","261501","264703","NA","Sternberg task","38","38534","38","yes","1024"
"100","100","1011","1011","black","experiment","legacy","legacy","legacy","0","uniform","1","undefined","1","left","38","0","38","38","0","0","38","38","0","0","38","38","38","38","0","Wed Oct 20 12:25:59 2021","The main experiment item","yes","Sternbergtask.osexp","C:/Users/Simon M. Rook/Documents/School/1Tarleton/Classes/Adv Quant/Lab 3","no","mono","no","18","no","white","no","no","768","legacy","26","11","C:/Users/Simon M. Rook/Documents/School/1Tarleton/Classes/Adv Quant/Lab 3/New folder/sr-subject-4.csv","legacy","9 8 4","Lentiform Loewenfeld","3.3.10","1","y","0","left","left","right","left","NA","895","1442","21724","895","NA","2","legacy","3","1024","2","48000","-16","experiment","4","even","9","268570","2653","265279","266367","1207","101807","266368","NA","1210","80083","270571","271467","267369","270571","NA","Sternberg task","39","39429","39","yes","1024"
"100","100","1008.15","1008.15","black","experiment","legacy","legacy","legacy","0","uniform","1","undefined","1","right","39","0","39","39","0","0","39","39","0","0","39","39","39","39","0","Wed Oct 20 12:25:59 2021","The main experiment item","yes","Sternbergtask.osexp","C:/Users/Simon M. Rook/Documents/School/1Tarleton/Classes/Adv Quant/Lab 3","no","mono","no","18","no","white","no","no","768","legacy","27","11","C:/Users/Simon M. Rook/Documents/School/1Tarleton/Classes/Adv Quant/Lab 3/New folder/sr-subject-4.csv","legacy","2 8 9 4 1","Lentiform Loewenfeld","3.3.10","0","n","0","right","left","right","right","NA","897","1442","21724","897","NA","2","legacy","5","1024","2","48000","-16","experiment","4","even","5","274761","2653","271472","272558","1207","101807","272559","NA","1210","80083","276762","277660","273560","276762","NA","Sternberg task","40","40326","40","yes","1024"
"97.5609756097561","97.5609756097561","1006.9268292682926","1006.9268292682926","black","experiment","legacy","legacy","legacy","0","uniform","0","undefined","0","left","40","0","40","40","0","0","40","40","0","0","40","40","40","40","0","Wed Oct 20 12:25:59 2021","The main experiment item","yes","Sternbergtask.osexp","C:/Users/Simon M. Rook/Documents/School/1Tarleton/Classes/Adv Quant/Lab 3","no","mono","no","18","no","white","no","no","768","legacy","28","11","C:/Users/Simon M. Rook/Documents/School/1Tarleton/Classes/Adv Quant/Lab 3/New folder/sr-subject-4.csv","legacy","2 5 4 8 7","Lentiform Loewenfeld","3.3.10","3","y","0","right","left","right","right","NA","958","1442","21724","958","NA","2","legacy","5","1024","2","48000","-16","experiment","4","even","4","280957","2653","277668","278754","1207","101807","278755","NA","1210","80083","282958","283917","279756","282958","NA","Sternberg task","40","41284","41","yes","1024"
"97.61904761904762","97.61904761904762","995.547619047619","995.547619047619","black","experiment","legacy","legacy","legacy","0","uniform","1","undefined","1","left","41","0","41","41","0","0","41","41","0","0","41","41","41","41","0","Wed Oct 20 12:25:59 2021","The main experiment item","yes","Sternbergtask.osexp","C:/Users/Simon M. Rook/Documents/School/1Tarleton/Classes/Adv Quant/Lab 3","no","mono","no","18","no","white","no","no","768","legacy","29","11","C:/Users/Simon M. Rook/Documents/School/1Tarleton/Classes/Adv Quant/Lab 3/New folder/sr-subject-4.csv","legacy","3 2 1 4 7","Lentiform Loewenfeld","3.3.10","2","y","0","left","left","right","left","NA","529","1442","21724","529","NA","2","legacy","5","1024","2","48000","-16","experiment","4","even","2","287211","2653","277668","285008","1207","101807","285009","283921","1210","80083","289212","289741","286010","289212","NA","Sternberg task","41","41813","42","yes","1024"
"97.67441860465117","97.67441860465117","991.3720930232558","991.3720930232558","black","experiment","legacy","legacy","legacy","0","uniform","1","undefined","1","right","42","0","42","42","0","0","42","42","0","0","42","42","42","42","0","Wed Oct 20 12:25:59 2021","The main experiment item","yes","Sternbergtask.osexp","C:/Users/Simon M. Rook/Documents/School/1Tarleton/Classes/Adv Quant/Lab 3","no","mono","no","18","no","white","no","no","768","legacy","30","11","C:/Users/Simon M. Rook/Documents/School/1Tarleton/Classes/Adv Quant/Lab 3/New folder/sr-subject-4.csv","legacy","1 4 9 3","Lentiform Loewenfeld","3.3.10","0","n","0","right","left","right","right","NA","816","1442","21724","816","NA","2","legacy","4","1024","2","48000","-16","experiment","4","even","5","293036","2653","289746","290832","1207","101807","290833","283921","1210","80083","295037","295854","291835","295037","NA","Sternberg task","42","42629","43","yes","1024"
"97.72727272727273","97.72727272727273","987.75","987.75","black","experiment","legacy","legacy","legacy","0","uniform","1","undefined","1","left","43","0","43","43","0","0","43","43","0","0","43","43","43","43","0","Wed Oct 20 12:25:59 2021","The main experiment item","yes","Sternbergtask.osexp","C:/Users/Simon M. Rook/Documents/School/1Tarleton/Classes/Adv Quant/Lab 3","no","mono","no","18","no","white","no","no","768","legacy","31","11","C:/Users/Simon M. Rook/Documents/School/1Tarleton/Classes/Adv Quant/Lab 3/New folder/sr-subject-4.csv","legacy","7 8 6 3 1","Lentiform Loewenfeld","3.3.10","5","y","0","left","left","right","left","NA","832","1442","21724","832","NA","2","legacy","5","1024","2","48000","-16","experiment","4","even","1","299157","2653","295865","296953","1207","101807","296955","283921","1210","80083","301158","301991","297956","301158","NA","Sternberg task","43","43461","44","yes","1024"
"97.77777777777777","97.77777777777777","982.5333333333333","982.5333333333333","black","experiment","legacy","legacy","legacy","0","uniform","1","undefined","1","left","44","0","44","44","0","0","44","44","0","0","44","44","44","44","0","Wed Oct 20 12:25:59 2021","The main experiment item","yes","Sternbergtask.osexp","C:/Users/Simon M. Rook/Documents/School/1Tarleton/Classes/Adv Quant/Lab 3","no","mono","no","18","no","white","no","no","768","legacy","32","11","C:/Users/Simon M. Rook/Documents/School/1Tarleton/Classes/Adv Quant/Lab 3/New folder/sr-subject-4.csv","legacy","7 1 8 5 6 2","Lentiform Loewenfeld","3.3.10","2","y","0","left","left","right","left","NA","753","1442","21724","753","NA","2","legacy","6","1024","2","48000","-16","experiment","4","even","1","305292","2653","302002","303089","1207","101807","303090","283921","1210","80083","307293","308047","304091","307293","NA","Sternberg task","44","44214","45","yes","1024"
"97.82608695652173","97.82608695652173","981.6304347826087","981.6304347826087","black","experiment","legacy","legacy","legacy","0","uniform","1","undefined","1","right","45","0","45","45","0","0","45","45","0","0","45","45","45","45","0","Wed Oct 20 12:25:59 2021","The main experiment item","yes","Sternbergtask.osexp","C:/Users/Simon M. Rook/Documents/School/1Tarleton/Classes/Adv Quant/Lab 3","no","mono","no","18","no","white","no","no","768","legacy","33","11","C:/Users/Simon M. Rook/Documents/School/1Tarleton/Classes/Adv Quant/Lab 3/New folder/sr-subject-4.csv","legacy","1 7 8 3 9","Lentiform Loewenfeld","3.3.10","0","n","0","right","left","right","right","NA","941","1442","21724","941","NA","2","legacy","5","1024","2","48000","-16","experiment","4","even","2","311345","2653","308055","309142","1207","101807","309143","283921","1210","80083","313346","314288","310144","313346","NA","Sternberg task","45","45155","46","yes","1024"
"97.87234042553192","97.87234042553192","980","980","black","experiment","legacy","legacy","legacy","0","uniform","1","undefined","1","left","46","0","46","46","0","0","46","46","0","0","46","46","46","46","0","Wed Oct 20 12:25:59 2021","The main experiment item","yes","Sternbergtask.osexp","C:/Users/Simon M. Rook/Documents/School/1Tarleton/Classes/Adv Quant/Lab 3","no","mono","no","18","no","white","no","no","768","legacy","34","11","C:/Users/Simon M. Rook/Documents/School/1Tarleton/Classes/Adv Quant/Lab 3/New folder/sr-subject-4.csv","legacy","3 5 9 6 2 4","Lentiform Loewenfeld","3.3.10","1","y","0","left","left","right","left","NA","905","1442","21724","905","NA","2","legacy","6","1024","2","48000","-16","experiment","4","even","3","317582","2653","314291","315378","1207","101807","315380","283921","1210","80083","319583","320489","316381","319583","NA","Sternberg task","46","46060","47","yes","1024"
"97.91666666666667","97.91666666666667","978.0833333333334","978.0833333333334","black","experiment","legacy","legacy","legacy","0","uniform","1","undefined","1","right","47","0","47","47","0","0","47","47","0","0","47","47","47","47","0","Wed Oct 20 12:25:59 2021","The main experiment item","yes","Sternbergtask.osexp","C:/Users/Simon M. Rook/Documents/School/1Tarleton/Classes/Adv Quant/Lab 3","no","mono","no","18","no","white","no","no","768","legacy","35","11","C:/Users/Simon M. Rook/Documents/School/1Tarleton/Classes/Adv Quant/Lab 3/New folder/sr-subject-4.csv","legacy","6 9 4 5 2","Lentiform Loewenfeld","3.3.10","0","n","0","right","left","right","right","NA","888","1442","21724","888","NA","2","legacy","5","1024","2","48000","-16","experiment","4","even","1","323784","2653","320493","321580","1207","101807","321582","283921","1210","80083","325785","326674","322583","325785","NA","Sternberg task","47","46948","48","yes","1024"
"97.95918367346938","97.95918367346938","985.6938775510204","985.6938775510204","black","experiment","legacy","legacy","legacy","0","uniform","1","undefined","1","right","48","0","48","48","0","0","48","48","0","0","48","48","48","48","0","Wed Oct 20 12:25:59 2021","The main experiment item","yes","Sternbergtask.osexp","C:/Users/Simon M. Rook/Documents/School/1Tarleton/Classes/Adv Quant/Lab 3","no","mono","no","18","no","white","no","no","768","legacy","36","11","C:/Users/Simon M. Rook/Documents/School/1Tarleton/Classes/Adv Quant/Lab 3/New folder/sr-subject-4.csv","legacy","8 2 1 4 5 9","Lentiform Loewenfeld","3.3.10","0","n","0","right","left","right","right","NA","1351","1442","21724","1351","NA","2","legacy","6","1024","2","48000","-16","experiment","4","even","7","329970","2653","326678","327766","1207","101807","327768","283921","1210","80083","331971","333322","328769","331971","NA","Sternberg task","48","48299","49","yes","1024"
"98","98","980.18","980.18","black","experiment","legacy","legacy","legacy","0","uniform","1","undefined","1","right","49","0","49","49","0","0","49","49","0","0","49","49","49","49","0","Wed Oct 20 12:25:59 2021","The main experiment item","yes","Sternbergtask.osexp","C:/Users/Simon M. Rook/Documents/School/1Tarleton/Classes/Adv Quant/Lab 3","no","mono","no","18","no","white","no","no","768","legacy","37","11","C:/Users/Simon M. Rook/Documents/School/1Tarleton/Classes/Adv Quant/Lab 3/New folder/sr-subject-4.csv","legacy","2 6 4 3 9","Lentiform Loewenfeld","3.3.10","0","n","0","right","left","right","right","NA","710","1442","21724","710","NA","2","legacy","5","1024","2","48000","-16","experiment","4","even","1","336619","2653","333327","334415","1207","101807","334417","283921","1210","80083","338620","339332","335418","338620","NA","Sternberg task","49","49009","50","yes","1024"
"98.03921568627452","98.03921568627452","974.9411764705883","974.9411764705883","black","experiment","legacy","legacy","legacy","0","uniform","1","undefined","1","left","50","0","50","50","0","0","50","50","0","0","50","50","50","50","0","Wed Oct 20 12:25:59 2021","The main experiment item","yes","Sternbergtask.osexp","C:/Users/Simon M. Rook/Documents/School/1Tarleton/Classes/Adv Quant/Lab 3","no","mono","no","18","no","white","no","no","768","legacy","38","11","C:/Users/Simon M. Rook/Documents/School/1Tarleton/Classes/Adv Quant/Lab 3/New folder/sr-subject-4.csv","legacy","9 6 2 4 1","Lentiform Loewenfeld","3.3.10","4","y","0","left","left","right","left","NA","713","1442","21724","713","NA","2","legacy","5","1024","2","48000","-16","experiment","4","even","4","342633","2653","339344","340430","1207","101807","340431","283921","1210","80083","344634","345348","341432","344634","NA","Sternberg task","50","49722","51","yes","1024"
"96.15384615384616","96.15384615384616","970.1730769230769","970.1730769230769","black","experiment","legacy","legacy","legacy","0","uniform","0","undefined","0","left","51","0","51","51","0","0","51","51","0","0","51","51","51","51","0","Wed Oct 20 12:25:59 2021","The main experiment item","yes","Sternbergtask.osexp","C:/Users/Simon M. Rook/Documents/School/1Tarleton/Classes/Adv Quant/Lab 3","no","mono","no","18","no","white","no","no","768","legacy","39","11","C:/Users/Simon M. Rook/Documents/School/1Tarleton/Classes/Adv Quant/Lab 3/New folder/sr-subject-4.csv","legacy","6 9 7 4 5 1","Lentiform Loewenfeld","3.3.10","2","y","0","right","left","right","right","NA","727","1442","21724","727","NA","2","legacy","6","1024","2","48000","-16","experiment","4","even","9","348643","2653","345352","346439","1207","101807","346441","283921","1210","80083","350644","351372","347442","350644","NA","Sternberg task","50","50449","52","yes","1024"
"96.22641509433963","96.22641509433963","962.6981132075472","962.6981132075472","black","experiment","legacy","legacy","legacy","0","uniform","1","undefined","1","right","52","0","52","52","0","0","52","52","0","0","52","52","52","52","0","Wed Oct 20 12:25:59 2021","The main experiment item","yes","Sternbergtask.osexp","C:/Users/Simon M. Rook/Documents/School/1Tarleton/Classes/Adv Quant/Lab 3","no","mono","no","18","no","white","no","no","768","legacy","40","11","C:/Users/Simon M. Rook/Documents/School/1Tarleton/Classes/Adv Quant/Lab 3/New folder/sr-subject-4.csv","legacy","1 4 9 2 5","Lentiform Loewenfeld","3.3.10","0","n","0","right","left","right","right","NA","574","1442","21724","574","NA","2","legacy","5","1024","2","48000","-16","experiment","4","even","7","354669","2653","345352","352465","1207","101807","352467","351380","1210","80083","356670","357245","353468","356670","NA","Sternberg task","51","51023","53","yes","1024"
"96.29629629629629","96.29629629629629","955.1296296296297","955.1296296296297","black","experiment","legacy","legacy","legacy","0","uniform","1","undefined","1","left","53","0","53","53","0","0","53","53","0","0","53","53","53","53","0","Wed Oct 20 12:25:59 2021","The main experiment item","yes","Sternbergtask.osexp","C:/Users/Simon M. Rook/Documents/School/1Tarleton/Classes/Adv Quant/Lab 3","no","mono","no","18","no","white","no","no","768","legacy","41","11","C:/Users/Simon M. Rook/Documents/School/1Tarleton/Classes/Adv Quant/Lab 3/New folder/sr-subject-4.csv","legacy","4","Lentiform Loewenfeld","3.3.10","1","y","0","left","left","right","left","NA","554","1442","21724","554","NA","2","legacy","1","1024","2","48000","-16","experiment","4","even","4","360538","2653","357249","358335","1207","101807","358336","351380","1210","80083","362539","363094","359337","362539","NA","Sternberg task","52","51577","54","yes","1024"
"96.36363636363636","96.36363636363636","950.7272727272727","950.7272727272727","black","experiment","legacy","legacy","legacy","0","uniform","1","undefined","1","left","54","0","54","54","0","0","54","54","0","0","54","54","54","54","0","Wed Oct 20 12:25:59 2021","The main experiment item","yes","Sternbergtask.osexp","C:/Users/Simon M. Rook/Documents/School/1Tarleton/Classes/Adv Quant/Lab 3","no","mono","no","18","no","white","no","no","768","legacy","42","11","C:/Users/Simon M. Rook/Documents/School/1Tarleton/Classes/Adv Quant/Lab 3/New folder/sr-subject-4.csv","legacy","8","Lentiform Loewenfeld","3.3.10","1","y","0","left","left","right","left","NA","713","1442","21724","713","NA","2","legacy","1","1024","2","48000","-16","experiment","4","even","8","366388","2653","363099","364185","1207","101807","364186","351380","1210","80083","368389","369102","365187","368389","NA","Sternberg task","53","52290","55","yes","1024"
"96.42857142857143","96.42857142857143","949.3392857142857","949.3392857142857","black","experiment","legacy","legacy","legacy","0","uniform","1","undefined","1","right","55","0","55","55","0","0","55","55","0","0","55","55","55","55","0","Wed Oct 20 12:25:59 2021","The main experiment item","yes","Sternbergtask.osexp","C:/Users/Simon M. Rook/Documents/School/1Tarleton/Classes/Adv Quant/Lab 3","no","mono","no","18","no","white","no","no","768","legacy","43","11","C:/Users/Simon M. Rook/Documents/School/1Tarleton/Classes/Adv Quant/Lab 3/New folder/sr-subject-4.csv","legacy","6 9 4 5 3 2","Lentiform Loewenfeld","3.3.10","0","n","0","right","left","right","right","NA","873","1442","21724","873","NA","2","legacy","6","1024","2","48000","-16","experiment","4","even","8","372396","2653","369106","370193","1207","101807","370194","351380","1210","80083","374397","375271","371195","374397","NA","Sternberg task","54","53163","56","yes","1024"
"96.49122807017544","96.49122807017544","949.7719298245614","949.7719298245614","black","experiment","legacy","legacy","legacy","0","uniform","1","undefined","1","left","56","0","56","56","0","0","56","56","0","0","56","56","56","56","0","Wed Oct 20 12:25:59 2021","The main experiment item","yes","Sternbergtask.osexp","C:/Users/Simon M. Rook/Documents/School/1Tarleton/Classes/Adv Quant/Lab 3","no","mono","no","18","no","white","no","no","768","legacy","44","11","C:/Users/Simon M. Rook/Documents/School/1Tarleton/Classes/Adv Quant/Lab 3/New folder/sr-subject-4.csv","legacy","8 3","Lentiform Loewenfeld","3.3.10","2","y","0","left","left","right","left","NA","974","1442","21724","974","NA","2","legacy","2","1024","2","48000","-16","experiment","4","even","3","378568","2653","375275","376365","1207","101807","376366","351380","1210","80083","380569","381544","377367","380569","NA","Sternberg task","55","54137","57","yes","1024"
"96.55172413793103","96.55172413793103","942.6724137931035","942.6724137931035","black","experiment","legacy","legacy","legacy","0","uniform","1","undefined","1","right","57","0","57","57","0","0","57","57","0","0","57","57","57","57","0","Wed Oct 20 12:25:59 2021","The main experiment item","yes","Sternbergtask.osexp","C:/Users/Simon M. Rook/Documents/School/1Tarleton/Classes/Adv Quant/Lab 3","no","mono","no","18","no","white","no","no","768","legacy","45","11","C:/Users/Simon M. Rook/Documents/School/1Tarleton/Classes/Adv Quant/Lab 3/New folder/sr-subject-4.csv","legacy","6 9 5","Lentiform Loewenfeld","3.3.10","0","n","0","right","left","right","right","NA","538","1442","21724","538","NA","2","legacy","3","1024","2","48000","-16","experiment","4","even","8","384837","2653","381548","382634","1207","101807","382635","351380","1210","80083","386838","387376","383636","386838","NA","Sternberg task","56","54675","58","yes","1024"
"96.61016949152543","96.61016949152543","933.2033898305085","933.2033898305085","black","experiment","legacy","legacy","legacy","0","uniform","1","undefined","1","right","58","0","58","58","0","0","58","58","0","0","58","58","58","58","0","Wed Oct 20 12:25:59 2021","The main experiment item","yes","Sternbergtask.osexp","C:/Users/Simon M. Rook/Documents/School/1Tarleton/Classes/Adv Quant/Lab 3","no","mono","no","18","no","white","no","no","768","legacy","46","11","C:/Users/Simon M. Rook/Documents/School/1Tarleton/Classes/Adv Quant/Lab 3/New folder/sr-subject-4.csv","legacy","2 8 6 3 1","Lentiform Loewenfeld","3.3.10","0","n","0","right","left","right","right","NA","384","1442","21724","384","NA","2","legacy","5","1024","2","48000","-16","experiment","4","even","7","390671","2653","387381","388467","1207","101807","388469","351380","1210","80083","392672","393057","389470","392672","NA","Sternberg task","57","55059","59","yes","1024"
"96.66666666666667","96.66666666666667","929.7833333333333","929.7833333333333","black","experiment","legacy","legacy","legacy","0","uniform","1","undefined","1","right","59","0","59","59","0","0","59","59","0","0","59","59","59","59","0","Wed Oct 20 12:25:59 2021","The main experiment item","yes","Sternbergtask.osexp","C:/Users/Simon M. Rook/Documents/School/1Tarleton/Classes/Adv Quant/Lab 3","no","mono","no","18","no","white","no","no","768","legacy","47","11","C:/Users/Simon M. Rook/Documents/School/1Tarleton/Classes/Adv Quant/Lab 3/New folder/sr-subject-4.csv","legacy","2 5 1 4","Lentiform Loewenfeld","3.3.10","0","n","0","right","left","right","right","NA","728","1442","21724","728","NA","2","legacy","4","1024","2","48000","-16","experiment","4","even","6","396352","2653","393060","394149","1207","101807","394150","351380","1210","80083","398353","399082","395151","398353","NA","Sternberg task","58","55787","60","yes","1024"
"96.72131147540983","96.72131147540983","926.8524590163935","926.8524590163935","black","experiment","legacy","legacy","legacy","0","uniform","1","undefined","1","left","60","0","60","60","0","0","60","60","0","0","60","60","60","60","0","Wed Oct 20 12:25:59 2021","The main experiment item","yes","Sternbergtask.osexp","C:/Users/Simon M. Rook/Documents/School/1Tarleton/Classes/Adv Quant/Lab 3","no","mono","no","18","no","white","no","no","768","legacy","48","11","C:/Users/Simon M. Rook/Documents/School/1Tarleton/Classes/Adv Quant/Lab 3/New folder/sr-subject-4.csv","legacy","2 3","Lentiform Loewenfeld","3.3.10","1","y","0","left","left","right","left","NA","751","1442","21724","751","NA","2","legacy","2","1024","2","48000","-16","experiment","4","even","2","402378","2653","399088","400175","1207","101807","400176","351380","1210","80083","404379","405130","401177","404379","NA","Sternberg task","59","56538","61","yes","1024"
"95.16129032258064","95.16129032258064","918.1290322580645","918.1290322580645","black","experiment","legacy","legacy","legacy","0","uniform","0","undefined","0","left","61","0","61","61","0","0","61","61","0","0","61","61","61","61","0","Wed Oct 20 12:25:59 2021","The main experiment item","yes","Sternbergtask.osexp","C:/Users/Simon M. Rook/Documents/School/1Tarleton/Classes/Adv Quant/Lab 3","no","mono","no","18","no","white","no","no","768","legacy","49","11","C:/Users/Simon M. Rook/Documents/School/1Tarleton/Classes/Adv Quant/Lab 3/New folder/sr-subject-4.csv","legacy","9 5 8 1","Lentiform Loewenfeld","3.3.10","2","y","0","right","left","right","right","NA","386","1442","21724","386","NA","2","legacy","4","1024","2","48000","-16","experiment","4","even","5","408424","2653","405134","406220","1207","101807","406222","351380","1210","80083","410425","410811","407223","410425","NA","Sternberg task","59","56924","62","yes","1024"
"93.65079365079364","93.65079365079364","912.984126984127","912.984126984127","black","experiment","legacy","legacy","legacy","0","uniform","0","undefined","0","left","62","0","62","62","0","0","62","62","0","0","62","62","62","62","0","Wed Oct 20 12:25:59 2021","The main experiment item","yes","Sternbergtask.osexp","C:/Users/Simon M. Rook/Documents/School/1Tarleton/Classes/Adv Quant/Lab 3","no","mono","no","18","no","white","no","no","768","legacy","50","11","C:/Users/Simon M. Rook/Documents/School/1Tarleton/Classes/Adv Quant/Lab 3/New folder/sr-subject-4.csv","legacy","5 2 9 6 1 7","Lentiform Loewenfeld","3.3.10","3","y","0","right","left","right","right","NA","594","1442","21724","594","NA","2","legacy","6","1024","2","48000","-16","experiment","4","even","9","414104","2653","405134","411901","1207","101807","411902","410814","1210","80083","416105","416700","412903","416105","NA","Sternberg task","59","57518","63","yes","1024"
"93.75","93.75","906.75","906.75","black","experiment","legacy","legacy","legacy","0","uniform","1","undefined","1","left","63","0","63","63","0","0","63","63","0","0","63","63","63","63","0","Wed Oct 20 12:25:59 2021","The main experiment item","yes","Sternbergtask.osexp","C:/Users/Simon M. Rook/Documents/School/1Tarleton/Classes/Adv Quant/Lab 3","no","mono","no","18","no","white","no","no","768","legacy","51","11","C:/Users/Simon M. Rook/Documents/School/1Tarleton/Classes/Adv Quant/Lab 3/New folder/sr-subject-4.csv","legacy","3 4","Lentiform Loewenfeld","3.3.10","1","y","0","left","left","right","left","NA","514","1442","21724","514","NA","2","legacy","2","1024","2","48000","-16","experiment","4","even","3","419993","2653","405134","417790","1207","101807","417791","416704","1210","80083","421994","422509","418792","421994","NA","Sternberg task","60","58032","64","yes","1024"
"93.84615384615384","93.84615384615384","904.9846153846154","904.9846153846154","black","experiment","legacy","legacy","legacy","0","uniform","1","undefined","1","right","64","0","64","64","0","0","64","64","0","0","64","64","64","64","0","Wed Oct 20 12:25:59 2021","The main experiment item","yes","Sternbergtask.osexp","C:/Users/Simon M. Rook/Documents/School/1Tarleton/Classes/Adv Quant/Lab 3","no","mono","no","18","no","white","no","no","768","legacy","52","11","C:/Users/Simon M. Rook/Documents/School/1Tarleton/Classes/Adv Quant/Lab 3/New folder/sr-subject-4.csv","legacy","4 2 6 9","Lentiform Loewenfeld","3.3.10","0","n","0","right","left","right","right","NA","792","1442","21724","792","NA","2","legacy","4","1024","2","48000","-16","experiment","4","even","7","425804","2653","422513","423601","1207","101807","423602","416704","1210","80083","427805","428598","424603","427805","NA","Sternberg task","61","58824","65","yes","1024"
"93.93939393939394","93.93939393939394","906.4545454545455","906.4545454545455","black","experiment","legacy","legacy","legacy","0","uniform","1","undefined","1","left","65","0","65","65","0","0","65","65","0","0","65","65","65","65","0","Wed Oct 20 12:25:59 2021","The main experiment item","yes","Sternbergtask.osexp","C:/Users/Simon M. Rook/Documents/School/1Tarleton/Classes/Adv Quant/Lab 3","no","mono","no","18","no","white","no","no","768","legacy","53","11","C:/Users/Simon M. Rook/Documents/School/1Tarleton/Classes/Adv Quant/Lab 3/New folder/sr-subject-4.csv","legacy","4 6 2 5 1","Lentiform Loewenfeld","3.3.10","5","y","0","left","left","right","left","NA","1002","1442","21724","1002","NA","2","legacy","5","1024","2","48000","-16","experiment","4","even","1","431898","2653","428609","429695","1207","101807","429696","416704","1210","80083","433899","434902","430697","433899","NA","Sternberg task","62","59826","66","yes","1024"
"94.02985074626865","94.02985074626865","902.7164179104477","902.7164179104477","black","experiment","legacy","legacy","legacy","0","uniform","1","undefined","1","right","66","0","66","66","0","0","66","66","0","0","66","66","66","66","0","Wed Oct 20 12:25:59 2021","The main experiment item","yes","Sternbergtask.osexp","C:/Users/Simon M. Rook/Documents/School/1Tarleton/Classes/Adv Quant/Lab 3","no","mono","no","18","no","white","no","no","768","legacy","54","11","C:/Users/Simon M. Rook/Documents/School/1Tarleton/Classes/Adv Quant/Lab 3/New folder/sr-subject-4.csv","legacy","3 9 1","Lentiform Loewenfeld","3.3.10","0","n","0","right","left","right","right","NA","656","1442","21724","656","NA","2","legacy","3","1024","2","48000","-16","experiment","4","even","7","438197","2653","434908","435993","1207","101807","435995","416704","1210","80083","440198","440854","436996","440198","NA","Sternberg task","63","60482","67","yes","1024"
"94.11764705882354","94.11764705882354","897.9117647058823","897.9117647058823","black","experiment","legacy","legacy","legacy","0","uniform","1","undefined","1","left","67","0","67","67","0","0","67","67","0","0","67","67","67","67","0","Wed Oct 20 12:25:59 2021","The main experiment item","yes","Sternbergtask.osexp","C:/Users/Simon M. Rook/Documents/School/1Tarleton/Classes/Adv Quant/Lab 3","no","mono","no","18","no","white","no","no","768","legacy","55","11","C:/Users/Simon M. Rook/Documents/School/1Tarleton/Classes/Adv Quant/Lab 3/New folder/sr-subject-4.csv","legacy","9 3 8 2 1 4","Lentiform Loewenfeld","3.3.10","3","y","0","left","left","right","left","NA","576","1442","21724","576","NA","2","legacy","6","1024","2","48000","-16","experiment","4","even","8","444150","2653","440860","441946","1207","101807","441948","416704","1210","80083","446151","446727","442949","446151","NA","Sternberg task","64","61058","68","yes","1024"
"94.20289855072464","94.20289855072464","894.6376811594203","894.6376811594203","black","experiment","legacy","legacy","legacy","0","uniform","1","undefined","1","left","68","0","68","68","0","0","68","68","0","0","68","68","68","68","0","Wed Oct 20 12:25:59 2021","The main experiment item","yes","Sternbergtask.osexp","C:/Users/Simon M. Rook/Documents/School/1Tarleton/Classes/Adv Quant/Lab 3","no","mono","no","18","no","white","no","no","768","legacy","56","11","C:/Users/Simon M. Rook/Documents/School/1Tarleton/Classes/Adv Quant/Lab 3/New folder/sr-subject-4.csv","legacy","4 6 5 8","Lentiform Loewenfeld","3.3.10","1","y","0","left","left","right","left","NA","672","1442","21724","672","NA","2","legacy","4","1024","2","48000","-16","experiment","4","even","4","450023","2653","446732","447819","1207","101807","447821","416704","1210","80083","452024","452696","448822","452024","NA","Sternberg task","65","61730","69","yes","1024"
"94.28571428571429","94.28571428571429","893.4857142857143","893.4857142857143","black","experiment","legacy","legacy","legacy","0","uniform","1","undefined","1","left","69","0","69","69","0","0","69","69","0","0","69","69","69","69","0","Wed Oct 20 12:25:59 2021","The main experiment item","yes","Sternbergtask.osexp","C:/Users/Simon M. Rook/Documents/School/1Tarleton/Classes/Adv Quant/Lab 3","no","mono","no","18","no","white","no","no","768","legacy","57","11","C:/Users/Simon M. Rook/Documents/School/1Tarleton/Classes/Adv Quant/Lab 3/New folder/sr-subject-4.csv","legacy","9 4 2","Lentiform Loewenfeld","3.3.10","1","y","0","left","left","right","left","NA","814","1442","21724","814","NA","2","legacy","3","1024","2","48000","-16","experiment","4","even","9","456001","2653","452703","453798","1207","101807","453799","416704","1210","80083","458002","458821","454800","458002","NA","Sternberg task","66","62544","70","yes","1024"
"92.95774647887323","92.95774647887323","890.2253521126761","890.2253521126761","black","experiment","legacy","legacy","legacy","0","uniform","0","undefined","0","right","70","0","70","70","0","0","70","70","0","0","70","70","70","70","0","Wed Oct 20 12:25:59 2021","The main experiment item","yes","Sternbergtask.osexp","C:/Users/Simon M. Rook/Documents/School/1Tarleton/Classes/Adv Quant/Lab 3","no","mono","no","18","no","white","no","no","768","legacy","58","11","C:/Users/Simon M. Rook/Documents/School/1Tarleton/Classes/Adv Quant/Lab 3/New folder/sr-subject-4.csv","legacy","2 8 7 9 5 3","Lentiform Loewenfeld","3.3.10","0","n","0","left","left","right","left","NA","662","1442","21724","662","NA","2","legacy","6","1024","2","48000","-16","experiment","4","even","6","462121","2653","458831","459917","1207","101807","459919","416704","1210","80083","464122","464785","460920","464122","NA","Sternberg task","66","63206","71","yes","1024"
"93.05555555555556","93.05555555555556","903.2916666666666","903.2916666666666","black","experiment","legacy","legacy","legacy","0","uniform","1","undefined","1","right","71","0","71","71","0","0","71","71","0","0","71","71","71","71","0","Wed Oct 20 12:25:59 2021","The main experiment item","yes","Sternbergtask.osexp","C:/Users/Simon M. Rook/Documents/School/1Tarleton/Classes/Adv Quant/Lab 3","no","mono","no","18","no","white","no","no","768","legacy","59","11","C:/Users/Simon M. Rook/Documents/School/1Tarleton/Classes/Adv Quant/Lab 3/New folder/sr-subject-4.csv","legacy","4 8 1 2","Lentiform Loewenfeld","3.3.10","0","n","0","right","left","right","right","NA","1831","1442","21724","1831","NA","2","legacy","4","1024","2","48000","-16","experiment","4","even","7","468082","2653","458831","465879","1207","101807","465880","464791","1210","80083","470083","471914","466881","470083","NA","Sternberg task","67","65037","72","yes","1024"
"91.78082191780823","91.78082191780823","899.5616438356165","899.5616438356165","black","experiment","legacy","legacy","legacy","0","uniform","0","undefined","0","right","72","0","72","72","0","0","72","72","0","0","72","72","72","72","0","Wed Oct 20 12:25:59 2021","The main experiment item","yes","Sternbergtask.osexp","C:/Users/Simon M. Rook/Documents/School/1Tarleton/Classes/Adv Quant/Lab 3","no","mono","no","18","no","white","no","no","768","legacy","60","11","C:/Users/Simon M. Rook/Documents/School/1Tarleton/Classes/Adv Quant/Lab 3/New folder/sr-subject-4.csv","legacy","5 7 3","Lentiform Loewenfeld","3.3.10","0","n","0","left","left","right","left","NA","631","1442","21724","631","NA","2","legacy","3","1024","2","48000","-16","experiment","4","even","9","475234","2653","471919","473030","1207","101807","473032","464791","1210","80083","477235","477867","474033","477235","NA","Sternberg task","67","65668","73","yes","1024"
"91.89189189189189","91.89189189189189","903.7972972972973","903.7972972972973","black","experiment","legacy","legacy","legacy","0","uniform","1","undefined","1","right","73","0","73","73","0","0","73","73","0","0","73","73","73","73","0","Wed Oct 20 12:25:59 2021","The main experiment item","yes","Sternbergtask.osexp","C:/Users/Simon M. Rook/Documents/School/1Tarleton/Classes/Adv Quant/Lab 3","no","mono","no","18","no","white","no","no","768","legacy","61","11","C:/Users/Simon M. Rook/Documents/School/1Tarleton/Classes/Adv Quant/Lab 3/New folder/sr-subject-4.csv","legacy","1 7 5 2 9","Lentiform Loewenfeld","3.3.10","0","n","0","right","left","right","right","NA","1213","1442","21724","1213","NA","2","legacy","5","1024","2","48000","-16","experiment","4","even","3","481165","2653","471919","478962","1207","101807","478963","477871","1210","80083","483166","484380","479964","483166","NA","Sternberg task","68","66881","74","yes","1024"
"90.66666666666667","90.66666666666667","900.7066666666667","900.7066666666667","black","experiment","legacy","legacy","legacy","0","uniform","0","undefined","0","right","74","0","74","74","0","0","74","74","0","0","74","74","74","74","0","Wed Oct 20 12:25:59 2021","The main experiment item","yes","Sternbergtask.osexp","C:/Users/Simon M. Rook/Documents/School/1Tarleton/Classes/Adv Quant/Lab 3","no","mono","no","18","no","white","no","no","768","legacy","62","11","C:/Users/Simon M. Rook/Documents/School/1Tarleton/Classes/Adv Quant/Lab 3/New folder/sr-subject-4.csv","legacy","2 7 5","Lentiform Loewenfeld","3.3.10","0","n","0","left","left","right","left","NA","672","1442","21724","672","NA","2","legacy","3","1024","2","48000","-16","experiment","4","even","8","487682","2653","484393","485479","1207","101807","485480","477871","1210","80083","489683","490356","486481","489683","NA","Sternberg task","68","67553","75","yes","1024"
"90.78947368421052","90.78947368421052","909.1052631578947","909.1052631578947","black","experiment","legacy","legacy","legacy","0","uniform","1","undefined","1","right","75","0","75","75","0","0","75","75","0","0","75","75","75","75","0","Wed Oct 20 12:25:59 2021","The main experiment item","yes","Sternbergtask.osexp","C:/Users/Simon M. Rook/Documents/School/1Tarleton/Classes/Adv Quant/Lab 3","no","mono","no","18","no","white","no","no","768","legacy","63","11","C:/Users/Simon M. Rook/Documents/School/1Tarleton/Classes/Adv Quant/Lab 3/New folder/sr-subject-4.csv","legacy","7 8 6 1","Lentiform Loewenfeld","3.3.10","0","n","0","right","left","right","right","NA","1539","1442","21724","1539","NA","2","legacy","4","1024","2","48000","-16","experiment","4","even","3","493656","2653","484393","491453","1207","101807","491454","490360","1210","80083","495657","497197","492455","495657","NA","Sternberg task","69","69092","76","yes","1024"
"90.9090909090909","90.9090909090909","909.3636363636364","909.3636363636364","black","experiment","legacy","legacy","legacy","0","uniform","1","undefined","1","right","76","0","76","76","0","0","76","76","0","0","76","76","76","76","0","Wed Oct 20 12:25:59 2021","The main experiment item","yes","Sternbergtask.osexp","C:/Users/Simon M. Rook/Documents/School/1Tarleton/Classes/Adv Quant/Lab 3","no","mono","no","18","no","white","no","no","768","legacy","64","11","C:/Users/Simon M. Rook/Documents/School/1Tarleton/Classes/Adv Quant/Lab 3/New folder/sr-subject-4.csv","legacy","6 8 4","Lentiform Loewenfeld","3.3.10","0","n","0","right","left","right","right","NA","929","1442","21724","929","NA","2","legacy","3","1024","2","48000","-16","experiment","4","even","1","500500","2653","497203","498296","1207","101807","498298","490360","1210","80083","502501","503431","499299","502501","NA","Sternberg task","70","70021","77","yes","1024"
"91.02564102564102","91.02564102564102","907.9615384615385","907.9615384615385","black","experiment","legacy","legacy","legacy","0","uniform","1","undefined","1","left","77","0","77","77","0","0","77","77","0","0","77","77","77","77","0","Wed Oct 20 12:25:59 2021","The main experiment item","yes","Sternbergtask.osexp","C:/Users/Simon M. Rook/Documents/School/1Tarleton/Classes/Adv Quant/Lab 3","no","mono","no","18","no","white","no","no","768","legacy","65","11","C:/Users/Simon M. Rook/Documents/School/1Tarleton/Classes/Adv Quant/Lab 3/New folder/sr-subject-4.csv","legacy","7 6","Lentiform Loewenfeld","3.3.10","2","y","0","left","left","right","left","NA","800","1442","21724","800","NA","2","legacy","2","1024","2","48000","-16","experiment","4","even","6","506725","2653","503435","504521","1207","101807","504523","490360","1210","80083","508726","509527","505524","508726","NA","Sternberg task","71","70821","78","yes","1024"
"91.13924050632912","91.13924050632912","906.620253164557","906.620253164557","black","experiment","legacy","legacy","legacy","0","uniform","1","undefined","1","left","78","0","78","78","0","0","78","78","0","0","78","78","78","78","0","Wed Oct 20 12:25:59 2021","The main experiment item","yes","Sternbergtask.osexp","C:/Users/Simon M. Rook/Documents/School/1Tarleton/Classes/Adv Quant/Lab 3","no","mono","no","18","no","white","no","no","768","legacy","66","11","C:/Users/Simon M. Rook/Documents/School/1Tarleton/Classes/Adv Quant/Lab 3/New folder/sr-subject-4.csv","legacy","7 8 4 6 9 5","Lentiform Loewenfeld","3.3.10","4","y","0","left","left","right","left","NA","802","1442","21724","802","NA","2","legacy","6","1024","2","48000","-16","experiment","4","even","6","512827","2653","509536","510624","1207","101807","510625","490360","1210","80083","514828","515631","511626","514828","NA","Sternberg task","72","71623","79","yes","1024"
"90","90","910.9375","910.9375","black","experiment","legacy","legacy","legacy","0","uniform","0","undefined","0","left","79","0","79","79","0","0","79","79","0","0","79","79","79","79","0","Wed Oct 20 12:25:59 2021","The main experiment item","yes","Sternbergtask.osexp","C:/Users/Simon M. Rook/Documents/School/1Tarleton/Classes/Adv Quant/Lab 3","no","mono","no","18","no","white","no","no","768","legacy","67","11","C:/Users/Simon M. Rook/Documents/School/1Tarleton/Classes/Adv Quant/Lab 3/New folder/sr-subject-4.csv","legacy","9 5 3 8 4","Lentiform Loewenfeld","3.3.10","1","y","0","right","left","right","right","NA","1252","1442","21724","1252","NA","2","legacy","5","1024","2","48000","-16","experiment","4","even","9","518931","2653","515642","516728","1207","101807","516729","490360","1210","80083","520932","522184","517730","520932","NA","Sternberg task","72","72875","80","yes","1024"
"90.12345679012346","90.12345679012346","909.1111111111111","909.1111111111111","black","experiment","legacy","legacy","legacy","0","uniform","1","undefined","1","left","80","0","80","80","0","0","80","80","0","0","80","80","80","80","0","Wed Oct 20 12:25:59 2021","The main experiment item","yes","Sternbergtask.osexp","C:/Users/Simon M. Rook/Documents/School/1Tarleton/Classes/Adv Quant/Lab 3","no","mono","no","18","no","white","no","no","768","legacy","68","11","C:/Users/Simon M. Rook/Documents/School/1Tarleton/Classes/Adv Quant/Lab 3/New folder/sr-subject-4.csv","legacy","6 9 3 1","Lentiform Loewenfeld","3.3.10","4","y","0","left","left","right","left","NA","763","1442","21724","763","NA","2","legacy","4","1024","2","48000","-16","experiment","4","even","1","525484","2653","515642","523281","1207","101807","523282","522196","1210","80083","527485","528249","524283","527485","NA","Sternberg task","73","73638","81","yes","1024"
"90.2439024390244","90.2439024390244","913.2317073170732","913.2317073170732","black","experiment","legacy","legacy","legacy","0","uniform","1","undefined","1","right","81","0","81","81","0","0","81","81","0","0","81","81","81","81","0","Wed Oct 20 12:25:59 2021","The main experiment item","yes","Sternbergtask.osexp","C:/Users/Simon M. Rook/Documents/School/1Tarleton/Classes/Adv Quant/Lab 3","no","mono","no","18","no","white","no","no","768","legacy","69","11","C:/Users/Simon M. Rook/Documents/School/1Tarleton/Classes/Adv Quant/Lab 3/New folder/sr-subject-4.csv","legacy","2 3 8 5 6 7","Lentiform Loewenfeld","3.3.10","0","n","0","right","left","right","right","NA","1247","1442","21724","1247","NA","2","legacy","6","1024","2","48000","-16","experiment","4","even","1","531553","2653","528261","529349","1207","101807","529351","522196","1210","80083","533554","534802","530352","533554","NA","Sternberg task","74","74885","82","yes","1024"
"90.36144578313252","90.36144578313252","915.6144578313254","915.6144578313254","black","experiment","legacy","legacy","legacy","0","uniform","1","undefined","1","left","82","0","82","82","0","0","82","82","0","0","82","82","82","82","0","Wed Oct 20 12:25:59 2021","The main experiment item","yes","Sternbergtask.osexp","C:/Users/Simon M. Rook/Documents/School/1Tarleton/Classes/Adv Quant/Lab 3","no","mono","no","18","no","white","no","no","768","legacy","70","11","C:/Users/Simon M. Rook/Documents/School/1Tarleton/Classes/Adv Quant/Lab 3/New folder/sr-subject-4.csv","legacy","5 2 6","Lentiform Loewenfeld","3.3.10","2","y","0","left","left","right","left","NA","1111","1442","21724","1111","NA","2","legacy","3","1024","2","48000","-16","experiment","4","even","2","538097","2653","534806","535892","1207","101807","535895","522196","1210","80083","540098","541210","536896","540098","NA","Sternberg task","75","75996","83","yes","1024"
"90.47619047619048","90.47619047619048","916.3333333333334","916.3333333333334","black","experiment","legacy","legacy","legacy","0","uniform","1","undefined","1","left","83","0","83","83","0","0","83","83","0","0","83","83","83","83","0","Wed Oct 20 12:25:59 2021","The main experiment item","yes","Sternbergtask.osexp","C:/Users/Simon M. Rook/Documents/School/1Tarleton/Classes/Adv Quant/Lab 3","no","mono","no","18","no","white","no","no","768","legacy","71","11","C:/Users/Simon M. Rook/Documents/School/1Tarleton/Classes/Adv Quant/Lab 3/New folder/sr-subject-4.csv","legacy","5 7 3 6 2","Lentiform Loewenfeld","3.3.10","5","y","0","left","left","right","left","NA","976","1442","21724","976","NA","2","legacy","5","1024","2","48000","-16","experiment","4","even","2","544506","2653","541216","542303","1207","101807","542304","522196","1210","80083","546507","547483","543305","546507","NA","Sternberg task","76","76972","84","yes","1024"
"90.58823529411765","90.58823529411765","912.9294117647058","912.9294117647058","black","experiment","legacy","legacy","legacy","0","uniform","1","undefined","1","right","84","0","84","84","0","0","84","84","0","0","84","84","84","84","0","Wed Oct 20 12:25:59 2021","The main experiment item","yes","Sternbergtask.osexp","C:/Users/Simon M. Rook/Documents/School/1Tarleton/Classes/Adv Quant/Lab 3","no","mono","no","18","no","white","no","no","768","legacy","72","11","C:/Users/Simon M. Rook/Documents/School/1Tarleton/Classes/Adv Quant/Lab 3/New folder/sr-subject-4.csv","legacy","8 4 3 5","Lentiform Loewenfeld","3.3.10","0","n","0","right","left","right","right","NA","627","1442","21724","627","NA","2","legacy","4","1024","2","48000","-16","experiment","4","even","6","550783","2653","547488","548579","1207","101807","548580","522196","1210","80083","552784","553412","549582","552784","NA","Sternberg task","77","77599","85","yes","1024"
"90.69767441860465","90.69767441860465","922.0930232558139","922.0930232558139","black","experiment","legacy","legacy","legacy","0","uniform","1","undefined","1","left","85","0","85","85","0","0","85","85","0","0","85","85","85","85","0","Wed Oct 20 12:25:59 2021","The main experiment item","yes","Sternbergtask.osexp","C:/Users/Simon M. Rook/Documents/School/1Tarleton/Classes/Adv Quant/Lab 3","no","mono","no","18","no","white","no","no","768","legacy","73","11","C:/Users/Simon M. Rook/Documents/School/1Tarleton/Classes/Adv Quant/Lab 3/New folder/sr-subject-4.csv","legacy","8 5 4 7 3 1","Lentiform Loewenfeld","3.3.10","2","y","0","left","left","right","left","NA","1701","1442","21724","1701","NA","2","legacy","6","1024","2","48000","-16","experiment","4","even","5","556710","2653","553418","554506","1207","101807","554508","522196","1210","80083","558711","560413","555509","558711","NA","Sternberg task","78","79300","86","yes","1024"
"90.80459770114942","90.80459770114942","919.9885057471264","919.9885057471264","black","experiment","legacy","legacy","legacy","0","uniform","1","undefined","1","right","86","0","86","86","0","0","86","86","0","0","86","86","86","86","0","Wed Oct 20 12:25:59 2021","The main experiment item","yes","Sternbergtask.osexp","C:/Users/Simon M. Rook/Documents/School/1Tarleton/Classes/Adv Quant/Lab 3","no","mono","no","18","no","white","no","no","768","legacy","74","11","C:/Users/Simon M. Rook/Documents/School/1Tarleton/Classes/Adv Quant/Lab 3/New folder/sr-subject-4.csv","legacy","7 3 2 8","Lentiform Loewenfeld","3.3.10","0","n","0","right","left","right","right","NA","739","1442","21724","739","NA","2","legacy","4","1024","2","48000","-16","experiment","4","even","4","563713","2653","560417","561509","1207","101807","561511","522196","1210","80083","565714","566454","562512","565714","NA","Sternberg task","79","80039","87","yes","1024"
"90.9090909090909","90.9090909090909","921.5227272727273","921.5227272727273","black","experiment","legacy","legacy","legacy","0","uniform","1","undefined","1","left","87","0","87","87","0","0","87","87","0","0","87","87","87","87","0","Wed Oct 20 12:25:59 2021","The main experiment item","yes","Sternbergtask.osexp","C:/Users/Simon M. Rook/Documents/School/1Tarleton/Classes/Adv Quant/Lab 3","no","mono","no","18","no","white","no","no","768","legacy","75","11","C:/Users/Simon M. Rook/Documents/School/1Tarleton/Classes/Adv Quant/Lab 3/New folder/sr-subject-4.csv","legacy","7 4 2 6 3 5","Lentiform Loewenfeld","3.3.10","6","y","0","left","left","right","left","NA","1055","1442","21724","1055","NA","2","legacy","6","1024","2","48000","-16","experiment","4","even","5","569749","2653","566457","567545","1207","101807","567547","522196","1210","80083","571750","572806","568548","571750","NA","Sternberg task","80","81094","88","yes","1024"
"91.01123595505618","91.01123595505618","920.5168539325842","920.5168539325842","black","experiment","legacy","legacy","legacy","0","uniform","1","undefined","1","right","88","0","88","88","0","0","88","88","0","0","88","88","88","88","0","Wed Oct 20 12:25:59 2021","The main experiment item","yes","Sternbergtask.osexp","C:/Users/Simon M. Rook/Documents/School/1Tarleton/Classes/Adv Quant/Lab 3","no","mono","no","18","no","white","no","no","768","legacy","76","11","C:/Users/Simon M. Rook/Documents/School/1Tarleton/Classes/Adv Quant/Lab 3/New folder/sr-subject-4.csv","legacy","6 7 5 9","Lentiform Loewenfeld","3.3.10","0","n","0","right","left","right","right","NA","832","1442","21724","832","NA","2","legacy","4","1024","2","48000","-16","experiment","4","even","2","576101","2653","572811","573897","1207","101807","573899","522196","1210","80083","578102","578934","574900","578102","NA","Sternberg task","81","81926","89","yes","1024"
"90","90","917.7888888888889","917.7888888888889","black","experiment","legacy","legacy","legacy","0","uniform","0","undefined","0","right","89","0","89","89","0","0","89","89","0","0","89","89","89","89","0","Wed Oct 20 12:25:59 2021","The main experiment item","yes","Sternbergtask.osexp","C:/Users/Simon M. Rook/Documents/School/1Tarleton/Classes/Adv Quant/Lab 3","no","mono","no","18","no","white","no","no","768","legacy","77","11","C:/Users/Simon M. Rook/Documents/School/1Tarleton/Classes/Adv Quant/Lab 3/New folder/sr-subject-4.csv","legacy","5 2","Lentiform Loewenfeld","3.3.10","0","n","0","left","left","right","left","NA","675","1442","21724","675","NA","2","legacy","2","1024","2","48000","-16","experiment","4","even","7","582235","2653","578944","580032","1207","101807","580033","522196","1210","80083","584236","584912","581034","584236","NA","Sternberg task","81","82601","90","yes","1024"
"89.01098901098901","89.01098901098901","920.5714285714286","920.5714285714286","black","experiment","legacy","legacy","legacy","0","uniform","0","undefined","0","left","90","0","90","90","0","0","90","90","0","0","90","90","90","90","0","Wed Oct 20 12:25:59 2021","The main experiment item","yes","Sternbergtask.osexp","C:/Users/Simon M. Rook/Documents/School/1Tarleton/Classes/Adv Quant/Lab 3","no","mono","no","18","no","white","no","no","768","legacy","78","11","C:/Users/Simon M. Rook/Documents/School/1Tarleton/Classes/Adv Quant/Lab 3/New folder/sr-subject-4.csv","legacy","6 7 8 5","Lentiform Loewenfeld","3.3.10","3","y","0","right","left","right","right","NA","1171","1442","21724","1171","NA","2","legacy","4","1024","2","48000","-16","experiment","4","even","8","588211","2653","578944","586007","1207","101807","586009","584918","1210","80083","590212","591384","587010","590212","NA","Sternberg task","81","83772","91","yes","1024"
"89.1304347826087","89.1304347826087","923.9347826086956","923.9347826086956","black","experiment","legacy","legacy","legacy","0","uniform","1","undefined","1","right","91","0","91","91","0","0","91","91","0","0","91","91","91","91","0","Wed Oct 20 12:25:59 2021","The main experiment item","yes","Sternbergtask.osexp","C:/Users/Simon M. Rook/Documents/School/1Tarleton/Classes/Adv Quant/Lab 3","no","mono","no","18","no","white","no","no","768","legacy","79","11","C:/Users/Simon M. Rook/Documents/School/1Tarleton/Classes/Adv Quant/Lab 3/New folder/sr-subject-4.csv","legacy","1 6 4 3 9 7","Lentiform Loewenfeld","3.3.10","0","n","0","right","left","right","right","NA","1230","1442","21724","1230","NA","2","legacy","6","1024","2","48000","-16","experiment","4","even","8","594681","2653","578944","592477","1207","101807","592479","591390","1210","80083","596682","597913","593480","596682","NA","Sternberg task","82","85002","92","yes","1024"
"89.24731182795699","89.24731182795699","925.9462365591398","925.9462365591398","black","experiment","legacy","legacy","legacy","0","uniform","1","undefined","1","right","92","0","92","92","0","0","92","92","0","0","92","92","92","92","0","Wed Oct 20 12:25:59 2021","The main experiment item","yes","Sternbergtask.osexp","C:/Users/Simon M. Rook/Documents/School/1Tarleton/Classes/Adv Quant/Lab 3","no","mono","no","18","no","white","no","no","768","legacy","80","11","C:/Users/Simon M. Rook/Documents/School/1Tarleton/Classes/Adv Quant/Lab 3/New folder/sr-subject-4.csv","legacy","1 5 3 2 8","Lentiform Loewenfeld","3.3.10","0","n","0","right","left","right","right","NA","1111","1442","21724","1111","NA","2","legacy","5","1024","2","48000","-16","experiment","4","even","4","601217","2653","597927","599014","1207","101807","599015","591390","1210","80083","603218","604330","600016","603218","NA","Sternberg task","83","86113","93","yes","1024"
"89.36170212765957","89.36170212765957","924.1702127659574","924.1702127659574","black","experiment","legacy","legacy","legacy","0","uniform","1","undefined","1","left","93","0","93","93","0","0","93","93","0","0","93","93","93","93","0","Wed Oct 20 12:25:59 2021","The main experiment item","yes","Sternbergtask.osexp","C:/Users/Simon M. Rook/Documents/School/1Tarleton/Classes/Adv Quant/Lab 3","no","mono","no","18","no","white","no","no","768","legacy","81","11","C:/Users/Simon M. Rook/Documents/School/1Tarleton/Classes/Adv Quant/Lab 3/New folder/sr-subject-4.csv","legacy","8 1 6","Lentiform Loewenfeld","3.3.10","3","y","0","left","left","right","left","NA","759","1442","21724","759","NA","2","legacy","3","1024","2","48000","-16","experiment","4","even","6","607626","2653","604336","605423","1207","101807","605424","591390","1210","80083","609627","610387","606425","609627","NA","Sternberg task","84","86872","94","yes","1024"
"89.47368421052632","89.47368421052632","928.5684210526316","928.5684210526316","black","experiment","legacy","legacy","legacy","0","uniform","1","undefined","1","left","94","0","94","94","0","0","94","94","0","0","94","94","94","94","0","Wed Oct 20 12:25:59 2021","The main experiment item","yes","Sternbergtask.osexp","C:/Users/Simon M. Rook/Documents/School/1Tarleton/Classes/Adv Quant/Lab 3","no","mono","no","18","no","white","no","no","768","legacy","82","11","C:/Users/Simon M. Rook/Documents/School/1Tarleton/Classes/Adv Quant/Lab 3/New folder/sr-subject-4.csv","legacy","8 9 5 7 1 6","Lentiform Loewenfeld","3.3.10","4","y","0","left","left","right","left","NA","1342","1442","21724","1342","NA","2","legacy","6","1024","2","48000","-16","experiment","4","even","7","613683","2653","610391","611479","1207","101807","611481","591390","1210","80083","615684","617027","612482","615684","NA","Sternberg task","85","88214","95","yes","1024"
"88.54166666666667","88.54166666666667","927.0520833333334","927.0520833333334","black","experiment","legacy","legacy","legacy","0","uniform","0","undefined","0","right","95","0","95","95","0","0","95","95","0","0","95","95","95","95","0","Wed Oct 20 12:25:59 2021","The main experiment item","yes","Sternbergtask.osexp","C:/Users/Simon M. Rook/Documents/School/1Tarleton/Classes/Adv Quant/Lab 3","no","mono","no","18","no","white","no","no","768","legacy","83","11","C:/Users/Simon M. Rook/Documents/School/1Tarleton/Classes/Adv Quant/Lab 3/New folder/sr-subject-4.csv","legacy","2 8 9","Lentiform Loewenfeld","3.3.10","0","n","0","left","left","right","left","NA","783","1442","21724","783","NA","2","legacy","3","1024","2","48000","-16","experiment","4","even","6","620323","2653","617031","618119","1207","101807","618121","591390","1210","80083","622324","623108","619122","622324","NA","Sternberg task","85","88997","96","yes","1024"
"88.65979381443299","88.65979381443299","926.3298969072165","926.3298969072165","black","experiment","legacy","legacy","legacy","0","uniform","1","undefined","1","right","96","0","96","96","0","0","96","96","0","0","96","96","96","96","0","Wed Oct 20 12:25:59 2021","The main experiment item","yes","Sternbergtask.osexp","C:/Users/Simon M. Rook/Documents/School/1Tarleton/Classes/Adv Quant/Lab 3","no","mono","no","18","no","white","no","no","768","legacy","84","11","C:/Users/Simon M. Rook/Documents/School/1Tarleton/Classes/Adv Quant/Lab 3/New folder/sr-subject-4.csv","legacy","3 9 8 1 6 4","Lentiform Loewenfeld","3.3.10","0","n","0","right","left","right","right","NA","857","1442","21724","857","NA","2","legacy","6","1024","2","48000","-16","experiment","4","even","7","626410","2653","617031","624206","1207","101807","624208","623117","1210","80083","628411","629269","625209","628411","NA","Sternberg task","86","89854","97","yes","1024"
"88.77551020408163","88.77551020408163","927.5408163265306","927.5408163265306","black","experiment","legacy","legacy","legacy","0","uniform","1","undefined","1","right","97","0","97","97","0","0","97","97","0","0","97","97","97","97","0","Wed Oct 20 12:25:59 2021","The main experiment item","yes","Sternbergtask.osexp","C:/Users/Simon M. Rook/Documents/School/1Tarleton/Classes/Adv Quant/Lab 3","no","mono","no","18","no","white","no","no","768","legacy","85","11","C:/Users/Simon M. Rook/Documents/School/1Tarleton/Classes/Adv Quant/Lab 3/New folder/sr-subject-4.csv","legacy","7 1 8 4 9 3","Lentiform Loewenfeld","3.3.10","0","n","0","right","left","right","right","NA","1045","1442","21724","1045","NA","2","legacy","6","1024","2","48000","-16","experiment","4","even","6","632567","2653","629278","630364","1207","101807","630365","623117","1210","80083","634568","635614","631366","634568","NA","Sternberg task","87","90899","98","yes","1024"
"88.88888888888889","88.88888888888889","933.1616161616162","933.1616161616162","black","experiment","legacy","legacy","legacy","0","uniform","1","undefined","1","right","98","0","98","98","0","0","98","98","0","0","98","98","98","98","0","Wed Oct 20 12:25:59 2021","The main experiment item","yes","Sternbergtask.osexp","C:/Users/Simon M. Rook/Documents/School/1Tarleton/Classes/Adv Quant/Lab 3","no","mono","no","18","no","white","no","no","768","legacy","86","11","C:/Users/Simon M. Rook/Documents/School/1Tarleton/Classes/Adv Quant/Lab 3/New folder/sr-subject-4.csv","legacy","1 4 3 6 5","Lentiform Loewenfeld","3.3.10","0","n","0","right","left","right","right","NA","1484","1442","21724","1484","NA","2","legacy","5","1024","2","48000","-16","experiment","4","even","8","638920","2653","635631","636717","1207","101807","636718","623117","1210","80083","640921","642406","637719","640921","NA","Sternberg task","88","92383","99","yes","1024"
"89","89","930.56","930.56","black","experiment","legacy","legacy","legacy","0","uniform","1","undefined","1","left","99","0","99","99","0","0","99","99","0","0","99","99","99","99","0","Wed Oct 20 12:25:59 2021","The main experiment item","yes","Sternbergtask.osexp","C:/Users/Simon M. Rook/Documents/School/1Tarleton/Classes/Adv Quant/Lab 3","no","mono","no","18","no","white","no","no","768","legacy","87","11","C:/Users/Simon M. Rook/Documents/School/1Tarleton/Classes/Adv Quant/Lab 3/New folder/sr-subject-4.csv","legacy","9 1 6 7 8","Lentiform Loewenfeld","3.3.10","1","y","0","left","left","right","left","NA","673","1442","21724","673","NA","2","legacy","5","1024","2","48000","-16","experiment","4","even","9","645716","2653","642411","643512","1207","101807","643514","623117","1210","80083","647717","648391","644515","647717","NA","Sternberg task","89","93056","100","yes","1024"
"89.10891089108911","89.10891089108911","927.6831683168317","927.6831683168317","black","experiment","legacy","legacy","legacy","0","uniform","1","undefined","1","right","100","0","100","100","0","0","100","100","0","0","100","100","100","100","0","Wed Oct 20 12:25:59 2021","The main experiment item","yes","Sternbergtask.osexp","C:/Users/Simon M. Rook/Documents/School/1Tarleton/Classes/Adv Quant/Lab 3","no","mono","no","18","no","white","no","no","768","legacy","88","11","C:/Users/Simon M. Rook/Documents/School/1Tarleton/Classes/Adv Quant/Lab 3/New folder/sr-subject-4.csv","legacy","6 3 1 7 9 8","Lentiform Loewenfeld","3.3.10","0","n","0","right","left","right","right","NA","640","1442","21724","640","NA","2","legacy","6","1024","2","48000","-16","experiment","4","even","4","651685","2653","648395","649481","1207","101807","649483","623117","1210","80083","653686","654327","650484","653686","NA","Sternberg task","90","93696","101","yes","1024"
"88.23529411764706","88.23529411764706","933.6274509803922","933.6274509803922","black","experiment","legacy","legacy","legacy","0","uniform","0","undefined","0","left","101","0","101","101","0","0","101","101","0","0","101","101","101","101","0","Wed Oct 20 12:25:59 2021","The main experiment item","yes","Sternbergtask.osexp","C:/Users/Simon M. Rook/Documents/School/1Tarleton/Classes/Adv Quant/Lab 3","no","mono","no","18","no","white","no","no","768","legacy","89","11","C:/Users/Simon M. Rook/Documents/School/1Tarleton/Classes/Adv Quant/Lab 3/New folder/sr-subject-4.csv","legacy","4 9 7 8 5 3","Lentiform Loewenfeld","3.3.10","4","y","0","right","left","right","right","NA","1534","1442","21724","1534","NA","2","legacy","6","1024","2","48000","-16","experiment","4","even","8","657624","2653","654333","655420","1207","101807","655422","623117","1210","80083","659625","661160","656423","659625","NA","Sternberg task","90","95230","102","yes","1024"
"88.3495145631068","88.3495145631068","931.3300970873786","931.3300970873786","black","experiment","legacy","legacy","legacy","0","uniform","1","undefined","1","right","102","0","102","102","0","0","102","102","0","0","102","102","102","102","0","Wed Oct 20 12:25:59 2021","The main experiment item","yes","Sternbergtask.osexp","C:/Users/Simon M. Rook/Documents/School/1Tarleton/Classes/Adv Quant/Lab 3","no","mono","no","18","no","white","no","no","768","legacy","90","11","C:/Users/Simon M. Rook/Documents/School/1Tarleton/Classes/Adv Quant/Lab 3/New folder/sr-subject-4.csv","legacy","9 8 2 7 4","Lentiform Loewenfeld","3.3.10","0","n","0","right","left","right","right","NA","697","1442","21724","697","NA","2","legacy","5","1024","2","48000","-16","experiment","4","even","5","664463","2653","654333","662259","1207","101807","662261","661167","1210","80083","666464","667162","663262","666464","NA","Sternberg task","91","95927","103","yes","1024"
"88.46153846153847","88.46153846153847","932.6826923076923","932.6826923076923","black","experiment","legacy","legacy","legacy","0","uniform","1","undefined","1","left","103","0","103","103","0","0","103","103","0","0","103","103","103","103","0","Wed Oct 20 12:25:59 2021","The main experiment item","yes","Sternbergtask.osexp","C:/Users/Simon M. Rook/Documents/School/1Tarleton/Classes/Adv Quant/Lab 3","no","mono","no","18","no","white","no","no","768","legacy","91","11","C:/Users/Simon M. Rook/Documents/School/1Tarleton/Classes/Adv Quant/Lab 3/New folder/sr-subject-4.csv","legacy","2 4 6 9","Lentiform Loewenfeld","3.3.10","3","y","0","left","left","right","left","NA","1072","1442","21724","1072","NA","2","legacy","4","1024","2","48000","-16","experiment","4","even","6","670464","2653","667173","668260","1207","101807","668262","661167","1210","80083","672465","673538","669263","672465","NA","Sternberg task","92","96999","104","yes","1024"
"88.57142857142857","88.57142857142857","929.8857142857142","929.8857142857142","black","experiment","legacy","legacy","legacy","0","uniform","1","undefined","1","right","104","0","104","104","0","0","104","104","0","0","104","104","104","104","0","Wed Oct 20 12:25:59 2021","The main experiment item","yes","Sternbergtask.osexp","C:/Users/Simon M. Rook/Documents/School/1Tarleton/Classes/Adv Quant/Lab 3","no","mono","no","18","no","white","no","no","768","legacy","92","11","C:/Users/Simon M. Rook/Documents/School/1Tarleton/Classes/Adv Quant/Lab 3/New folder/sr-subject-4.csv","legacy","8 4 3 9","Lentiform Loewenfeld","3.3.10","0","n","0","right","left","right","right","NA","639","1442","21724","639","NA","2","legacy","4","1024","2","48000","-16","experiment","4","even","5","676834","2653","673544","674630","1207","101807","674632","661167","1210","80083","678835","679475","675633","678835","NA","Sternberg task","93","97638","105","yes","1024"
"87.73584905660377","87.73584905660377","933.5471698113207","933.5471698113207","black","experiment","legacy","legacy","legacy","0","uniform","0","undefined","0","right","105","0","105","105","0","0","105","105","0","0","105","105","105","105","0","Wed Oct 20 12:25:59 2021","The main experiment item","yes","Sternbergtask.osexp","C:/Users/Simon M. Rook/Documents/School/1Tarleton/Classes/Adv Quant/Lab 3","no","mono","no","18","no","white","no","no","768","legacy","93","11","C:/Users/Simon M. Rook/Documents/School/1Tarleton/Classes/Adv Quant/Lab 3/New folder/sr-subject-4.csv","legacy","6 2 9 3 8 4","Lentiform Loewenfeld","3.3.10","0","n","0","left","left","right","left","NA","1318","1442","21724","1318","NA","2","legacy","6","1024","2","48000","-16","experiment","4","even","1","682771","2653","679482","680568","1207","101807","680569","661167","1210","80083","684772","686091","681570","684772","NA","Sternberg task","93","98956","106","yes","1024"
