"acc","accuracy","average_response_time","avg_rt","background","block","canvas_backend","clock_backend","color_backend","compensation","coordinates","correct","correct_instruction1","correct_new_keyboard_response","correct_response","count_Fixation","count_ISI","count_correctFeedback","count_expSequence","count_experiment","count_experimentLoop","count_incorrectFeedback","count_instruction1","count_instructions2","count_memorySet","count_new_keyboard_response","count_new_logger","count_practiceLoop","count_probe","count_thankYou","datetime","description","disable_garbage_collection","experiment_file","experiment_path","font_bold","font_family","font_italic","font_size","font_underline","foreground","form_clicks","fullscreen","height","keyboard_backend","live_row","live_row_practiceLoop","logfile","mouse_backend","numberSet","opensesame_codename","opensesame_version","posInSet","present","repeat_cycle","response","response_instruction1","response_instructions2","response_new_keyboard_response","response_thankYou","response_time","response_time_instruction1","response_time_instructions2","response_time_new_keyboard_response","response_time_thankYou","round_decimals","sampler_backend","setSize","sound_buf_size","sound_channels","sound_freq","sound_sample_size","start","subject_nr","subject_parity","target","time_Fixation","time_ISI","time_correctFeedback","time_expSequence","time_experiment","time_experimentLoop","time_incorrectFeedback","time_instruction1","time_instructions2","time_memorySet","time_new_keyboard_response","time_new_logger","time_practiceLoop","time_probe","time_thankYou","title","total_correct","total_response_time","total_responses","uniform_coordinates","width"
"100","100","687","687","black","practice","legacy","legacy","legacy","0","uniform","1","undefined","1","right","0","0","0","0","0","0","0","0","0","0","0","0","0","0","0","Sun Oct 25 17:58:48 2020","The main experiment item","yes","SternbergTask.osexp","/Users/tforestmoore/Desktop/Tarleton/Fall 2020/Math/Lab3","no","mono","no","18","no","white","no","yes","768","legacy","0","0","/Users/tforestmoore/Desktop/Tarleton/Fall 2020/Math/Lab3/WM-subject-3.csv","legacy","4 1 5","Lentiform Loewenfeld","3.3.3","0","n","0","right","left","NA","right","NA","687","10844","NA","687","NA","2","legacy","3","1024","2","48000","-16","experiment","3","odd","2","13569","15802","NA","13555","2425","NA","NA","2441","NA","14584","17819","18506","13296","17818","NA","Sternberg Task","1","687","1","yes","1024"
"100","100","565","565","black","practice","legacy","legacy","legacy","0","uniform","1","undefined","1","left","1","1","1","1","0","0","1","0","0","1","1","1","0","1","0","Sun Oct 25 17:58:48 2020","The main experiment item","yes","SternbergTask.osexp","/Users/tforestmoore/Desktop/Tarleton/Fall 2020/Math/Lab3","no","mono","no","18","no","white","no","yes","768","legacy","1","1","/Users/tforestmoore/Desktop/Tarleton/Fall 2020/Math/Lab3/WM-subject-3.csv","legacy","4 8","Lentiform Loewenfeld","3.3.3","1","y","0","left","left","NA","left","NA","443","10844","NA","443","NA","2","legacy","2","1024","2","48000","-16","experiment","3","odd","4","19645","21882","18548","19631","2425","NA","NA","2441","NA","20662","23899","24342","13296","23899","NA","Sternberg Task","2","1130","2","yes","1024"
"100","100","634.6666666666666","634.6666666666666","black","practice","legacy","legacy","legacy","0","uniform","1","undefined","1","right","2","2","2","2","0","0","2","0","0","2","2","2","0","2","0","Sun Oct 25 17:58:48 2020","The main experiment item","yes","SternbergTask.osexp","/Users/tforestmoore/Desktop/Tarleton/Fall 2020/Math/Lab3","no","mono","no","18","no","white","no","yes","768","legacy","2","2","/Users/tforestmoore/Desktop/Tarleton/Fall 2020/Math/Lab3/WM-subject-3.csv","legacy","3 1 9 4","Lentiform Loewenfeld","3.3.3","0","n","0","right","left","NA","right","NA","774","10844","NA","774","NA","2","legacy","4","1024","2","48000","-16","experiment","3","odd","6","25444","27680","24359","25428","2425","NA","NA","2441","NA","26461","29696","30471","13296","29696","NA","Sternberg Task","3","1904","3","yes","1024"
"100","100","654.75","654.75","black","practice","legacy","legacy","legacy","0","uniform","1","undefined","1","right","3","3","3","3","0","0","3","0","0","3","3","3","0","3","0","Sun Oct 25 17:58:48 2020","The main experiment item","yes","SternbergTask.osexp","/Users/tforestmoore/Desktop/Tarleton/Fall 2020/Math/Lab3","no","mono","no","18","no","white","no","yes","768","legacy","3","3","/Users/tforestmoore/Desktop/Tarleton/Fall 2020/Math/Lab3/WM-subject-3.csv","legacy","5 7 8 4 1 2","Lentiform Loewenfeld","3.3.3","0","n","0","right","left","NA","right","NA","715","10844","NA","715","NA","2","legacy","6","1024","2","48000","-16","experiment","3","odd","6","31575","33811","30487","31559","2425","NA","NA","2441","NA","32592","35828","36544","13296","35827","NA","Sternberg Task","4","2619","4","yes","1024"
"100","100","640.8","640.8","black","practice","legacy","legacy","legacy","0","uniform","1","undefined","1","left","4","4","4","4","0","0","4","0","0","4","4","4","0","4","0","Sun Oct 25 17:58:48 2020","The main experiment item","yes","SternbergTask.osexp","/Users/tforestmoore/Desktop/Tarleton/Fall 2020/Math/Lab3","no","mono","no","18","no","white","no","yes","768","legacy","4","4","/Users/tforestmoore/Desktop/Tarleton/Fall 2020/Math/Lab3/WM-subject-3.csv","legacy","4 3 1 7 9 8","Lentiform Loewenfeld","3.3.3","1","y","0","left","left","NA","left","NA","585","10844","NA","585","NA","2","legacy","6","1024","2","48000","-16","experiment","3","odd","4","37646","39881","36562","37630","2425","NA","NA","2441","NA","38663","41897","42482","13296","41897","NA","Sternberg Task","5","3204","5","yes","1024"
"100","100","683.8333333333334","683.8333333333334","black","practice","legacy","legacy","legacy","0","uniform","1","undefined","1","right","5","5","5","5","0","0","5","0","0","5","5","5","0","5","0","Sun Oct 25 17:58:48 2020","The main experiment item","yes","SternbergTask.osexp","/Users/tforestmoore/Desktop/Tarleton/Fall 2020/Math/Lab3","no","mono","no","18","no","white","no","yes","768","legacy","5","5","/Users/tforestmoore/Desktop/Tarleton/Fall 2020/Math/Lab3/WM-subject-3.csv","legacy","5","Lentiform Loewenfeld","3.3.3","0","n","0","right","left","NA","right","NA","899","10844","NA","899","NA","2","legacy","1","1024","2","48000","-16","experiment","3","odd","3","43583","45818","42499","43568","2425","NA","NA","2441","NA","44600","47832","48732","13296","47832","NA","Sternberg Task","6","4103","6","yes","1024"
"100","100","708.4285714285714","708.4285714285714","black","practice","legacy","legacy","legacy","0","uniform","1","undefined","1","right","6","6","6","6","0","0","6","0","0","6","6","6","0","6","0","Sun Oct 25 17:58:48 2020","The main experiment item","yes","SternbergTask.osexp","/Users/tforestmoore/Desktop/Tarleton/Fall 2020/Math/Lab3","no","mono","no","18","no","white","no","yes","768","legacy","6","6","/Users/tforestmoore/Desktop/Tarleton/Fall 2020/Math/Lab3/WM-subject-3.csv","legacy","9 6 7 4 5","Lentiform Loewenfeld","3.3.3","0","n","0","right","left","NA","right","NA","856","10844","NA","856","NA","2","legacy","5","1024","2","48000","-16","experiment","3","odd","3","49819","52051","48748","49805","2425","NA","NA","2441","NA","50834","54066","54922","13296","54066","NA","Sternberg Task","7","4959","7","yes","1024"
"100","100","681.25","681.25","black","practice","legacy","legacy","legacy","0","uniform","1","undefined","1","left","7","7","7","7","0","0","7","0","0","7","7","7","0","7","0","Sun Oct 25 17:58:48 2020","The main experiment item","yes","SternbergTask.osexp","/Users/tforestmoore/Desktop/Tarleton/Fall 2020/Math/Lab3","no","mono","no","18","no","white","no","yes","768","legacy","7","7","/Users/tforestmoore/Desktop/Tarleton/Fall 2020/Math/Lab3/WM-subject-3.csv","legacy","2 9 4","Lentiform Loewenfeld","3.3.3","3","y","0","left","left","NA","left","NA","491","10844","NA","491","NA","2","legacy","3","1024","2","48000","-16","experiment","3","odd","4","56009","58242","54939","55996","2425","NA","NA","2441","NA","57024","60256","60748","13296","60256","NA","Sternberg Task","8","5450","8","yes","1024"
"100","100","674.4444444444445","674.4444444444445","black","practice","legacy","legacy","legacy","0","uniform","1","undefined","1","right","8","8","8","8","0","0","8","0","0","8","8","8","0","8","0","Sun Oct 25 17:58:48 2020","The main experiment item","yes","SternbergTask.osexp","/Users/tforestmoore/Desktop/Tarleton/Fall 2020/Math/Lab3","no","mono","no","18","no","white","no","yes","768","legacy","8","8","/Users/tforestmoore/Desktop/Tarleton/Fall 2020/Math/Lab3/WM-subject-3.csv","legacy","2 1","Lentiform Loewenfeld","3.3.3","0","n","0","right","left","NA","right","NA","620","10844","NA","620","NA","2","legacy","2","1024","2","48000","-16","experiment","3","odd","5","61836","64068","60764","61821","2425","NA","NA","2441","NA","62851","66082","66702","13296","66082","NA","Sternberg Task","9","6070","9","yes","1024"
"100","100","666.8","666.8","black","practice","legacy","legacy","legacy","0","uniform","1","undefined","1","left","9","9","9","9","0","0","9","0","0","9","9","9","0","9","0","Sun Oct 25 17:58:48 2020","The main experiment item","yes","SternbergTask.osexp","/Users/tforestmoore/Desktop/Tarleton/Fall 2020/Math/Lab3","no","mono","no","18","no","white","no","yes","768","legacy","9","9","/Users/tforestmoore/Desktop/Tarleton/Fall 2020/Math/Lab3/WM-subject-3.csv","legacy","1 7 9 8 5","Lentiform Loewenfeld","3.3.3","4","y","0","left","left","NA","left","NA","598","10844","NA","598","NA","2","legacy","5","1024","2","48000","-16","experiment","3","odd","8","67790","70022","66719","67776","2425","NA","NA","2441","NA","68805","72039","72638","13296","72039","NA","Sternberg Task","10","6668","10","yes","1024"
"100","100","655.2727272727273","655.2727272727273","black","practice","legacy","legacy","legacy","0","uniform","1","undefined","1","left","10","10","10","10","0","0","10","0","0","10","10","10","0","10","0","Sun Oct 25 17:58:48 2020","The main experiment item","yes","SternbergTask.osexp","/Users/tforestmoore/Desktop/Tarleton/Fall 2020/Math/Lab3","no","mono","no","18","no","white","no","yes","768","legacy","10","10","/Users/tforestmoore/Desktop/Tarleton/Fall 2020/Math/Lab3/WM-subject-3.csv","legacy","1 5 2 9","Lentiform Loewenfeld","3.3.3","2","y","0","left","left","NA","left","NA","540","10844","NA","540","NA","2","legacy","4","1024","2","48000","-16","experiment","3","odd","5","73727","75959","72655","73712","2425","NA","NA","2441","NA","74741","77976","78517","13296","77975","NA","Sternberg Task","11","7208","11","yes","1024"
"100","100","634.75","634.75","black","practice","legacy","legacy","legacy","0","uniform","1","undefined","1","left","11","11","11","11","0","0","11","0","0","11","11","11","0","11","0","Sun Oct 25 17:58:48 2020","The main experiment item","yes","SternbergTask.osexp","/Users/tforestmoore/Desktop/Tarleton/Fall 2020/Math/Lab3","no","mono","no","18","no","white","no","yes","768","legacy","11","11","/Users/tforestmoore/Desktop/Tarleton/Fall 2020/Math/Lab3/WM-subject-3.csv","legacy","6","Lentiform Loewenfeld","3.3.3","1","y","0","left","left","NA","left","NA","409","10844","NA","409","NA","2","legacy","1","1024","2","48000","-16","experiment","3","odd","6","79619","81857","78534","79603","2425","NA","NA","2441","NA","80637","83874","84284","13296","83874","NA","Sternberg Task","12","7617","12","yes","1024"
"100","100","621.5384615384615","621.5384615384615","black","experiment","legacy","legacy","legacy","0","uniform","1","undefined","1","left","12","12","12","12","0","0","12","0","0","12","12","12","0","12","0","Sun Oct 25 17:58:48 2020","The main experiment item","yes","SternbergTask.osexp","/Users/tforestmoore/Desktop/Tarleton/Fall 2020/Math/Lab3","no","mono","no","18","no","white","no","yes","768","legacy","0","11","/Users/tforestmoore/Desktop/Tarleton/Fall 2020/Math/Lab3/WM-subject-3.csv","legacy","4 1 5","Lentiform Loewenfeld","3.3.3","2","y","0","left","left","left","left","NA","463","10844","3365","463","NA","2","legacy","3","1024","2","48000","-16","experiment","3","odd","1","88780","91012","84300","88766","2425","88711","NA","2441","85345","89798","93028","93492","13296","93028","NA","Sternberg Task","13","8080","13","yes","1024"
"100","100","625","625","black","experiment","legacy","legacy","legacy","0","uniform","1","undefined","1","right","13","13","13","13","0","0","13","0","0","13","13","13","0","13","0","Sun Oct 25 17:58:48 2020","The main experiment item","yes","SternbergTask.osexp","/Users/tforestmoore/Desktop/Tarleton/Fall 2020/Math/Lab3","no","mono","no","18","no","white","no","yes","768","legacy","1","11","/Users/tforestmoore/Desktop/Tarleton/Fall 2020/Math/Lab3/WM-subject-3.csv","legacy","1 7 5 2 9","Lentiform Loewenfeld","3.3.3","0","n","0","right","left","left","right","NA","670","10844","3365","670","NA","2","legacy","5","1024","2","48000","-16","experiment","3","odd","3","94594","96826","93511","94578","2425","88711","NA","2441","85345","95609","98843","99514","13296","98843","NA","Sternberg Task","14","8750","14","yes","1024"
"100","100","615.3333333333334","615.3333333333334","black","experiment","legacy","legacy","legacy","0","uniform","1","undefined","1","left","14","14","14","14","0","0","14","0","0","14","14","14","0","14","0","Sun Oct 25 17:58:48 2020","The main experiment item","yes","SternbergTask.osexp","/Users/tforestmoore/Desktop/Tarleton/Fall 2020/Math/Lab3","no","mono","no","18","no","white","no","yes","768","legacy","2","11","/Users/tforestmoore/Desktop/Tarleton/Fall 2020/Math/Lab3/WM-subject-3.csv","legacy","3 4","Lentiform Loewenfeld","3.3.3","1","y","0","left","left","left","left","NA","480","10844","3365","480","NA","2","legacy","2","1024","2","48000","-16","experiment","3","odd","3","100616","102852","99531","100600","2425","88711","NA","2441","85345","101633","104869","105350","13296","104869","NA","Sternberg Task","15","9230","15","yes","1024"
"100","100","614.0625","614.0625","black","experiment","legacy","legacy","legacy","0","uniform","1","undefined","1","left","15","15","15","15","0","0","15","0","0","15","15","15","0","15","0","Sun Oct 25 17:58:48 2020","The main experiment item","yes","SternbergTask.osexp","/Users/tforestmoore/Desktop/Tarleton/Fall 2020/Math/Lab3","no","mono","no","18","no","white","no","yes","768","legacy","3","11","/Users/tforestmoore/Desktop/Tarleton/Fall 2020/Math/Lab3/WM-subject-3.csv","legacy","9 4 2","Lentiform Loewenfeld","3.3.3","1","y","0","left","left","left","left","NA","595","10844","3365","595","NA","2","legacy","3","1024","2","48000","-16","experiment","3","odd","9","106449","108687","105366","106433","2425","88711","NA","2441","85345","107467","110704","111299","13296","110704","NA","Sternberg Task","16","9825","16","yes","1024"
"100","100","603.8235294117648","603.8235294117648","black","experiment","legacy","legacy","legacy","0","uniform","1","undefined","1","right","16","16","16","16","0","0","16","0","0","16","16","16","0","16","0","Sun Oct 25 17:58:48 2020","The main experiment item","yes","SternbergTask.osexp","/Users/tforestmoore/Desktop/Tarleton/Fall 2020/Math/Lab3","no","mono","no","18","no","white","no","yes","768","legacy","4","11","/Users/tforestmoore/Desktop/Tarleton/Fall 2020/Math/Lab3/WM-subject-3.csv","legacy","1 6 4 3 9 7","Lentiform Loewenfeld","3.3.3","0","n","0","right","left","left","right","NA","440","10844","3365","440","NA","2","legacy","6","1024","2","48000","-16","experiment","3","odd","8","112402","114639","111317","112386","2425","88711","NA","2441","85345","113420","116656","117096","13296","116655","NA","Sternberg Task","17","10265","17","yes","1024"
"100","100","606.8333333333334","606.8333333333334","black","experiment","legacy","legacy","legacy","0","uniform","1","undefined","1","left","17","17","17","17","0","0","17","0","0","17","17","17","0","17","0","Sun Oct 25 17:58:48 2020","The main experiment item","yes","SternbergTask.osexp","/Users/tforestmoore/Desktop/Tarleton/Fall 2020/Math/Lab3","no","mono","no","18","no","white","no","yes","768","legacy","5","11","/Users/tforestmoore/Desktop/Tarleton/Fall 2020/Math/Lab3/WM-subject-3.csv","legacy","6 5","Lentiform Loewenfeld","3.3.3","2","y","0","left","left","left","left","NA","658","10844","3365","658","NA","2","legacy","2","1024","2","48000","-16","experiment","3","odd","5","118197","120432","117113","118181","2425","88711","NA","2441","85345","119213","122449","123108","13296","122449","NA","Sternberg Task","18","10923","18","yes","1024"
"100","100","609.1052631578947","609.1052631578947","black","experiment","legacy","legacy","legacy","0","uniform","1","undefined","1","left","18","18","18","18","0","0","18","0","0","18","18","18","0","18","0","Sun Oct 25 17:58:48 2020","The main experiment item","yes","SternbergTask.osexp","/Users/tforestmoore/Desktop/Tarleton/Fall 2020/Math/Lab3","no","mono","no","18","no","white","no","yes","768","legacy","6","11","/Users/tforestmoore/Desktop/Tarleton/Fall 2020/Math/Lab3/WM-subject-3.csv","legacy","7 6","Lentiform Loewenfeld","3.3.3","2","y","0","left","left","left","left","NA","650","10844","3365","650","NA","2","legacy","2","1024","2","48000","-16","experiment","3","odd","6","124210","126446","123125","124194","2425","88711","NA","2441","85345","125227","128463","129114","13296","128463","NA","Sternberg Task","19","11573","19","yes","1024"
"100","100","606.2","606.2","black","experiment","legacy","legacy","legacy","0","uniform","1","undefined","1","right","19","19","19","19","0","0","19","0","0","19","19","19","0","19","0","Sun Oct 25 17:58:48 2020","The main experiment item","yes","SternbergTask.osexp","/Users/tforestmoore/Desktop/Tarleton/Fall 2020/Math/Lab3","no","mono","no","18","no","white","no","yes","768","legacy","7","11","/Users/tforestmoore/Desktop/Tarleton/Fall 2020/Math/Lab3/WM-subject-3.csv","legacy","2 8 9","Lentiform Loewenfeld","3.3.3","0","n","0","right","left","left","right","NA","551","10844","3365","551","NA","2","legacy","3","1024","2","48000","-16","experiment","3","odd","6","130215","132452","129131","130199","2425","88711","NA","2441","85345","131232","134469","135021","13296","134469","NA","Sternberg Task","20","12124","20","yes","1024"
"100","100","610.2857142857143","610.2857142857143","black","experiment","legacy","legacy","legacy","0","uniform","1","undefined","1","right","20","20","20","20","0","0","20","0","0","20","20","20","0","20","0","Sun Oct 25 17:58:48 2020","The main experiment item","yes","SternbergTask.osexp","/Users/tforestmoore/Desktop/Tarleton/Fall 2020/Math/Lab3","no","mono","no","18","no","white","no","yes","768","legacy","8","11","/Users/tforestmoore/Desktop/Tarleton/Fall 2020/Math/Lab3/WM-subject-3.csv","legacy","8 5 4 2 9 6","Lentiform Loewenfeld","3.3.3","0","n","0","right","left","left","right","NA","692","10844","3365","692","NA","2","legacy","6","1024","2","48000","-16","experiment","3","odd","3","136120","138357","135037","136104","2425","88711","NA","2441","85345","137138","140374","141067","13296","140373","NA","Sternberg Task","21","12816","21","yes","1024"
"100","100","610.9090909090909","610.9090909090909","black","experiment","legacy","legacy","legacy","0","uniform","1","undefined","1","left","21","21","21","21","0","0","21","0","0","21","21","21","0","21","0","Sun Oct 25 17:58:48 2020","The main experiment item","yes","SternbergTask.osexp","/Users/tforestmoore/Desktop/Tarleton/Fall 2020/Math/Lab3","no","mono","no","18","no","white","no","yes","768","legacy","9","11","/Users/tforestmoore/Desktop/Tarleton/Fall 2020/Math/Lab3/WM-subject-3.csv","legacy","2 5 4 8 7","Lentiform Loewenfeld","3.3.3","3","y","0","left","left","left","left","NA","624","10844","3365","624","NA","2","legacy","5","1024","2","48000","-16","experiment","3","odd","4","142168","144405","141084","142153","2425","88711","NA","2441","85345","143185","146422","147047","13296","146421","NA","Sternberg Task","22","13440","22","yes","1024"
"100","100","610.3478260869565","610.3478260869565","black","experiment","legacy","legacy","legacy","0","uniform","1","undefined","1","left","22","22","22","22","0","0","22","0","0","22","22","22","0","22","0","Sun Oct 25 17:58:48 2020","The main experiment item","yes","SternbergTask.osexp","/Users/tforestmoore/Desktop/Tarleton/Fall 2020/Math/Lab3","no","mono","no","18","no","white","no","yes","768","legacy","10","11","/Users/tforestmoore/Desktop/Tarleton/Fall 2020/Math/Lab3/WM-subject-3.csv","legacy","3 4 9 6 2 9","Lentiform Loewenfeld","3.3.3","5","y","0","left","left","left","left","NA","598","10844","3365","598","NA","2","legacy","6","1024","2","48000","-16","experiment","3","odd","2","148136","150369","147063","148122","2425","88711","NA","2441","85345","149151","152385","152984","13296","152385","NA","Sternberg Task","23","14038","23","yes","1024"
"100","100","612.5","612.5","black","experiment","legacy","legacy","legacy","0","uniform","1","undefined","1","right","23","23","23","23","0","0","23","0","0","23","23","23","0","23","0","Sun Oct 25 17:58:48 2020","The main experiment item","yes","SternbergTask.osexp","/Users/tforestmoore/Desktop/Tarleton/Fall 2020/Math/Lab3","no","mono","no","18","no","white","no","yes","768","legacy","11","11","/Users/tforestmoore/Desktop/Tarleton/Fall 2020/Math/Lab3/WM-subject-3.csv","legacy","1 8 7","Lentiform Loewenfeld","3.3.3","0","n","0","right","left","left","right","NA","662","10844","3365","662","NA","2","legacy","3","1024","2","48000","-16","experiment","3","odd","4","154082","156318","153000","154066","2425","88711","NA","2441","85345","155099","158335","158998","13296","158335","NA","Sternberg Task","24","14700","24","yes","1024"
"100","100","605.96","605.96","black","experiment","legacy","legacy","legacy","0","uniform","1","undefined","1","right","24","24","24","24","0","0","24","0","0","24","24","24","0","24","0","Sun Oct 25 17:58:48 2020","The main experiment item","yes","SternbergTask.osexp","/Users/tforestmoore/Desktop/Tarleton/Fall 2020/Math/Lab3","no","mono","no","18","no","white","no","yes","768","legacy","12","11","/Users/tforestmoore/Desktop/Tarleton/Fall 2020/Math/Lab3/WM-subject-3.csv","legacy","5","Lentiform Loewenfeld","3.3.3","0","n","0","right","left","left","right","NA","449","10844","3365","449","NA","2","legacy","1","1024","2","48000","-16","experiment","3","odd","8","160098","162336","159014","160082","2425","88711","NA","2441","85345","161115","164353","164803","13296","164352","NA","Sternberg Task","25","15149","25","yes","1024"
"100","100","613.1153846153846","613.1153846153846","black","experiment","legacy","legacy","legacy","0","uniform","1","undefined","1","left","25","25","25","25","0","0","25","0","0","25","25","25","0","25","0","Sun Oct 25 17:58:48 2020","The main experiment item","yes","SternbergTask.osexp","/Users/tforestmoore/Desktop/Tarleton/Fall 2020/Math/Lab3","no","mono","no","18","no","white","no","yes","768","legacy","13","11","/Users/tforestmoore/Desktop/Tarleton/Fall 2020/Math/Lab3/WM-subject-3.csv","legacy","4 3 2 5 8","Lentiform Loewenfeld","3.3.3","2","y","0","left","left","left","left","NA","792","10844","3365","792","NA","2","legacy","5","1024","2","48000","-16","experiment","3","odd","3","165904","168140","164820","165888","2425","88711","NA","2441","85345","166921","170157","170950","13296","170156","NA","Sternberg Task","26","15941","26","yes","1024"
"100","100","615.925925925926","615.925925925926","black","experiment","legacy","legacy","legacy","0","uniform","1","undefined","1","left","26","26","26","26","0","0","26","0","0","26","26","26","0","26","0","Sun Oct 25 17:58:48 2020","The main experiment item","yes","SternbergTask.osexp","/Users/tforestmoore/Desktop/Tarleton/Fall 2020/Math/Lab3","no","mono","no","18","no","white","no","yes","768","legacy","14","11","/Users/tforestmoore/Desktop/Tarleton/Fall 2020/Math/Lab3/WM-subject-3.csv","legacy","9 5 8 1","Lentiform Loewenfeld","3.3.3","2","y","0","left","left","left","left","NA","689","10844","3365","689","NA","2","legacy","4","1024","2","48000","-16","experiment","3","odd","5","172050","174287","170966","172034","2425","88711","NA","2441","85345","173067","176304","176994","13296","176304","NA","Sternberg Task","27","16630","27","yes","1024"
"100","100","618.6428571428571","618.6428571428571","black","experiment","legacy","legacy","legacy","0","uniform","1","undefined","1","right","27","27","27","27","0","0","27","0","0","27","27","27","0","27","0","Sun Oct 25 17:58:48 2020","The main experiment item","yes","SternbergTask.osexp","/Users/tforestmoore/Desktop/Tarleton/Fall 2020/Math/Lab3","no","mono","no","18","no","white","no","yes","768","legacy","15","11","/Users/tforestmoore/Desktop/Tarleton/Fall 2020/Math/Lab3/WM-subject-3.csv","legacy","2 8 7 9 5 3","Lentiform Loewenfeld","3.3.3","0","n","0","right","left","left","right","NA","692","10844","3365","692","NA","2","legacy","6","1024","2","48000","-16","experiment","3","odd","6","178095","180332","177010","178079","2425","88711","NA","2441","85345","179113","182349","183042","13296","182349","NA","Sternberg Task","28","17322","28","yes","1024"
"100","100","617.7931034482758","617.7931034482758","black","experiment","legacy","legacy","legacy","0","uniform","1","undefined","1","left","28","28","28","28","0","0","28","0","0","28","28","28","0","28","0","Sun Oct 25 17:58:48 2020","The main experiment item","yes","SternbergTask.osexp","/Users/tforestmoore/Desktop/Tarleton/Fall 2020/Math/Lab3","no","mono","no","18","no","white","no","yes","768","legacy","16","11","/Users/tforestmoore/Desktop/Tarleton/Fall 2020/Math/Lab3/WM-subject-3.csv","legacy","8 1 6","Lentiform Loewenfeld","3.3.3","3","y","0","left","left","left","left","NA","594","10844","3365","594","NA","2","legacy","3","1024","2","48000","-16","experiment","3","odd","6","184146","186382","183059","184130","2425","88711","NA","2441","85345","185163","188400","188995","13296","188400","NA","Sternberg Task","29","17916","29","yes","1024"
"100","100","612.5","612.5","black","experiment","legacy","legacy","legacy","0","uniform","1","undefined","1","right","29","29","29","29","0","0","29","0","0","29","29","29","0","29","0","Sun Oct 25 17:58:48 2020","The main experiment item","yes","SternbergTask.osexp","/Users/tforestmoore/Desktop/Tarleton/Fall 2020/Math/Lab3","no","mono","no","18","no","white","no","yes","768","legacy","17","11","/Users/tforestmoore/Desktop/Tarleton/Fall 2020/Math/Lab3/WM-subject-3.csv","legacy","2 5 1 4","Lentiform Loewenfeld","3.3.3","0","n","0","right","left","left","right","NA","459","10844","3365","459","NA","2","legacy","4","1024","2","48000","-16","experiment","3","odd","6","190095","192332","189010","190080","2425","88711","NA","2441","85345","191113","194349","194809","13296","194349","NA","Sternberg Task","30","18375","30","yes","1024"
"100","100","618.1612903225806","618.1612903225806","black","experiment","legacy","legacy","legacy","0","uniform","1","undefined","1","right","30","30","30","30","0","0","30","0","0","30","30","30","0","30","0","Sun Oct 25 17:58:48 2020","The main experiment item","yes","SternbergTask.osexp","/Users/tforestmoore/Desktop/Tarleton/Fall 2020/Math/Lab3","no","mono","no","18","no","white","no","yes","768","legacy","18","11","/Users/tforestmoore/Desktop/Tarleton/Fall 2020/Math/Lab3/WM-subject-3.csv","legacy","3 4 2","Lentiform Loewenfeld","3.3.3","0","n","0","right","left","left","right","NA","788","10844","3365","788","NA","2","legacy","3","1024","2","48000","-16","experiment","3","odd","5","195911","198146","194826","195894","2425","88711","NA","2441","85345","196928","200164","200953","13296","200164","NA","Sternberg Task","31","19163","31","yes","1024"
"100","100","623.375","623.375","black","experiment","legacy","legacy","legacy","0","uniform","1","undefined","1","left","31","31","31","31","0","0","31","0","0","31","31","31","0","31","0","Sun Oct 25 17:58:48 2020","The main experiment item","yes","SternbergTask.osexp","/Users/tforestmoore/Desktop/Tarleton/Fall 2020/Math/Lab3","no","mono","no","18","no","white","no","yes","768","legacy","19","11","/Users/tforestmoore/Desktop/Tarleton/Fall 2020/Math/Lab3/WM-subject-3.csv","legacy","8 9 5 7 1 6","Lentiform Loewenfeld","3.3.3","4","y","0","left","left","left","left","NA","785","10844","3365","785","NA","2","legacy","6","1024","2","48000","-16","experiment","3","odd","7","202054","204291","200970","202038","2425","88711","NA","2441","85345","203071","206308","207094","13296","206307","NA","Sternberg Task","32","19948","32","yes","1024"
"100","100","621.2424242424242","621.2424242424242","black","experiment","legacy","legacy","legacy","0","uniform","1","undefined","1","left","32","32","32","32","0","0","32","0","0","32","32","32","0","32","0","Sun Oct 25 17:58:48 2020","The main experiment item","yes","SternbergTask.osexp","/Users/tforestmoore/Desktop/Tarleton/Fall 2020/Math/Lab3","no","mono","no","18","no","white","no","yes","768","legacy","20","11","/Users/tforestmoore/Desktop/Tarleton/Fall 2020/Math/Lab3/WM-subject-3.csv","legacy","2 4 8 5 1 3","Lentiform Loewenfeld","3.3.3","1","y","0","left","left","left","left","NA","553","10844","3365","553","NA","2","legacy","6","1024","2","48000","-16","experiment","3","odd","2","208197","210434","207111","208181","2425","88711","NA","2441","85345","209215","212451","213005","13296","212451","NA","Sternberg Task","33","20501","33","yes","1024"
"100","100","620.2647058823529","620.2647058823529","black","experiment","legacy","legacy","legacy","0","uniform","1","undefined","1","left","33","33","33","33","0","0","33","0","0","33","33","33","0","33","0","Sun Oct 25 17:58:48 2020","The main experiment item","yes","SternbergTask.osexp","/Users/tforestmoore/Desktop/Tarleton/Fall 2020/Math/Lab3","no","mono","no","18","no","white","no","yes","768","legacy","21","11","/Users/tforestmoore/Desktop/Tarleton/Fall 2020/Math/Lab3/WM-subject-3.csv","legacy","2 3 7 4","Lentiform Loewenfeld","3.3.3","1","y","0","left","left","left","left","NA","588","10844","3365","588","NA","2","legacy","4","1024","2","48000","-16","experiment","3","odd","2","214108","216345","213022","214093","2425","88711","NA","2441","85345","215126","218362","218951","13296","218361","NA","Sternberg Task","34","21089","34","yes","1024"
"100","100","613.1142857142858","613.1142857142858","black","experiment","legacy","legacy","legacy","0","uniform","1","undefined","1","right","34","34","34","34","0","0","34","0","0","34","34","34","0","34","0","Sun Oct 25 17:58:48 2020","The main experiment item","yes","SternbergTask.osexp","/Users/tforestmoore/Desktop/Tarleton/Fall 2020/Math/Lab3","no","mono","no","18","no","white","no","yes","768","legacy","22","11","/Users/tforestmoore/Desktop/Tarleton/Fall 2020/Math/Lab3/WM-subject-3.csv","legacy","7 9","Lentiform Loewenfeld","3.3.3","0","n","0","right","left","left","right","NA","370","10844","3365","370","NA","2","legacy","2","1024","2","48000","-16","experiment","3","odd","1","220053","222290","218967","220037","2425","88711","NA","2441","85345","221070","224307","224678","13296","224307","NA","Sternberg Task","35","21459","35","yes","1024"
"100","100","615.1666666666666","615.1666666666666","black","experiment","legacy","legacy","legacy","0","uniform","1","undefined","1","left","35","35","35","35","0","0","35","0","0","35","35","35","0","35","0","Sun Oct 25 17:58:48 2020","The main experiment item","yes","SternbergTask.osexp","/Users/tforestmoore/Desktop/Tarleton/Fall 2020/Math/Lab3","no","mono","no","18","no","white","no","yes","768","legacy","23","11","/Users/tforestmoore/Desktop/Tarleton/Fall 2020/Math/Lab3/WM-subject-3.csv","legacy","3 9 6 2","Lentiform Loewenfeld","3.3.3","4","y","0","left","left","left","left","NA","687","10844","3365","687","NA","2","legacy","4","1024","2","48000","-16","experiment","3","odd","2","225781","228017","224694","225765","2425","88711","NA","2441","85345","226799","230034","230722","13296","230034","NA","Sternberg Task","36","22146","36","yes","1024"
"100","100","608.5675675675676","608.5675675675676","black","experiment","legacy","legacy","legacy","0","uniform","1","undefined","1","left","36","36","36","36","0","0","36","0","0","36","36","36","0","36","0","Sun Oct 25 17:58:48 2020","The main experiment item","yes","SternbergTask.osexp","/Users/tforestmoore/Desktop/Tarleton/Fall 2020/Math/Lab3","no","mono","no","18","no","white","no","yes","768","legacy","24","11","/Users/tforestmoore/Desktop/Tarleton/Fall 2020/Math/Lab3/WM-subject-3.csv","legacy","3 2 1 4 7","Lentiform Loewenfeld","3.3.3","2","y","0","left","left","left","left","NA","371","10844","3365","371","NA","2","legacy","5","1024","2","48000","-16","experiment","3","odd","2","231823","234059","230739","231807","2425","88711","NA","2441","85345","232840","236076","236447","13296","236076","NA","Sternberg Task","37","22517","37","yes","1024"
"100","100","607.7368421052631","607.7368421052631","black","experiment","legacy","legacy","legacy","0","uniform","1","undefined","1","right","37","37","37","37","0","0","37","0","0","37","37","37","0","37","0","Sun Oct 25 17:58:48 2020","The main experiment item","yes","SternbergTask.osexp","/Users/tforestmoore/Desktop/Tarleton/Fall 2020/Math/Lab3","no","mono","no","18","no","white","no","yes","768","legacy","25","11","/Users/tforestmoore/Desktop/Tarleton/Fall 2020/Math/Lab3/WM-subject-3.csv","legacy","7 9 1 6","Lentiform Loewenfeld","3.3.3","0","n","0","right","left","left","right","NA","577","10844","3365","577","NA","2","legacy","4","1024","2","48000","-16","experiment","3","odd","4","237549","239787","236464","237533","2425","88711","NA","2441","85345","238568","241804","242381","13296","241804","NA","Sternberg Task","38","23094","38","yes","1024"
"100","100","605.6666666666666","605.6666666666666","black","experiment","legacy","legacy","legacy","0","uniform","1","undefined","1","left","38","38","38","38","0","0","38","0","0","38","38","38","0","38","0","Sun Oct 25 17:58:48 2020","The main experiment item","yes","SternbergTask.osexp","/Users/tforestmoore/Desktop/Tarleton/Fall 2020/Math/Lab3","no","mono","no","18","no","white","no","yes","768","legacy","26","11","/Users/tforestmoore/Desktop/Tarleton/Fall 2020/Math/Lab3/WM-subject-3.csv","legacy","6 8 9 3 4 9","Lentiform Loewenfeld","3.3.3","5","y","0","left","left","left","left","NA","527","10844","3365","527","NA","2","legacy","6","1024","2","48000","-16","experiment","3","odd","4","243485","245721","242399","243469","2425","88711","NA","2441","85345","244502","247738","248266","13296","247738","NA","Sternberg Task","39","23621","39","yes","1024"
"100","100","605.025","605.025","black","experiment","legacy","legacy","legacy","0","uniform","1","undefined","1","left","39","39","39","39","0","0","39","0","0","39","39","39","0","39","0","Sun Oct 25 17:58:48 2020","The main experiment item","yes","SternbergTask.osexp","/Users/tforestmoore/Desktop/Tarleton/Fall 2020/Math/Lab3","no","mono","no","18","no","white","no","yes","768","legacy","27","11","/Users/tforestmoore/Desktop/Tarleton/Fall 2020/Math/Lab3/WM-subject-3.csv","legacy","1 4 9 3 2 5","Lentiform Loewenfeld","3.3.3","3","y","0","left","left","left","left","NA","580","10844","3365","580","NA","2","legacy","6","1024","2","48000","-16","experiment","3","odd","9","249368","251605","248282","249352","2425","88711","NA","2441","85345","250385","253622","254203","13296","253622","NA","Sternberg Task","40","24201","40","yes","1024"
"100","100","608.0487804878048","608.0487804878048","black","experiment","legacy","legacy","legacy","0","uniform","1","undefined","1","right","40","40","40","40","0","0","40","0","0","40","40","40","0","40","0","Sun Oct 25 17:58:48 2020","The main experiment item","yes","SternbergTask.osexp","/Users/tforestmoore/Desktop/Tarleton/Fall 2020/Math/Lab3","no","mono","no","18","no","white","no","yes","768","legacy","28","11","/Users/tforestmoore/Desktop/Tarleton/Fall 2020/Math/Lab3/WM-subject-3.csv","legacy","6 3 1 7 9 8","Lentiform Loewenfeld","3.3.3","0","n","0","right","left","left","right","NA","729","10844","3365","729","NA","2","legacy","6","1024","2","48000","-16","experiment","3","odd","4","255305","257541","254220","255289","2425","88711","NA","2441","85345","256322","259556","260286","13296","259556","NA","Sternberg Task","41","24930","41","yes","1024"
"100","100","604.0238095238095","604.0238095238095","black","experiment","legacy","legacy","legacy","0","uniform","1","undefined","1","right","41","41","41","41","0","0","41","0","0","41","41","41","0","41","0","Sun Oct 25 17:58:48 2020","The main experiment item","yes","SternbergTask.osexp","/Users/tforestmoore/Desktop/Tarleton/Fall 2020/Math/Lab3","no","mono","no","18","no","white","no","yes","768","legacy","29","11","/Users/tforestmoore/Desktop/Tarleton/Fall 2020/Math/Lab3/WM-subject-3.csv","legacy","4 1","Lentiform Loewenfeld","3.3.3","0","n","0","right","left","left","right","NA","439","10844","3365","439","NA","2","legacy","2","1024","2","48000","-16","experiment","3","odd","6","261387","263624","260302","261371","2425","88711","NA","2441","85345","262404","265641","266080","13296","265641","NA","Sternberg Task","42","25369","42","yes","1024"
"100","100","600.6744186046511","600.6744186046511","black","experiment","legacy","legacy","legacy","0","uniform","1","undefined","1","left","42","42","42","42","0","0","42","0","0","42","42","42","0","42","0","Sun Oct 25 17:58:48 2020","The main experiment item","yes","SternbergTask.osexp","/Users/tforestmoore/Desktop/Tarleton/Fall 2020/Math/Lab3","no","mono","no","18","no","white","no","yes","768","legacy","30","11","/Users/tforestmoore/Desktop/Tarleton/Fall 2020/Math/Lab3/WM-subject-3.csv","legacy","7","Lentiform Loewenfeld","3.3.3","1","y","0","left","left","left","left","NA","460","10844","3365","460","NA","2","legacy","1","1024","2","48000","-16","experiment","3","odd","7","267166","269398","266097","267153","2425","88711","NA","2441","85345","268181","271413","271874","13296","271413","NA","Sternberg Task","43","25829","43","yes","1024"
"100","100","599.5227272727273","599.5227272727273","black","experiment","legacy","legacy","legacy","0","uniform","1","undefined","1","right","43","43","43","43","0","0","43","0","0","43","43","43","0","43","0","Sun Oct 25 17:58:48 2020","The main experiment item","yes","SternbergTask.osexp","/Users/tforestmoore/Desktop/Tarleton/Fall 2020/Math/Lab3","no","mono","no","18","no","white","no","yes","768","legacy","31","11","/Users/tforestmoore/Desktop/Tarleton/Fall 2020/Math/Lab3/WM-subject-3.csv","legacy","1 5 3 2 8","Lentiform Loewenfeld","3.3.3","0","n","0","right","left","left","right","NA","550","10844","3365","550","NA","2","legacy","5","1024","2","48000","-16","experiment","3","odd","4","272963","275194","271892","272949","2425","88711","NA","2441","85345","273979","277209","277760","13296","277208","NA","Sternberg Task","44","26379","44","yes","1024"
"100","100","599.0666666666667","599.0666666666667","black","experiment","legacy","legacy","legacy","0","uniform","1","undefined","1","left","44","44","44","44","0","0","44","0","0","44","44","44","0","44","0","Sun Oct 25 17:58:48 2020","The main experiment item","yes","SternbergTask.osexp","/Users/tforestmoore/Desktop/Tarleton/Fall 2020/Math/Lab3","no","mono","no","18","no","white","no","yes","768","legacy","32","11","/Users/tforestmoore/Desktop/Tarleton/Fall 2020/Math/Lab3/WM-subject-3.csv","legacy","6 7 8 5","Lentiform Loewenfeld","3.3.3","3","y","0","left","left","left","left","NA","579","10844","3365","579","NA","2","legacy","4","1024","2","48000","-16","experiment","3","odd","8","278847","281078","277777","278833","2425","88711","NA","2441","85345","279862","283092","283672","13296","283092","NA","Sternberg Task","45","26958","45","yes","1024"
"100","100","595.2173913043479","595.2173913043479","black","experiment","legacy","legacy","legacy","0","uniform","1","undefined","1","right","45","45","45","45","0","0","45","0","0","45","45","45","0","45","0","Sun Oct 25 17:58:48 2020","The main experiment item","yes","SternbergTask.osexp","/Users/tforestmoore/Desktop/Tarleton/Fall 2020/Math/Lab3","no","mono","no","18","no","white","no","yes","768","legacy","33","11","/Users/tforestmoore/Desktop/Tarleton/Fall 2020/Math/Lab3/WM-subject-3.csv","legacy","4 8 1 2","Lentiform Loewenfeld","3.3.3","0","n","0","right","left","left","right","NA","422","10844","3365","422","NA","2","legacy","4","1024","2","48000","-16","experiment","3","odd","7","284760","286993","283689","284746","2425","88711","NA","2441","85345","285775","289006","289429","13296","289006","NA","Sternberg Task","46","27380","46","yes","1024"
"100","100","603.3404255319149","603.3404255319149","black","experiment","legacy","legacy","legacy","0","uniform","1","undefined","1","right","46","46","46","46","0","0","46","0","0","46","46","46","0","46","0","Sun Oct 25 17:58:48 2020","The main experiment item","yes","SternbergTask.osexp","/Users/tforestmoore/Desktop/Tarleton/Fall 2020/Math/Lab3","no","mono","no","18","no","white","no","yes","768","legacy","34","11","/Users/tforestmoore/Desktop/Tarleton/Fall 2020/Math/Lab3/WM-subject-3.csv","legacy","8 4 3 5","Lentiform Loewenfeld","3.3.3","0","n","0","right","left","left","right","NA","977","10844","3365","977","NA","2","legacy","4","1024","2","48000","-16","experiment","3","odd","6","290517","292750","289446","290502","2425","88711","NA","2441","85345","291532","294764","295742","13296","294764","NA","Sternberg Task","47","28357","47","yes","1024"
"100","100","604.8125","604.8125","black","experiment","legacy","legacy","legacy","0","uniform","1","undefined","1","right","47","47","47","47","0","0","47","0","0","47","47","47","0","47","0","Sun Oct 25 17:58:48 2020","The main experiment item","yes","SternbergTask.osexp","/Users/tforestmoore/Desktop/Tarleton/Fall 2020/Math/Lab3","no","mono","no","18","no","white","no","yes","768","legacy","35","11","/Users/tforestmoore/Desktop/Tarleton/Fall 2020/Math/Lab3/WM-subject-3.csv","legacy","5 7 3","Lentiform Loewenfeld","3.3.3","0","n","0","right","left","left","right","NA","674","10844","3365","674","NA","2","legacy","3","1024","2","48000","-16","experiment","3","odd","9","296843","299079","295758","296827","2425","88711","NA","2441","85345","297860","301096","301771","13296","301096","NA","Sternberg Task","48","29031","48","yes","1024"
"100","100","605.1632653061224","605.1632653061224","black","experiment","legacy","legacy","legacy","0","uniform","1","undefined","1","left","48","48","48","48","0","0","48","0","0","48","48","48","0","48","0","Sun Oct 25 17:58:48 2020","The main experiment item","yes","SternbergTask.osexp","/Users/tforestmoore/Desktop/Tarleton/Fall 2020/Math/Lab3","no","mono","no","18","no","white","no","yes","768","legacy","36","11","/Users/tforestmoore/Desktop/Tarleton/Fall 2020/Math/Lab3/WM-subject-3.csv","legacy","8 5 3 7 4 6","Lentiform Loewenfeld","3.3.3","6","y","0","left","left","left","left","NA","622","10844","3365","622","NA","2","legacy","6","1024","2","48000","-16","experiment","3","odd","6","302877","305112","301789","302861","2425","88711","NA","2441","85345","303894","307129","307752","13296","307129","NA","Sternberg Task","49","29653","49","yes","1024"
"100","100","606.92","606.92","black","experiment","legacy","legacy","legacy","0","uniform","1","undefined","1","right","49","49","49","49","0","0","49","0","0","49","49","49","0","49","0","Sun Oct 25 17:58:48 2020","The main experiment item","yes","SternbergTask.osexp","/Users/tforestmoore/Desktop/Tarleton/Fall 2020/Math/Lab3","no","mono","no","18","no","white","no","yes","768","legacy","37","11","/Users/tforestmoore/Desktop/Tarleton/Fall 2020/Math/Lab3/WM-subject-3.csv","legacy","6 9 5","Lentiform Loewenfeld","3.3.3","0","n","0","right","left","left","right","NA","693","10844","3365","693","NA","2","legacy","3","1024","2","48000","-16","experiment","3","odd","8","308847","311083","307768","308832","2425","88711","NA","2441","85345","309864","313100","313793","13296","313100","NA","Sternberg Task","50","30346","50","yes","1024"
"100","100","607.0196078431372","607.0196078431372","black","experiment","legacy","legacy","legacy","0","uniform","1","undefined","1","left","50","50","50","50","0","0","50","0","0","50","50","50","0","50","0","Sun Oct 25 17:58:48 2020","The main experiment item","yes","SternbergTask.osexp","/Users/tforestmoore/Desktop/Tarleton/Fall 2020/Math/Lab3","no","mono","no","18","no","white","no","yes","768","legacy","38","11","/Users/tforestmoore/Desktop/Tarleton/Fall 2020/Math/Lab3/WM-subject-3.csv","legacy","9 5 3 8 4","Lentiform Loewenfeld","3.3.3","1","y","0","left","left","left","left","NA","612","10844","3365","612","NA","2","legacy","5","1024","2","48000","-16","experiment","3","odd","9","314895","317131","313810","314879","2425","88711","NA","2441","85345","315912","319148","319761","13296","319148","NA","Sternberg Task","51","30958","51","yes","1024"
"100","100","605.1923076923077","605.1923076923077","black","experiment","legacy","legacy","legacy","0","uniform","1","undefined","1","left","51","51","51","51","0","0","51","0","0","51","51","51","0","51","0","Sun Oct 25 17:58:48 2020","The main experiment item","yes","SternbergTask.osexp","/Users/tforestmoore/Desktop/Tarleton/Fall 2020/Math/Lab3","no","mono","no","18","no","white","no","yes","768","legacy","39","11","/Users/tforestmoore/Desktop/Tarleton/Fall 2020/Math/Lab3/WM-subject-3.csv","legacy","9 1 6 7 8","Lentiform Loewenfeld","3.3.3","1","y","0","left","left","left","left","NA","512","10844","3365","512","NA","2","legacy","5","1024","2","48000","-16","experiment","3","odd","9","320862","323099","319777","320846","2425","88711","NA","2441","85345","321880","325116","325629","13296","325116","NA","Sternberg Task","52","31470","52","yes","1024"
"100","100","605.7735849056604","605.7735849056604","black","experiment","legacy","legacy","legacy","0","uniform","1","undefined","1","left","52","52","52","52","0","0","52","0","0","52","52","52","0","52","0","Sun Oct 25 17:58:48 2020","The main experiment item","yes","SternbergTask.osexp","/Users/tforestmoore/Desktop/Tarleton/Fall 2020/Math/Lab3","no","mono","no","18","no","white","no","yes","768","legacy","40","11","/Users/tforestmoore/Desktop/Tarleton/Fall 2020/Math/Lab3/WM-subject-3.csv","legacy","3 9 7 6 4","Lentiform Loewenfeld","3.3.3","3","y","0","left","left","left","left","NA","636","10844","3365","636","NA","2","legacy","5","1024","2","48000","-16","experiment","3","odd","7","326730","328967","325646","326714","2425","88711","NA","2441","85345","327748","330985","331622","13296","330985","NA","Sternberg Task","53","32106","53","yes","1024"
"100","100","602.7037037037037","602.7037037037037","black","experiment","legacy","legacy","legacy","0","uniform","1","undefined","1","right","53","53","53","53","0","0","53","0","0","53","53","53","0","53","0","Sun Oct 25 17:58:48 2020","The main experiment item","yes","SternbergTask.osexp","/Users/tforestmoore/Desktop/Tarleton/Fall 2020/Math/Lab3","no","mono","no","18","no","white","no","yes","768","legacy","41","11","/Users/tforestmoore/Desktop/Tarleton/Fall 2020/Math/Lab3/WM-subject-3.csv","legacy","1","Lentiform Loewenfeld","3.3.3","0","n","0","right","left","left","right","NA","440","10844","3365","440","NA","2","legacy","1","1024","2","48000","-16","experiment","3","odd","7","332721","334955","331639","332705","2425","88711","NA","2441","85345","333738","336972","337413","13296","336971","NA","Sternberg Task","54","32546","54","yes","1024"
"100","100","601.4","601.4","black","experiment","legacy","legacy","legacy","0","uniform","1","undefined","1","left","54","54","54","54","0","0","54","0","0","54","54","54","0","54","0","Sun Oct 25 17:58:48 2020","The main experiment item","yes","SternbergTask.osexp","/Users/tforestmoore/Desktop/Tarleton/Fall 2020/Math/Lab3","no","mono","no","18","no","white","no","yes","768","legacy","42","11","/Users/tforestmoore/Desktop/Tarleton/Fall 2020/Math/Lab3/WM-subject-3.csv","legacy","3 5 4 7","Lentiform Loewenfeld","3.3.3","1","y","0","left","left","left","left","NA","531","10844","3365","531","NA","2","legacy","4","1024","2","48000","-16","experiment","3","odd","3","338513","340748","337430","338497","2425","88711","NA","2441","85345","339528","342766","343297","13296","342766","NA","Sternberg Task","55","33077","55","yes","1024"
"98.21428571428571","98.21428571428571","602.7321428571429","602.7321428571429","black","experiment","legacy","legacy","legacy","0","uniform","0","undefined","0","left","55","55","55","55","0","0","55","0","0","55","55","55","0","55","0","Sun Oct 25 17:58:48 2020","The main experiment item","yes","SternbergTask.osexp","/Users/tforestmoore/Desktop/Tarleton/Fall 2020/Math/Lab3","no","mono","no","18","no","white","no","yes","768","legacy","43","11","/Users/tforestmoore/Desktop/Tarleton/Fall 2020/Math/Lab3/WM-subject-3.csv","legacy","8 5 4 7 3 1","Lentiform Loewenfeld","3.3.3","2","y","0","right","left","left","right","NA","676","10844","3365","676","NA","2","legacy","6","1024","2","48000","-16","experiment","3","odd","5","344398","346636","343314","344382","2425","88711","NA","2441","85345","345416","348653","349330","13296","348653","NA","Sternberg Task","55","33753","56","yes","1024"
"98.24561403508773","98.24561403508773","605.1754385964912","605.1754385964912","black","experiment","legacy","legacy","legacy","0","uniform","1","undefined","1","right","56","56","56","56","0","0","56","0","0","56","56","56","0","56","0","Sun Oct 25 17:58:48 2020","The main experiment item","yes","SternbergTask.osexp","/Users/tforestmoore/Desktop/Tarleton/Fall 2020/Math/Lab3","no","mono","no","18","no","white","no","yes","768","legacy","44","11","/Users/tforestmoore/Desktop/Tarleton/Fall 2020/Math/Lab3/WM-subject-3.csv","legacy","6 8 4","Lentiform Loewenfeld","3.3.3","0","n","0","right","left","left","right","NA","742","10844","3365","742","NA","2","legacy","3","1024","2","48000","-16","experiment","3","odd","1","350433","352671","343314","350416","2425","88711","349347","2441","85345","351450","354688","355430","13296","354688","NA","Sternberg Task","56","34495","57","yes","1024"
"98.27586206896552","98.27586206896552","606.1551724137931","606.1551724137931","black","experiment","legacy","legacy","legacy","0","uniform","1","undefined","1","right","57","57","57","57","0","0","57","0","0","57","57","57","0","57","0","Sun Oct 25 17:58:48 2020","The main experiment item","yes","SternbergTask.osexp","/Users/tforestmoore/Desktop/Tarleton/Fall 2020/Math/Lab3","no","mono","no","18","no","white","no","yes","768","legacy","45","11","/Users/tforestmoore/Desktop/Tarleton/Fall 2020/Math/Lab3/WM-subject-3.csv","legacy","8 5 7 3 6","Lentiform Loewenfeld","3.3.3","0","n","0","right","left","left","right","NA","662","10844","3365","662","NA","2","legacy","5","1024","2","48000","-16","experiment","3","odd","9","356531","358768","355447","356515","2425","88711","349347","2441","85345","357548","360784","361447","13296","360784","NA","Sternberg Task","57","35157","58","yes","1024"
"98.30508474576271","98.30508474576271","604.3050847457627","604.3050847457627","black","experiment","legacy","legacy","legacy","0","uniform","1","undefined","1","left","58","58","58","58","0","0","58","0","0","58","58","58","0","58","0","Sun Oct 25 17:58:48 2020","The main experiment item","yes","SternbergTask.osexp","/Users/tforestmoore/Desktop/Tarleton/Fall 2020/Math/Lab3","no","mono","no","18","no","white","no","yes","768","legacy","46","11","/Users/tforestmoore/Desktop/Tarleton/Fall 2020/Math/Lab3/WM-subject-3.csv","legacy","8 9 6 1","Lentiform Loewenfeld","3.3.3","2","y","0","left","left","left","left","NA","497","10844","3365","497","NA","2","legacy","4","1024","2","48000","-16","experiment","3","odd","9","362549","364788","361464","362533","2425","88711","349347","2441","85345","363568","366805","367303","13296","366805","NA","Sternberg Task","58","35654","59","yes","1024"
"98.33333333333333","98.33333333333333","602.75","602.75","black","experiment","legacy","legacy","legacy","0","uniform","1","undefined","1","left","59","59","59","59","0","0","59","0","0","59","59","59","0","59","0","Sun Oct 25 17:58:48 2020","The main experiment item","yes","SternbergTask.osexp","/Users/tforestmoore/Desktop/Tarleton/Fall 2020/Math/Lab3","no","mono","no","18","no","white","no","yes","768","legacy","47","11","/Users/tforestmoore/Desktop/Tarleton/Fall 2020/Math/Lab3/WM-subject-3.csv","legacy","4 9 7 8 5 3","Lentiform Loewenfeld","3.3.3","4","y","0","left","left","left","left","NA","511","10844","3365","511","NA","2","legacy","6","1024","2","48000","-16","experiment","3","odd","8","368408","370645","367320","368392","2425","88711","349347","2441","85345","369425","372662","373174","13296","372662","NA","Sternberg Task","59","36165","60","yes","1024"
"98.36065573770492","98.36065573770492","605.8032786885246","605.8032786885246","black","experiment","legacy","legacy","legacy","0","uniform","1","undefined","1","left","60","60","60","60","0","0","60","0","0","60","60","60","0","60","0","Sun Oct 25 17:58:48 2020","The main experiment item","yes","SternbergTask.osexp","/Users/tforestmoore/Desktop/Tarleton/Fall 2020/Math/Lab3","no","mono","no","18","no","white","no","yes","768","legacy","48","11","/Users/tforestmoore/Desktop/Tarleton/Fall 2020/Math/Lab3/WM-subject-3.csv","legacy","6 9 3 1","Lentiform Loewenfeld","3.3.3","4","y","0","left","left","left","left","NA","789","10844","3365","789","NA","2","legacy","4","1024","2","48000","-16","experiment","3","odd","1","374279","376515","373190","374262","2425","88711","349347","2441","85345","375296","378532","379322","13296","378532","NA","Sternberg Task","60","36954","61","yes","1024"
"98.38709677419355","98.38709677419355","608.2741935483871","608.2741935483871","black","experiment","legacy","legacy","legacy","0","uniform","1","undefined","1","left","61","61","61","61","0","0","61","0","0","61","61","61","0","61","0","Sun Oct 25 17:58:48 2020","The main experiment item","yes","SternbergTask.osexp","/Users/tforestmoore/Desktop/Tarleton/Fall 2020/Math/Lab3","no","mono","no","18","no","white","no","yes","768","legacy","49","11","/Users/tforestmoore/Desktop/Tarleton/Fall 2020/Math/Lab3/WM-subject-3.csv","legacy","4 6 5 8","Lentiform Loewenfeld","3.3.3","1","y","0","left","left","left","left","NA","759","10844","3365","759","NA","2","legacy","4","1024","2","48000","-16","experiment","3","odd","4","380426","382662","379339","380410","2425","88711","349347","2441","85345","381443","384679","385439","13296","384678","NA","Sternberg Task","61","37713","62","yes","1024"
"98.41269841269842","98.41269841269842","609.2222222222222","609.2222222222222","black","experiment","legacy","legacy","legacy","0","uniform","1","undefined","1","right","62","62","62","62","0","0","62","0","0","62","62","62","0","62","0","Sun Oct 25 17:58:48 2020","The main experiment item","yes","SternbergTask.osexp","/Users/tforestmoore/Desktop/Tarleton/Fall 2020/Math/Lab3","no","mono","no","18","no","white","no","yes","768","legacy","50","11","/Users/tforestmoore/Desktop/Tarleton/Fall 2020/Math/Lab3/WM-subject-3.csv","legacy","7 6 4 8 1 2","Lentiform Loewenfeld","3.3.3","0","n","0","right","left","left","right","NA","668","10844","3365","668","NA","2","legacy","6","1024","2","48000","-16","experiment","3","odd","9","386542","388780","385456","386526","2425","88711","349347","2441","85345","387561","390797","391466","13296","390797","NA","Sternberg Task","62","38381","63","yes","1024"
"98.4375","98.4375","606.828125","606.828125","black","experiment","legacy","legacy","legacy","0","uniform","1","undefined","1","right","63","63","63","63","0","0","63","0","0","63","63","63","0","63","0","Sun Oct 25 17:58:48 2020","The main experiment item","yes","SternbergTask.osexp","/Users/tforestmoore/Desktop/Tarleton/Fall 2020/Math/Lab3","no","mono","no","18","no","white","no","yes","768","legacy","51","11","/Users/tforestmoore/Desktop/Tarleton/Fall 2020/Math/Lab3/WM-subject-3.csv","legacy","9","Lentiform Loewenfeld","3.3.3","0","n","0","right","left","left","right","NA","456","10844","3365","456","NA","2","legacy","1","1024","2","48000","-16","experiment","3","odd","6","392570","394806","391483","392554","2425","88711","349347","2441","85345","393587","396822","397279","13296","396822","NA","Sternberg Task","63","38837","64","yes","1024"
"98.46153846153847","98.46153846153847","608.2461538461539","608.2461538461539","black","experiment","legacy","legacy","legacy","0","uniform","1","undefined","1","left","64","64","64","64","0","0","64","0","0","64","64","64","0","64","0","Sun Oct 25 17:58:48 2020","The main experiment item","yes","SternbergTask.osexp","/Users/tforestmoore/Desktop/Tarleton/Fall 2020/Math/Lab3","no","mono","no","18","no","white","no","yes","768","legacy","52","11","/Users/tforestmoore/Desktop/Tarleton/Fall 2020/Math/Lab3/WM-subject-3.csv","legacy","4 1 8 7 5","Lentiform Loewenfeld","3.3.3","3","y","0","left","left","left","left","NA","699","10844","3365","699","NA","2","legacy","5","1024","2","48000","-16","experiment","3","odd","8","398381","400618","397296","398365","2425","88711","349347","2441","85345","399398","402632","403332","13296","402632","NA","Sternberg Task","64","39536","65","yes","1024"
"98.48484848484848","98.48484848484848","606.3787878787879","606.3787878787879","black","experiment","legacy","legacy","legacy","0","uniform","1","undefined","1","left","65","65","65","65","0","0","65","0","0","65","65","65","0","65","0","Sun Oct 25 17:58:48 2020","The main experiment item","yes","SternbergTask.osexp","/Users/tforestmoore/Desktop/Tarleton/Fall 2020/Math/Lab3","no","mono","no","18","no","white","no","yes","768","legacy","53","11","/Users/tforestmoore/Desktop/Tarleton/Fall 2020/Math/Lab3/WM-subject-3.csv","legacy","4","Lentiform Loewenfeld","3.3.3","1","y","0","left","left","left","left","NA","485","10844","3365","485","NA","2","legacy","1","1024","2","48000","-16","experiment","3","odd","4","404434","406672","403349","404418","2425","88711","349347","2441","85345","405452","408689","409175","13296","408689","NA","Sternberg Task","65","40021","66","yes","1024"
"98.50746268656717","98.50746268656717","605.0597014925373","605.0597014925373","black","experiment","legacy","legacy","legacy","0","uniform","1","undefined","1","left","66","66","66","66","0","0","66","0","0","66","66","66","0","66","0","Sun Oct 25 17:58:48 2020","The main experiment item","yes","SternbergTask.osexp","/Users/tforestmoore/Desktop/Tarleton/Fall 2020/Math/Lab3","no","mono","no","18","no","white","no","yes","768","legacy","54","11","/Users/tforestmoore/Desktop/Tarleton/Fall 2020/Math/Lab3/WM-subject-3.csv","legacy","7 1 3","Lentiform Loewenfeld","3.3.3","2","y","0","left","left","left","left","NA","518","10844","3365","518","NA","2","legacy","3","1024","2","48000","-16","experiment","3","odd","1","410279","412515","409192","410263","2425","88711","349347","2441","85345","411296","414532","415051","13296","414532","NA","Sternberg Task","66","40539","67","yes","1024"
"98.52941176470588","98.52941176470588","607.2941176470588","607.2941176470588","black","experiment","legacy","legacy","legacy","0","uniform","1","undefined","1","right","67","67","67","67","0","0","67","0","0","67","67","67","0","67","0","Sun Oct 25 17:58:48 2020","The main experiment item","yes","SternbergTask.osexp","/Users/tforestmoore/Desktop/Tarleton/Fall 2020/Math/Lab3","no","mono","no","18","no","white","no","yes","768","legacy","55","11","/Users/tforestmoore/Desktop/Tarleton/Fall 2020/Math/Lab3/WM-subject-3.csv","legacy","4 2 7 6 1 3","Lentiform Loewenfeld","3.3.3","0","n","0","right","left","left","right","NA","757","10844","3365","757","NA","2","legacy","6","1024","2","48000","-16","experiment","3","odd","8","416153","418389","415067","416137","2425","88711","349347","2441","85345","417170","420406","421164","13296","420405","NA","Sternberg Task","67","41296","68","yes","1024"
"98.55072463768116","98.55072463768116","608.9855072463768","608.9855072463768","black","experiment","legacy","legacy","legacy","0","uniform","1","undefined","1","left","68","68","68","68","0","0","68","0","0","68","68","68","0","68","0","Sun Oct 25 17:58:48 2020","The main experiment item","yes","SternbergTask.osexp","/Users/tforestmoore/Desktop/Tarleton/Fall 2020/Math/Lab3","no","mono","no","18","no","white","no","yes","768","legacy","56","11","/Users/tforestmoore/Desktop/Tarleton/Fall 2020/Math/Lab3/WM-subject-3.csv","legacy","2 6 1 7 4","Lentiform Loewenfeld","3.3.3","2","y","0","left","left","left","left","NA","724","10844","3365","724","NA","2","legacy","5","1024","2","48000","-16","experiment","3","odd","6","422268","424505","421181","422252","2425","88711","349347","2441","85345","423285","426523","427248","13296","426522","NA","Sternberg Task","68","42020","69","yes","1024"
"98.57142857142857","98.57142857142857","608.7285714285714","608.7285714285714","black","experiment","legacy","legacy","legacy","0","uniform","1","undefined","1","left","69","69","69","69","0","0","69","0","0","69","69","69","0","69","0","Sun Oct 25 17:58:48 2020","The main experiment item","yes","SternbergTask.osexp","/Users/tforestmoore/Desktop/Tarleton/Fall 2020/Math/Lab3","no","mono","no","18","no","white","no","yes","768","legacy","57","11","/Users/tforestmoore/Desktop/Tarleton/Fall 2020/Math/Lab3/WM-subject-3.csv","legacy","2 3","Lentiform Loewenfeld","3.3.3","1","y","0","left","left","left","left","NA","591","10844","3365","591","NA","2","legacy","2","1024","2","48000","-16","experiment","3","odd","2","428350","430587","427265","428333","2425","88711","349347","2441","85345","429367","432604","433196","13296","432604","NA","Sternberg Task","69","42611","70","yes","1024"
"98.59154929577464","98.59154929577464","610.7887323943662","610.7887323943662","black","experiment","legacy","legacy","legacy","0","uniform","1","undefined","1","right","70","70","70","70","0","0","70","0","0","70","70","70","0","70","0","Sun Oct 25 17:58:48 2020","The main experiment item","yes","SternbergTask.osexp","/Users/tforestmoore/Desktop/Tarleton/Fall 2020/Math/Lab3","no","mono","no","18","no","white","no","yes","768","legacy","58","11","/Users/tforestmoore/Desktop/Tarleton/Fall 2020/Math/Lab3/WM-subject-3.csv","legacy","3 4 9 6 7 8","Lentiform Loewenfeld","3.3.3","0","n","0","right","left","left","right","NA","755","10844","3365","755","NA","2","legacy","6","1024","2","48000","-16","experiment","3","odd","2","434296","436533","433212","434280","2425","88711","349347","2441","85345","435313","438550","439306","13296","438550","NA","Sternberg Task","70","43366","71","yes","1024"
"98.61111111111111","98.61111111111111","614.3194444444445","614.3194444444445","black","experiment","legacy","legacy","legacy","0","uniform","1","undefined","1","right","71","71","71","71","0","0","71","0","0","71","71","71","0","71","0","Sun Oct 25 17:58:48 2020","The main experiment item","yes","SternbergTask.osexp","/Users/tforestmoore/Desktop/Tarleton/Fall 2020/Math/Lab3","no","mono","no","18","no","white","no","yes","768","legacy","59","11","/Users/tforestmoore/Desktop/Tarleton/Fall 2020/Math/Lab3/WM-subject-3.csv","legacy","8 9","Lentiform Loewenfeld","3.3.3","0","n","0","right","left","left","right","NA","865","10844","3365","865","NA","2","legacy","2","1024","2","48000","-16","experiment","3","odd","5","440408","442646","439323","440392","2425","88711","349347","2441","85345","441426","444663","445529","13296","444663","NA","Sternberg Task","71","44231","72","yes","1024"
"98.63013698630137","98.63013698630137","619.7945205479452","619.7945205479452","black","experiment","legacy","legacy","legacy","0","uniform","1","undefined","1","right","72","72","72","72","0","0","72","0","0","72","72","72","0","72","0","Sun Oct 25 17:58:48 2020","The main experiment item","yes","SternbergTask.osexp","/Users/tforestmoore/Desktop/Tarleton/Fall 2020/Math/Lab3","no","mono","no","18","no","white","no","yes","768","legacy","60","11","/Users/tforestmoore/Desktop/Tarleton/Fall 2020/Math/Lab3/WM-subject-3.csv","legacy","4 2 6 9","Lentiform Loewenfeld","3.3.3","0","n","0","right","left","left","right","NA","1014","10844","3365","1014","NA","2","legacy","4","1024","2","48000","-16","experiment","3","odd","7","446632","448869","445545","446616","2425","88711","349347","2441","85345","447650","450886","451901","13296","450886","NA","Sternberg Task","72","45245","73","yes","1024"
"98.64864864864865","98.64864864864865","619.8648648648649","619.8648648648649","black","experiment","legacy","legacy","legacy","0","uniform","1","undefined","1","right","73","73","73","73","0","0","73","0","0","73","73","73","0","73","0","Sun Oct 25 17:58:48 2020","The main experiment item","yes","SternbergTask.osexp","/Users/tforestmoore/Desktop/Tarleton/Fall 2020/Math/Lab3","no","mono","no","18","no","white","no","yes","768","legacy","61","11","/Users/tforestmoore/Desktop/Tarleton/Fall 2020/Math/Lab3/WM-subject-3.csv","legacy","6 9 7 3 8 2","Lentiform Loewenfeld","3.3.3","0","n","0","right","left","left","right","NA","625","10844","3365","625","NA","2","legacy","6","1024","2","48000","-16","experiment","3","odd","5","453000","455233","451918","452984","2425","88711","349347","2441","85345","454016","457250","457876","13296","457250","NA","Sternberg Task","73","45870","74","yes","1024"
"98.66666666666667","98.66666666666667","621.6266666666667","621.6266666666667","black","experiment","legacy","legacy","legacy","0","uniform","1","undefined","1","right","74","74","74","74","0","0","74","0","0","74","74","74","0","74","0","Sun Oct 25 17:58:48 2020","The main experiment item","yes","SternbergTask.osexp","/Users/tforestmoore/Desktop/Tarleton/Fall 2020/Math/Lab3","no","mono","no","18","no","white","no","yes","768","legacy","62","11","/Users/tforestmoore/Desktop/Tarleton/Fall 2020/Math/Lab3/WM-subject-3.csv","legacy","3 9 8 1 6 4","Lentiform Loewenfeld","3.3.3","0","n","0","right","left","left","right","NA","752","10844","3365","752","NA","2","legacy","6","1024","2","48000","-16","experiment","3","odd","7","458976","461211","457892","458961","2425","88711","349347","2441","85345","459993","463229","463982","13296","463228","NA","Sternberg Task","74","46622","75","yes","1024"
"98.6842105263158","98.6842105263158","622","622","black","experiment","legacy","legacy","legacy","0","uniform","1","undefined","1","right","75","75","75","75","0","0","75","0","0","75","75","75","0","75","0","Sun Oct 25 17:58:48 2020","The main experiment item","yes","SternbergTask.osexp","/Users/tforestmoore/Desktop/Tarleton/Fall 2020/Math/Lab3","no","mono","no","18","no","white","no","yes","768","legacy","63","11","/Users/tforestmoore/Desktop/Tarleton/Fall 2020/Math/Lab3/WM-subject-3.csv","legacy","7 8 6 1","Lentiform Loewenfeld","3.3.3","0","n","0","right","left","left","right","NA","650","10844","3365","650","NA","2","legacy","4","1024","2","48000","-16","experiment","3","odd","3","465085","467322","463999","465069","2425","88711","349347","2441","85345","466102","469339","469990","13296","469339","NA","Sternberg Task","75","47272","76","yes","1024"
"98.7012987012987","98.7012987012987","624.1298701298701","624.1298701298701","black","experiment","legacy","legacy","legacy","0","uniform","1","undefined","1","right","76","76","76","76","0","0","76","0","0","76","76","76","0","76","0","Sun Oct 25 17:58:48 2020","The main experiment item","yes","SternbergTask.osexp","/Users/tforestmoore/Desktop/Tarleton/Fall 2020/Math/Lab3","no","mono","no","18","no","white","no","yes","768","legacy","64","11","/Users/tforestmoore/Desktop/Tarleton/Fall 2020/Math/Lab3/WM-subject-3.csv","legacy","3 9 1","Lentiform Loewenfeld","3.3.3","0","n","0","right","left","left","right","NA","786","10844","3365","786","NA","2","legacy","3","1024","2","48000","-16","experiment","3","odd","7","471091","473327","470005","471075","2425","88711","349347","2441","85345","472108","475344","476131","13296","475344","NA","Sternberg Task","76","48058","77","yes","1024"
"98.71794871794872","98.71794871794872","625.0512820512821","625.0512820512821","black","experiment","legacy","legacy","legacy","0","uniform","1","undefined","1","left","77","77","77","77","0","0","77","0","0","77","77","77","0","77","0","Sun Oct 25 17:58:48 2020","The main experiment item","yes","SternbergTask.osexp","/Users/tforestmoore/Desktop/Tarleton/Fall 2020/Math/Lab3","no","mono","no","18","no","white","no","yes","768","legacy","65","11","/Users/tforestmoore/Desktop/Tarleton/Fall 2020/Math/Lab3/WM-subject-3.csv","legacy","2 8 5 1","Lentiform Loewenfeld","3.3.3","4","y","0","left","left","left","left","NA","696","10844","3365","696","NA","2","legacy","4","1024","2","48000","-16","experiment","3","odd","1","477235","479471","476147","477219","2425","88711","349347","2441","85345","478252","481488","482185","13296","481488","NA","Sternberg Task","77","48754","78","yes","1024"
"98.73417721518987","98.73417721518987","625.1139240506329","625.1139240506329","black","experiment","legacy","legacy","legacy","0","uniform","1","undefined","1","right","78","78","78","78","0","0","78","0","0","78","78","78","0","78","0","Sun Oct 25 17:58:48 2020","The main experiment item","yes","SternbergTask.osexp","/Users/tforestmoore/Desktop/Tarleton/Fall 2020/Math/Lab3","no","mono","no","18","no","white","no","yes","768","legacy","66","11","/Users/tforestmoore/Desktop/Tarleton/Fall 2020/Math/Lab3/WM-subject-3.csv","legacy","2 8 6 3 1","Lentiform Loewenfeld","3.3.3","0","n","0","right","left","left","right","NA","630","10844","3365","630","NA","2","legacy","5","1024","2","48000","-16","experiment","3","odd","7","483286","485522","482201","483270","2425","88711","349347","2441","85345","484303","487539","488170","13296","487539","NA","Sternberg Task","78","49384","79","yes","1024"
"98.75","98.75","626.4125","626.4125","black","experiment","legacy","legacy","legacy","0","uniform","1","undefined","1","right","79","79","79","79","0","0","79","0","0","79","79","79","0","79","0","Sun Oct 25 17:58:48 2020","The main experiment item","yes","SternbergTask.osexp","/Users/tforestmoore/Desktop/Tarleton/Fall 2020/Math/Lab3","no","mono","no","18","no","white","no","yes","768","legacy","67","11","/Users/tforestmoore/Desktop/Tarleton/Fall 2020/Math/Lab3/WM-subject-3.csv","legacy","8 4 3 9","Lentiform Loewenfeld","3.3.3","0","n","0","right","left","left","right","NA","729","10844","3365","729","NA","2","legacy","4","1024","2","48000","-16","experiment","3","odd","5","489271","491507","488186","489254","2425","88711","349347","2441","85345","490288","493524","494254","13296","493524","NA","Sternberg Task","79","50113","80","yes","1024"
"98.76543209876543","98.76543209876543","628","628","black","experiment","legacy","legacy","legacy","0","uniform","1","undefined","1","right","80","80","80","80","0","0","80","0","0","80","80","80","0","80","0","Sun Oct 25 17:58:48 2020","The main experiment item","yes","SternbergTask.osexp","/Users/tforestmoore/Desktop/Tarleton/Fall 2020/Math/Lab3","no","mono","no","18","no","white","no","yes","768","legacy","68","11","/Users/tforestmoore/Desktop/Tarleton/Fall 2020/Math/Lab3/WM-subject-3.csv","legacy","6 9 4 5 2","Lentiform Loewenfeld","3.3.3","0","n","0","right","left","left","right","NA","755","10844","3365","755","NA","2","legacy","5","1024","2","48000","-16","experiment","3","odd","1","495355","497591","494271","495339","2425","88711","349347","2441","85345","496372","499608","500364","13296","499608","NA","Sternberg Task","80","50868","81","yes","1024"
"97.5609756097561","97.5609756097561","629.2317073170732","629.2317073170732","black","experiment","legacy","legacy","legacy","0","uniform","0","undefined","0","left","81","81","81","81","0","0","81","0","0","81","81","81","0","81","0","Sun Oct 25 17:58:48 2020","The main experiment item","yes","SternbergTask.osexp","/Users/tforestmoore/Desktop/Tarleton/Fall 2020/Math/Lab3","no","mono","no","18","no","white","no","yes","768","legacy","69","11","/Users/tforestmoore/Desktop/Tarleton/Fall 2020/Math/Lab3/WM-subject-3.csv","legacy","6 1 2","Lentiform Loewenfeld","3.3.3","3","y","0","right","left","left","right","NA","729","10844","3365","729","NA","2","legacy","3","1024","2","48000","-16","experiment","3","odd","2","501465","503704","500380","501449","2425","88711","349347","2441","85345","502483","505721","506451","13296","505721","NA","Sternberg Task","80","51597","82","yes","1024"
"97.59036144578313","97.59036144578313","630.3132530120482","630.3132530120482","black","experiment","legacy","legacy","legacy","0","uniform","1","undefined","1","right","82","82","82","82","0","0","82","0","0","82","82","82","0","82","0","Sun Oct 25 17:58:48 2020","The main experiment item","yes","SternbergTask.osexp","/Users/tforestmoore/Desktop/Tarleton/Fall 2020/Math/Lab3","no","mono","no","18","no","white","no","yes","768","legacy","70","11","/Users/tforestmoore/Desktop/Tarleton/Fall 2020/Math/Lab3/WM-subject-3.csv","legacy","5 9 2 3","Lentiform Loewenfeld","3.3.3","0","n","0","right","left","left","right","NA","719","10844","3365","719","NA","2","legacy","4","1024","2","48000","-16","experiment","3","odd","8","507552","509790","500380","507536","2425","88711","506468","2441","85345","508570","511807","512527","13296","511807","NA","Sternberg Task","81","52316","83","yes","1024"
"97.61904761904762","97.61904761904762","630.3333333333334","630.3333333333334","black","experiment","legacy","legacy","legacy","0","uniform","1","undefined","1","left","83","83","83","83","0","0","83","0","0","83","83","83","0","83","0","Sun Oct 25 17:58:48 2020","The main experiment item","yes","SternbergTask.osexp","/Users/tforestmoore/Desktop/Tarleton/Fall 2020/Math/Lab3","no","mono","no","18","no","white","no","yes","768","legacy","71","11","/Users/tforestmoore/Desktop/Tarleton/Fall 2020/Math/Lab3/WM-subject-3.csv","legacy","6 7 9 3 1 2","Lentiform Loewenfeld","3.3.3","1","y","0","left","left","left","left","NA","632","10844","3365","632","NA","2","legacy","6","1024","2","48000","-16","experiment","3","odd","6","513628","515861","512544","513612","2425","88711","506468","2441","85345","514645","517878","518511","13296","517878","NA","Sternberg Task","82","52948","84","yes","1024"
"97.6470588235294","97.6470588235294","629.3764705882353","629.3764705882353","black","experiment","legacy","legacy","legacy","0","uniform","1","undefined","1","left","84","84","84","84","0","0","84","0","0","84","84","84","0","84","0","Sun Oct 25 17:58:48 2020","The main experiment item","yes","SternbergTask.osexp","/Users/tforestmoore/Desktop/Tarleton/Fall 2020/Math/Lab3","no","mono","no","18","no","white","no","yes","768","legacy","72","11","/Users/tforestmoore/Desktop/Tarleton/Fall 2020/Math/Lab3/WM-subject-3.csv","legacy","7 4 2 6 3 5","Lentiform Loewenfeld","3.3.3","6","y","0","left","left","left","left","NA","549","10844","3365","549","NA","2","legacy","6","1024","2","48000","-16","experiment","3","odd","5","519615","521852","518527","519599","2425","88711","506468","2441","85345","520632","523869","524419","13296","523869","NA","Sternberg Task","83","53497","85","yes","1024"
"96.51162790697674","96.51162790697674","631.9883720930233","631.9883720930233","black","experiment","legacy","legacy","legacy","0","uniform","0","undefined","0","right","85","85","85","85","0","0","85","0","0","85","85","85","0","85","0","Sun Oct 25 17:58:48 2020","The main experiment item","yes","SternbergTask.osexp","/Users/tforestmoore/Desktop/Tarleton/Fall 2020/Math/Lab3","no","mono","no","18","no","white","no","yes","768","legacy","73","11","/Users/tforestmoore/Desktop/Tarleton/Fall 2020/Math/Lab3/WM-subject-3.csv","legacy","1 3 2 6 9","Lentiform Loewenfeld","3.3.3","0","n","0","left","left","left","left","NA","854","10844","3365","854","NA","2","legacy","5","1024","2","48000","-16","experiment","3","odd","5","525521","527757","524436","525505","2425","88711","506468","2441","85345","526538","529774","530629","13296","529773","NA","Sternberg Task","83","54351","86","yes","1024"
"96.55172413793103","96.55172413793103","634.5172413793103","634.5172413793103","black","experiment","legacy","legacy","legacy","0","uniform","1","undefined","1","right","86","86","86","86","0","0","86","0","0","86","86","86","0","86","0","Sun Oct 25 17:58:48 2020","The main experiment item","yes","SternbergTask.osexp","/Users/tforestmoore/Desktop/Tarleton/Fall 2020/Math/Lab3","no","mono","no","18","no","white","no","yes","768","legacy","74","11","/Users/tforestmoore/Desktop/Tarleton/Fall 2020/Math/Lab3/WM-subject-3.csv","legacy","6 7 5 9","Lentiform Loewenfeld","3.3.3","0","n","0","right","left","left","right","NA","852","10844","3365","852","NA","2","legacy","4","1024","2","48000","-16","experiment","3","odd","2","531731","533968","524436","531715","2425","88711","530645","2441","85345","532748","535985","536838","13296","535985","NA","Sternberg Task","84","55203","87","yes","1024"
"96.5909090909091","96.5909090909091","636.7159090909091","636.7159090909091","black","experiment","legacy","legacy","legacy","0","uniform","1","undefined","1","right","87","87","87","87","0","0","87","0","0","87","87","87","0","87","0","Sun Oct 25 17:58:48 2020","The main experiment item","yes","SternbergTask.osexp","/Users/tforestmoore/Desktop/Tarleton/Fall 2020/Math/Lab3","no","mono","no","18","no","white","no","yes","768","legacy","75","11","/Users/tforestmoore/Desktop/Tarleton/Fall 2020/Math/Lab3/WM-subject-3.csv","legacy","9 7 4 5 8","Lentiform Loewenfeld","3.3.3","0","n","0","right","left","left","right","NA","828","10844","3365","828","NA","2","legacy","5","1024","2","48000","-16","experiment","3","odd","6","537939","540175","536855","537923","2425","88711","530645","2441","85345","538956","542192","543021","13296","542192","NA","Sternberg Task","85","56031","88","yes","1024"
"96.62921348314607","96.62921348314607","636.6741573033707","636.6741573033707","black","experiment","legacy","legacy","legacy","0","uniform","1","undefined","1","left","88","88","88","88","0","0","88","0","0","88","88","88","0","88","0","Sun Oct 25 17:58:48 2020","The main experiment item","yes","SternbergTask.osexp","/Users/tforestmoore/Desktop/Tarleton/Fall 2020/Math/Lab3","no","mono","no","18","no","white","no","yes","768","legacy","76","11","/Users/tforestmoore/Desktop/Tarleton/Fall 2020/Math/Lab3/WM-subject-3.csv","legacy","4 7 6 8 2 3","Lentiform Loewenfeld","3.3.3","6","y","0","left","left","left","left","NA","633","10844","3365","633","NA","2","legacy","6","1024","2","48000","-16","experiment","3","odd","3","544123","546360","543038","544107","2425","88711","530645","2441","85345","545140","548377","549011","13296","548377","NA","Sternberg Task","86","56664","89","yes","1024"
"96.66666666666667","96.66666666666667","636.5222222222222","636.5222222222222","black","experiment","legacy","legacy","legacy","0","uniform","1","undefined","1","right","89","89","89","89","0","0","89","0","0","89","89","89","0","89","0","Sun Oct 25 17:58:48 2020","The main experiment item","yes","SternbergTask.osexp","/Users/tforestmoore/Desktop/Tarleton/Fall 2020/Math/Lab3","no","mono","no","18","no","white","no","yes","768","legacy","77","11","/Users/tforestmoore/Desktop/Tarleton/Fall 2020/Math/Lab3/WM-subject-3.csv","legacy","7 1","Lentiform Loewenfeld","3.3.3","0","n","0","right","left","left","right","NA","623","10844","3365","623","NA","2","legacy","2","1024","2","48000","-16","experiment","3","odd","8","550105","552341","549027","550091","2425","88711","530645","2441","85345","551122","554358","554982","13296","554358","NA","Sternberg Task","87","57287","90","yes","1024"
"96.7032967032967","96.7032967032967","636.1978021978022","636.1978021978022","black","experiment","legacy","legacy","legacy","0","uniform","1","undefined","1","right","90","90","90","90","0","0","90","0","0","90","90","90","0","90","0","Sun Oct 25 17:58:48 2020","The main experiment item","yes","SternbergTask.osexp","/Users/tforestmoore/Desktop/Tarleton/Fall 2020/Math/Lab3","no","mono","no","18","no","white","no","yes","768","legacy","78","11","/Users/tforestmoore/Desktop/Tarleton/Fall 2020/Math/Lab3/WM-subject-3.csv","legacy","2 3 8 5 6 7","Lentiform Loewenfeld","3.3.3","0","n","0","right","left","left","right","NA","607","10844","3365","607","NA","2","legacy","6","1024","2","48000","-16","experiment","3","odd","1","556080","558317","554999","556064","2425","88711","530645","2441","85345","557097","560335","560943","13296","560335","NA","Sternberg Task","88","57894","91","yes","1024"
"96.73913043478261","96.73913043478261","636.945652173913","636.945652173913","black","experiment","legacy","legacy","legacy","0","uniform","1","undefined","1","left","91","91","91","91","0","0","91","0","0","91","91","91","0","91","0","Sun Oct 25 17:58:48 2020","The main experiment item","yes","SternbergTask.osexp","/Users/tforestmoore/Desktop/Tarleton/Fall 2020/Math/Lab3","no","mono","no","18","no","white","no","yes","768","legacy","79","11","/Users/tforestmoore/Desktop/Tarleton/Fall 2020/Math/Lab3/WM-subject-3.csv","legacy","9 1 7 2","Lentiform Loewenfeld","3.3.3","2","y","0","left","left","left","left","NA","705","10844","3365","705","NA","2","legacy","4","1024","2","48000","-16","experiment","3","odd","1","562045","564281","560961","562029","2425","88711","530645","2441","85345","563062","566299","567005","13296","566299","NA","Sternberg Task","89","58599","92","yes","1024"
"96.7741935483871","96.7741935483871","637.8494623655914","637.8494623655914","black","experiment","legacy","legacy","legacy","0","uniform","1","undefined","1","left","92","92","92","92","0","0","92","0","0","92","92","92","0","92","0","Sun Oct 25 17:58:48 2020","The main experiment item","yes","SternbergTask.osexp","/Users/tforestmoore/Desktop/Tarleton/Fall 2020/Math/Lab3","no","mono","no","18","no","white","no","yes","768","legacy","80","11","/Users/tforestmoore/Desktop/Tarleton/Fall 2020/Math/Lab3/WM-subject-3.csv","legacy","7 2 3","Lentiform Loewenfeld","3.3.3","3","y","0","left","left","left","left","NA","721","10844","3365","721","NA","2","legacy","3","1024","2","48000","-16","experiment","3","odd","3","568107","570344","567021","568091","2425","88711","530645","2441","85345","569125","572361","573083","13296","572361","NA","Sternberg Task","90","59320","93","yes","1024"
"96.80851063829788","96.80851063829788","638.4787234042553","638.4787234042553","black","experiment","legacy","legacy","legacy","0","uniform","1","undefined","1","left","93","93","93","93","0","0","93","0","0","93","93","93","0","93","0","Sun Oct 25 17:58:48 2020","The main experiment item","yes","SternbergTask.osexp","/Users/tforestmoore/Desktop/Tarleton/Fall 2020/Math/Lab3","no","mono","no","18","no","white","no","yes","768","legacy","81","11","/Users/tforestmoore/Desktop/Tarleton/Fall 2020/Math/Lab3/WM-subject-3.csv","legacy","8 9 5 6 7","Lentiform Loewenfeld","3.3.3","1","y","0","left","left","left","left","NA","697","10844","3365","697","NA","2","legacy","5","1024","2","48000","-16","experiment","3","odd","8","574179","576415","573100","574164","2425","88711","530645","2441","85345","575196","578432","579130","13296","578432","NA","Sternberg Task","91","60017","94","yes","1024"
"96.84210526315789","96.84210526315789","638.2","638.2","black","experiment","legacy","legacy","legacy","0","uniform","1","undefined","1","right","94","94","94","94","0","0","94","0","0","94","94","94","0","94","0","Sun Oct 25 17:58:48 2020","The main experiment item","yes","SternbergTask.osexp","/Users/tforestmoore/Desktop/Tarleton/Fall 2020/Math/Lab3","no","mono","no","18","no","white","no","yes","768","legacy","82","11","/Users/tforestmoore/Desktop/Tarleton/Fall 2020/Math/Lab3/WM-subject-3.csv","legacy","7 1 5 6 3","Lentiform Loewenfeld","3.3.3","0","n","0","right","left","left","right","NA","612","10844","3365","612","NA","2","legacy","5","1024","2","48000","-16","experiment","3","odd","8","580227","582464","579147","580211","2425","88711","530645","2441","85345","581245","584481","585094","13296","584481","NA","Sternberg Task","92","60629","95","yes","1024"
"96.875","96.875","636.53125","636.53125","black","experiment","legacy","legacy","legacy","0","uniform","1","undefined","1","right","95","95","95","95","0","0","95","0","0","95","95","95","0","95","0","Sun Oct 25 17:58:48 2020","The main experiment item","yes","SternbergTask.osexp","/Users/tforestmoore/Desktop/Tarleton/Fall 2020/Math/Lab3","no","mono","no","18","no","white","no","yes","768","legacy","83","11","/Users/tforestmoore/Desktop/Tarleton/Fall 2020/Math/Lab3/WM-subject-3.csv","legacy","1 4 9 3","Lentiform Loewenfeld","3.3.3","0","n","0","right","left","left","right","NA","478","10844","3365","478","NA","2","legacy","4","1024","2","48000","-16","experiment","3","odd","5","586197","588434","585111","586181","2425","88711","530645","2441","85345","587214","590451","590930","13296","590451","NA","Sternberg Task","93","61107","96","yes","1024"
"96.90721649484536","96.90721649484536","637.0103092783505","637.0103092783505","black","experiment","legacy","legacy","legacy","0","uniform","1","undefined","1","right","96","96","96","96","0","0","96","0","0","96","96","96","0","96","0","Sun Oct 25 17:58:48 2020","The main experiment item","yes","SternbergTask.osexp","/Users/tforestmoore/Desktop/Tarleton/Fall 2020/Math/Lab3","no","mono","no","18","no","white","no","yes","768","legacy","84","11","/Users/tforestmoore/Desktop/Tarleton/Fall 2020/Math/Lab3/WM-subject-3.csv","legacy","5 2","Lentiform Loewenfeld","3.3.3","0","n","0","right","left","left","right","NA","683","10844","3365","683","NA","2","legacy","2","1024","2","48000","-16","experiment","3","odd","7","592030","594266","590947","592014","2425","88711","530645","2441","85345","593047","596283","596967","13296","596283","NA","Sternberg Task","94","61790","97","yes","1024"
"96.93877551020408","96.93877551020408","635.9081632653061","635.9081632653061","black","experiment","legacy","legacy","legacy","0","uniform","1","undefined","1","right","97","97","97","97","0","0","97","0","0","97","97","97","0","97","0","Sun Oct 25 17:58:48 2020","The main experiment item","yes","SternbergTask.osexp","/Users/tforestmoore/Desktop/Tarleton/Fall 2020/Math/Lab3","no","mono","no","18","no","white","no","yes","768","legacy","85","11","/Users/tforestmoore/Desktop/Tarleton/Fall 2020/Math/Lab3/WM-subject-3.csv","legacy","1 4 3 6 5","Lentiform Loewenfeld","3.3.3","0","n","0","right","left","left","right","NA","529","10844","3365","529","NA","2","legacy","5","1024","2","48000","-16","experiment","3","odd","8","598068","600304","596984","598052","2425","88711","530645","2441","85345","599085","602321","602852","13296","602321","NA","Sternberg Task","95","62319","98","yes","1024"
"96.96969696969697","96.96969696969697","636.3838383838383","636.3838383838383","black","experiment","legacy","legacy","legacy","0","uniform","1","undefined","1","left","98","98","98","98","0","0","98","0","0","98","98","98","0","98","0","Sun Oct 25 17:58:48 2020","The main experiment item","yes","SternbergTask.osexp","/Users/tforestmoore/Desktop/Tarleton/Fall 2020/Math/Lab3","no","mono","no","18","no","white","no","yes","768","legacy","86","11","/Users/tforestmoore/Desktop/Tarleton/Fall 2020/Math/Lab3/WM-subject-3.csv","legacy","9 6 2 4 1","Lentiform Loewenfeld","3.3.3","4","y","0","left","left","left","left","NA","683","10844","3365","683","NA","2","legacy","5","1024","2","48000","-16","experiment","3","odd","4","603952","606188","602868","603936","2425","88711","530645","2441","85345","604969","608206","608891","13296","608205","NA","Sternberg Task","96","63002","99","yes","1024"
"97","97","636.17","636.17","black","experiment","legacy","legacy","legacy","0","uniform","1","undefined","1","right","99","99","99","99","0","0","99","0","0","99","99","99","0","99","0","Sun Oct 25 17:58:48 2020","The main experiment item","yes","SternbergTask.osexp","/Users/tforestmoore/Desktop/Tarleton/Fall 2020/Math/Lab3","no","mono","no","18","no","white","no","yes","768","legacy","87","11","/Users/tforestmoore/Desktop/Tarleton/Fall 2020/Math/Lab3/WM-subject-3.csv","legacy","1 6 4","Lentiform Loewenfeld","3.3.3","0","n","0","right","left","left","right","NA","615","10844","3365","615","NA","2","legacy","3","1024","2","48000","-16","experiment","3","odd","7","609992","612228","608907","609976","2425","88711","530645","2441","85345","611009","614245","614861","13296","614245","NA","Sternberg Task","97","63617","100","yes","1024"
"97.02970297029702","97.02970297029702","636.3861386138614","636.3861386138614","black","experiment","legacy","legacy","legacy","0","uniform","1","undefined","1","left","100","100","100","100","0","0","100","0","0","100","100","100","0","100","0","Sun Oct 25 17:58:48 2020","The main experiment item","yes","SternbergTask.osexp","/Users/tforestmoore/Desktop/Tarleton/Fall 2020/Math/Lab3","no","mono","no","18","no","white","no","yes","768","legacy","88","11","/Users/tforestmoore/Desktop/Tarleton/Fall 2020/Math/Lab3/WM-subject-3.csv","legacy","9 3 8 2 1 4","Lentiform Loewenfeld","3.3.3","3","y","0","left","left","left","left","NA","658","10844","3365","658","NA","2","legacy","6","1024","2","48000","-16","experiment","3","odd","8","615962","618199","614878","615946","2425","88711","530645","2441","85345","616979","620214","620873","13296","620214","NA","Sternberg Task","98","64275","101","yes","1024"
"97.05882352941177","97.05882352941177","636.5294117647059","636.5294117647059","black","experiment","legacy","legacy","legacy","0","uniform","1","undefined","1","left","101","101","101","101","0","0","101","0","0","101","101","101","0","101","0","Sun Oct 25 17:58:48 2020","The main experiment item","yes","SternbergTask.osexp","/Users/tforestmoore/Desktop/Tarleton/Fall 2020/Math/Lab3","no","mono","no","18","no","white","no","yes","768","legacy","89","11","/Users/tforestmoore/Desktop/Tarleton/Fall 2020/Math/Lab3/WM-subject-3.csv","legacy","8 5 1 3 9","Lentiform Loewenfeld","3.3.3","4","y","0","left","left","left","left","NA","651","10844","3365","651","NA","2","legacy","5","1024","2","48000","-16","experiment","3","odd","3","621974","624210","620890","621958","2425","88711","530645","2441","85345","622991","626227","626879","13296","626227","NA","Sternberg Task","99","64926","102","yes","1024"
"97.0873786407767","97.0873786407767","641.2233009708738","641.2233009708738","black","experiment","legacy","legacy","legacy","0","uniform","1","undefined","1","right","102","102","102","102","0","0","102","0","0","102","102","102","0","102","0","Sun Oct 25 17:58:48 2020","The main experiment item","yes","SternbergTask.osexp","/Users/tforestmoore/Desktop/Tarleton/Fall 2020/Math/Lab3","no","mono","no","18","no","white","no","yes","768","legacy","90","11","/Users/tforestmoore/Desktop/Tarleton/Fall 2020/Math/Lab3/WM-subject-3.csv","legacy","6 9 4 5 3 2","Lentiform Loewenfeld","3.3.3","0","n","0","right","left","left","right","NA","1120","10844","3365","1120","NA","2","legacy","6","1024","2","48000","-16","experiment","3","odd","8","627979","630211","626896","627964","2425","88711","530645","2441","85345","628996","632228","633349","13296","632228","NA","Sternberg Task","100","66046","103","yes","1024"
"97.11538461538461","97.11538461538461","641.4326923076923","641.4326923076923","black","experiment","legacy","legacy","legacy","0","uniform","1","undefined","1","right","103","103","103","103","0","0","103","0","0","103","103","103","0","103","0","Sun Oct 25 17:58:48 2020","The main experiment item","yes","SternbergTask.osexp","/Users/tforestmoore/Desktop/Tarleton/Fall 2020/Math/Lab3","no","mono","no","18","no","white","no","yes","768","legacy","91","11","/Users/tforestmoore/Desktop/Tarleton/Fall 2020/Math/Lab3/WM-subject-3.csv","legacy","1 7 8 3 9","Lentiform Loewenfeld","3.3.3","0","n","0","right","left","left","right","NA","663","10844","3365","663","NA","2","legacy","5","1024","2","48000","-16","experiment","3","odd","2","634447","636685","633366","634433","2425","88711","530645","2441","85345","635465","638702","639366","13296","638702","NA","Sternberg Task","101","66709","104","yes","1024"
"97.14285714285714","97.14285714285714","641.2","641.2","black","experiment","legacy","legacy","legacy","0","uniform","1","undefined","1","left","104","104","104","104","0","0","104","0","0","104","104","104","0","104","0","Sun Oct 25 17:58:48 2020","The main experiment item","yes","SternbergTask.osexp","/Users/tforestmoore/Desktop/Tarleton/Fall 2020/Math/Lab3","no","mono","no","18","no","white","no","yes","768","legacy","92","11","/Users/tforestmoore/Desktop/Tarleton/Fall 2020/Math/Lab3/WM-subject-3.csv","legacy","9 8 4","Lentiform Loewenfeld","3.3.3","1","y","0","left","left","left","left","NA","617","10844","3365","617","NA","2","legacy","3","1024","2","48000","-16","experiment","3","odd","9","640469","642705","639384","640452","2425","88711","530645","2441","85345","641486","644722","645340","13296","644722","NA","Sternberg Task","102","67326","105","yes","1024"
"96.22641509433963","96.22641509433963","641.1320754716982","641.1320754716982","black","experiment","legacy","legacy","legacy","0","uniform","0","undefined","0","right","105","105","105","105","0","0","105","0","0","105","105","105","0","105","0","Sun Oct 25 17:58:48 2020","The main experiment item","yes","SternbergTask.osexp","/Users/tforestmoore/Desktop/Tarleton/Fall 2020/Math/Lab3","no","mono","no","18","no","white","no","yes","768","legacy","93","11","/Users/tforestmoore/Desktop/Tarleton/Fall 2020/Math/Lab3/WM-subject-3.csv","legacy","6 2 9 3 8 4","Lentiform Loewenfeld","3.3.3","0","n","0","left","left","left","left","NA","634","10844","3365","634","NA","2","legacy","6","1024","2","48000","-16","experiment","3","odd","1","646441","648679","645357","646425","2425","88711","530645","2441","85345","647459","650696","651332","13296","650696","NA","Sternberg Task","102","67960","106","yes","1024"
"96.26168224299066","96.26168224299066","640.3084112149533","640.3084112149533","black","experiment","legacy","legacy","legacy","0","uniform","1","undefined","1","right","106","106","106","106","0","0","106","0","0","106","106","106","0","106","0","Sun Oct 25 17:58:48 2020","The main experiment item","yes","SternbergTask.osexp","/Users/tforestmoore/Desktop/Tarleton/Fall 2020/Math/Lab3","no","mono","no","18","no","white","no","yes","768","legacy","94","11","/Users/tforestmoore/Desktop/Tarleton/Fall 2020/Math/Lab3/WM-subject-3.csv","legacy","7 1 8 4 9 3","Lentiform Loewenfeld","3.3.3","0","n","0","right","left","left","right","NA","553","10844","3365","553","NA","2","legacy","6","1024","2","48000","-16","experiment","3","odd","6","652437","654674","645357","652420","2425","88711","651349","2441","85345","653454","656691","657245","13296","656691","NA","Sternberg Task","103","68513","107","yes","1024"
"96.29629629629629","96.29629629629629","640.0092592592592","640.0092592592592","black","experiment","legacy","legacy","legacy","0","uniform","1","undefined","1","left","107","107","107","107","0","0","107","0","0","107","107","107","0","107","0","Sun Oct 25 17:58:48 2020","The main experiment item","yes","SternbergTask.osexp","/Users/tforestmoore/Desktop/Tarleton/Fall 2020/Math/Lab3","no","mono","no","18","no","white","no","yes","768","legacy","95","11","/Users/tforestmoore/Desktop/Tarleton/Fall 2020/Math/Lab3/WM-subject-3.csv","legacy","8","Lentiform Loewenfeld","3.3.3","1","y","0","left","left","left","left","NA","608","10844","3365","608","NA","2","legacy","1","1024","2","48000","-16","experiment","3","odd","8","658349","660586","657263","658332","2425","88711","651349","2441","85345","659366","662603","663212","13296","662603","NA","Sternberg Task","104","69121","108","yes","1024"
"96.3302752293578","96.3302752293578","640.9082568807339","640.9082568807339","black","experiment","legacy","legacy","legacy","0","uniform","1","undefined","1","left","108","108","108","108","0","0","108","0","0","108","108","108","0","108","0","Sun Oct 25 17:58:48 2020","The main experiment item","yes","SternbergTask.osexp","/Users/tforestmoore/Desktop/Tarleton/Fall 2020/Math/Lab3","no","mono","no","18","no","white","no","yes","768","legacy","96","11","/Users/tforestmoore/Desktop/Tarleton/Fall 2020/Math/Lab3/WM-subject-3.csv","legacy","9 3 1 2 5","Lentiform Loewenfeld","3.3.3","4","y","0","left","left","left","left","NA","738","10844","3365","738","NA","2","legacy","5","1024","2","48000","-16","experiment","3","odd","2","664314","666550","663229","664298","2425","88711","651349","2441","85345","665331","668569","669308","13296","668569","NA","Sternberg Task","105","69859","109","yes","1024"
"95.45454545454545","95.45454545454545","639.5909090909091","639.5909090909091","black","experiment","legacy","legacy","legacy","0","uniform","0","undefined","0","left","109","109","109","109","0","0","109","0","0","109","109","109","0","109","0","Sun Oct 25 17:58:48 2020","The main experiment item","yes","SternbergTask.osexp","/Users/tforestmoore/Desktop/Tarleton/Fall 2020/Math/Lab3","no","mono","no","18","no","white","no","yes","768","legacy","97","11","/Users/tforestmoore/Desktop/Tarleton/Fall 2020/Math/Lab3/WM-subject-3.csv","legacy","5 2 6","Lentiform Loewenfeld","3.3.3","2","y","0","right","left","left","right","NA","496","10844","3365","496","NA","2","legacy","3","1024","2","48000","-16","experiment","3","odd","2","670403","672640","669325","670388","2425","88711","651349","2441","85345","671420","674657","675154","13296","674657","NA","Sternberg Task","105","70355","110","yes","1024"
"95.49549549549549","95.49549549549549","640.2792792792793","640.2792792792793","black","experiment","legacy","legacy","legacy","0","uniform","1","undefined","1","right","110","110","110","110","0","0","110","0","0","110","110","110","0","110","0","Sun Oct 25 17:58:48 2020","The main experiment item","yes","SternbergTask.osexp","/Users/tforestmoore/Desktop/Tarleton/Fall 2020/Math/Lab3","no","mono","no","18","no","white","no","yes","768","legacy","98","11","/Users/tforestmoore/Desktop/Tarleton/Fall 2020/Math/Lab3/WM-subject-3.csv","legacy","2 6 4 3 9","Lentiform Loewenfeld","3.3.3","0","n","0","right","left","left","right","NA","716","10844","3365","716","NA","2","legacy","5","1024","2","48000","-16","experiment","3","odd","1","676256","678493","669325","676240","2425","88711","675171","2441","85345","677273","680510","681227","13296","680510","NA","Sternberg Task","106","71071","111","yes","1024"
"95.53571428571429","95.53571428571429","643.8392857142857","643.8392857142857","black","experiment","legacy","legacy","legacy","0","uniform","1","undefined","1","right","111","111","111","111","0","0","111","0","0","111","111","111","0","111","0","Sun Oct 25 17:58:48 2020","The main experiment item","yes","SternbergTask.osexp","/Users/tforestmoore/Desktop/Tarleton/Fall 2020/Math/Lab3","no","mono","no","18","no","white","no","yes","768","legacy","99","11","/Users/tforestmoore/Desktop/Tarleton/Fall 2020/Math/Lab3/WM-subject-3.csv","legacy","9 5 3 2 8 6","Lentiform Loewenfeld","3.3.3","0","n","0","right","left","left","right","NA","1039","10844","3365","1039","NA","2","legacy","6","1024","2","48000","-16","experiment","3","odd","7","682332","684569","681244","682316","2425","88711","675171","2441","85345","683349","686586","687626","13296","686586","NA","Sternberg Task","107","72110","112","yes","1024"
