"acc","accuracy","average_response_time","avg_rt","background","block","canvas_backend","clock_backend","color_backend","compensation","coordinates","correct","correct_instructions1","correct_keyboard_response","correct_response","count_ISI","count_PracticeLoop","count_correctFeedback","count_expSequence","count_experiment","count_experimentLoop","count_fixation","count_incorrectFeedback","count_instructions1","count_instructions2","count_keyboard_response","count_memorySet","count_new_logger","count_new_loop","count_probe","count_thankYou","datetime","description","disable_garbage_collection","empty_column","experiment_file","experiment_path","font_bold","font_family","font_italic","font_size","font_underline","foreground","form_clicks","fullscreen","height","keyboard_backend","live_row","live_row_PracticeLoop","logfile","mouse_backend","numberSet","opensesame_codename","opensesame_version","posInSet","present","repeat_cycle","response","response_instructions1","response_instructions2","response_keyboard_response","response_thankYou","response_time","response_time_instructions1","response_time_instructions2","response_time_keyboard_response","response_time_thankYou","round_decimals","sampler_backend","setSize","sound_buf_size","sound_channels","sound_freq","sound_sample_size","start","subject_nr","subject_parity","target","time_ISI","time_PracticeLoop","time_correctFeedback","time_expSequence","time_experiment","time_experimentLoop","time_fixation","time_incorrectFeedback","time_instructions1","time_instructions2","time_keyboard_response","time_memorySet","time_new_logger","time_new_loop","time_probe","time_thankYou","title","total_correct","total_response_time","total_responses","uniform_coordinates","width"
"100","100","845","845","black","practice","legacy","legacy","legacy","0","uniform","1","undefined","1","left","0","0","0","0","0","0","0","0","0","0","0","0","0","NA","0","0","Fri Oct 23 19:29:49 2020","The main experiment item","yes","NA","SternbergTask.osexp","/Users/kaylaredder/Desktop/Tarleton /AdvancedQuant/Lab3","no","mono","no","18","no","white","no","yes","768","legacy","0","0","/Users/kaylaredder/Desktop/Tarleton /AdvancedQuant/Lab3/FR- subject-1.csv","legacy","1 5 2 9","Lentiform Loewenfeld","3.3.5","2","y","0","left","right","NA","left","NA","845","75721","NA","845","NA","2","legacy","4","1024","2","48000","-16","experiment","1","odd","5","80626","77742","NA","78381","2001","NA","78394","NA","2015","NA","82640","79408","83486","NA","82639","NA","Sternberg Task ","1","845","1","yes","1024"
"50","50","962.5","962.5","black","practice","legacy","legacy","legacy","0","uniform","0","undefined","0","left","1","0","1","1","0","0","1","1","0","0","1","1","1","NA","1","0","Fri Oct 23 19:29:49 2020","The main experiment item","yes","NA","SternbergTask.osexp","/Users/kaylaredder/Desktop/Tarleton /AdvancedQuant/Lab3","no","mono","no","18","no","white","no","yes","768","legacy","1","1","/Users/kaylaredder/Desktop/Tarleton /AdvancedQuant/Lab3/FR- subject-1.csv","legacy","1 7 9 8 5","Lentiform Loewenfeld","3.3.5","4","y","0","right","right","NA","right","NA","1080","75721","NA","1080","NA","2","legacy","5","1024","2","48000","-16","experiment","1","odd","8","86841","77742","83532","84600","2001","NA","84612","NA","2015","NA","88854","85626","89935","NA","88854","NA","Sternberg Task ","1","1925","2","yes","1024"
"66.66666666666667","66.66666666666667","979.3333333333334","979.3333333333334","black","practice","legacy","legacy","legacy","0","uniform","1","undefined","1","right","2","0","2","2","0","0","2","2","0","0","2","2","2","NA","2","0","Fri Oct 23 19:29:49 2020","The main experiment item","yes","NA","SternbergTask.osexp","/Users/kaylaredder/Desktop/Tarleton /AdvancedQuant/Lab3","no","mono","no","18","no","white","no","yes","768","legacy","2","2","/Users/kaylaredder/Desktop/Tarleton /AdvancedQuant/Lab3/FR- subject-1.csv","legacy","4 1 5","Lentiform Loewenfeld","3.3.5","0","n","0","right","right","NA","right","NA","1013","75721","NA","1013","NA","2","legacy","3","1024","2","48000","-16","experiment","1","odd","2","93253","77742","83532","91011","2001","NA","91023","89956","2015","NA","95266","92037","96280","NA","95266","NA","Sternberg Task ","2","2938","3","yes","1024"
"50","50","1234.5","1234.5","black","practice","legacy","legacy","legacy","0","uniform","0","undefined","0","right","3","0","3","3","0","0","3","3","0","0","3","3","3","NA","3","0","Fri Oct 23 19:29:49 2020","The main experiment item","yes","NA","SternbergTask.osexp","/Users/kaylaredder/Desktop/Tarleton /AdvancedQuant/Lab3","no","mono","no","18","no","white","no","yes","768","legacy","3","3","/Users/kaylaredder/Desktop/Tarleton /AdvancedQuant/Lab3/FR- subject-1.csv","legacy","5","Lentiform Loewenfeld","3.3.5","0","n","0","None","right","NA","None","NA","2000","75721","NA","2000","NA","2","legacy","1","1024","2","48000","-16","experiment","1","odd","3","99596","77742","96295","97351","2001","NA","97363","89956","2015","NA","101609","98379","103609","NA","101609","NA","Sternberg Task ","2","4938","4","yes","1024"
"40","40","1187.2","1187.2","black","practice","legacy","legacy","legacy","0","uniform","0","undefined","0","left","4","0","4","4","0","0","4","4","0","0","4","4","4","NA","4","0","Fri Oct 23 19:29:49 2020","The main experiment item","yes","NA","SternbergTask.osexp","/Users/kaylaredder/Desktop/Tarleton /AdvancedQuant/Lab3","no","mono","no","18","no","white","no","yes","768","legacy","4","4","/Users/kaylaredder/Desktop/Tarleton /AdvancedQuant/Lab3/FR- subject-1.csv","legacy","2 9 4","Lentiform Loewenfeld","3.3.5","3","y","0","right","right","NA","right","NA","998","75721","NA","998","NA","2","legacy","3","1024","2","48000","-16","experiment","1","odd","4","106925","77742","96295","104686","2001","NA","104699","103631","2015","NA","108939","105711","109938","NA","108938","NA","Sternberg Task ","2","5936","5","yes","1024"
"50","50","1073.6666666666667","1073.6666666666667","black","practice","legacy","legacy","legacy","0","uniform","1","undefined","1","left","5","0","5","5","0","0","5","5","0","0","5","5","5","NA","5","0","Fri Oct 23 19:29:49 2020","The main experiment item","yes","NA","SternbergTask.osexp","/Users/kaylaredder/Desktop/Tarleton /AdvancedQuant/Lab3","no","mono","no","18","no","white","no","yes","768","legacy","5","5","/Users/kaylaredder/Desktop/Tarleton /AdvancedQuant/Lab3/FR- subject-1.csv","legacy","4 8","Lentiform Loewenfeld","3.3.5","1","y","0","left","right","NA","left","NA","506","75721","NA","506","NA","2","legacy","2","1024","2","48000","-16","experiment","1","odd","4","113255","77742","96295","111012","2001","NA","111025","109958","2015","NA","115270","112040","115777","NA","115269","NA","Sternberg Task ","3","6442","6","yes","1024"
"57.142857142857146","57.142857142857146","1033.7142857142858","1033.7142857142858","black","practice","legacy","legacy","legacy","0","uniform","1","undefined","1","left","6","0","6","6","0","0","6","6","0","0","6","6","6","NA","6","0","Fri Oct 23 19:29:49 2020","The main experiment item","yes","NA","SternbergTask.osexp","/Users/kaylaredder/Desktop/Tarleton /AdvancedQuant/Lab3","no","mono","no","18","no","white","no","yes","768","legacy","6","6","/Users/kaylaredder/Desktop/Tarleton /AdvancedQuant/Lab3/FR- subject-1.csv","legacy","4 3 1 7 9 8","Lentiform Loewenfeld","3.3.5","1","y","0","left","right","NA","left","NA","794","75721","NA","794","NA","2","legacy","6","1024","2","48000","-16","experiment","1","odd","4","119093","77742","115795","116850","2001","NA","116863","109958","2015","NA","121106","117878","121900","NA","121106","NA","Sternberg Task ","4","7236","7","yes","1024"
"62.5","62.5","1022.125","1022.125","black","practice","legacy","legacy","legacy","0","uniform","1","undefined","1","right","7","0","7","7","0","0","7","7","0","0","7","7","7","NA","7","0","Fri Oct 23 19:29:49 2020","The main experiment item","yes","NA","SternbergTask.osexp","/Users/kaylaredder/Desktop/Tarleton /AdvancedQuant/Lab3","no","mono","no","18","no","white","no","yes","768","legacy","7","7","/Users/kaylaredder/Desktop/Tarleton /AdvancedQuant/Lab3/FR- subject-1.csv","legacy","3 1 9 4","Lentiform Loewenfeld","3.3.5","0","n","0","right","right","NA","right","NA","941","75721","NA","941","NA","2","legacy","4","1024","2","48000","-16","experiment","1","odd","6","125219","77742","121922","122977","2001","NA","122989","109958","2015","NA","127232","124003","128173","NA","127232","NA","Sternberg Task ","5","8177","8","yes","1024"
"55.55555555555556","55.55555555555556","985.5555555555555","985.5555555555555","black","practice","legacy","legacy","legacy","0","uniform","0","undefined","0","right","8","0","8","8","0","0","8","8","0","0","8","8","8","NA","8","0","Fri Oct 23 19:29:49 2020","The main experiment item","yes","NA","SternbergTask.osexp","/Users/kaylaredder/Desktop/Tarleton /AdvancedQuant/Lab3","no","mono","no","18","no","white","no","yes","768","legacy","8","8","/Users/kaylaredder/Desktop/Tarleton /AdvancedQuant/Lab3/FR- subject-1.csv","legacy","9 6 7 4 5","Lentiform Loewenfeld","3.3.5","0","n","0","left","right","NA","left","NA","693","75721","NA","693","NA","2","legacy","5","1024","2","48000","-16","experiment","1","odd","3","131493","77742","128194","129250","2001","NA","129263","109958","2015","NA","133507","130277","134200","NA","133507","NA","Sternberg Task ","5","8870","9","yes","1024"
"60","60","934","934","black","practice","legacy","legacy","legacy","0","uniform","1","undefined","1","left","9","0","9","9","0","0","9","9","0","0","9","9","9","NA","9","0","Fri Oct 23 19:29:49 2020","The main experiment item","yes","NA","SternbergTask.osexp","/Users/kaylaredder/Desktop/Tarleton /AdvancedQuant/Lab3","no","mono","no","18","no","white","no","yes","768","legacy","9","9","/Users/kaylaredder/Desktop/Tarleton /AdvancedQuant/Lab3/FR- subject-1.csv","legacy","6","Lentiform Loewenfeld","3.3.5","1","y","0","left","right","NA","left","NA","470","75721","NA","470","NA","2","legacy","1","1024","2","48000","-16","experiment","1","odd","6","137520","77742","128194","135277","2001","NA","135289","134222","2015","NA","139534","136304","140005","NA","139534","NA","Sternberg Task ","6","9340","10","yes","1024"
"63.63636363636363","63.63636363636363","914.9090909090909","914.9090909090909","black","practice","legacy","legacy","legacy","0","uniform","1","undefined","1","right","10","0","10","10","0","0","10","10","0","0","10","10","10","NA","10","0","Fri Oct 23 19:29:49 2020","The main experiment item","yes","NA","SternbergTask.osexp","/Users/kaylaredder/Desktop/Tarleton /AdvancedQuant/Lab3","no","mono","no","18","no","white","no","yes","768","legacy","10","10","/Users/kaylaredder/Desktop/Tarleton /AdvancedQuant/Lab3/FR- subject-1.csv","legacy","2 1","Lentiform Loewenfeld","3.3.5","0","n","0","right","right","NA","right","NA","724","75721","NA","724","NA","2","legacy","2","1024","2","48000","-16","experiment","1","odd","5","143324","77742","140026","141080","2001","NA","141093","134222","2015","NA","145338","142108","146062","NA","145338","NA","Sternberg Task ","7","10064","11","yes","1024"
"66.66666666666667","66.66666666666667","894.0833333333334","894.0833333333334","black","practice","legacy","legacy","legacy","0","uniform","1","undefined","1","right","11","0","11","11","0","0","11","11","0","0","11","11","11","NA","11","0","Fri Oct 23 19:29:49 2020","The main experiment item","yes","NA","SternbergTask.osexp","/Users/kaylaredder/Desktop/Tarleton /AdvancedQuant/Lab3","no","mono","no","18","no","white","no","yes","768","legacy","11","11","/Users/kaylaredder/Desktop/Tarleton /AdvancedQuant/Lab3/FR- subject-1.csv","legacy","5 7 8 4 1 2","Lentiform Loewenfeld","3.3.5","0","n","0","right","right","NA","right","NA","665","75721","NA","665","NA","2","legacy","6","1024","2","48000","-16","experiment","1","odd","6","149381","77742","146082","147137","2001","NA","147150","134222","2015","NA","151395","148165","152061","NA","151395","NA","Sternberg Task ","8","10729","12","yes","1024"
"69.23076923076923","69.23076923076923","884.9230769230769","884.9230769230769","black","experiment","legacy","legacy","legacy","0","uniform","1","undefined","1","left","12","0","12","12","0","0","12","12","0","0","12","12","12","NA","12","0","Fri Oct 23 19:29:49 2020","The main experiment item","yes","NA","SternbergTask.osexp","/Users/kaylaredder/Desktop/Tarleton /AdvancedQuant/Lab3","no","mono","no","18","no","white","no","yes","768","legacy","0","11","/Users/kaylaredder/Desktop/Tarleton /AdvancedQuant/Lab3/FR- subject-1.csv","legacy","2 5 4 8 7","Lentiform Loewenfeld","3.3.5","3","y","0","left","right","right","left","NA","775","75721","12795","775","NA","2","legacy","5","1024","2","48000","-16","experiment","1","odd","4","168204","77742","152082","165964","2001","165916","165977","134222","2015","153120","170218","166991","170993","NA","170218","NA","Sternberg Task ","9","11504","13","yes","1024"
"71.42857142857143","71.42857142857143","862.1428571428571","862.1428571428571","black","experiment","legacy","legacy","legacy","0","uniform","1","undefined","1","left","13","0","13","13","0","0","13","13","0","0","13","13","13","NA","13","0","Fri Oct 23 19:29:49 2020","The main experiment item","yes","NA","SternbergTask.osexp","/Users/kaylaredder/Desktop/Tarleton /AdvancedQuant/Lab3","no","mono","no","18","no","white","no","yes","768","legacy","1","11","/Users/kaylaredder/Desktop/Tarleton /AdvancedQuant/Lab3/FR- subject-1.csv","legacy","3 4","Lentiform Loewenfeld","3.3.5","1","y","0","left","right","right","left","NA","566","75721","12795","566","NA","2","legacy","2","1024","2","48000","-16","experiment","1","odd","3","174308","77742","171013","172068","2001","165916","172081","134222","2015","153120","176324","173096","176890","NA","176324","NA","Sternberg Task ","10","12070","14","yes","1024"
"73.33333333333333","73.33333333333333","837.4666666666667","837.4666666666667","black","experiment","legacy","legacy","legacy","0","uniform","1","undefined","1","right","14","0","14","14","0","0","14","14","0","0","14","14","14","NA","14","0","Fri Oct 23 19:29:49 2020","The main experiment item","yes","NA","SternbergTask.osexp","/Users/kaylaredder/Desktop/Tarleton /AdvancedQuant/Lab3","no","mono","no","18","no","white","no","yes","768","legacy","2","11","/Users/kaylaredder/Desktop/Tarleton /AdvancedQuant/Lab3/FR- subject-1.csv","legacy","6 8","Lentiform Loewenfeld","3.3.5","0","n","0","right","right","right","right","NA","492","75721","12795","492","NA","2","legacy","2","1024","2","48000","-16","experiment","1","odd","9","180207","77742","176911","177966","2001","165916","177978","134222","2015","153120","182221","178992","182713","NA","182220","NA","Sternberg Task ","11","12562","15","yes","1024"
"75","75","828.0625","828.0625","black","experiment","legacy","legacy","legacy","0","uniform","1","undefined","1","left","15","0","15","15","0","0","15","15","0","0","15","15","15","NA","15","0","Fri Oct 23 19:29:49 2020","The main experiment item","yes","NA","SternbergTask.osexp","/Users/kaylaredder/Desktop/Tarleton /AdvancedQuant/Lab3","no","mono","no","18","no","white","no","yes","768","legacy","3","11","/Users/kaylaredder/Desktop/Tarleton /AdvancedQuant/Lab3/FR- subject-1.csv","legacy","6 2","Lentiform Loewenfeld","3.3.5","1","y","0","left","right","right","left","NA","687","75721","12795","687","NA","2","legacy","2","1024","2","48000","-16","experiment","1","odd","6","186030","77742","182733","183788","2001","165916","183801","134222","2015","153120","188043","184815","188730","NA","188043","NA","Sternberg Task ","12","13249","16","yes","1024"
"76.47058823529412","76.47058823529412","813.4705882352941","813.4705882352941","black","experiment","legacy","legacy","legacy","0","uniform","1","undefined","1","left","16","0","16","16","0","0","16","16","0","0","16","16","16","NA","16","0","Fri Oct 23 19:29:49 2020","The main experiment item","yes","NA","SternbergTask.osexp","/Users/kaylaredder/Desktop/Tarleton /AdvancedQuant/Lab3","no","mono","no","18","no","white","no","yes","768","legacy","4","11","/Users/kaylaredder/Desktop/Tarleton /AdvancedQuant/Lab3/FR- subject-1.csv","legacy","2 3","Lentiform Loewenfeld","3.3.5","1","y","0","left","right","right","left","NA","580","75721","12795","580","NA","2","legacy","2","1024","2","48000","-16","experiment","1","odd","2","192050","77742","188752","189808","2001","165916","189820","134222","2015","153120","194063","190834","194643","NA","194063","NA","Sternberg Task ","13","13829","17","yes","1024"
"77.77777777777777","77.77777777777777","801.9444444444445","801.9444444444445","black","experiment","legacy","legacy","legacy","0","uniform","1","undefined","1","left","17","0","17","17","0","0","17","17","0","0","17","17","17","NA","17","0","Fri Oct 23 19:29:49 2020","The main experiment item","yes","NA","SternbergTask.osexp","/Users/kaylaredder/Desktop/Tarleton /AdvancedQuant/Lab3","no","mono","no","18","no","white","no","yes","768","legacy","5","11","/Users/kaylaredder/Desktop/Tarleton /AdvancedQuant/Lab3/FR- subject-1.csv","legacy","6 7 9 3 1 2","Lentiform Loewenfeld","3.3.5","1","y","0","left","right","right","left","NA","606","75721","12795","606","NA","2","legacy","6","1024","2","48000","-16","experiment","1","odd","6","197963","77742","194664","195719","2001","165916","195732","134222","2015","153120","199977","196747","200584","NA","199977","NA","Sternberg Task ","14","14435","18","yes","1024"
"78.94736842105263","78.94736842105263","845.3684210526316","845.3684210526316","black","experiment","legacy","legacy","legacy","0","uniform","1","undefined","1","left","18","0","18","18","0","0","18","18","0","0","18","18","18","NA","18","0","Fri Oct 23 19:29:49 2020","The main experiment item","yes","NA","SternbergTask.osexp","/Users/kaylaredder/Desktop/Tarleton /AdvancedQuant/Lab3","no","mono","no","18","no","white","no","yes","768","legacy","6","11","/Users/kaylaredder/Desktop/Tarleton /AdvancedQuant/Lab3/FR- subject-1.csv","legacy","2 4 6 9","Lentiform Loewenfeld","3.3.5","3","y","0","left","right","right","left","NA","1627","75721","12795","1627","NA","2","legacy","4","1024","2","48000","-16","experiment","1","odd","6","203903","77742","200605","201661","2001","165916","201673","134222","2015","153120","205917","202688","207545","NA","205917","NA","Sternberg Task ","15","16062","19","yes","1024"
"75","75","834.55","834.55","black","experiment","legacy","legacy","legacy","0","uniform","0","undefined","0","left","19","0","19","19","0","0","19","19","0","0","19","19","19","NA","19","0","Fri Oct 23 19:29:49 2020","The main experiment item","yes","NA","SternbergTask.osexp","/Users/kaylaredder/Desktop/Tarleton /AdvancedQuant/Lab3","no","mono","no","18","no","white","no","yes","768","legacy","7","11","/Users/kaylaredder/Desktop/Tarleton /AdvancedQuant/Lab3/FR- subject-1.csv","legacy","6 9 3 1","Lentiform Loewenfeld","3.3.5","4","y","0","right","right","right","right","NA","629","75721","12795","629","NA","2","legacy","4","1024","2","48000","-16","experiment","1","odd","1","210865","77742","207567","208622","2001","165916","208635","134222","2015","153120","212879","209649","213509","NA","212878","NA","Sternberg Task ","15","16691","20","yes","1024"
"76.19047619047619","76.19047619047619","830.6190476190476","830.6190476190476","black","experiment","legacy","legacy","legacy","0","uniform","1","undefined","1","right","20","0","20","20","0","0","20","20","0","0","20","20","20","NA","20","0","Fri Oct 23 19:29:49 2020","The main experiment item","yes","NA","SternbergTask.osexp","/Users/kaylaredder/Desktop/Tarleton /AdvancedQuant/Lab3","no","mono","no","18","no","white","no","yes","768","legacy","8","11","/Users/kaylaredder/Desktop/Tarleton /AdvancedQuant/Lab3/FR- subject-1.csv","legacy","7 1 5 6 3","Lentiform Loewenfeld","3.3.5","0","n","0","right","right","right","right","NA","752","75721","12795","752","NA","2","legacy","5","1024","2","48000","-16","experiment","1","odd","8","216828","77742","207567","214586","2001","165916","214598","213529","2015","153120","218842","215612","219595","NA","218842","NA","Sternberg Task ","16","17443","21","yes","1024"
"77.27272727272727","77.27272727272727","830.2727272727273","830.2727272727273","black","experiment","legacy","legacy","legacy","0","uniform","1","undefined","1","right","21","0","21","21","0","0","21","21","0","0","21","21","21","NA","21","0","Fri Oct 23 19:29:49 2020","The main experiment item","yes","NA","SternbergTask.osexp","/Users/kaylaredder/Desktop/Tarleton /AdvancedQuant/Lab3","no","mono","no","18","no","white","no","yes","768","legacy","9","11","/Users/kaylaredder/Desktop/Tarleton /AdvancedQuant/Lab3/FR- subject-1.csv","legacy","1 7 5 2","Lentiform Loewenfeld","3.3.5","0","n","0","right","right","right","right","NA","823","75721","12795","823","NA","2","legacy","4","1024","2","48000","-16","experiment","1","odd","3","222915","77742","219616","220672","2001","165916","220685","213529","2015","153120","224928","221699","225752","NA","224928","NA","Sternberg Task ","17","18266","22","yes","1024"
"78.26086956521739","78.26086956521739","818.8260869565217","818.8260869565217","black","experiment","legacy","legacy","legacy","0","uniform","1","undefined","1","left","22","0","22","22","0","0","22","22","0","0","22","22","22","NA","22","0","Fri Oct 23 19:29:49 2020","The main experiment item","yes","NA","SternbergTask.osexp","/Users/kaylaredder/Desktop/Tarleton /AdvancedQuant/Lab3","no","mono","no","18","no","white","no","yes","768","legacy","10","11","/Users/kaylaredder/Desktop/Tarleton /AdvancedQuant/Lab3/FR- subject-1.csv","legacy","8 7 3","Lentiform Loewenfeld","3.3.5","1","y","0","left","right","right","left","NA","567","75721","12795","567","NA","2","legacy","3","1024","2","48000","-16","experiment","1","odd","8","229070","77742","225773","226828","2001","165916","226840","213529","2015","153120","231083","227855","231651","NA","231083","NA","Sternberg Task ","18","18833","23","yes","1024"
"75","75","808.9166666666666","808.9166666666666","black","experiment","legacy","legacy","legacy","0","uniform","0","undefined","0","left","23","0","23","23","0","0","23","23","0","0","23","23","23","NA","23","0","Fri Oct 23 19:29:49 2020","The main experiment item","yes","NA","SternbergTask.osexp","/Users/kaylaredder/Desktop/Tarleton /AdvancedQuant/Lab3","no","mono","no","18","no","white","no","yes","768","legacy","11","11","/Users/kaylaredder/Desktop/Tarleton /AdvancedQuant/Lab3/FR- subject-1.csv","legacy","6 5","Lentiform Loewenfeld","3.3.5","2","y","0","right","right","right","right","NA","581","75721","12795","581","NA","2","legacy","2","1024","2","48000","-16","experiment","1","odd","5","234970","77742","231671","232727","2001","165916","232739","213529","2015","153120","236983","233754","237565","NA","236983","NA","Sternberg Task ","18","19414","24","yes","1024"
"76","76","801.4","801.4","black","experiment","legacy","legacy","legacy","0","uniform","1","undefined","1","right","24","0","24","24","0","0","24","24","0","0","24","24","24","NA","24","0","Fri Oct 23 19:29:49 2020","The main experiment item","yes","NA","SternbergTask.osexp","/Users/kaylaredder/Desktop/Tarleton /AdvancedQuant/Lab3","no","mono","no","18","no","white","no","yes","768","legacy","12","11","/Users/kaylaredder/Desktop/Tarleton /AdvancedQuant/Lab3/FR- subject-1.csv","legacy","7 1 8 4 9 3","Lentiform Loewenfeld","3.3.5","0","n","0","right","right","right","right","NA","621","75721","12795","621","NA","2","legacy","6","1024","2","48000","-16","experiment","1","odd","6","240884","77742","231671","238641","2001","165916","238653","237585","2015","153120","242898","239668","243519","NA","242898","NA","Sternberg Task ","19","20035","25","yes","1024"
"76.92307692307692","76.92307692307692","800.8076923076923","800.8076923076923","black","experiment","legacy","legacy","legacy","0","uniform","1","undefined","1","right","25","0","25","25","0","0","25","25","0","0","25","25","25","NA","25","0","Fri Oct 23 19:29:49 2020","The main experiment item","yes","NA","SternbergTask.osexp","/Users/kaylaredder/Desktop/Tarleton /AdvancedQuant/Lab3","no","mono","no","18","no","white","no","yes","768","legacy","13","11","/Users/kaylaredder/Desktop/Tarleton /AdvancedQuant/Lab3/FR- subject-1.csv","legacy","5 3 8 7 2 4","Lentiform Loewenfeld","3.3.5","0","n","0","right","right","right","right","NA","786","75721","12795","786","NA","2","legacy","6","1024","2","48000","-16","experiment","1","odd","9","246841","77742","243540","244598","2001","165916","244611","237585","2015","153120","248855","245626","249641","NA","248854","NA","Sternberg Task ","20","20821","26","yes","1024"
"77.77777777777777","77.77777777777777","843.2222222222222","843.2222222222222","black","experiment","legacy","legacy","legacy","0","uniform","1","undefined","1","right","26","0","26","26","0","0","26","26","0","0","26","26","26","NA","26","0","Fri Oct 23 19:29:49 2020","The main experiment item","yes","NA","SternbergTask.osexp","/Users/kaylaredder/Desktop/Tarleton /AdvancedQuant/Lab3","no","mono","no","18","no","white","no","yes","768","legacy","14","11","/Users/kaylaredder/Desktop/Tarleton /AdvancedQuant/Lab3/FR- subject-1.csv","legacy","1 6 4 3 9 7","Lentiform Loewenfeld","3.3.5","0","n","0","right","right","right","right","NA","1946","75721","12795","1946","NA","2","legacy","6","1024","2","48000","-16","experiment","1","odd","8","252964","77742","249666","250721","2001","165916","250734","237585","2015","153120","254978","251748","256924","NA","254978","NA","Sternberg Task ","21","22767","27","yes","1024"
"78.57142857142857","78.57142857142857","846.2857142857143","846.2857142857143","black","experiment","legacy","legacy","legacy","0","uniform","1","undefined","1","right","27","0","27","27","0","0","27","27","0","0","27","27","27","NA","27","0","Fri Oct 23 19:29:49 2020","The main experiment item","yes","NA","SternbergTask.osexp","/Users/kaylaredder/Desktop/Tarleton /AdvancedQuant/Lab3","no","mono","no","18","no","white","no","yes","768","legacy","15","11","/Users/kaylaredder/Desktop/Tarleton /AdvancedQuant/Lab3/FR- subject-1.csv","legacy","2 8 7 9 5 3","Lentiform Loewenfeld","3.3.5","0","n","0","right","right","right","right","NA","929","75721","12795","929","NA","2","legacy","6","1024","2","48000","-16","experiment","1","odd","6","260243","77742","256945","258001","2001","165916","258013","237585","2015","153120","262256","259028","263186","NA","262256","NA","Sternberg Task ","22","23696","28","yes","1024"
"75.86206896551724","75.86206896551724","843.1379310344828","843.1379310344828","black","experiment","legacy","legacy","legacy","0","uniform","0","undefined","0","right","28","0","28","28","0","0","28","28","0","0","28","28","28","NA","28","0","Fri Oct 23 19:29:49 2020","The main experiment item","yes","NA","SternbergTask.osexp","/Users/kaylaredder/Desktop/Tarleton /AdvancedQuant/Lab3","no","mono","no","18","no","white","no","yes","768","legacy","16","11","/Users/kaylaredder/Desktop/Tarleton /AdvancedQuant/Lab3/FR- subject-1.csv","legacy","4 8 1 2","Lentiform Loewenfeld","3.3.5","0","n","0","left","right","right","left","NA","755","75721","12795","755","NA","2","legacy","4","1024","2","48000","-16","experiment","1","odd","7","266506","77742","263207","264263","2001","165916","264275","237585","2015","153120","268519","265290","269275","NA","268519","NA","Sternberg Task ","22","24451","29","yes","1024"
"76.66666666666667","76.66666666666667","835.4","835.4","black","experiment","legacy","legacy","legacy","0","uniform","1","undefined","1","right","29","0","29","29","0","0","29","29","0","0","29","29","29","NA","29","0","Fri Oct 23 19:29:49 2020","The main experiment item","yes","NA","SternbergTask.osexp","/Users/kaylaredder/Desktop/Tarleton /AdvancedQuant/Lab3","no","mono","no","18","no","white","no","yes","768","legacy","17","11","/Users/kaylaredder/Desktop/Tarleton /AdvancedQuant/Lab3/FR- subject-1.csv","legacy","6 9 4 5 3 2","Lentiform Loewenfeld","3.3.5","0","n","0","right","right","right","right","NA","611","75721","12795","611","NA","2","legacy","6","1024","2","48000","-16","experiment","1","odd","8","272596","77742","263207","270351","2001","165916","270364","269296","2015","153120","274609","271379","275221","NA","274609","NA","Sternberg Task ","23","25062","30","yes","1024"
"74.19354838709677","74.19354838709677","834.2903225806451","834.2903225806451","black","experiment","legacy","legacy","legacy","0","uniform","0","undefined","0","right","30","0","30","30","0","0","30","30","0","0","30","30","30","NA","30","0","Fri Oct 23 19:29:49 2020","The main experiment item","yes","NA","SternbergTask.osexp","/Users/kaylaredder/Desktop/Tarleton /AdvancedQuant/Lab3","no","mono","no","18","no","white","no","yes","768","legacy","18","11","/Users/kaylaredder/Desktop/Tarleton /AdvancedQuant/Lab3/FR- subject-1.csv","legacy","3 4 9 6 7 8","Lentiform Loewenfeld","3.3.5","0","n","0","left","right","right","left","NA","801","75721","12795","801","NA","2","legacy","6","1024","2","48000","-16","experiment","1","odd","2","278544","77742","275243","276300","2001","165916","276313","269296","2015","153120","280558","277327","281360","NA","280558","NA","Sternberg Task ","23","25863","31","yes","1024"
"75","75","830.03125","830.03125","black","experiment","legacy","legacy","legacy","0","uniform","1","undefined","1","right","31","0","31","31","0","0","31","31","0","0","31","31","31","NA","31","0","Fri Oct 23 19:29:49 2020","The main experiment item","yes","NA","SternbergTask.osexp","/Users/kaylaredder/Desktop/Tarleton /AdvancedQuant/Lab3","no","mono","no","18","no","white","no","yes","768","legacy","19","11","/Users/kaylaredder/Desktop/Tarleton /AdvancedQuant/Lab3/FR- subject-1.csv","legacy","6 2 9 3 8 4","Lentiform Loewenfeld","3.3.5","0","n","0","right","right","right","right","NA","698","75721","12795","698","NA","2","legacy","6","1024","2","48000","-16","experiment","1","odd","1","284686","77742","275243","282442","2001","165916","282454","281385","2015","153120","286700","283469","287399","NA","286700","NA","Sternberg Task ","24","26561","32","yes","1024"
"75.75757575757575","75.75757575757575","835.6666666666666","835.6666666666666","black","experiment","legacy","legacy","legacy","0","uniform","1","undefined","1","right","32","0","32","32","0","0","32","32","0","0","32","32","32","NA","32","0","Fri Oct 23 19:29:49 2020","The main experiment item","yes","NA","SternbergTask.osexp","/Users/kaylaredder/Desktop/Tarleton /AdvancedQuant/Lab3","no","mono","no","18","no","white","no","yes","768","legacy","20","11","/Users/kaylaredder/Desktop/Tarleton /AdvancedQuant/Lab3/FR- subject-1.csv","legacy","8 9","Lentiform Loewenfeld","3.3.5","0","n","0","right","right","right","right","NA","1016","75721","12795","1016","NA","2","legacy","2","1024","2","48000","-16","experiment","1","odd","5","290718","77742","287420","288475","2001","165916","288487","281385","2015","153120","292731","289502","293748","NA","292731","NA","Sternberg Task ","25","27577","33","yes","1024"
"73.52941176470588","73.52941176470588","848.8823529411765","848.8823529411765","black","experiment","legacy","legacy","legacy","0","uniform","0","undefined","0","left","33","0","33","33","0","0","33","33","0","0","33","33","33","NA","33","0","Fri Oct 23 19:29:49 2020","The main experiment item","yes","NA","SternbergTask.osexp","/Users/kaylaredder/Desktop/Tarleton /AdvancedQuant/Lab3","no","mono","no","18","no","white","no","yes","768","legacy","21","11","/Users/kaylaredder/Desktop/Tarleton /AdvancedQuant/Lab3/FR- subject-1.csv","legacy","2 6 1 7 4","Lentiform Loewenfeld","3.3.5","2","y","0","right","right","right","right","NA","1285","75721","12795","1285","NA","2","legacy","5","1024","2","48000","-16","experiment","1","odd","6","297067","77742","293770","294825","2001","165916","294838","281385","2015","153120","299081","295853","300366","NA","299081","NA","Sternberg Task ","25","28862","34","yes","1024"
"71.42857142857143","71.42857142857143","841.0285714285715","841.0285714285715","black","experiment","legacy","legacy","legacy","0","uniform","0","undefined","0","right","34","0","34","34","0","0","34","34","0","0","34","34","34","NA","34","0","Fri Oct 23 19:29:49 2020","The main experiment item","yes","NA","SternbergTask.osexp","/Users/kaylaredder/Desktop/Tarleton /AdvancedQuant/Lab3","no","mono","no","18","no","white","no","yes","768","legacy","22","11","/Users/kaylaredder/Desktop/Tarleton /AdvancedQuant/Lab3/FR- subject-1.csv","legacy","8 6 3 4 7","Lentiform Loewenfeld","3.3.5","0","n","0","left","right","right","left","NA","574","75721","12795","574","NA","2","legacy","5","1024","2","48000","-16","experiment","1","odd","1","303686","77742","293770","301444","2001","165916","301456","300388","2015","153120","305698","302470","306272","NA","305698","NA","Sternberg Task ","25","29436","35","yes","1024"
"72.22222222222223","72.22222222222223","834.9166666666666","834.9166666666666","black","experiment","legacy","legacy","legacy","0","uniform","1","undefined","1","left","35","0","35","35","0","0","35","35","0","0","35","35","35","NA","35","0","Fri Oct 23 19:29:49 2020","The main experiment item","yes","NA","SternbergTask.osexp","/Users/kaylaredder/Desktop/Tarleton /AdvancedQuant/Lab3","no","mono","no","18","no","white","no","yes","768","legacy","23","11","/Users/kaylaredder/Desktop/Tarleton /AdvancedQuant/Lab3/FR- subject-1.csv","legacy","2 4 8 5 1 3","Lentiform Loewenfeld","3.3.5","1","y","0","left","right","right","left","NA","621","75721","12795","621","NA","2","legacy","6","1024","2","48000","-16","experiment","1","odd","2","309590","77742","293770","307347","2001","165916","307359","306292","2015","153120","311603","308373","312224","NA","311603","NA","Sternberg Task ","26","30057","36","yes","1024"
"70.27027027027027","70.27027027027027","837.7027027027027","837.7027027027027","black","experiment","legacy","legacy","legacy","0","uniform","0","undefined","0","left","36","0","36","36","0","0","36","36","0","0","36","36","36","NA","36","0","Fri Oct 23 19:29:49 2020","The main experiment item","yes","NA","SternbergTask.osexp","/Users/kaylaredder/Desktop/Tarleton /AdvancedQuant/Lab3","no","mono","no","18","no","white","no","yes","768","legacy","24","11","/Users/kaylaredder/Desktop/Tarleton /AdvancedQuant/Lab3/FR- subject-1.csv","legacy","4 7 6 8 2 3","Lentiform Loewenfeld","3.3.5","6","y","0","right","right","right","right","NA","938","75721","12795","938","NA","2","legacy","6","1024","2","48000","-16","experiment","1","odd","3","315544","77742","312245","313302","2001","165916","313314","306292","2015","153120","317557","314329","318495","NA","317557","NA","Sternberg Task ","26","30995","37","yes","1024"
"71.05263157894737","71.05263157894737","833.1315789473684","833.1315789473684","black","experiment","legacy","legacy","legacy","0","uniform","1","undefined","1","right","37","0","37","37","0","0","37","37","0","0","37","37","37","NA","37","0","Fri Oct 23 19:29:49 2020","The main experiment item","yes","NA","SternbergTask.osexp","/Users/kaylaredder/Desktop/Tarleton /AdvancedQuant/Lab3","no","mono","no","18","no","white","no","yes","768","legacy","25","11","/Users/kaylaredder/Desktop/Tarleton /AdvancedQuant/Lab3/FR- subject-1.csv","legacy","8 4 3 9","Lentiform Loewenfeld","3.3.5","0","n","0","right","right","right","right","NA","664","75721","12795","664","NA","2","legacy","4","1024","2","48000","-16","experiment","1","odd","5","321816","77742","312245","319572","2001","165916","319585","318517","2015","153120","323829","320600","324494","NA","323829","NA","Sternberg Task ","27","31659","38","yes","1024"
"69.23076923076923","69.23076923076923","825.7435897435897","825.7435897435897","black","experiment","legacy","legacy","legacy","0","uniform","0","undefined","0","left","38","0","38","38","0","0","38","38","0","0","38","38","38","NA","38","0","Fri Oct 23 19:29:49 2020","The main experiment item","yes","NA","SternbergTask.osexp","/Users/kaylaredder/Desktop/Tarleton /AdvancedQuant/Lab3","no","mono","no","18","no","white","no","yes","768","legacy","26","11","/Users/kaylaredder/Desktop/Tarleton /AdvancedQuant/Lab3/FR- subject-1.csv","legacy","6 1 2","Lentiform Loewenfeld","3.3.5","3","y","0","right","right","right","right","NA","545","75721","12795","545","NA","2","legacy","3","1024","2","48000","-16","experiment","1","odd","2","327815","77742","324515","325572","2001","165916","325584","318517","2015","153120","329828","326599","330374","NA","329828","NA","Sternberg Task ","27","32204","39","yes","1024"
"70","70","823.575","823.575","black","experiment","legacy","legacy","legacy","0","uniform","1","undefined","1","right","39","0","39","39","0","0","39","39","0","0","39","39","39","NA","39","0","Fri Oct 23 19:29:49 2020","The main experiment item","yes","NA","SternbergTask.osexp","/Users/kaylaredder/Desktop/Tarleton /AdvancedQuant/Lab3","no","mono","no","18","no","white","no","yes","768","legacy","27","11","/Users/kaylaredder/Desktop/Tarleton /AdvancedQuant/Lab3/FR- subject-1.csv","legacy","2 8 9","Lentiform Loewenfeld","3.3.5","0","n","0","right","right","right","right","NA","739","75721","12795","739","NA","2","legacy","3","1024","2","48000","-16","experiment","1","odd","6","333693","77742","324515","331450","2001","165916","331462","330394","2015","153120","335706","332476","336446","NA","335706","NA","Sternberg Task ","28","32943","40","yes","1024"
"70.73170731707317","70.73170731707317","828.0243902439024","828.0243902439024","black","experiment","legacy","legacy","legacy","0","uniform","1","undefined","1","right","40","0","40","40","0","0","40","40","0","0","40","40","40","NA","40","0","Fri Oct 23 19:29:49 2020","The main experiment item","yes","NA","SternbergTask.osexp","/Users/kaylaredder/Desktop/Tarleton /AdvancedQuant/Lab3","no","mono","no","18","no","white","no","yes","768","legacy","28","11","/Users/kaylaredder/Desktop/Tarleton /AdvancedQuant/Lab3/FR- subject-1.csv","legacy","7 6 4 8 1 2","Lentiform Loewenfeld","3.3.5","0","n","0","right","right","right","right","NA","1006","75721","12795","1006","NA","2","legacy","6","1024","2","48000","-16","experiment","1","odd","9","339765","77742","336467","337523","2001","165916","337535","330394","2015","153120","341779","338549","342786","NA","341779","NA","Sternberg Task ","29","33949","41","yes","1024"
"71.42857142857143","71.42857142857143","826.3333333333334","826.3333333333334","black","experiment","legacy","legacy","legacy","0","uniform","1","undefined","1","right","41","0","41","41","0","0","41","41","0","0","41","41","41","NA","41","0","Fri Oct 23 19:29:49 2020","The main experiment item","yes","NA","SternbergTask.osexp","/Users/kaylaredder/Desktop/Tarleton /AdvancedQuant/Lab3","no","mono","no","18","no","white","no","yes","768","legacy","29","11","/Users/kaylaredder/Desktop/Tarleton /AdvancedQuant/Lab3/FR- subject-1.csv","legacy","1 4 3 6 5","Lentiform Loewenfeld","3.3.5","0","n","0","right","right","right","right","NA","757","75721","12795","757","NA","2","legacy","5","1024","2","48000","-16","experiment","1","odd","8","346107","77742","342809","343865","2001","165916","343877","330394","2015","153120","348121","344892","348879","NA","348120","NA","Sternberg Task ","30","34706","42","yes","1024"
"72.09302325581395","72.09302325581395","825.953488372093","825.953488372093","black","experiment","legacy","legacy","legacy","0","uniform","1","undefined","1","right","42","0","42","42","0","0","42","42","0","0","42","42","42","NA","42","0","Fri Oct 23 19:29:49 2020","The main experiment item","yes","NA","SternbergTask.osexp","/Users/kaylaredder/Desktop/Tarleton /AdvancedQuant/Lab3","no","mono","no","18","no","white","no","yes","768","legacy","30","11","/Users/kaylaredder/Desktop/Tarleton /AdvancedQuant/Lab3/FR- subject-1.csv","legacy","7 4 2 8 1 9","Lentiform Loewenfeld","3.3.5","0","n","0","right","right","right","right","NA","810","75721","12795","810","NA","2","legacy","6","1024","2","48000","-16","experiment","1","odd","5","352198","77742","348900","349955","2001","165916","349967","330394","2015","153120","354211","350982","355022","NA","354211","NA","Sternberg Task ","31","35516","43","yes","1024"
"70.45454545454545","70.45454545454545","824.1136363636364","824.1136363636364","black","experiment","legacy","legacy","legacy","0","uniform","0","undefined","0","left","43","0","43","43","0","0","43","43","0","0","43","43","43","NA","43","0","Fri Oct 23 19:29:49 2020","The main experiment item","yes","NA","SternbergTask.osexp","/Users/kaylaredder/Desktop/Tarleton /AdvancedQuant/Lab3","no","mono","no","18","no","white","no","yes","768","legacy","31","11","/Users/kaylaredder/Desktop/Tarleton /AdvancedQuant/Lab3/FR- subject-1.csv","legacy","8 9 5 7 1 6","Lentiform Loewenfeld","3.3.5","4","y","0","right","right","right","right","NA","745","75721","12795","745","NA","2","legacy","6","1024","2","48000","-16","experiment","1","odd","7","358394","77742","355043","356148","2001","165916","356165","330394","2015","153120","360407","357179","361153","NA","360407","NA","Sternberg Task ","31","36261","44","yes","1024"
"71.11111111111111","71.11111111111111","813.7111111111111","813.7111111111111","black","experiment","legacy","legacy","legacy","0","uniform","1","undefined","1","left","44","0","44","44","0","0","44","44","0","0","44","44","44","NA","44","0","Fri Oct 23 19:29:49 2020","The main experiment item","yes","NA","SternbergTask.osexp","/Users/kaylaredder/Desktop/Tarleton /AdvancedQuant/Lab3","no","mono","no","18","no","white","no","yes","768","legacy","32","11","/Users/kaylaredder/Desktop/Tarleton /AdvancedQuant/Lab3/FR- subject-1.csv","legacy","7 8 4 6 9 5","Lentiform Loewenfeld","3.3.5","4","y","0","left","right","right","left","NA","356","75721","12795","356","NA","2","legacy","6","1024","2","48000","-16","experiment","1","odd","6","364472","77742","355043","362228","2001","165916","362241","361173","2015","153120","366485","363256","366842","NA","366485","NA","Sternberg Task ","32","36617","45","yes","1024"
"69.56521739130434","69.56521739130434","813.9782608695652","813.9782608695652","black","experiment","legacy","legacy","legacy","0","uniform","0","undefined","0","left","45","0","45","45","0","0","45","45","0","0","45","45","45","NA","45","0","Fri Oct 23 19:29:49 2020","The main experiment item","yes","NA","SternbergTask.osexp","/Users/kaylaredder/Desktop/Tarleton /AdvancedQuant/Lab3","no","mono","no","18","no","white","no","yes","768","legacy","33","11","/Users/kaylaredder/Desktop/Tarleton /AdvancedQuant/Lab3/FR- subject-1.csv","legacy","3 9 6 2","Lentiform Loewenfeld","3.3.5","4","y","0","right","right","right","right","NA","826","75721","12795","826","NA","2","legacy","4","1024","2","48000","-16","experiment","1","odd","2","370161","77742","366862","367919","2001","165916","367931","361173","2015","153120","372175","368945","373002","NA","372175","NA","Sternberg Task ","32","37443","46","yes","1024"
"70.2127659574468","70.2127659574468","811.6808510638298","811.6808510638298","black","experiment","legacy","legacy","legacy","0","uniform","1","undefined","1","left","46","0","46","46","0","0","46","46","0","0","46","46","46","NA","46","0","Fri Oct 23 19:29:49 2020","The main experiment item","yes","NA","SternbergTask.osexp","/Users/kaylaredder/Desktop/Tarleton /AdvancedQuant/Lab3","no","mono","no","18","no","white","no","yes","768","legacy","34","11","/Users/kaylaredder/Desktop/Tarleton /AdvancedQuant/Lab3/FR- subject-1.csv","legacy","9 1 6 7 8","Lentiform Loewenfeld","3.3.5","1","y","0","left","right","right","left","NA","706","75721","12795","706","NA","2","legacy","5","1024","2","48000","-16","experiment","1","odd","9","376323","77742","366862","374080","2001","165916","374093","373024","2015","153120","378337","375107","379043","NA","378337","NA","Sternberg Task ","33","38149","47","yes","1024"
"70.83333333333333","70.83333333333333","806.375","806.375","black","experiment","legacy","legacy","legacy","0","uniform","1","undefined","1","left","47","0","47","47","0","0","47","47","0","0","47","47","47","NA","47","0","Fri Oct 23 19:29:49 2020","The main experiment item","yes","NA","SternbergTask.osexp","/Users/kaylaredder/Desktop/Tarleton /AdvancedQuant/Lab3","no","mono","no","18","no","white","no","yes","768","legacy","35","11","/Users/kaylaredder/Desktop/Tarleton /AdvancedQuant/Lab3/FR- subject-1.csv","legacy","9 1 7 2","Lentiform Loewenfeld","3.3.5","2","y","0","left","right","right","left","NA","557","75721","12795","557","NA","2","legacy","4","1024","2","48000","-16","experiment","1","odd","1","382361","77742","379064","380119","2001","165916","380131","373024","2015","153120","384375","381145","384932","NA","384375","NA","Sternberg Task ","34","38706","48","yes","1024"
"71.42857142857143","71.42857142857143","802.7755102040817","802.7755102040817","black","experiment","legacy","legacy","legacy","0","uniform","1","undefined","1","left","48","0","48","48","0","0","48","48","0","0","48","48","48","NA","48","0","Fri Oct 23 19:29:49 2020","The main experiment item","yes","NA","SternbergTask.osexp","/Users/kaylaredder/Desktop/Tarleton /AdvancedQuant/Lab3","no","mono","no","18","no","white","no","yes","768","legacy","36","11","/Users/kaylaredder/Desktop/Tarleton /AdvancedQuant/Lab3/FR- subject-1.csv","legacy","8 9 6 1","Lentiform Loewenfeld","3.3.5","2","y","0","left","right","right","left","NA","630","75721","12795","630","NA","2","legacy","4","1024","2","48000","-16","experiment","1","odd","9","388250","77742","384953","386008","2001","165916","386020","373024","2015","153120","390263","387034","390894","NA","390263","NA","Sternberg Task ","35","39336","49","yes","1024"
"72","72","798.5","798.5","black","experiment","legacy","legacy","legacy","0","uniform","1","undefined","1","left","49","0","49","49","0","0","49","49","0","0","49","49","49","NA","49","0","Fri Oct 23 19:29:49 2020","The main experiment item","yes","NA","SternbergTask.osexp","/Users/kaylaredder/Desktop/Tarleton /AdvancedQuant/Lab3","no","mono","no","18","no","white","no","yes","768","legacy","37","11","/Users/kaylaredder/Desktop/Tarleton /AdvancedQuant/Lab3/FR- subject-1.csv","legacy","8 9 5 6 7","Lentiform Loewenfeld","3.3.5","1","y","0","left","right","right","left","NA","589","75721","12795","589","NA","2","legacy","5","1024","2","48000","-16","experiment","1","odd","8","394213","77742","390915","391970","2001","165916","391983","373024","2015","153120","396227","392998","396817","NA","396227","NA","Sternberg Task ","36","39925","50","yes","1024"
"70.58823529411765","70.58823529411765","795.4509803921569","795.4509803921569","black","experiment","legacy","legacy","legacy","0","uniform","0","undefined","0","right","50","0","50","50","0","0","50","50","0","0","50","50","50","NA","50","0","Fri Oct 23 19:29:49 2020","The main experiment item","yes","NA","SternbergTask.osexp","/Users/kaylaredder/Desktop/Tarleton /AdvancedQuant/Lab3","no","mono","no","18","no","white","no","yes","768","legacy","38","11","/Users/kaylaredder/Desktop/Tarleton /AdvancedQuant/Lab3/FR- subject-1.csv","legacy","2 3 8 5 6 7","Lentiform Loewenfeld","3.3.5","0","n","0","left","right","right","left","NA","643","75721","12795","643","NA","2","legacy","6","1024","2","48000","-16","experiment","1","odd","1","400136","77742","396838","397893","2001","165916","397905","373024","2015","153120","402149","398921","402793","NA","402149","NA","Sternberg Task ","36","40568","51","yes","1024"
"71.15384615384616","71.15384615384616","790.2115384615385","790.2115384615385","black","experiment","legacy","legacy","legacy","0","uniform","1","undefined","1","left","51","0","51","51","0","0","51","51","0","0","51","51","51","NA","51","0","Fri Oct 23 19:29:49 2020","The main experiment item","yes","NA","SternbergTask.osexp","/Users/kaylaredder/Desktop/Tarleton /AdvancedQuant/Lab3","no","mono","no","18","no","white","no","yes","768","legacy","39","11","/Users/kaylaredder/Desktop/Tarleton /AdvancedQuant/Lab3/FR- subject-1.csv","legacy","7 2 3","Lentiform Loewenfeld","3.3.5","3","y","0","left","right","right","left","NA","523","75721","12795","523","NA","2","legacy","3","1024","2","48000","-16","experiment","1","odd","3","406115","77742","396838","403872","2001","165916","403885","402816","2015","153120","408129","404900","408653","NA","408129","NA","Sternberg Task ","37","41091","52","yes","1024"
"71.69811320754717","71.69811320754717","792.9811320754717","792.9811320754717","black","experiment","legacy","legacy","legacy","0","uniform","1","undefined","1","right","52","0","52","52","0","0","52","52","0","0","52","52","52","NA","52","0","Fri Oct 23 19:29:49 2020","The main experiment item","yes","NA","SternbergTask.osexp","/Users/kaylaredder/Desktop/Tarleton /AdvancedQuant/Lab3","no","mono","no","18","no","white","no","yes","768","legacy","40","11","/Users/kaylaredder/Desktop/Tarleton /AdvancedQuant/Lab3/FR- subject-1.csv","legacy","4 2 6 9","Lentiform Loewenfeld","3.3.5","0","n","0","right","right","right","right","NA","937","75721","12795","937","NA","2","legacy","4","1024","2","48000","-16","experiment","1","odd","7","411972","77742","408674","409730","2001","165916","409742","402816","2015","153120","413986","410756","414924","NA","413985","NA","Sternberg Task ","38","42028","53","yes","1024"
"70.37037037037037","70.37037037037037","786.7037037037037","786.7037037037037","black","experiment","legacy","legacy","legacy","0","uniform","0","undefined","0","right","53","0","53","53","0","0","53","53","0","0","53","53","53","NA","53","0","Fri Oct 23 19:29:49 2020","The main experiment item","yes","NA","SternbergTask.osexp","/Users/kaylaredder/Desktop/Tarleton /AdvancedQuant/Lab3","no","mono","no","18","no","white","no","yes","768","legacy","41","11","/Users/kaylaredder/Desktop/Tarleton /AdvancedQuant/Lab3/FR- subject-1.csv","legacy","8 5 4 2 9 6","Lentiform Loewenfeld","3.3.5","0","n","0","left","right","right","left","NA","454","75721","12795","454","NA","2","legacy","6","1024","2","48000","-16","experiment","1","odd","3","418269","77742","414946","416000","2001","165916","416013","402816","2015","153120","420282","417053","420737","NA","420282","NA","Sternberg Task ","38","42482","54","yes","1024"
"69.0909090909091","69.0909090909091","791.0727272727273","791.0727272727273","black","experiment","legacy","legacy","legacy","0","uniform","0","undefined","0","left","54","0","54","54","0","0","54","54","0","0","54","54","54","NA","54","0","Fri Oct 23 19:29:49 2020","The main experiment item","yes","NA","SternbergTask.osexp","/Users/kaylaredder/Desktop/Tarleton /AdvancedQuant/Lab3","no","mono","no","18","no","white","no","yes","768","legacy","42","11","/Users/kaylaredder/Desktop/Tarleton /AdvancedQuant/Lab3/FR- subject-1.csv","legacy","7 8 6 3 1","Lentiform Loewenfeld","3.3.5","5","y","0","right","right","right","right","NA","1027","75721","12795","1027","NA","2","legacy","5","1024","2","48000","-16","experiment","1","odd","1","424053","77742","414946","421810","2001","165916","421823","420754","2015","153120","426066","422837","427094","NA","426066","NA","Sternberg Task ","38","43509","55","yes","1024"
"67.85714285714286","67.85714285714286","793.8392857142857","793.8392857142857","black","experiment","legacy","legacy","legacy","0","uniform","0","undefined","0","left","55","0","55","55","0","0","55","55","0","0","55","55","55","NA","55","0","Fri Oct 23 19:29:49 2020","The main experiment item","yes","NA","SternbergTask.osexp","/Users/kaylaredder/Desktop/Tarleton /AdvancedQuant/Lab3","no","mono","no","18","no","white","no","yes","768","legacy","43","11","/Users/kaylaredder/Desktop/Tarleton /AdvancedQuant/Lab3/FR- subject-1.csv","legacy","5 2 6","Lentiform Loewenfeld","3.3.5","2","y","0","right","right","right","right","NA","946","75721","12795","946","NA","2","legacy","3","1024","2","48000","-16","experiment","1","odd","2","430414","77742","414946","428172","2001","165916","428184","427116","2015","153120","432428","429198","433375","NA","432428","NA","Sternberg Task ","38","44455","56","yes","1024"
"68.42105263157895","68.42105263157895","803.1578947368421","803.1578947368421","black","experiment","legacy","legacy","legacy","0","uniform","1","undefined","1","left","56","0","56","56","0","0","56","56","0","0","56","56","56","NA","56","0","Fri Oct 23 19:29:49 2020","The main experiment item","yes","NA","SternbergTask.osexp","/Users/kaylaredder/Desktop/Tarleton /AdvancedQuant/Lab3","no","mono","no","18","no","white","no","yes","768","legacy","44","11","/Users/kaylaredder/Desktop/Tarleton /AdvancedQuant/Lab3/FR- subject-1.csv","legacy","4","Lentiform Loewenfeld","3.3.5","1","y","0","left","right","right","left","NA","1325","75721","12795","1325","NA","2","legacy","1","1024","2","48000","-16","experiment","1","odd","4","436696","77742","414946","434452","2001","165916","434464","433397","2015","153120","438709","435478","440034","NA","438709","NA","Sternberg Task ","39","45780","57","yes","1024"
"67.24137931034483","67.24137931034483","802.2413793103449","802.2413793103449","black","experiment","legacy","legacy","legacy","0","uniform","0","undefined","0","left","57","0","57","57","0","0","57","57","0","0","57","57","57","NA","57","0","Fri Oct 23 19:29:49 2020","The main experiment item","yes","NA","SternbergTask.osexp","/Users/kaylaredder/Desktop/Tarleton /AdvancedQuant/Lab3","no","mono","no","18","no","white","no","yes","768","legacy","45","11","/Users/kaylaredder/Desktop/Tarleton /AdvancedQuant/Lab3/FR- subject-1.csv","legacy","7 4 2 6 3 5","Lentiform Loewenfeld","3.3.5","6","y","0","right","right","right","right","NA","750","75721","12795","750","NA","2","legacy","6","1024","2","48000","-16","experiment","1","odd","5","443355","77742","440055","441111","2001","165916","441124","433397","2015","153120","445369","442139","446120","NA","445369","NA","Sternberg Task ","39","46530","58","yes","1024"
"66.10169491525424","66.10169491525424","809.7796610169491","809.7796610169491","black","experiment","legacy","legacy","legacy","0","uniform","0","undefined","0","left","58","0","58","58","0","0","58","58","0","0","58","58","58","NA","58","0","Fri Oct 23 19:29:49 2020","The main experiment item","yes","NA","SternbergTask.osexp","/Users/kaylaredder/Desktop/Tarleton /AdvancedQuant/Lab3","no","mono","no","18","no","white","no","yes","768","legacy","46","11","/Users/kaylaredder/Desktop/Tarleton /AdvancedQuant/Lab3/FR- subject-1.csv","legacy","5 2 9 6 1 7","Lentiform Loewenfeld","3.3.5","3","y","0","right","right","right","right","NA","1247","75721","12795","1247","NA","2","legacy","6","1024","2","48000","-16","experiment","1","odd","9","449439","77742","440055","447196","2001","165916","447208","446140","2015","153120","451452","448222","452699","NA","451452","NA","Sternberg Task ","39","47777","59","yes","1024"
"66.66666666666667","66.66666666666667","822","822","black","experiment","legacy","legacy","legacy","0","uniform","1","undefined","1","right","59","0","59","59","0","0","59","59","0","0","59","59","59","NA","59","0","Fri Oct 23 19:29:49 2020","The main experiment item","yes","NA","SternbergTask.osexp","/Users/kaylaredder/Desktop/Tarleton /AdvancedQuant/Lab3","no","mono","no","18","no","white","no","yes","768","legacy","47","11","/Users/kaylaredder/Desktop/Tarleton /AdvancedQuant/Lab3/FR- subject-1.csv","legacy","1 7 8 3 9","Lentiform Loewenfeld","3.3.5","0","n","0","right","right","right","right","NA","1543","75721","12795","1543","NA","2","legacy","5","1024","2","48000","-16","experiment","1","odd","2","456017","77742","440055","453775","2001","165916","453788","452720","2015","153120","458031","454802","459574","NA","458030","NA","Sternberg Task ","40","49320","60","yes","1024"
"67.21311475409836","67.21311475409836","832.360655737705","832.360655737705","black","experiment","legacy","legacy","legacy","0","uniform","1","undefined","1","left","60","0","60","60","0","0","60","60","0","0","60","60","60","NA","60","0","Fri Oct 23 19:29:49 2020","The main experiment item","yes","NA","SternbergTask.osexp","/Users/kaylaredder/Desktop/Tarleton /AdvancedQuant/Lab3","no","mono","no","18","no","white","no","yes","768","legacy","48","11","/Users/kaylaredder/Desktop/Tarleton /AdvancedQuant/Lab3/FR- subject-1.csv","legacy","3 2 1 4 7","Lentiform Loewenfeld","3.3.5","2","y","0","left","right","right","left","NA","1454","75721","12795","1454","NA","2","legacy","5","1024","2","48000","-16","experiment","1","odd","2","462894","77742","459596","460652","2001","165916","460664","452720","2015","153120","464907","461678","466361","NA","464907","NA","Sternberg Task ","41","50774","61","yes","1024"
"66.12903225806451","66.12903225806451","830.6290322580645","830.6290322580645","black","experiment","legacy","legacy","legacy","0","uniform","0","undefined","0","left","61","0","61","61","0","0","61","61","0","0","61","61","61","NA","61","0","Fri Oct 23 19:29:49 2020","The main experiment item","yes","NA","SternbergTask.osexp","/Users/kaylaredder/Desktop/Tarleton /AdvancedQuant/Lab3","no","mono","no","18","no","white","no","yes","768","legacy","49","11","/Users/kaylaredder/Desktop/Tarleton /AdvancedQuant/Lab3/FR- subject-1.csv","legacy","8 5 1 3 9","Lentiform Loewenfeld","3.3.5","4","y","0","right","right","right","right","NA","725","75721","12795","725","NA","2","legacy","5","1024","2","48000","-16","experiment","1","odd","3","469681","77742","466382","467437","2001","165916","467450","452720","2015","153120","471695","468464","472421","NA","471695","NA","Sternberg Task ","41","51499","62","yes","1024"
"66.66666666666667","66.66666666666667","830.2222222222222","830.2222222222222","black","experiment","legacy","legacy","legacy","0","uniform","1","undefined","1","right","62","0","62","62","0","0","62","62","0","0","62","62","62","NA","62","0","Fri Oct 23 19:29:49 2020","The main experiment item","yes","NA","SternbergTask.osexp","/Users/kaylaredder/Desktop/Tarleton /AdvancedQuant/Lab3","no","mono","no","18","no","white","no","yes","768","legacy","50","11","/Users/kaylaredder/Desktop/Tarleton /AdvancedQuant/Lab3/FR- subject-1.csv","legacy","1 4 9 2 5","Lentiform Loewenfeld","3.3.5","0","n","0","right","right","right","right","NA","805","75721","12795","805","NA","2","legacy","5","1024","2","48000","-16","experiment","1","odd","7","475743","77742","466382","473499","2001","165916","473512","472443","2015","153120","477756","474526","478566","NA","477756","NA","Sternberg Task ","42","52304","63","yes","1024"
"65.625","65.625","829.671875","829.671875","black","experiment","legacy","legacy","legacy","0","uniform","0","undefined","0","right","63","0","63","63","0","0","63","63","0","0","63","63","63","NA","63","0","Fri Oct 23 19:29:49 2020","The main experiment item","yes","NA","SternbergTask.osexp","/Users/kaylaredder/Desktop/Tarleton /AdvancedQuant/Lab3","no","mono","no","18","no","white","no","yes","768","legacy","51","11","/Users/kaylaredder/Desktop/Tarleton /AdvancedQuant/Lab3/FR- subject-1.csv","legacy","1 7 5 2 9","Lentiform Loewenfeld","3.3.5","0","n","0","left","right","right","left","NA","795","75721","12795","795","NA","2","legacy","5","1024","2","48000","-16","experiment","1","odd","3","481902","77742","478604","479658","2001","165916","479671","472443","2015","153120","483916","480685","484712","NA","483916","NA","Sternberg Task ","42","53099","64","yes","1024"
"64.61538461538461","64.61538461538461","829.0307692307692","829.0307692307692","black","experiment","legacy","legacy","legacy","0","uniform","0","undefined","0","left","64","0","64","64","0","0","64","64","0","0","64","64","64","NA","64","0","Fri Oct 23 19:29:49 2020","The main experiment item","yes","NA","SternbergTask.osexp","/Users/kaylaredder/Desktop/Tarleton /AdvancedQuant/Lab3","no","mono","no","18","no","white","no","yes","768","legacy","52","11","/Users/kaylaredder/Desktop/Tarleton /AdvancedQuant/Lab3/FR- subject-1.csv","legacy","4 9 7 8 5 3","Lentiform Loewenfeld","3.3.5","4","y","0","right","right","right","right","NA","788","75721","12795","788","NA","2","legacy","6","1024","2","48000","-16","experiment","1","odd","8","488027","77742","478604","485788","2001","165916","485800","484733","2015","153120","490041","486812","490830","NA","490040","NA","Sternberg Task ","42","53887","65","yes","1024"
"65.15151515151516","65.15151515151516","833.3636363636364","833.3636363636364","black","experiment","legacy","legacy","legacy","0","uniform","1","undefined","1","left","65","0","65","65","0","0","65","65","0","0","65","65","65","NA","65","0","Fri Oct 23 19:29:49 2020","The main experiment item","yes","NA","SternbergTask.osexp","/Users/kaylaredder/Desktop/Tarleton /AdvancedQuant/Lab3","no","mono","no","18","no","white","no","yes","768","legacy","53","11","/Users/kaylaredder/Desktop/Tarleton /AdvancedQuant/Lab3/FR- subject-1.csv","legacy","7 6","Lentiform Loewenfeld","3.3.5","2","y","0","left","right","right","left","NA","1115","75721","12795","1115","NA","2","legacy","2","1024","2","48000","-16","experiment","1","odd","6","494149","77742","478604","491906","2001","165916","491919","490852","2015","153120","496163","492933","497279","NA","496163","NA","Sternberg Task ","43","55002","66","yes","1024"
"65.67164179104478","65.67164179104478","832.1641791044776","832.1641791044776","black","experiment","legacy","legacy","legacy","0","uniform","1","undefined","1","right","66","0","66","66","0","0","66","66","0","0","66","66","66","NA","66","0","Fri Oct 23 19:29:49 2020","The main experiment item","yes","NA","SternbergTask.osexp","/Users/kaylaredder/Desktop/Tarleton /AdvancedQuant/Lab3","no","mono","no","18","no","white","no","yes","768","legacy","54","11","/Users/kaylaredder/Desktop/Tarleton /AdvancedQuant/Lab3/FR- subject-1.csv","legacy","2 8 9 4 1","Lentiform Loewenfeld","3.3.5","0","n","0","right","right","right","right","NA","753","75721","12795","753","NA","2","legacy","5","1024","2","48000","-16","experiment","1","odd","5","500598","77742","497300","498355","2001","165916","498368","490852","2015","153120","502612","499382","503366","NA","502612","NA","Sternberg Task ","44","55755","67","yes","1024"
"64.70588235294117","64.70588235294117","830.4852941176471","830.4852941176471","black","experiment","legacy","legacy","legacy","0","uniform","0","undefined","0","left","67","0","67","67","0","0","67","67","0","0","67","67","67","NA","67","0","Fri Oct 23 19:29:49 2020","The main experiment item","yes","NA","SternbergTask.osexp","/Users/kaylaredder/Desktop/Tarleton /AdvancedQuant/Lab3","no","mono","no","18","no","white","no","yes","768","legacy","55","11","/Users/kaylaredder/Desktop/Tarleton /AdvancedQuant/Lab3/FR- subject-1.csv","legacy","3 5 7 1","Lentiform Loewenfeld","3.3.5","3","y","0","right","right","right","right","NA","718","75721","12795","718","NA","2","legacy","4","1024","2","48000","-16","experiment","1","odd","7","506685","77742","503386","504442","2001","165916","504454","490852","2015","153120","508699","505468","509418","NA","508699","NA","Sternberg Task ","44","56473","68","yes","1024"
"65.21739130434783","65.21739130434783","829.304347826087","829.304347826087","black","experiment","legacy","legacy","legacy","0","uniform","1","undefined","1","right","68","0","68","68","0","0","68","68","0","0","68","68","68","NA","68","0","Fri Oct 23 19:29:49 2020","The main experiment item","yes","NA","SternbergTask.osexp","/Users/kaylaredder/Desktop/Tarleton /AdvancedQuant/Lab3","no","mono","no","18","no","white","no","yes","768","legacy","56","11","/Users/kaylaredder/Desktop/Tarleton /AdvancedQuant/Lab3/FR- subject-1.csv","legacy","8 5 7 3 6","Lentiform Loewenfeld","3.3.5","0","n","0","right","right","right","right","NA","749","75721","12795","749","NA","2","legacy","5","1024","2","48000","-16","experiment","1","odd","9","512739","77742","503386","510494","2001","165916","510507","509438","2015","153120","514752","511522","515502","NA","514752","NA","Sternberg Task ","45","57222","69","yes","1024"
"65.71428571428571","65.71428571428571","827.2571428571429","827.2571428571429","black","experiment","legacy","legacy","legacy","0","uniform","1","undefined","1","right","69","0","69","69","0","0","69","69","0","0","69","69","69","NA","69","0","Fri Oct 23 19:29:49 2020","The main experiment item","yes","NA","SternbergTask.osexp","/Users/kaylaredder/Desktop/Tarleton /AdvancedQuant/Lab3","no","mono","no","18","no","white","no","yes","768","legacy","57","11","/Users/kaylaredder/Desktop/Tarleton /AdvancedQuant/Lab3/FR- subject-1.csv","legacy","2 8 6 3 1","Lentiform Loewenfeld","3.3.5","0","n","0","right","right","right","right","NA","686","75721","12795","686","NA","2","legacy","5","1024","2","48000","-16","experiment","1","odd","7","518823","77742","515524","516580","2001","165916","516593","509438","2015","153120","520838","517608","521524","NA","520838","NA","Sternberg Task ","46","57908","70","yes","1024"
"66.19718309859155","66.19718309859155","831.9577464788732","831.9577464788732","black","experiment","legacy","legacy","legacy","0","uniform","1","undefined","1","right","70","0","70","70","0","0","70","70","0","0","70","70","70","NA","70","0","Fri Oct 23 19:29:49 2020","The main experiment item","yes","NA","SternbergTask.osexp","/Users/kaylaredder/Desktop/Tarleton /AdvancedQuant/Lab3","no","mono","no","18","no","white","no","yes","768","legacy","58","11","/Users/kaylaredder/Desktop/Tarleton /AdvancedQuant/Lab3/FR- subject-1.csv","legacy","3 4 2","Lentiform Loewenfeld","3.3.5","0","n","0","right","right","right","right","NA","1161","75721","12795","1161","NA","2","legacy","3","1024","2","48000","-16","experiment","1","odd","5","524847","77742","521546","522603","2001","165916","522616","509438","2015","153120","526860","523631","528021","NA","526860","NA","Sternberg Task ","47","59069","71","yes","1024"
"65.27777777777777","65.27777777777777","829.0694444444445","829.0694444444445","black","experiment","legacy","legacy","legacy","0","uniform","0","undefined","0","left","71","0","71","71","0","0","71","71","0","0","71","71","71","NA","71","0","Fri Oct 23 19:29:49 2020","The main experiment item","yes","NA","SternbergTask.osexp","/Users/kaylaredder/Desktop/Tarleton /AdvancedQuant/Lab3","no","mono","no","18","no","white","no","yes","768","legacy","59","11","/Users/kaylaredder/Desktop/Tarleton /AdvancedQuant/Lab3/FR- subject-1.csv","legacy","8 1 6","Lentiform Loewenfeld","3.3.5","3","y","0","right","right","right","right","NA","624","75721","12795","624","NA","2","legacy","3","1024","2","48000","-16","experiment","1","odd","6","531342","77742","528042","529098","2001","165916","529111","509438","2015","153120","533356","530125","533981","NA","533355","NA","Sternberg Task ","47","59693","72","yes","1024"
"64.38356164383562","64.38356164383562","828.2191780821918","828.2191780821918","black","experiment","legacy","legacy","legacy","0","uniform","0","undefined","0","right","72","0","72","72","0","0","72","72","0","0","72","72","72","NA","72","0","Fri Oct 23 19:29:49 2020","The main experiment item","yes","NA","SternbergTask.osexp","/Users/kaylaredder/Desktop/Tarleton /AdvancedQuant/Lab3","no","mono","no","18","no","white","no","yes","768","legacy","60","11","/Users/kaylaredder/Desktop/Tarleton /AdvancedQuant/Lab3/FR- subject-1.csv","legacy","1 6 4","Lentiform Loewenfeld","3.3.5","0","n","0","left","right","right","left","NA","767","75721","12795","767","NA","2","legacy","3","1024","2","48000","-16","experiment","1","odd","7","537299","77742","528042","535056","2001","165916","535068","534001","2015","153120","539312","536083","540080","NA","539312","NA","Sternberg Task ","47","60460","73","yes","1024"
"64.86486486486487","64.86486486486487","828.0405405405405","828.0405405405405","black","experiment","legacy","legacy","legacy","0","uniform","1","undefined","1","right","73","0","73","73","0","0","73","73","0","0","73","73","73","NA","73","0","Fri Oct 23 19:29:49 2020","The main experiment item","yes","NA","SternbergTask.osexp","/Users/kaylaredder/Desktop/Tarleton /AdvancedQuant/Lab3","no","mono","no","18","no","white","no","yes","768","legacy","61","11","/Users/kaylaredder/Desktop/Tarleton /AdvancedQuant/Lab3/FR- subject-1.csv","legacy","1","Lentiform Loewenfeld","3.3.5","0","n","0","right","right","right","right","NA","815","75721","12795","815","NA","2","legacy","1","1024","2","48000","-16","experiment","1","odd","7","543399","77742","528042","541157","2001","165916","541169","540101","2015","153120","545413","542183","546229","NA","545413","NA","Sternberg Task ","48","61275","74","yes","1024"
"64","64","828.0533333333333","828.0533333333333","black","experiment","legacy","legacy","legacy","0","uniform","0","undefined","0","left","74","0","74","74","0","0","74","74","0","0","74","74","74","NA","74","0","Fri Oct 23 19:29:49 2020","The main experiment item","yes","NA","SternbergTask.osexp","/Users/kaylaredder/Desktop/Tarleton /AdvancedQuant/Lab3","no","mono","no","18","no","white","no","yes","768","legacy","62","11","/Users/kaylaredder/Desktop/Tarleton /AdvancedQuant/Lab3/FR- subject-1.csv","legacy","9 6 2 4 1","Lentiform Loewenfeld","3.3.5","4","y","0","right","right","right","right","NA","829","75721","12795","829","NA","2","legacy","5","1024","2","48000","-16","experiment","1","odd","4","549548","77742","546249","547304","2001","165916","547317","540101","2015","153120","551562","548331","552392","NA","551562","NA","Sternberg Task ","48","62104","75","yes","1024"
"63.1578947368421","63.1578947368421","826.1447368421053","826.1447368421053","black","experiment","legacy","legacy","legacy","0","uniform","0","undefined","0","left","75","0","75","75","0","0","75","75","0","0","75","75","75","NA","75","0","Fri Oct 23 19:29:49 2020","The main experiment item","yes","NA","SternbergTask.osexp","/Users/kaylaredder/Desktop/Tarleton /AdvancedQuant/Lab3","no","mono","no","18","no","white","no","yes","768","legacy","63","11","/Users/kaylaredder/Desktop/Tarleton /AdvancedQuant/Lab3/FR- subject-1.csv","legacy","2 8 5 1","Lentiform Loewenfeld","3.3.5","4","y","0","right","right","right","right","NA","683","75721","12795","683","NA","2","legacy","4","1024","2","48000","-16","experiment","1","odd","1","555711","77742","546249","553470","2001","165916","553482","552414","2015","153120","557725","554496","558409","NA","557725","NA","Sternberg Task ","48","62787","76","yes","1024"
"62.33766233766234","62.33766233766234","826.5324675324675","826.5324675324675","black","experiment","legacy","legacy","legacy","0","uniform","0","undefined","0","right","76","0","76","76","0","0","76","76","0","0","76","76","76","NA","76","0","Fri Oct 23 19:29:49 2020","The main experiment item","yes","NA","SternbergTask.osexp","/Users/kaylaredder/Desktop/Tarleton /AdvancedQuant/Lab3","no","mono","no","18","no","white","no","yes","768","legacy","64","11","/Users/kaylaredder/Desktop/Tarleton /AdvancedQuant/Lab3/FR- subject-1.csv","legacy","7 1","Lentiform Loewenfeld","3.3.5","0","n","0","left","right","right","left","NA","856","75721","12795","856","NA","2","legacy","2","1024","2","48000","-16","experiment","1","odd","8","561730","77742","546249","559486","2001","165916","559499","558430","2015","153120","563743","560513","564600","NA","563743","NA","Sternberg Task ","48","63643","77","yes","1024"
"62.82051282051282","62.82051282051282","830.1538461538462","830.1538461538462","black","experiment","legacy","legacy","legacy","0","uniform","1","undefined","1","right","77","0","77","77","0","0","77","77","0","0","77","77","77","NA","77","0","Fri Oct 23 19:29:49 2020","The main experiment item","yes","NA","SternbergTask.osexp","/Users/kaylaredder/Desktop/Tarleton /AdvancedQuant/Lab3","no","mono","no","18","no","white","no","yes","768","legacy","65","11","/Users/kaylaredder/Desktop/Tarleton /AdvancedQuant/Lab3/FR- subject-1.csv","legacy","3 9 1","Lentiform Loewenfeld","3.3.5","0","n","0","right","right","right","right","NA","1109","75721","12795","1109","NA","2","legacy","3","1024","2","48000","-16","experiment","1","odd","7","567919","77742","546249","565676","2001","165916","565689","564621","2015","153120","569933","566703","571043","NA","569933","NA","Sternberg Task ","49","64752","78","yes","1024"
"62.0253164556962","62.0253164556962","829.379746835443","829.379746835443","black","experiment","legacy","legacy","legacy","0","uniform","0","undefined","0","left","78","0","78","78","0","0","78","78","0","0","78","78","78","NA","78","0","Fri Oct 23 19:29:49 2020","The main experiment item","yes","NA","SternbergTask.osexp","/Users/kaylaredder/Desktop/Tarleton /AdvancedQuant/Lab3","no","mono","no","18","no","white","no","yes","768","legacy","66","11","/Users/kaylaredder/Desktop/Tarleton /AdvancedQuant/Lab3/FR- subject-1.csv","legacy","8 3","Lentiform Loewenfeld","3.3.5","2","y","0","right","right","right","right","NA","769","75721","12795","769","NA","2","legacy","2","1024","2","48000","-16","experiment","1","odd","3","574361","77742","571064","572119","2001","165916","572131","564621","2015","153120","576375","573146","577145","NA","576375","NA","Sternberg Task ","49","65521","79","yes","1024"
"62.5","62.5","829.7125","829.7125","black","experiment","legacy","legacy","legacy","0","uniform","1","undefined","1","right","79","0","79","79","0","0","79","79","0","0","79","79","79","NA","79","0","Fri Oct 23 19:29:49 2020","The main experiment item","yes","NA","SternbergTask.osexp","/Users/kaylaredder/Desktop/Tarleton /AdvancedQuant/Lab3","no","mono","no","18","no","white","no","yes","768","legacy","67","11","/Users/kaylaredder/Desktop/Tarleton /AdvancedQuant/Lab3/FR- subject-1.csv","legacy","7 9","Lentiform Loewenfeld","3.3.5","0","n","0","right","right","right","right","NA","856","75721","12795","856","NA","2","legacy","2","1024","2","48000","-16","experiment","1","odd","1","580465","77742","571064","578222","2001","165916","578234","577165","2015","153120","582479","579248","583336","NA","582478","NA","Sternberg Task ","50","66377","80","yes","1024"
"62.96296296296296","62.96296296296296","832.679012345679","832.679012345679","black","experiment","legacy","legacy","legacy","0","uniform","1","undefined","1","left","80","0","80","80","0","0","80","80","0","0","80","80","80","NA","80","0","Fri Oct 23 19:29:49 2020","The main experiment item","yes","NA","SternbergTask.osexp","/Users/kaylaredder/Desktop/Tarleton /AdvancedQuant/Lab3","no","mono","no","18","no","white","no","yes","768","legacy","68","11","/Users/kaylaredder/Desktop/Tarleton /AdvancedQuant/Lab3/FR- subject-1.csv","legacy","4 1 5","Lentiform Loewenfeld","3.3.5","2","y","0","left","right","right","left","NA","1070","75721","12795","1070","NA","2","legacy","3","1024","2","48000","-16","experiment","1","odd","1","586656","77742","583357","584412","2001","165916","584424","577165","2015","153120","588670","585439","589741","NA","588669","NA","Sternberg Task ","51","67447","81","yes","1024"
"63.41463414634146","63.41463414634146","834.390243902439","834.390243902439","black","experiment","legacy","legacy","legacy","0","uniform","1","undefined","1","right","81","0","81","81","0","0","81","81","0","0","81","81","81","NA","81","0","Fri Oct 23 19:29:49 2020","The main experiment item","yes","NA","SternbergTask.osexp","/Users/kaylaredder/Desktop/Tarleton /AdvancedQuant/Lab3","no","mono","no","18","no","white","no","yes","768","legacy","69","11","/Users/kaylaredder/Desktop/Tarleton /AdvancedQuant/Lab3/FR- subject-1.csv","legacy","2 5 1 4","Lentiform Loewenfeld","3.3.5","0","n","0","right","right","right","right","NA","973","75721","12795","973","NA","2","legacy","4","1024","2","48000","-16","experiment","1","odd","6","593061","77742","589762","590817","2001","165916","590830","577165","2015","153120","595075","591845","596049","NA","595075","NA","Sternberg Task ","52","68420","82","yes","1024"
"63.855421686746986","63.855421686746986","836.566265060241","836.566265060241","black","experiment","legacy","legacy","legacy","0","uniform","1","undefined","1","left","82","0","82","82","0","0","82","82","0","0","82","82","82","NA","82","0","Fri Oct 23 19:29:49 2020","The main experiment item","yes","NA","SternbergTask.osexp","/Users/kaylaredder/Desktop/Tarleton /AdvancedQuant/Lab3","no","mono","no","18","no","white","no","yes","768","legacy","70","11","/Users/kaylaredder/Desktop/Tarleton /AdvancedQuant/Lab3/FR- subject-1.csv","legacy","1 4 9 3 2 5","Lentiform Loewenfeld","3.3.5","3","y","0","left","right","right","left","NA","1015","75721","12795","1015","NA","2","legacy","6","1024","2","48000","-16","experiment","1","odd","9","599369","77742","596069","597126","2001","165916","597139","577165","2015","153120","601383","598154","602399","NA","601383","NA","Sternberg Task ","53","69435","83","yes","1024"
"64.28571428571429","64.28571428571429","844.4642857142857","844.4642857142857","black","experiment","legacy","legacy","legacy","0","uniform","1","undefined","1","left","83","0","83","83","0","0","83","83","0","0","83","83","83","NA","83","0","Fri Oct 23 19:29:49 2020","The main experiment item","yes","NA","SternbergTask.osexp","/Users/kaylaredder/Desktop/Tarleton /AdvancedQuant/Lab3","no","mono","no","18","no","white","no","yes","768","legacy","71","11","/Users/kaylaredder/Desktop/Tarleton /AdvancedQuant/Lab3/FR- subject-1.csv","legacy","9 3 8 2 1 4","Lentiform Loewenfeld","3.3.5","3","y","0","left","right","right","left","NA","1500","75721","12795","1500","NA","2","legacy","6","1024","2","48000","-16","experiment","1","odd","8","605718","77742","602420","603475","2001","165916","603487","577165","2015","153120","607732","604501","609233","NA","607732","NA","Sternberg Task ","54","70935","84","yes","1024"
"64.70588235294117","64.70588235294117","849.6117647058824","849.6117647058824","black","experiment","legacy","legacy","legacy","0","uniform","1","undefined","1","right","84","0","84","84","0","0","84","84","0","0","84","84","84","NA","84","0","Fri Oct 23 19:29:49 2020","The main experiment item","yes","NA","SternbergTask.osexp","/Users/kaylaredder/Desktop/Tarleton /AdvancedQuant/Lab3","no","mono","no","18","no","white","no","yes","768","legacy","72","11","/Users/kaylaredder/Desktop/Tarleton /AdvancedQuant/Lab3/FR- subject-1.csv","legacy","6 7 5 9","Lentiform Loewenfeld","3.3.5","0","n","0","right","right","right","right","NA","1282","75721","12795","1282","NA","2","legacy","4","1024","2","48000","-16","experiment","1","odd","2","612551","77742","609255","610310","2001","165916","610322","577165","2015","153120","614566","611336","615849","NA","614565","NA","Sternberg Task ","55","72217","85","yes","1024"
"65.11627906976744","65.11627906976744","853.6279069767442","853.6279069767442","black","experiment","legacy","legacy","legacy","0","uniform","1","undefined","1","right","85","0","85","85","0","0","85","85","0","0","85","85","85","NA","85","0","Fri Oct 23 19:29:49 2020","The main experiment item","yes","NA","SternbergTask.osexp","/Users/kaylaredder/Desktop/Tarleton /AdvancedQuant/Lab3","no","mono","no","18","no","white","no","yes","768","legacy","73","11","/Users/kaylaredder/Desktop/Tarleton /AdvancedQuant/Lab3/FR- subject-1.csv","legacy","1 8 7","Lentiform Loewenfeld","3.3.5","0","n","0","right","right","right","right","NA","1195","75721","12795","1195","NA","2","legacy","3","1024","2","48000","-16","experiment","1","odd","4","619168","77742","615869","616925","2001","165916","616937","577165","2015","153120","621182","617951","622378","NA","621182","NA","Sternberg Task ","56","73412","86","yes","1024"
"64.36781609195403","64.36781609195403","858.735632183908","858.735632183908","black","experiment","legacy","legacy","legacy","0","uniform","0","undefined","0","right","86","0","86","86","0","0","86","86","0","0","86","86","86","NA","86","0","Fri Oct 23 19:29:49 2020","The main experiment item","yes","NA","SternbergTask.osexp","/Users/kaylaredder/Desktop/Tarleton /AdvancedQuant/Lab3","no","mono","no","18","no","white","no","yes","768","legacy","74","11","/Users/kaylaredder/Desktop/Tarleton /AdvancedQuant/Lab3/FR- subject-1.csv","legacy","9 5 3 2 8 6","Lentiform Loewenfeld","3.3.5","0","n","0","left","right","right","left","NA","1298","75721","12795","1298","NA","2","legacy","6","1024","2","48000","-16","experiment","1","odd","7","625700","77742","622399","623456","2001","165916","623468","577165","2015","153120","627713","624483","629012","NA","627713","NA","Sternberg Task ","56","74710","87","yes","1024"
"63.63636363636363","63.63636363636363","863.7272727272727","863.7272727272727","black","experiment","legacy","legacy","legacy","0","uniform","0","undefined","0","left","87","0","87","87","0","0","87","87","0","0","87","87","87","NA","87","0","Fri Oct 23 19:29:49 2020","The main experiment item","yes","NA","SternbergTask.osexp","/Users/kaylaredder/Desktop/Tarleton /AdvancedQuant/Lab3","no","mono","no","18","no","white","no","yes","768","legacy","75","11","/Users/kaylaredder/Desktop/Tarleton /AdvancedQuant/Lab3/FR- subject-1.csv","legacy","3 4 9 6 2 9","Lentiform Loewenfeld","3.3.5","5","y","0","right","right","right","right","NA","1298","75721","12795","1298","NA","2","legacy","6","1024","2","48000","-16","experiment","1","odd","2","632330","77742","622399","630088","2001","165916","630100","629033","2015","153120","634345","631115","635644","NA","634344","NA","Sternberg Task ","56","76008","88","yes","1024"
"62.92134831460674","62.92134831460674","862.685393258427","862.685393258427","black","experiment","legacy","legacy","legacy","0","uniform","0","undefined","0","left","88","0","88","88","0","0","88","88","0","0","88","88","88","NA","88","0","Fri Oct 23 19:29:49 2020","The main experiment item","yes","NA","SternbergTask.osexp","/Users/kaylaredder/Desktop/Tarleton /AdvancedQuant/Lab3","no","mono","no","18","no","white","no","yes","768","legacy","76","11","/Users/kaylaredder/Desktop/Tarleton /AdvancedQuant/Lab3/FR- subject-1.csv","legacy","5 7 3 6 2","Lentiform Loewenfeld","3.3.5","5","y","0","right","right","right","right","NA","771","75721","12795","771","NA","2","legacy","5","1024","2","48000","-16","experiment","1","odd","2","638961","77742","622399","636719","2001","165916","636731","635664","2015","153120","640975","637745","641747","NA","640975","NA","Sternberg Task ","56","76779","89","yes","1024"
"62.22222222222222","62.22222222222222","867.6","867.6","black","experiment","legacy","legacy","legacy","0","uniform","0","undefined","0","left","89","0","89","89","0","0","89","89","0","0","89","89","89","NA","89","0","Fri Oct 23 19:29:49 2020","The main experiment item","yes","NA","SternbergTask.osexp","/Users/kaylaredder/Desktop/Tarleton /AdvancedQuant/Lab3","no","mono","no","18","no","white","no","yes","768","legacy","77","11","/Users/kaylaredder/Desktop/Tarleton /AdvancedQuant/Lab3/FR- subject-1.csv","legacy","9 5 3 8 4","Lentiform Loewenfeld","3.3.5","1","y","0","right","right","right","right","NA","1305","75721","12795","1305","NA","2","legacy","5","1024","2","48000","-16","experiment","1","odd","9","645067","77742","622399","642824","2001","165916","642837","641769","2015","153120","647081","643851","648387","NA","647081","NA","Sternberg Task ","56","78084","90","yes","1024"
"61.53846153846154","61.53846153846154","865.6153846153846","865.6153846153846","black","experiment","legacy","legacy","legacy","0","uniform","0","undefined","0","left","90","0","90","90","0","0","90","90","0","0","90","90","90","NA","90","0","Fri Oct 23 19:29:49 2020","The main experiment item","yes","NA","SternbergTask.osexp","/Users/kaylaredder/Desktop/Tarleton /AdvancedQuant/Lab3","no","mono","no","18","no","white","no","yes","768","legacy","78","11","/Users/kaylaredder/Desktop/Tarleton /AdvancedQuant/Lab3/FR- subject-1.csv","legacy","3 9 7 6 4","Lentiform Loewenfeld","3.3.5","3","y","0","right","right","right","right","NA","687","75721","12795","687","NA","2","legacy","5","1024","2","48000","-16","experiment","1","odd","7","651706","77742","622399","649463","2001","165916","649476","648408","2015","153120","653719","650491","654407","NA","653719","NA","Sternberg Task ","56","78771","91","yes","1024"
"61.95652173913044","61.95652173913044","866.2282608695652","866.2282608695652","black","experiment","legacy","legacy","legacy","0","uniform","1","undefined","1","right","91","0","91","91","0","0","91","91","0","0","91","91","91","NA","91","0","Fri Oct 23 19:29:49 2020","The main experiment item","yes","NA","SternbergTask.osexp","/Users/kaylaredder/Desktop/Tarleton /AdvancedQuant/Lab3","no","mono","no","18","no","white","no","yes","768","legacy","79","11","/Users/kaylaredder/Desktop/Tarleton /AdvancedQuant/Lab3/FR- subject-1.csv","legacy","7 3 2 8","Lentiform Loewenfeld","3.3.5","0","n","0","right","right","right","right","NA","922","75721","12795","922","NA","2","legacy","4","1024","2","48000","-16","experiment","1","odd","4","657726","77742","622399","655483","2001","165916","655495","654428","2015","153120","659740","656509","660663","NA","659740","NA","Sternberg Task ","57","79693","92","yes","1024"
"61.29032258064516","61.29032258064516","866.989247311828","866.989247311828","black","experiment","legacy","legacy","legacy","0","uniform","0","undefined","0","right","92","0","92","92","0","0","92","92","0","0","92","92","92","NA","92","0","Fri Oct 23 19:29:49 2020","The main experiment item","yes","NA","SternbergTask.osexp","/Users/kaylaredder/Desktop/Tarleton /AdvancedQuant/Lab3","no","mono","no","18","no","white","no","yes","768","legacy","80","11","/Users/kaylaredder/Desktop/Tarleton /AdvancedQuant/Lab3/FR- subject-1.csv","legacy","6 3 1 7 9 8","Lentiform Loewenfeld","3.3.5","0","n","0","left","right","right","left","NA","937","75721","12795","937","NA","2","legacy","6","1024","2","48000","-16","experiment","1","odd","4","663982","77742","660683","661739","2001","165916","661751","654428","2015","153120","665995","662766","666933","NA","665995","NA","Sternberg Task ","57","80630","93","yes","1024"
"61.702127659574465","61.702127659574465","865.6063829787234","865.6063829787234","black","experiment","legacy","legacy","legacy","0","uniform","1","undefined","1","left","93","0","93","93","0","0","93","93","0","0","93","93","93","NA","93","0","Fri Oct 23 19:29:49 2020","The main experiment item","yes","NA","SternbergTask.osexp","/Users/kaylaredder/Desktop/Tarleton /AdvancedQuant/Lab3","no","mono","no","18","no","white","no","yes","768","legacy","81","11","/Users/kaylaredder/Desktop/Tarleton /AdvancedQuant/Lab3/FR- subject-1.csv","legacy","2 3 7 4","Lentiform Loewenfeld","3.3.5","1","y","0","left","right","right","left","NA","737","75721","12795","737","NA","2","legacy","4","1024","2","48000","-16","experiment","1","odd","2","670251","77742","660683","668008","2001","165916","668020","666954","2015","153120","672265","669035","673003","NA","672264","NA","Sternberg Task ","58","81367","94","yes","1024"
"61.05263157894737","61.05263157894737","864.5052631578948","864.5052631578948","black","experiment","legacy","legacy","legacy","0","uniform","0","undefined","0","left","94","0","94","94","0","0","94","94","0","0","94","94","94","NA","94","0","Fri Oct 23 19:29:49 2020","The main experiment item","yes","NA","SternbergTask.osexp","/Users/kaylaredder/Desktop/Tarleton /AdvancedQuant/Lab3","no","mono","no","18","no","white","no","yes","768","legacy","82","11","/Users/kaylaredder/Desktop/Tarleton /AdvancedQuant/Lab3/FR- subject-1.csv","legacy","4 6 2 5 1","Lentiform Loewenfeld","3.3.5","5","y","0","right","right","right","right","NA","761","75721","12795","761","NA","2","legacy","5","1024","2","48000","-16","experiment","1","odd","1","676324","77742","673026","674081","2001","165916","674094","666954","2015","153120","678338","675109","679099","NA","678338","NA","Sternberg Task ","58","82128","95","yes","1024"
"61.458333333333336","61.458333333333336","863.4895833333334","863.4895833333334","black","experiment","legacy","legacy","legacy","0","uniform","1","undefined","1","right","95","0","95","95","0","0","95","95","0","0","95","95","95","NA","95","0","Fri Oct 23 19:29:49 2020","The main experiment item","yes","NA","SternbergTask.osexp","/Users/kaylaredder/Desktop/Tarleton /AdvancedQuant/Lab3","no","mono","no","18","no","white","no","yes","768","legacy","83","11","/Users/kaylaredder/Desktop/Tarleton /AdvancedQuant/Lab3/FR- subject-1.csv","legacy","9","Lentiform Loewenfeld","3.3.5","0","n","0","right","right","right","right","NA","767","75721","12795","767","NA","2","legacy","1","1024","2","48000","-16","experiment","1","odd","6","682420","77742","673026","680176","2001","165916","680189","679120","2015","153120","684434","681204","685202","NA","684433","NA","Sternberg Task ","59","82895","96","yes","1024"
"60.824742268041234","60.824742268041234","862.6907216494845","862.6907216494845","black","experiment","legacy","legacy","legacy","0","uniform","0","undefined","0","right","96","0","96","96","0","0","96","96","0","0","96","96","96","NA","96","0","Fri Oct 23 19:29:49 2020","The main experiment item","yes","NA","SternbergTask.osexp","/Users/kaylaredder/Desktop/Tarleton /AdvancedQuant/Lab3","no","mono","no","18","no","white","no","yes","768","legacy","84","11","/Users/kaylaredder/Desktop/Tarleton /AdvancedQuant/Lab3/FR- subject-1.csv","legacy","9 8 2 7 4","Lentiform Loewenfeld","3.3.5","0","n","0","left","right","right","left","NA","786","75721","12795","786","NA","2","legacy","5","1024","2","48000","-16","experiment","1","odd","5","688522","77742","685224","686280","2001","165916","686292","679120","2015","153120","690536","687306","691323","NA","690536","NA","Sternberg Task ","59","83681","97","yes","1024"
"61.224489795918366","61.224489795918366","864.6326530612245","864.6326530612245","black","experiment","legacy","legacy","legacy","0","uniform","1","undefined","1","left","97","0","97","97","0","0","97","97","0","0","97","97","97","NA","97","0","Fri Oct 23 19:29:49 2020","The main experiment item","yes","NA","SternbergTask.osexp","/Users/kaylaredder/Desktop/Tarleton /AdvancedQuant/Lab3","no","mono","no","18","no","white","no","yes","768","legacy","85","11","/Users/kaylaredder/Desktop/Tarleton /AdvancedQuant/Lab3/FR- subject-1.csv","legacy","7 1 3","Lentiform Loewenfeld","3.3.5","2","y","0","left","right","right","left","NA","1053","75721","12795","1053","NA","2","legacy","3","1024","2","48000","-16","experiment","1","odd","1","694641","77742","685224","692399","2001","165916","692411","691344","2015","153120","696655","693425","697709","NA","696654","NA","Sternberg Task ","60","84734","98","yes","1024"
"61.61616161616162","61.61616161616162","862.6363636363636","862.6363636363636","black","experiment","legacy","legacy","legacy","0","uniform","1","undefined","1","left","98","0","98","98","0","0","98","98","0","0","98","98","98","NA","98","0","Fri Oct 23 19:29:49 2020","The main experiment item","yes","NA","SternbergTask.osexp","/Users/kaylaredder/Desktop/Tarleton /AdvancedQuant/Lab3","no","mono","no","18","no","white","no","yes","768","legacy","86","11","/Users/kaylaredder/Desktop/Tarleton /AdvancedQuant/Lab3/FR- subject-1.csv","legacy","4 3 2 5 8","Lentiform Loewenfeld","3.3.5","2","y","0","left","right","right","left","NA","667","75721","12795","667","NA","2","legacy","5","1024","2","48000","-16","experiment","1","odd","3","701027","77742","697730","698785","2001","165916","698798","691344","2015","153120","703042","699812","703710","NA","703041","NA","Sternberg Task ","61","85401","99","yes","1024"
"62","62","860.93","860.93","black","experiment","legacy","legacy","legacy","0","uniform","1","undefined","1","left","99","0","99","99","0","0","99","99","0","0","99","99","99","NA","99","0","Fri Oct 23 19:29:49 2020","The main experiment item","yes","NA","SternbergTask.osexp","/Users/kaylaredder/Desktop/Tarleton /AdvancedQuant/Lab3","no","mono","no","18","no","white","no","yes","768","legacy","87","11","/Users/kaylaredder/Desktop/Tarleton /AdvancedQuant/Lab3/FR- subject-1.csv","legacy","7","Lentiform Loewenfeld","3.3.5","1","y","0","left","right","right","left","NA","692","75721","12795","692","NA","2","legacy","1","1024","2","48000","-16","experiment","1","odd","7","707029","77742","703732","704787","2001","165916","704799","691344","2015","153120","709044","705814","709737","NA","709044","NA","Sternberg Task ","62","86093","100","yes","1024"
"61.386138613861384","61.386138613861384","864.019801980198","864.019801980198","black","experiment","legacy","legacy","legacy","0","uniform","0","undefined","0","right","100","0","100","100","0","0","100","100","0","0","100","100","100","NA","100","0","Fri Oct 23 19:29:49 2020","The main experiment item","yes","NA","SternbergTask.osexp","/Users/kaylaredder/Desktop/Tarleton /AdvancedQuant/Lab3","no","mono","no","18","no","white","no","yes","768","legacy","88","11","/Users/kaylaredder/Desktop/Tarleton /AdvancedQuant/Lab3/FR- subject-1.csv","legacy","8 2 1 4 5 9","Lentiform Loewenfeld","3.3.5","0","n","0","left","right","right","left","NA","1173","75721","12795","1173","NA","2","legacy","6","1024","2","48000","-16","experiment","1","odd","7","713056","77742","709758","710814","2001","165916","710826","691344","2015","153120","715070","711841","716244","NA","715069","NA","Sternberg Task ","62","87266","101","yes","1024"
"61.76470588235294","61.76470588235294","868.0784313725491","868.0784313725491","black","experiment","legacy","legacy","legacy","0","uniform","1","undefined","1","right","101","0","101","101","0","0","101","101","0","0","101","101","101","NA","101","0","Fri Oct 23 19:29:49 2020","The main experiment item","yes","NA","SternbergTask.osexp","/Users/kaylaredder/Desktop/Tarleton /AdvancedQuant/Lab3","no","mono","no","18","no","white","no","yes","768","legacy","89","11","/Users/kaylaredder/Desktop/Tarleton /AdvancedQuant/Lab3/FR- subject-1.csv","legacy","9 7 4 5 8","Lentiform Loewenfeld","3.3.5","0","n","0","right","right","right","right","NA","1278","75721","12795","1278","NA","2","legacy","5","1024","2","48000","-16","experiment","1","odd","6","719567","77742","709758","717323","2001","165916","717335","716265","2015","153120","721581","718350","722860","NA","721581","NA","Sternberg Task ","63","88544","102","yes","1024"
"62.13592233009709","62.13592233009709","866.0485436893204","866.0485436893204","black","experiment","legacy","legacy","legacy","0","uniform","1","undefined","1","left","102","0","102","102","0","0","102","102","0","0","102","102","102","NA","102","0","Fri Oct 23 19:29:49 2020","The main experiment item","yes","NA","SternbergTask.osexp","/Users/kaylaredder/Desktop/Tarleton /AdvancedQuant/Lab3","no","mono","no","18","no","white","no","yes","768","legacy","90","11","/Users/kaylaredder/Desktop/Tarleton /AdvancedQuant/Lab3/FR- subject-1.csv","legacy","9 4 2","Lentiform Loewenfeld","3.3.5","1","y","0","left","right","right","left","NA","659","75721","12795","659","NA","2","legacy","3","1024","2","48000","-16","experiment","1","odd","9","726181","77742","722880","723937","2001","165916","723950","716265","2015","153120","728194","724964","728854","NA","728194","NA","Sternberg Task ","64","89203","103","yes","1024"
"62.5","62.5","863.8269230769231","863.8269230769231","black","experiment","legacy","legacy","legacy","0","uniform","1","undefined","1","left","103","0","103","103","0","0","103","103","0","0","103","103","103","NA","103","0","Fri Oct 23 19:29:49 2020","The main experiment item","yes","NA","SternbergTask.osexp","/Users/kaylaredder/Desktop/Tarleton /AdvancedQuant/Lab3","no","mono","no","18","no","white","no","yes","768","legacy","91","11","/Users/kaylaredder/Desktop/Tarleton /AdvancedQuant/Lab3/FR- subject-1.csv","legacy","6 8 9 3 4 9","Lentiform Loewenfeld","3.3.5","5","y","0","left","right","right","left","NA","635","75721","12795","635","NA","2","legacy","6","1024","2","48000","-16","experiment","1","odd","4","732173","77742","728876","729932","2001","165916","729944","716265","2015","153120","734187","730959","734823","NA","734186","NA","Sternberg Task ","65","89838","104","yes","1024"
"61.904761904761905","61.904761904761905","861.8","861.8","black","experiment","legacy","legacy","legacy","0","uniform","0","undefined","0","right","104","0","104","104","0","0","104","104","0","0","104","104","104","NA","104","0","Fri Oct 23 19:29:49 2020","The main experiment item","yes","NA","SternbergTask.osexp","/Users/kaylaredder/Desktop/Tarleton /AdvancedQuant/Lab3","no","mono","no","18","no","white","no","yes","768","legacy","92","11","/Users/kaylaredder/Desktop/Tarleton /AdvancedQuant/Lab3/FR- subject-1.csv","legacy","7 9 1 6","Lentiform Loewenfeld","3.3.5","0","n","0","left","right","right","left","NA","651","75721","12795","651","NA","2","legacy","4","1024","2","48000","-16","experiment","1","odd","4","738141","77742","734843","735898","2001","165916","735911","716265","2015","153120","740154","736925","740805","NA","740154","NA","Sternberg Task ","65","90489","105","yes","1024"
"61.320754716981135","61.320754716981135","862.4433962264151","862.4433962264151","black","experiment","legacy","legacy","legacy","0","uniform","0","undefined","0","left","105","0","105","105","0","0","105","105","0","0","105","105","105","NA","105","0","Fri Oct 23 19:29:49 2020","The main experiment item","yes","NA","SternbergTask.osexp","/Users/kaylaredder/Desktop/Tarleton /AdvancedQuant/Lab3","no","mono","no","18","no","white","no","yes","768","legacy","93","11","/Users/kaylaredder/Desktop/Tarleton /AdvancedQuant/Lab3/FR- subject-1.csv","legacy","5 7 8 2 3 8","Lentiform Loewenfeld","3.3.5","5","y","0","right","right","right","right","NA","930","75721","12795","930","NA","2","legacy","6","1024","2","48000","-16","experiment","1","odd","3","744123","77742","734843","741881","2001","165916","741894","740826","2015","153120","746137","742908","747068","NA","746137","NA","Sternberg Task ","65","91419","106","yes","1024"
"61.6822429906542","61.6822429906542","858.196261682243","858.196261682243","black","experiment","legacy","legacy","legacy","0","uniform","1","undefined","1","left","106","0","106","106","0","0","106","106","0","0","106","106","106","NA","106","0","Fri Oct 23 19:29:49 2020","The main experiment item","yes","NA","SternbergTask.osexp","/Users/kaylaredder/Desktop/Tarleton /AdvancedQuant/Lab3","no","mono","no","18","no","white","no","yes","768","legacy","94","11","/Users/kaylaredder/Desktop/Tarleton /AdvancedQuant/Lab3/FR- subject-1.csv","legacy","7 1 8 5 6 2","Lentiform Loewenfeld","3.3.5","2","y","0","left","right","right","left","NA","408","75721","12795","408","NA","2","legacy","6","1024","2","48000","-16","experiment","1","odd","1","750389","77742","734843","748146","2001","165916","748158","747090","2015","153120","752403","749173","752812","NA","752402","NA","Sternberg Task ","66","91827","107","yes","1024"
"62.03703703703704","62.03703703703704","857.3425925925926","857.3425925925926","black","experiment","legacy","legacy","legacy","0","uniform","1","undefined","1","right","107","0","107","107","0","0","107","107","0","0","107","107","107","NA","107","0","Fri Oct 23 19:29:49 2020","The main experiment item","yes","NA","SternbergTask.osexp","/Users/kaylaredder/Desktop/Tarleton /AdvancedQuant/Lab3","no","mono","no","18","no","white","no","yes","768","legacy","95","11","/Users/kaylaredder/Desktop/Tarleton /AdvancedQuant/Lab3/FR- subject-1.csv","legacy","7 8 6 1","Lentiform Loewenfeld","3.3.5","0","n","0","right","right","right","right","NA","766","75721","12795","766","NA","2","legacy","4","1024","2","48000","-16","experiment","1","odd","3","756130","77742","752833","753888","2001","165916","753901","747090","2015","153120","758144","754915","758911","NA","758144","NA","Sternberg Task ","67","92593","108","yes","1024"
