"acc","accuracy","average_response_time","avg_rt","background","block","canvas_backend","clock_backend","color_backend","compensation","coordinates","correct","correct_instruction1","correct_new_keyboard_response","correct_response","count_ISI","count_PracticeLoop","count_correctFeedback","count_expSequence","count_experiment","count_experimentLoop","count_fixation","count_incorrectFeedback","count_instruction1","count_instruction2","count_logger","count_memorySet","count_new_keyboard_response","count_probe","count_thankYou","datetime","description","disable_garbage_collection","experiment_file","experiment_path","font_bold","font_family","font_italic","font_size","font_underline","foreground","form_clicks","fullscreen","height","keyboard_backend","live_row","live_row_PracticeLoop","logfile","mouse_backend","numberSet","opensesame_codename","opensesame_version","posInSet","present","repeat_cycle","response","response_instruction1","response_instruction2","response_new_keyboard_response","response_thankYou","response_time","response_time_instruction1","response_time_instruction2","response_time_new_keyboard_response","response_time_thankYou","round_decimals","sampler_backend","setSize","sound_buf_size","sound_channels","sound_freq","sound_sample_size","start","subject_nr","subject_parity","target","time_ISI","time_PracticeLoop","time_correctFeedback","time_expSequence","time_experiment","time_experimentLoop","time_fixation","time_incorrectFeedback","time_instruction1","time_instruction2","time_logger","time_memorySet","time_new_keyboard_response","time_probe","time_thankYou","title","total_correct","total_response_time","total_responses","uniform_coordinates","width"
"100","100","762","762","black","practice","legacy","legacy","legacy","0","uniform","1","undefined","1","left","0","0","0","0","0","0","0","0","0","0","0","0","0","0","0","Wed Oct 13 20:09:07 2021","The main experiment item","yes","Sternbergtask.osexp","C:/Users/warne/OneDrive/Documents/Tarleton - MS Applied Psychology/Adv Quantitative Methods and Experimental Design/Labs","no","mono","no","18","no","white","no","yes","768","legacy","0","0","C:/Users/warne/OneDrive/Documents/Tarleton - MS Applied Psychology/Adv Quantitative Methods and Experimental Design/Labs/AW-subject-4.csv","legacy","4 8","Lentiform Loewenfeld","3.3.9","1","y","0","left","right","NA","left","NA","762","67510","NA","762","NA","2","legacy","2","1024","2","48000","-16","experiment","4","even","4","73286","70215","NA","71070","2683","NA","71074","NA","2703","NA","76055","72081","75292","75292","NA","Sternberg task","1","762","1","yes","1024"
"100","100","873.5","873.5","black","practice","legacy","legacy","legacy","0","uniform","1","undefined","1","right","1","0","1","1","0","0","1","1","0","0","1","1","1","1","0","Wed Oct 13 20:09:07 2021","The main experiment item","yes","Sternbergtask.osexp","C:/Users/warne/OneDrive/Documents/Tarleton - MS Applied Psychology/Adv Quantitative Methods and Experimental Design/Labs","no","mono","no","18","no","white","no","yes","768","legacy","1","1","C:/Users/warne/OneDrive/Documents/Tarleton - MS Applied Psychology/Adv Quantitative Methods and Experimental Design/Labs/AW-subject-4.csv","legacy","9 6 7 4 5","Lentiform Loewenfeld","3.3.9","0","n","0","right","right","NA","right","NA","985","67510","NA","985","NA","2","legacy","5","1024","2","48000","-16","experiment","4","even","3","79505","70215","76149","77286","2683","NA","77292","NA","2703","NA","82493","78298","81508","81508","NA","Sternberg task","2","1747","2","yes","1024"
"100","100","799.6666666666666","799.6666666666666","black","practice","legacy","legacy","legacy","0","uniform","1","undefined","1","left","2","0","2","2","0","0","2","2","0","0","2","2","2","2","0","Wed Oct 13 20:09:07 2021","The main experiment item","yes","Sternbergtask.osexp","C:/Users/warne/OneDrive/Documents/Tarleton - MS Applied Psychology/Adv Quantitative Methods and Experimental Design/Labs","no","mono","no","18","no","white","no","yes","768","legacy","2","2","C:/Users/warne/OneDrive/Documents/Tarleton - MS Applied Psychology/Adv Quantitative Methods and Experimental Design/Labs/AW-subject-4.csv","legacy","4 3 1 7 9 8","Lentiform Loewenfeld","3.3.9","1","y","0","left","right","NA","left","NA","652","67510","NA","652","NA","2","legacy","6","1024","2","48000","-16","experiment","4","even","4","85845","70215","82500","83626","2683","NA","83632","NA","2703","NA","88503","84639","87850","87850","NA","Sternberg task","3","2399","3","yes","1024"
"100","100","836","836","black","practice","legacy","legacy","legacy","0","uniform","1","undefined","1","left","3","0","3","3","0","0","3","3","0","0","3","3","3","3","0","Wed Oct 13 20:09:07 2021","The main experiment item","yes","Sternbergtask.osexp","C:/Users/warne/OneDrive/Documents/Tarleton - MS Applied Psychology/Adv Quantitative Methods and Experimental Design/Labs","no","mono","no","18","no","white","no","yes","768","legacy","3","3","C:/Users/warne/OneDrive/Documents/Tarleton - MS Applied Psychology/Adv Quantitative Methods and Experimental Design/Labs/AW-subject-4.csv","legacy","2 9 4","Lentiform Loewenfeld","3.3.9","3","y","0","left","right","NA","left","NA","945","67510","NA","945","NA","2","legacy","3","1024","2","48000","-16","experiment","4","even","4","91896","70215","88521","89681","2683","NA","89685","NA","2703","NA","94848","90690","93903","93903","NA","Sternberg task","4","3344","4","yes","1024"
"100","100","784","784","black","practice","legacy","legacy","legacy","0","uniform","1","undefined","1","right","4","0","4","4","0","0","4","4","0","0","4","4","4","4","0","Wed Oct 13 20:09:07 2021","The main experiment item","yes","Sternbergtask.osexp","C:/Users/warne/OneDrive/Documents/Tarleton - MS Applied Psychology/Adv Quantitative Methods and Experimental Design/Labs","no","mono","no","18","no","white","no","yes","768","legacy","4","4","C:/Users/warne/OneDrive/Documents/Tarleton - MS Applied Psychology/Adv Quantitative Methods and Experimental Design/Labs/AW-subject-4.csv","legacy","3 1 9 4","Lentiform Loewenfeld","3.3.9","0","n","0","right","right","NA","right","NA","576","67510","NA","576","NA","2","legacy","4","1024","2","48000","-16","experiment","4","even","6","98220","70215","94896","96006","2683","NA","96009","NA","2703","NA","100801","97015","100225","100225","NA","Sternberg task","5","3920","5","yes","1024"
"83.33333333333333","83.33333333333333","763.1666666666666","763.1666666666666","black","practice","legacy","legacy","legacy","0","uniform","0","undefined","0","left","5","0","5","5","0","0","5","5","0","0","5","5","5","5","0","Wed Oct 13 20:09:07 2021","The main experiment item","yes","Sternbergtask.osexp","C:/Users/warne/OneDrive/Documents/Tarleton - MS Applied Psychology/Adv Quantitative Methods and Experimental Design/Labs","no","mono","no","18","no","white","no","yes","768","legacy","5","5","C:/Users/warne/OneDrive/Documents/Tarleton - MS Applied Psychology/Adv Quantitative Methods and Experimental Design/Labs/AW-subject-4.csv","legacy","1 7 9 8 5","Lentiform Loewenfeld","3.3.9","4","y","0","right","right","NA","right","NA","659","67510","NA","659","NA","2","legacy","5","1024","2","48000","-16","experiment","4","even","8","104182","70215","100849","101968","2683","NA","101972","NA","2703","NA","106847","102978","106188","106188","NA","Sternberg task","5","4579","6","yes","1024"
"85.71428571428571","85.71428571428571","788.4285714285714","788.4285714285714","black","practice","legacy","legacy","legacy","0","uniform","1","undefined","1","right","6","0","6","6","0","0","6","6","0","0","6","6","6","6","0","Wed Oct 13 20:09:07 2021","The main experiment item","yes","Sternbergtask.osexp","C:/Users/warne/OneDrive/Documents/Tarleton - MS Applied Psychology/Adv Quantitative Methods and Experimental Design/Labs","no","mono","no","18","no","white","no","yes","768","legacy","6","6","C:/Users/warne/OneDrive/Documents/Tarleton - MS Applied Psychology/Adv Quantitative Methods and Experimental Design/Labs/AW-subject-4.csv","legacy","5","Lentiform Loewenfeld","3.3.9","0","n","0","right","right","NA","right","NA","940","67510","NA","940","NA","2","legacy","1","1024","2","48000","-16","experiment","4","even","3","110220","70215","100849","108006","2683","NA","108010","106893","2703","NA","113168","109015","112227","112226","NA","Sternberg task","6","5519","7","yes","1024"
"87.5","87.5","765.875","765.875","black","practice","legacy","legacy","legacy","0","uniform","1","undefined","1","left","7","0","7","7","0","0","7","7","0","0","7","7","7","7","0","Wed Oct 13 20:09:07 2021","The main experiment item","yes","Sternbergtask.osexp","C:/Users/warne/OneDrive/Documents/Tarleton - MS Applied Psychology/Adv Quantitative Methods and Experimental Design/Labs","no","mono","no","18","no","white","no","yes","768","legacy","7","7","C:/Users/warne/OneDrive/Documents/Tarleton - MS Applied Psychology/Adv Quantitative Methods and Experimental Design/Labs/AW-subject-4.csv","legacy","1 5 2 9","Lentiform Loewenfeld","3.3.9","2","y","0","left","right","NA","left","NA","608","67510","NA","608","NA","2","legacy","4","1024","2","48000","-16","experiment","4","even","5","116516","70215","113175","114300","2683","NA","114305","106893","2703","NA","119131","115309","118522","118522","NA","Sternberg task","7","6127","8","yes","1024"
"88.88888888888889","88.88888888888889","749.4444444444445","749.4444444444445","black","practice","legacy","legacy","legacy","0","uniform","1","undefined","1","right","8","0","8","8","0","0","8","8","0","0","8","8","8","8","0","Wed Oct 13 20:09:07 2021","The main experiment item","yes","Sternbergtask.osexp","C:/Users/warne/OneDrive/Documents/Tarleton - MS Applied Psychology/Adv Quantitative Methods and Experimental Design/Labs","no","mono","no","18","no","white","no","yes","768","legacy","8","8","C:/Users/warne/OneDrive/Documents/Tarleton - MS Applied Psychology/Adv Quantitative Methods and Experimental Design/Labs/AW-subject-4.csv","legacy","4 1 5","Lentiform Loewenfeld","3.3.9","0","n","0","right","right","NA","right","NA","618","67510","NA","618","NA","2","legacy","3","1024","2","48000","-16","experiment","4","even","2","122530","70215","119175","120313","2683","NA","120320","106893","2703","NA","125151","121324","124533","124533","NA","Sternberg task","8","6745","9","yes","1024"
"90","90","786.7","786.7","black","practice","legacy","legacy","legacy","0","uniform","1","undefined","1","right","9","0","9","9","0","0","9","9","0","0","9","9","9","9","0","Wed Oct 13 20:09:07 2021","The main experiment item","yes","Sternbergtask.osexp","C:/Users/warne/OneDrive/Documents/Tarleton - MS Applied Psychology/Adv Quantitative Methods and Experimental Design/Labs","no","mono","no","18","no","white","no","yes","768","legacy","9","9","C:/Users/warne/OneDrive/Documents/Tarleton - MS Applied Psychology/Adv Quantitative Methods and Experimental Design/Labs/AW-subject-4.csv","legacy","2 1","Lentiform Loewenfeld","3.3.9","0","n","0","right","right","NA","right","NA","1122","67510","NA","1122","NA","2","legacy","2","1024","2","48000","-16","experiment","4","even","5","128532","70215","125199","126317","2683","NA","126322","106893","2703","NA","131657","127328","130535","130535","NA","Sternberg task","9","7867","10","yes","1024"
"90.9090909090909","90.9090909090909","801","801","black","practice","legacy","legacy","legacy","0","uniform","1","undefined","1","right","10","0","10","10","0","0","10","10","0","0","10","10","10","10","0","Wed Oct 13 20:09:07 2021","The main experiment item","yes","Sternbergtask.osexp","C:/Users/warne/OneDrive/Documents/Tarleton - MS Applied Psychology/Adv Quantitative Methods and Experimental Design/Labs","no","mono","no","18","no","white","no","yes","768","legacy","10","10","C:/Users/warne/OneDrive/Documents/Tarleton - MS Applied Psychology/Adv Quantitative Methods and Experimental Design/Labs/AW-subject-4.csv","legacy","5 7 8 4 1 2","Lentiform Loewenfeld","3.3.9","0","n","0","right","right","NA","right","NA","944","67510","NA","944","NA","2","legacy","6","1024","2","48000","-16","experiment","4","even","6","135047","70215","131705","132831","2683","NA","132835","106893","2703","NA","138001","133841","137056","137056","NA","Sternberg task","10","8811","11","yes","1024"
"91.66666666666667","91.66666666666667","800.6666666666666","800.6666666666666","black","practice","legacy","legacy","legacy","0","uniform","1","undefined","1","left","11","0","11","11","0","0","11","11","0","0","11","11","11","11","0","Wed Oct 13 20:09:07 2021","The main experiment item","yes","Sternbergtask.osexp","C:/Users/warne/OneDrive/Documents/Tarleton - MS Applied Psychology/Adv Quantitative Methods and Experimental Design/Labs","no","mono","no","18","no","white","no","yes","768","legacy","11","11","C:/Users/warne/OneDrive/Documents/Tarleton - MS Applied Psychology/Adv Quantitative Methods and Experimental Design/Labs/AW-subject-4.csv","legacy","6","Lentiform Loewenfeld","3.3.9","1","y","0","left","right","NA","left","NA","797","67510","NA","797","NA","2","legacy","1","1024","2","48000","-16","experiment","4","even","6","141390","70215","138042","139173","2683","NA","139178","106893","2703","NA","144192","140184","143394","143394","NA","Sternberg task","11","9608","12","yes","1024"
"92.3076923076923","92.3076923076923","772.6153846153846","772.6153846153846","black","experiment","legacy","legacy","legacy","0","uniform","1","undefined","1","left","12","0","12","12","0","0","12","12","0","0","12","12","12","12","0","Wed Oct 13 20:09:07 2021","The main experiment item","yes","Sternbergtask.osexp","C:/Users/warne/OneDrive/Documents/Tarleton - MS Applied Psychology/Adv Quantitative Methods and Experimental Design/Labs","no","mono","no","18","no","white","no","yes","768","legacy","0","11","C:/Users/warne/OneDrive/Documents/Tarleton - MS Applied Psychology/Adv Quantitative Methods and Experimental Design/Labs/AW-subject-4.csv","legacy","9 5 3 8 4","Lentiform Loewenfeld","3.3.9","1","y","0","left","right","right","left","NA","436","67510","3350","436","NA","2","legacy","5","1024","2","48000","-16","experiment","4","even","9","150924","70215","144199","148709","2683","148602","148713","106893","2703","145252","153366","149720","152930","152930","NA","Sternberg task","12","10044","13","yes","1024"
"92.85714285714286","92.85714285714286","779.6428571428571","779.6428571428571","black","experiment","legacy","legacy","legacy","0","uniform","1","undefined","1","left","13","0","13","13","0","0","13","13","0","0","13","13","13","13","0","Wed Oct 13 20:09:07 2021","The main experiment item","yes","Sternbergtask.osexp","C:/Users/warne/OneDrive/Documents/Tarleton - MS Applied Psychology/Adv Quantitative Methods and Experimental Design/Labs","no","mono","no","18","no","white","no","yes","768","legacy","1","11","C:/Users/warne/OneDrive/Documents/Tarleton - MS Applied Psychology/Adv Quantitative Methods and Experimental Design/Labs/AW-subject-4.csv","legacy","8 5 3 7 4 6","Lentiform Loewenfeld","3.3.9","6","y","0","left","right","right","left","NA","871","67510","3350","871","NA","2","legacy","6","1024","2","48000","-16","experiment","4","even","6","156769","70215","153416","154551","2683","148602","154556","106893","2703","145252","159646","155562","158774","158774","NA","Sternberg task","13","10915","14","yes","1024"
"93.33333333333333","93.33333333333333","765.7333333333333","765.7333333333333","black","experiment","legacy","legacy","legacy","0","uniform","1","undefined","1","left","14","0","14","14","0","0","14","14","0","0","14","14","14","14","0","Wed Oct 13 20:09:07 2021","The main experiment item","yes","Sternbergtask.osexp","C:/Users/warne/OneDrive/Documents/Tarleton - MS Applied Psychology/Adv Quantitative Methods and Experimental Design/Labs","no","mono","no","18","no","white","no","yes","768","legacy","2","11","C:/Users/warne/OneDrive/Documents/Tarleton - MS Applied Psychology/Adv Quantitative Methods and Experimental Design/Labs/AW-subject-4.csv","legacy","3 9 7 6 4","Lentiform Loewenfeld","3.3.9","3","y","0","left","right","right","left","NA","571","67510","3350","571","NA","2","legacy","5","1024","2","48000","-16","experiment","4","even","7","163001","70215","159652","160788","2683","148602","160791","106893","2703","145252","165579","161795","165007","165007","NA","Sternberg task","14","11486","15","yes","1024"
"93.75","93.75","756","756","black","experiment","legacy","legacy","legacy","0","uniform","1","undefined","1","left","15","0","15","15","0","0","15","15","0","0","15","15","15","15","0","Wed Oct 13 20:09:07 2021","The main experiment item","yes","Sternbergtask.osexp","C:/Users/warne/OneDrive/Documents/Tarleton - MS Applied Psychology/Adv Quantitative Methods and Experimental Design/Labs","no","mono","no","18","no","white","no","yes","768","legacy","3","11","C:/Users/warne/OneDrive/Documents/Tarleton - MS Applied Psychology/Adv Quantitative Methods and Experimental Design/Labs/AW-subject-4.csv","legacy","8 5 1 3 9","Lentiform Loewenfeld","3.3.9","4","y","0","left","right","right","left","NA","610","67510","3350","610","NA","2","legacy","5","1024","2","48000","-16","experiment","4","even","3","168967","70215","165626","166753","2683","148602","166757","106893","2703","145252","171581","167761","170971","170971","NA","Sternberg task","15","12096","16","yes","1024"
"94.11764705882354","94.11764705882354","743.1176470588235","743.1176470588235","black","experiment","legacy","legacy","legacy","0","uniform","1","undefined","1","right","16","0","16","16","0","0","16","16","0","0","16","16","16","16","0","Wed Oct 13 20:09:07 2021","The main experiment item","yes","Sternbergtask.osexp","C:/Users/warne/OneDrive/Documents/Tarleton - MS Applied Psychology/Adv Quantitative Methods and Experimental Design/Labs","no","mono","no","18","no","white","no","yes","768","legacy","4","11","C:/Users/warne/OneDrive/Documents/Tarleton - MS Applied Psychology/Adv Quantitative Methods and Experimental Design/Labs/AW-subject-4.csv","legacy","4 2 6 9","Lentiform Loewenfeld","3.3.9","0","n","0","right","right","right","right","NA","537","67510","3350","537","NA","2","legacy","4","1024","2","48000","-16","experiment","4","even","7","174969","70215","171628","172751","2683","148602","172755","106893","2703","145252","177514","173762","176976","176976","NA","Sternberg task","16","12633","17","yes","1024"
"94.44444444444444","94.44444444444444","767.6111111111111","767.6111111111111","black","experiment","legacy","legacy","legacy","0","uniform","1","undefined","1","right","17","0","17","17","0","0","17","17","0","0","17","17","17","17","0","Wed Oct 13 20:09:07 2021","The main experiment item","yes","Sternbergtask.osexp","C:/Users/warne/OneDrive/Documents/Tarleton - MS Applied Psychology/Adv Quantitative Methods and Experimental Design/Labs","no","mono","no","18","no","white","no","yes","768","legacy","5","11","C:/Users/warne/OneDrive/Documents/Tarleton - MS Applied Psychology/Adv Quantitative Methods and Experimental Design/Labs/AW-subject-4.csv","legacy","5 2","Lentiform Loewenfeld","3.3.9","0","n","0","right","right","right","right","NA","1184","67510","3350","1184","NA","2","legacy","2","1024","2","48000","-16","experiment","4","even","7","180908","70215","177561","178691","2683","148602","178696","106893","2703","145252","184097","179702","182912","182912","NA","Sternberg task","17","13817","18","yes","1024"
"94.73684210526316","94.73684210526316","749.6842105263158","749.6842105263158","black","experiment","legacy","legacy","legacy","0","uniform","1","undefined","1","left","18","0","18","18","0","0","18","18","0","0","18","18","18","18","0","Wed Oct 13 20:09:07 2021","The main experiment item","yes","Sternbergtask.osexp","C:/Users/warne/OneDrive/Documents/Tarleton - MS Applied Psychology/Adv Quantitative Methods and Experimental Design/Labs","no","mono","no","18","no","white","no","yes","768","legacy","6","11","C:/Users/warne/OneDrive/Documents/Tarleton - MS Applied Psychology/Adv Quantitative Methods and Experimental Design/Labs/AW-subject-4.csv","legacy","7 6","Lentiform Loewenfeld","3.3.9","2","y","0","left","right","right","left","NA","427","67510","3350","427","NA","2","legacy","2","1024","2","48000","-16","experiment","4","even","6","187435","70215","184103","185220","2683","148602","185224","106893","2703","145252","189867","186229","189439","189439","NA","Sternberg task","18","14244","19","yes","1024"
"95","95","761.65","761.65","black","experiment","legacy","legacy","legacy","0","uniform","1","undefined","1","right","19","0","19","19","0","0","19","19","0","0","19","19","19","19","0","Wed Oct 13 20:09:07 2021","The main experiment item","yes","Sternbergtask.osexp","C:/Users/warne/OneDrive/Documents/Tarleton - MS Applied Psychology/Adv Quantitative Methods and Experimental Design/Labs","no","mono","no","18","no","white","no","yes","768","legacy","7","11","C:/Users/warne/OneDrive/Documents/Tarleton - MS Applied Psychology/Adv Quantitative Methods and Experimental Design/Labs/AW-subject-4.csv","legacy","1 7 5 2","Lentiform Loewenfeld","3.3.9","0","n","0","right","right","right","right","NA","989","67510","3350","989","NA","2","legacy","4","1024","2","48000","-16","experiment","4","even","3","193228","70215","189905","191012","2683","148602","191016","106893","2703","145252","196220","192022","195231","195231","NA","Sternberg task","19","15233","20","yes","1024"
"95.23809523809524","95.23809523809524","753.8095238095239","753.8095238095239","black","experiment","legacy","legacy","legacy","0","uniform","1","undefined","1","left","20","0","20","20","0","0","20","20","0","0","20","20","20","20","0","Wed Oct 13 20:09:07 2021","The main experiment item","yes","Sternbergtask.osexp","C:/Users/warne/OneDrive/Documents/Tarleton - MS Applied Psychology/Adv Quantitative Methods and Experimental Design/Labs","no","mono","no","18","no","white","no","yes","768","legacy","8","11","C:/Users/warne/OneDrive/Documents/Tarleton - MS Applied Psychology/Adv Quantitative Methods and Experimental Design/Labs/AW-subject-4.csv","legacy","3 5 7 1","Lentiform Loewenfeld","3.3.9","3","y","0","left","right","right","left","NA","597","67510","3350","597","NA","2","legacy","4","1024","2","48000","-16","experiment","4","even","7","199606","70215","196268","197390","2683","148602","197395","106893","2703","145252","202207","198400","201609","201609","NA","Sternberg task","20","15830","21","yes","1024"
"95.45454545454545","95.45454545454545","746.4090909090909","746.4090909090909","black","experiment","legacy","legacy","legacy","0","uniform","1","undefined","1","left","21","0","21","21","0","0","21","21","0","0","21","21","21","21","0","Wed Oct 13 20:09:07 2021","The main experiment item","yes","Sternbergtask.osexp","C:/Users/warne/OneDrive/Documents/Tarleton - MS Applied Psychology/Adv Quantitative Methods and Experimental Design/Labs","no","mono","no","18","no","white","no","yes","768","legacy","9","11","C:/Users/warne/OneDrive/Documents/Tarleton - MS Applied Psychology/Adv Quantitative Methods and Experimental Design/Labs/AW-subject-4.csv","legacy","2 4 6 9","Lentiform Loewenfeld","3.3.9","3","y","0","left","right","right","left","NA","591","67510","3350","591","NA","2","legacy","4","1024","2","48000","-16","experiment","4","even","6","205599","70215","202255","203382","2683","148602","203386","106893","2703","145252","208197","204393","207606","207606","NA","Sternberg task","21","16421","22","yes","1024"
"95.65217391304348","95.65217391304348","739.1304347826087","739.1304347826087","black","experiment","legacy","legacy","legacy","0","uniform","1","undefined","1","left","22","0","22","22","0","0","22","22","0","0","22","22","22","22","0","Wed Oct 13 20:09:07 2021","The main experiment item","yes","Sternbergtask.osexp","C:/Users/warne/OneDrive/Documents/Tarleton - MS Applied Psychology/Adv Quantitative Methods and Experimental Design/Labs","no","mono","no","18","no","white","no","yes","768","legacy","10","11","C:/Users/warne/OneDrive/Documents/Tarleton - MS Applied Psychology/Adv Quantitative Methods and Experimental Design/Labs/AW-subject-4.csv","legacy","7 2 3","Lentiform Loewenfeld","3.3.9","3","y","0","left","right","right","left","NA","579","67510","3350","579","NA","2","legacy","3","1024","2","48000","-16","experiment","4","even","3","211599","70215","208245","209382","2683","148602","209387","106893","2703","145252","214186","210393","213606","213606","NA","Sternberg task","22","17000","23","yes","1024"
"95.83333333333333","95.83333333333333","731.0416666666666","731.0416666666666","black","experiment","legacy","legacy","legacy","0","uniform","1","undefined","1","left","23","0","23","23","0","0","23","23","0","0","23","23","23","23","0","Wed Oct 13 20:09:07 2021","The main experiment item","yes","Sternbergtask.osexp","C:/Users/warne/OneDrive/Documents/Tarleton - MS Applied Psychology/Adv Quantitative Methods and Experimental Design/Labs","no","mono","no","18","no","white","no","yes","768","legacy","11","11","C:/Users/warne/OneDrive/Documents/Tarleton - MS Applied Psychology/Adv Quantitative Methods and Experimental Design/Labs/AW-subject-4.csv","legacy","7 1 3","Lentiform Loewenfeld","3.3.9","2","y","0","left","right","right","left","NA","545","67510","3350","545","NA","2","legacy","3","1024","2","48000","-16","experiment","4","even","1","217594","70215","214231","215376","2683","148602","215380","106893","2703","145252","220144","216387","219598","219597","NA","Sternberg task","23","17545","24","yes","1024"
"96","96","738.24","738.24","black","experiment","legacy","legacy","legacy","0","uniform","1","undefined","1","left","24","0","24","24","0","0","24","24","0","0","24","24","24","24","0","Wed Oct 13 20:09:07 2021","The main experiment item","yes","Sternbergtask.osexp","C:/Users/warne/OneDrive/Documents/Tarleton - MS Applied Psychology/Adv Quantitative Methods and Experimental Design/Labs","no","mono","no","18","no","white","no","yes","768","legacy","12","11","C:/Users/warne/OneDrive/Documents/Tarleton - MS Applied Psychology/Adv Quantitative Methods and Experimental Design/Labs/AW-subject-4.csv","legacy","6 9 7 4 5 1","Lentiform Loewenfeld","3.3.9","2","y","0","left","right","right","left","NA","911","67510","3350","911","NA","2","legacy","6","1024","2","48000","-16","experiment","4","even","9","223473","70215","220150","221257","2683","148602","221261","106893","2703","145252","226389","222267","225477","225477","NA","Sternberg task","24","18456","25","yes","1024"
"96.15384615384616","96.15384615384616","730.5769230769231","730.5769230769231","black","experiment","legacy","legacy","legacy","0","uniform","1","undefined","1","left","25","0","25","25","0","0","25","25","0","0","25","25","25","25","0","Wed Oct 13 20:09:07 2021","The main experiment item","yes","Sternbergtask.osexp","C:/Users/warne/OneDrive/Documents/Tarleton - MS Applied Psychology/Adv Quantitative Methods and Experimental Design/Labs","no","mono","no","18","no","white","no","yes","768","legacy","13","11","C:/Users/warne/OneDrive/Documents/Tarleton - MS Applied Psychology/Adv Quantitative Methods and Experimental Design/Labs/AW-subject-4.csv","legacy","3 4","Lentiform Loewenfeld","3.3.9","1","y","0","left","right","right","left","NA","539","67510","3350","539","NA","2","legacy","2","1024","2","48000","-16","experiment","4","even","3","229762","70215","226436","227548","2683","148602","227552","106893","2703","145252","232304","228558","231765","231765","NA","Sternberg task","25","18995","26","yes","1024"
"96.29629629629629","96.29629629629629","731.2962962962963","731.2962962962963","black","experiment","legacy","legacy","legacy","0","uniform","1","undefined","1","right","26","0","26","26","0","0","26","26","0","0","26","26","26","26","0","Wed Oct 13 20:09:07 2021","The main experiment item","yes","Sternbergtask.osexp","C:/Users/warne/OneDrive/Documents/Tarleton - MS Applied Psychology/Adv Quantitative Methods and Experimental Design/Labs","no","mono","no","18","no","white","no","yes","768","legacy","14","11","C:/Users/warne/OneDrive/Documents/Tarleton - MS Applied Psychology/Adv Quantitative Methods and Experimental Design/Labs/AW-subject-4.csv","legacy","6 9 7 3 8 2","Lentiform Loewenfeld","3.3.9","0","n","0","right","right","right","right","NA","750","67510","3350","750","NA","2","legacy","6","1024","2","48000","-16","experiment","4","even","5","235684","70215","232349","233469","2683","148602","233473","106893","2703","145252","238437","234479","237687","237687","NA","Sternberg task","26","19745","27","yes","1024"
"96.42857142857143","96.42857142857143","729.1428571428571","729.1428571428571","black","experiment","legacy","legacy","legacy","0","uniform","1","undefined","1","right","27","0","27","27","0","0","27","27","0","0","27","27","27","27","0","Wed Oct 13 20:09:07 2021","The main experiment item","yes","Sternbergtask.osexp","C:/Users/warne/OneDrive/Documents/Tarleton - MS Applied Psychology/Adv Quantitative Methods and Experimental Design/Labs","no","mono","no","18","no","white","no","yes","768","legacy","15","11","C:/Users/warne/OneDrive/Documents/Tarleton - MS Applied Psychology/Adv Quantitative Methods and Experimental Design/Labs/AW-subject-4.csv","legacy","8 6 3 4 7","Lentiform Loewenfeld","3.3.9","0","n","0","right","right","right","right","NA","671","67510","3350","671","NA","2","legacy","5","1024","2","48000","-16","experiment","4","even","1","241803","70215","238481","239590","2683","148602","239593","106893","2703","145252","244478","240599","243807","243807","NA","Sternberg task","27","20416","28","yes","1024"
"96.55172413793103","96.55172413793103","731.0689655172414","731.0689655172414","black","experiment","legacy","legacy","legacy","0","uniform","1","undefined","1","right","28","0","28","28","0","0","28","28","0","0","28","28","28","28","0","Wed Oct 13 20:09:07 2021","The main experiment item","yes","Sternbergtask.osexp","C:/Users/warne/OneDrive/Documents/Tarleton - MS Applied Psychology/Adv Quantitative Methods and Experimental Design/Labs","no","mono","no","18","no","white","no","yes","768","legacy","16","11","C:/Users/warne/OneDrive/Documents/Tarleton - MS Applied Psychology/Adv Quantitative Methods and Experimental Design/Labs/AW-subject-4.csv","legacy","7 9","Lentiform Loewenfeld","3.3.9","0","n","0","right","right","right","right","NA","785","67510","3350","785","NA","2","legacy","2","1024","2","48000","-16","experiment","4","even","1","247853","70215","244527","245639","2683","148602","245643","106893","2703","145252","250642","246648","249857","249857","NA","Sternberg task","28","21201","29","yes","1024"
"96.66666666666667","96.66666666666667","724.7333333333333","724.7333333333333","black","experiment","legacy","legacy","legacy","0","uniform","1","undefined","1","left","29","0","29","29","0","0","29","29","0","0","29","29","29","29","0","Wed Oct 13 20:09:07 2021","The main experiment item","yes","Sternbergtask.osexp","C:/Users/warne/OneDrive/Documents/Tarleton - MS Applied Psychology/Adv Quantitative Methods and Experimental Design/Labs","no","mono","no","18","no","white","no","yes","768","legacy","17","11","C:/Users/warne/OneDrive/Documents/Tarleton - MS Applied Psychology/Adv Quantitative Methods and Experimental Design/Labs/AW-subject-4.csv","legacy","8 9 6 1","Lentiform Loewenfeld","3.3.9","2","y","0","left","right","right","left","NA","541","67510","3350","541","NA","2","legacy","4","1024","2","48000","-16","experiment","4","even","9","254027","70215","250688","251813","2683","148602","251816","106893","2703","145252","256574","252821","256032","256032","NA","Sternberg task","29","21742","30","yes","1024"
"96.7741935483871","96.7741935483871","719.8387096774194","719.8387096774194","black","experiment","legacy","legacy","legacy","0","uniform","1","undefined","1","right","30","0","30","30","0","0","30","30","0","0","30","30","30","30","0","Wed Oct 13 20:09:07 2021","The main experiment item","yes","Sternbergtask.osexp","C:/Users/warne/OneDrive/Documents/Tarleton - MS Applied Psychology/Adv Quantitative Methods and Experimental Design/Labs","no","mono","no","18","no","white","no","yes","768","legacy","18","11","C:/Users/warne/OneDrive/Documents/Tarleton - MS Applied Psychology/Adv Quantitative Methods and Experimental Design/Labs/AW-subject-4.csv","legacy","9 5 3 2 8 6","Lentiform Loewenfeld","3.3.9","0","n","0","right","right","right","right","NA","573","67510","3350","573","NA","2","legacy","6","1024","2","48000","-16","experiment","4","even","7","259984","70215","256621","257771","2683","148602","257775","106893","2703","145252","262564","258780","261990","261990","NA","Sternberg task","30","22315","31","yes","1024"
"96.875","96.875","714.0625","714.0625","black","experiment","legacy","legacy","legacy","0","uniform","1","undefined","1","left","31","0","31","31","0","0","31","31","0","0","31","31","31","31","0","Wed Oct 13 20:09:07 2021","The main experiment item","yes","Sternbergtask.osexp","C:/Users/warne/OneDrive/Documents/Tarleton - MS Applied Psychology/Adv Quantitative Methods and Experimental Design/Labs","no","mono","no","18","no","white","no","yes","768","legacy","19","11","C:/Users/warne/OneDrive/Documents/Tarleton - MS Applied Psychology/Adv Quantitative Methods and Experimental Design/Labs/AW-subject-4.csv","legacy","2 3","Lentiform Loewenfeld","3.3.9","1","y","0","left","right","right","left","NA","535","67510","3350","535","NA","2","legacy","2","1024","2","48000","-16","experiment","4","even","2","265929","70215","262610","263715","2683","148602","263720","106893","2703","145252","268467","264727","267932","267932","NA","Sternberg task","31","22850","32","yes","1024"
"96.96969696969697","96.96969696969697","710.060606060606","710.060606060606","black","experiment","legacy","legacy","legacy","0","uniform","1","undefined","1","left","32","0","32","32","0","0","32","32","0","0","32","32","32","32","0","Wed Oct 13 20:09:07 2021","The main experiment item","yes","Sternbergtask.osexp","C:/Users/warne/OneDrive/Documents/Tarleton - MS Applied Psychology/Adv Quantitative Methods and Experimental Design/Labs","no","mono","no","18","no","white","no","yes","768","legacy","20","11","C:/Users/warne/OneDrive/Documents/Tarleton - MS Applied Psychology/Adv Quantitative Methods and Experimental Design/Labs/AW-subject-4.csv","legacy","8 3","Lentiform Loewenfeld","3.3.9","2","y","0","left","right","right","left","NA","582","67510","3350","582","NA","2","legacy","2","1024","2","48000","-16","experiment","4","even","3","271854","70215","268515","269640","2683","148602","269644","106893","2703","145252","274443","270650","273860","273859","NA","Sternberg task","32","23432","33","yes","1024"
"97.05882352941177","97.05882352941177","737.0294117647059","737.0294117647059","black","experiment","legacy","legacy","legacy","0","uniform","1","undefined","1","right","33","0","33","33","0","0","33","33","0","0","33","33","33","33","0","Wed Oct 13 20:09:07 2021","The main experiment item","yes","Sternbergtask.osexp","C:/Users/warne/OneDrive/Documents/Tarleton - MS Applied Psychology/Adv Quantitative Methods and Experimental Design/Labs","no","mono","no","18","no","white","no","yes","768","legacy","21","11","C:/Users/warne/OneDrive/Documents/Tarleton - MS Applied Psychology/Adv Quantitative Methods and Experimental Design/Labs/AW-subject-4.csv","legacy","6 8","Lentiform Loewenfeld","3.3.9","0","n","0","right","right","right","right","NA","1627","67510","3350","1627","NA","2","legacy","2","1024","2","48000","-16","experiment","4","even","9","277805","70215","274448","275590","2683","148602","275594","106893","2703","145252","281442","276601","279814","279813","NA","Sternberg task","33","25059","34","yes","1024"
"97.14285714285714","97.14285714285714","736","736","black","experiment","legacy","legacy","legacy","0","uniform","1","undefined","1","left","34","0","34","34","0","0","34","34","0","0","34","34","34","34","0","Wed Oct 13 20:09:07 2021","The main experiment item","yes","Sternbergtask.osexp","C:/Users/warne/OneDrive/Documents/Tarleton - MS Applied Psychology/Adv Quantitative Methods and Experimental Design/Labs","no","mono","no","18","no","white","no","yes","768","legacy","22","11","C:/Users/warne/OneDrive/Documents/Tarleton - MS Applied Psychology/Adv Quantitative Methods and Experimental Design/Labs/AW-subject-4.csv","legacy","6 1 2","Lentiform Loewenfeld","3.3.9","3","y","0","left","right","right","left","NA","701","67510","3350","701","NA","2","legacy","3","1024","2","48000","-16","experiment","4","even","2","284810","70215","281489","282594","2683","148602","282598","106893","2703","145252","287518","283604","286816","286816","NA","Sternberg task","34","25760","35","yes","1024"
"97.22222222222223","97.22222222222223","746","746","black","experiment","legacy","legacy","legacy","0","uniform","1","undefined","1","left","35","0","35","35","0","0","35","35","0","0","35","35","35","35","0","Wed Oct 13 20:09:07 2021","The main experiment item","yes","Sternbergtask.osexp","C:/Users/warne/OneDrive/Documents/Tarleton - MS Applied Psychology/Adv Quantitative Methods and Experimental Design/Labs","no","mono","no","18","no","white","no","yes","768","legacy","23","11","C:/Users/warne/OneDrive/Documents/Tarleton - MS Applied Psychology/Adv Quantitative Methods and Experimental Design/Labs/AW-subject-4.csv","legacy","8 9 5 6 7","Lentiform Loewenfeld","3.3.9","1","y","0","left","right","right","left","NA","1096","67510","3350","1096","NA","2","legacy","5","1024","2","48000","-16","experiment","4","even","8","290907","70215","287566","288690","2683","148602","288694","106893","2703","145252","294012","289701","292915","292915","NA","Sternberg task","35","26856","36","yes","1024"
"97.29729729729729","97.29729729729729","743.5405405405405","743.5405405405405","black","experiment","legacy","legacy","legacy","0","uniform","1","undefined","1","right","36","0","36","36","0","0","36","36","0","0","36","36","36","36","0","Wed Oct 13 20:09:07 2021","The main experiment item","yes","Sternbergtask.osexp","C:/Users/warne/OneDrive/Documents/Tarleton - MS Applied Psychology/Adv Quantitative Methods and Experimental Design/Labs","no","mono","no","18","no","white","no","yes","768","legacy","24","11","C:/Users/warne/OneDrive/Documents/Tarleton - MS Applied Psychology/Adv Quantitative Methods and Experimental Design/Labs/AW-subject-4.csv","legacy","5 3 8 7 2 4","Lentiform Loewenfeld","3.3.9","0","n","0","right","right","right","right","NA","655","67510","3350","655","NA","2","legacy","6","1024","2","48000","-16","experiment","4","even","9","297406","70215","294060","295191","2683","148602","295195","106893","2703","145252","300067","296200","299412","299412","NA","Sternberg task","36","27511","37","yes","1024"
"97.36842105263158","97.36842105263158","752.7631578947369","752.7631578947369","black","experiment","legacy","legacy","legacy","0","uniform","1","undefined","1","right","37","0","37","37","0","0","37","37","0","0","37","37","37","37","0","Wed Oct 13 20:09:07 2021","The main experiment item","yes","Sternbergtask.osexp","C:/Users/warne/OneDrive/Documents/Tarleton - MS Applied Psychology/Adv Quantitative Methods and Experimental Design/Labs","no","mono","no","18","no","white","no","yes","768","legacy","25","11","C:/Users/warne/OneDrive/Documents/Tarleton - MS Applied Psychology/Adv Quantitative Methods and Experimental Design/Labs/AW-subject-4.csv","legacy","2 5 1 4","Lentiform Loewenfeld","3.3.9","0","n","0","right","right","right","right","NA","1094","67510","3350","1094","NA","2","legacy","4","1024","2","48000","-16","experiment","4","even","6","303441","70215","300111","301226","2683","148602","301230","106893","2703","145252","306539","302236","305444","305444","NA","Sternberg task","37","28605","38","yes","1024"
"97.43589743589743","97.43589743589743","752.4871794871794","752.4871794871794","black","experiment","legacy","legacy","legacy","0","uniform","1","undefined","1","right","38","0","38","38","0","0","38","38","0","0","38","38","38","38","0","Wed Oct 13 20:09:07 2021","The main experiment item","yes","Sternbergtask.osexp","C:/Users/warne/OneDrive/Documents/Tarleton - MS Applied Psychology/Adv Quantitative Methods and Experimental Design/Labs","no","mono","no","18","no","white","no","yes","768","legacy","26","11","C:/Users/warne/OneDrive/Documents/Tarleton - MS Applied Psychology/Adv Quantitative Methods and Experimental Design/Labs/AW-subject-4.csv","legacy","2 6 4 3 9","Lentiform Loewenfeld","3.3.9","0","n","0","right","right","right","right","NA","742","67510","3350","742","NA","2","legacy","5","1024","2","48000","-16","experiment","4","even","1","309953","70215","306586","307738","2683","148602","307741","106893","2703","145252","312701","308747","311958","311958","NA","Sternberg task","38","29347","39","yes","1024"
"97.5","97.5","754.15","754.15","black","experiment","legacy","legacy","legacy","0","uniform","1","undefined","1","right","39","0","39","39","0","0","39","39","0","0","39","39","39","39","0","Wed Oct 13 20:09:07 2021","The main experiment item","yes","Sternbergtask.osexp","C:/Users/warne/OneDrive/Documents/Tarleton - MS Applied Psychology/Adv Quantitative Methods and Experimental Design/Labs","no","mono","no","18","no","white","no","yes","768","legacy","27","11","C:/Users/warne/OneDrive/Documents/Tarleton - MS Applied Psychology/Adv Quantitative Methods and Experimental Design/Labs/AW-subject-4.csv","legacy","1 7 5 2 9","Lentiform Loewenfeld","3.3.9","0","n","0","right","right","right","right","NA","819","67510","3350","819","NA","2","legacy","5","1024","2","48000","-16","experiment","4","even","3","316092","70215","312747","313876","2683","148602","313881","106893","2703","145252","318918","314886","318098","318098","NA","Sternberg task","39","30166","40","yes","1024"
"97.5609756097561","97.5609756097561","759.0731707317074","759.0731707317074","black","experiment","legacy","legacy","legacy","0","uniform","1","undefined","1","right","40","0","40","40","0","0","40","40","0","0","40","40","40","40","0","Wed Oct 13 20:09:07 2021","The main experiment item","yes","Sternbergtask.osexp","C:/Users/warne/OneDrive/Documents/Tarleton - MS Applied Psychology/Adv Quantitative Methods and Experimental Design/Labs","no","mono","no","18","no","white","no","yes","768","legacy","28","11","C:/Users/warne/OneDrive/Documents/Tarleton - MS Applied Psychology/Adv Quantitative Methods and Experimental Design/Labs/AW-subject-4.csv","legacy","6 9 5","Lentiform Loewenfeld","3.3.9","0","n","0","right","right","right","right","NA","956","67510","3350","956","NA","2","legacy","3","1024","2","48000","-16","experiment","4","even","8","322304","70215","318965","320087","2683","148602","320091","106893","2703","145252","325264","321098","324307","324307","NA","Sternberg task","40","31122","41","yes","1024"
"97.61904761904762","97.61904761904762","761.0238095238095","761.0238095238095","black","experiment","legacy","legacy","legacy","0","uniform","1","undefined","1","left","41","0","41","41","0","0","41","41","0","0","41","41","41","41","0","Wed Oct 13 20:09:07 2021","The main experiment item","yes","Sternbergtask.osexp","C:/Users/warne/OneDrive/Documents/Tarleton - MS Applied Psychology/Adv Quantitative Methods and Experimental Design/Labs","no","mono","no","18","no","white","no","yes","768","legacy","29","11","C:/Users/warne/OneDrive/Documents/Tarleton - MS Applied Psychology/Adv Quantitative Methods and Experimental Design/Labs/AW-subject-4.csv","legacy","8 1 6","Lentiform Loewenfeld","3.3.9","3","y","0","left","right","right","left","NA","841","67510","3350","841","NA","2","legacy","3","1024","2","48000","-16","experiment","4","even","6","328610","70215","325272","326396","2683","148602","326400","106893","2703","145252","331458","327405","330616","330616","NA","Sternberg task","41","31963","42","yes","1024"
"97.67441860465117","97.67441860465117","760.5116279069767","760.5116279069767","black","experiment","legacy","legacy","legacy","0","uniform","1","undefined","1","left","42","0","42","42","0","0","42","42","0","0","42","42","42","42","0","Wed Oct 13 20:09:07 2021","The main experiment item","yes","Sternbergtask.osexp","C:/Users/warne/OneDrive/Documents/Tarleton - MS Applied Psychology/Adv Quantitative Methods and Experimental Design/Labs","no","mono","no","18","no","white","no","yes","768","legacy","30","11","C:/Users/warne/OneDrive/Documents/Tarleton - MS Applied Psychology/Adv Quantitative Methods and Experimental Design/Labs/AW-subject-4.csv","legacy","7 8 4 6 9 5","Lentiform Loewenfeld","3.3.9","4","y","0","left","right","right","left","NA","739","67510","3350","739","NA","2","legacy","6","1024","2","48000","-16","experiment","4","even","6","334814","70215","331477","332599","2683","148602","332602","106893","2703","145252","337558","333607","336819","336819","NA","Sternberg task","42","32702","43","yes","1024"
"95.45454545454545","95.45454545454545","756.7045454545455","756.7045454545455","black","experiment","legacy","legacy","legacy","0","uniform","0","undefined","0","right","43","0","43","43","0","0","43","43","0","0","43","43","43","43","0","Wed Oct 13 20:09:07 2021","The main experiment item","yes","Sternbergtask.osexp","C:/Users/warne/OneDrive/Documents/Tarleton - MS Applied Psychology/Adv Quantitative Methods and Experimental Design/Labs","no","mono","no","18","no","white","no","yes","768","legacy","31","11","C:/Users/warne/OneDrive/Documents/Tarleton - MS Applied Psychology/Adv Quantitative Methods and Experimental Design/Labs/AW-subject-4.csv","legacy","2 8 9","Lentiform Loewenfeld","3.3.9","0","n","0","left","right","right","left","NA","593","67510","3350","593","NA","2","legacy","3","1024","2","48000","-16","experiment","4","even","6","340906","70215","337565","338694","2683","148602","338698","106893","2703","145252","343509","339701","342914","342914","NA","Sternberg task","42","33295","44","yes","1024"
"95.55555555555556","95.55555555555556","755.2888888888889","755.2888888888889","black","experiment","legacy","legacy","legacy","0","uniform","1","undefined","1","right","44","0","44","44","0","0","44","44","0","0","44","44","44","44","0","Wed Oct 13 20:09:07 2021","The main experiment item","yes","Sternbergtask.osexp","C:/Users/warne/OneDrive/Documents/Tarleton - MS Applied Psychology/Adv Quantitative Methods and Experimental Design/Labs","no","mono","no","18","no","white","no","yes","768","legacy","32","11","C:/Users/warne/OneDrive/Documents/Tarleton - MS Applied Psychology/Adv Quantitative Methods and Experimental Design/Labs/AW-subject-4.csv","legacy","8 4 3 9","Lentiform Loewenfeld","3.3.9","0","n","0","right","right","right","right","NA","693","67510","3350","693","NA","2","legacy","4","1024","2","48000","-16","experiment","4","even","5","346882","70215","337565","344666","2683","148602","344670","343554","2703","145252","349578","345674","348885","348885","NA","Sternberg task","43","33988","45","yes","1024"
"95.65217391304348","95.65217391304348","751.5869565217391","751.5869565217391","black","experiment","legacy","legacy","legacy","0","uniform","1","undefined","1","left","45","0","45","45","0","0","45","45","0","0","45","45","45","45","0","Wed Oct 13 20:09:07 2021","The main experiment item","yes","Sternbergtask.osexp","C:/Users/warne/OneDrive/Documents/Tarleton - MS Applied Psychology/Adv Quantitative Methods and Experimental Design/Labs","no","mono","no","18","no","white","no","yes","768","legacy","33","11","C:/Users/warne/OneDrive/Documents/Tarleton - MS Applied Psychology/Adv Quantitative Methods and Experimental Design/Labs/AW-subject-4.csv","legacy","9 4 2","Lentiform Loewenfeld","3.3.9","1","y","0","left","right","right","left","NA","585","67510","3350","585","NA","2","legacy","3","1024","2","48000","-16","experiment","4","even","9","352931","70215","349586","350714","2683","148602","350718","343554","2703","145252","355524","351725","354938","354938","NA","Sternberg task","44","34573","46","yes","1024"
"95.74468085106383","95.74468085106383","753.2978723404256","753.2978723404256","black","experiment","legacy","legacy","legacy","0","uniform","1","undefined","1","right","46","0","46","46","0","0","46","46","0","0","46","46","46","46","0","Wed Oct 13 20:09:07 2021","The main experiment item","yes","Sternbergtask.osexp","C:/Users/warne/OneDrive/Documents/Tarleton - MS Applied Psychology/Adv Quantitative Methods and Experimental Design/Labs","no","mono","no","18","no","white","no","yes","768","legacy","34","11","C:/Users/warne/OneDrive/Documents/Tarleton - MS Applied Psychology/Adv Quantitative Methods and Experimental Design/Labs/AW-subject-4.csv","legacy","7 9 1 6","Lentiform Loewenfeld","3.3.9","0","n","0","right","right","right","right","NA","832","67510","3350","832","NA","2","legacy","4","1024","2","48000","-16","experiment","4","even","4","358924","70215","355572","356713","2683","148602","356717","343554","2703","145252","361760","357720","360927","360927","NA","Sternberg task","45","35405","47","yes","1024"
"95.83333333333333","95.83333333333333","753.9375","753.9375","black","experiment","legacy","legacy","legacy","0","uniform","1","undefined","1","right","47","0","47","47","0","0","47","47","0","0","47","47","47","47","0","Wed Oct 13 20:09:07 2021","The main experiment item","yes","Sternbergtask.osexp","C:/Users/warne/OneDrive/Documents/Tarleton - MS Applied Psychology/Adv Quantitative Methods and Experimental Design/Labs","no","mono","no","18","no","white","no","yes","768","legacy","35","11","C:/Users/warne/OneDrive/Documents/Tarleton - MS Applied Psychology/Adv Quantitative Methods and Experimental Design/Labs/AW-subject-4.csv","legacy","8 2 1 4 5 9","Lentiform Loewenfeld","3.3.9","0","n","0","right","right","right","right","NA","784","67510","3350","784","NA","2","legacy","6","1024","2","48000","-16","experiment","4","even","7","365146","70215","361809","362931","2683","148602","362936","343554","2703","145252","367934","363943","367150","367150","NA","Sternberg task","46","36189","48","yes","1024"
"93.87755102040816","93.87755102040816","765.4489795918367","765.4489795918367","black","experiment","legacy","legacy","legacy","0","uniform","0","undefined","0","left","48","0","48","48","0","0","48","48","0","0","48","48","48","48","0","Wed Oct 13 20:09:07 2021","The main experiment item","yes","Sternbergtask.osexp","C:/Users/warne/OneDrive/Documents/Tarleton - MS Applied Psychology/Adv Quantitative Methods and Experimental Design/Labs","no","mono","no","18","no","white","no","yes","768","legacy","36","11","C:/Users/warne/OneDrive/Documents/Tarleton - MS Applied Psychology/Adv Quantitative Methods and Experimental Design/Labs/AW-subject-4.csv","legacy","2 8 5 1","Lentiform Loewenfeld","3.3.9","4","y","0","right","right","right","right","NA","1318","67510","3350","1318","NA","2","legacy","4","1024","2","48000","-16","experiment","4","even","1","371275","70215","367941","369061","2683","148602","369065","343554","2703","145252","374600","370072","373281","373281","NA","Sternberg task","46","37507","49","yes","1024"
"94","94","768.38","768.38","black","experiment","legacy","legacy","legacy","0","uniform","1","undefined","1","right","49","0","49","49","0","0","49","49","0","0","49","49","49","49","0","Wed Oct 13 20:09:07 2021","The main experiment item","yes","Sternbergtask.osexp","C:/Users/warne/OneDrive/Documents/Tarleton - MS Applied Psychology/Adv Quantitative Methods and Experimental Design/Labs","no","mono","no","18","no","white","no","yes","768","legacy","37","11","C:/Users/warne/OneDrive/Documents/Tarleton - MS Applied Psychology/Adv Quantitative Methods and Experimental Design/Labs/AW-subject-4.csv","legacy","1 4 9 2 5","Lentiform Loewenfeld","3.3.9","0","n","0","right","right","right","right","NA","912","67510","3350","912","NA","2","legacy","5","1024","2","48000","-16","experiment","4","even","7","377966","70215","367941","375750","2683","148602","375754","374647","2703","145252","380882","376760","379969","379969","NA","Sternberg task","47","38419","50","yes","1024"
"94.11764705882354","94.11764705882354","768.0588235294117","768.0588235294117","black","experiment","legacy","legacy","legacy","0","uniform","1","undefined","1","right","50","0","50","50","0","0","50","50","0","0","50","50","50","50","0","Wed Oct 13 20:09:07 2021","The main experiment item","yes","Sternbergtask.osexp","C:/Users/warne/OneDrive/Documents/Tarleton - MS Applied Psychology/Adv Quantitative Methods and Experimental Design/Labs","no","mono","no","18","no","white","no","yes","768","legacy","38","11","C:/Users/warne/OneDrive/Documents/Tarleton - MS Applied Psychology/Adv Quantitative Methods and Experimental Design/Labs/AW-subject-4.csv","legacy","1 8 7","Lentiform Loewenfeld","3.3.9","0","n","0","right","right","right","right","NA","752","67510","3350","752","NA","2","legacy","3","1024","2","48000","-16","experiment","4","even","4","384282","70215","380928","382068","2683","148602","382072","374647","2703","145252","387040","383076","386288","386288","NA","Sternberg task","48","39171","51","yes","1024"
"94.23076923076923","94.23076923076923","772","772","black","experiment","legacy","legacy","legacy","0","uniform","1","undefined","1","right","51","0","51","51","0","0","51","51","0","0","51","51","51","51","0","Wed Oct 13 20:09:07 2021","The main experiment item","yes","Sternbergtask.osexp","C:/Users/warne/OneDrive/Documents/Tarleton - MS Applied Psychology/Adv Quantitative Methods and Experimental Design/Labs","no","mono","no","18","no","white","no","yes","768","legacy","39","11","C:/Users/warne/OneDrive/Documents/Tarleton - MS Applied Psychology/Adv Quantitative Methods and Experimental Design/Labs/AW-subject-4.csv","legacy","3 4 2","Lentiform Loewenfeld","3.3.9","0","n","0","right","right","right","right","NA","973","67510","3350","973","NA","2","legacy","3","1024","2","48000","-16","experiment","4","even","5","390436","70215","387088","388218","2683","148602","388224","374647","2703","145252","393414","389230","392440","392440","NA","Sternberg task","49","40144","52","yes","1024"
"94.33962264150944","94.33962264150944","779.2830188679245","779.2830188679245","black","experiment","legacy","legacy","legacy","0","uniform","1","undefined","1","left","52","0","52","52","0","0","52","52","0","0","52","52","52","52","0","Wed Oct 13 20:09:07 2021","The main experiment item","yes","Sternbergtask.osexp","C:/Users/warne/OneDrive/Documents/Tarleton - MS Applied Psychology/Adv Quantitative Methods and Experimental Design/Labs","no","mono","no","18","no","white","no","yes","768","legacy","40","11","C:/Users/warne/OneDrive/Documents/Tarleton - MS Applied Psychology/Adv Quantitative Methods and Experimental Design/Labs/AW-subject-4.csv","legacy","4 6 2 5 1","Lentiform Loewenfeld","3.3.9","5","y","0","left","right","right","left","NA","1158","67510","3350","1158","NA","2","legacy","5","1024","2","48000","-16","experiment","4","even","1","396791","70215","393461","394572","2683","148602","394578","374647","2703","145252","399953","395583","398794","398794","NA","Sternberg task","50","41302","53","yes","1024"
"94.44444444444444","94.44444444444444","778.074074074074","778.074074074074","black","experiment","legacy","legacy","legacy","0","uniform","1","undefined","1","right","53","0","53","53","0","0","53","53","0","0","53","53","53","53","0","Wed Oct 13 20:09:07 2021","The main experiment item","yes","Sternbergtask.osexp","C:/Users/warne/OneDrive/Documents/Tarleton - MS Applied Psychology/Adv Quantitative Methods and Experimental Design/Labs","no","mono","no","18","no","white","no","yes","768","legacy","41","11","C:/Users/warne/OneDrive/Documents/Tarleton - MS Applied Psychology/Adv Quantitative Methods and Experimental Design/Labs/AW-subject-4.csv","legacy","1 6 4 3 9 7","Lentiform Loewenfeld","3.3.9","0","n","0","right","right","right","right","NA","714","67510","3350","714","NA","2","legacy","6","1024","2","48000","-16","experiment","4","even","8","403321","70215","399959","401100","2683","148602","401104","374647","2703","145252","406043","402112","405328","405327","NA","Sternberg task","51","42016","54","yes","1024"
"94.54545454545455","94.54545454545455","773.8363636363637","773.8363636363637","black","experiment","legacy","legacy","legacy","0","uniform","1","undefined","1","left","54","0","54","54","0","0","54","54","0","0","54","54","54","54","0","Wed Oct 13 20:09:07 2021","The main experiment item","yes","Sternbergtask.osexp","C:/Users/warne/OneDrive/Documents/Tarleton - MS Applied Psychology/Adv Quantitative Methods and Experimental Design/Labs","no","mono","no","18","no","white","no","yes","768","legacy","42","11","C:/Users/warne/OneDrive/Documents/Tarleton - MS Applied Psychology/Adv Quantitative Methods and Experimental Design/Labs/AW-subject-4.csv","legacy","5 7 8 2 3 8","Lentiform Loewenfeld","3.3.9","5","y","0","left","right","right","left","NA","545","67510","3350","545","NA","2","legacy","6","1024","2","48000","-16","experiment","4","even","3","409416","70215","406053","407197","2683","148602","407202","374647","2703","145252","411968","408210","411423","411423","NA","Sternberg task","52","42561","55","yes","1024"
"94.64285714285714","94.64285714285714","775.1785714285714","775.1785714285714","black","experiment","legacy","legacy","legacy","0","uniform","1","undefined","1","left","55","0","55","55","0","0","55","55","0","0","55","55","55","55","0","Wed Oct 13 20:09:07 2021","The main experiment item","yes","Sternbergtask.osexp","C:/Users/warne/OneDrive/Documents/Tarleton - MS Applied Psychology/Adv Quantitative Methods and Experimental Design/Labs","no","mono","no","18","no","white","no","yes","768","legacy","43","11","C:/Users/warne/OneDrive/Documents/Tarleton - MS Applied Psychology/Adv Quantitative Methods and Experimental Design/Labs/AW-subject-4.csv","legacy","5 7 3 6 2","Lentiform Loewenfeld","3.3.9","5","y","0","left","right","right","left","NA","849","67510","3350","849","NA","2","legacy","5","1024","2","48000","-16","experiment","4","even","2","415303","70215","411979","413091","2683","148602","413096","374647","2703","145252","418160","414099","417309","417309","NA","Sternberg task","53","43410","56","yes","1024"
"94.73684210526316","94.73684210526316","778.3859649122807","778.3859649122807","black","experiment","legacy","legacy","legacy","0","uniform","1","undefined","1","right","56","0","56","56","0","0","56","56","0","0","56","56","56","56","0","Wed Oct 13 20:09:07 2021","The main experiment item","yes","Sternbergtask.osexp","C:/Users/warne/OneDrive/Documents/Tarleton - MS Applied Psychology/Adv Quantitative Methods and Experimental Design/Labs","no","mono","no","18","no","white","no","yes","768","legacy","44","11","C:/Users/warne/OneDrive/Documents/Tarleton - MS Applied Psychology/Adv Quantitative Methods and Experimental Design/Labs/AW-subject-4.csv","legacy","3 4 9 6 7 8","Lentiform Loewenfeld","3.3.9","0","n","0","right","right","right","right","NA","958","67510","3350","958","NA","2","legacy","6","1024","2","48000","-16","experiment","4","even","2","421493","70215","418169","419280","2683","148602","419284","374647","2703","145252","424456","420288","423497","423497","NA","Sternberg task","54","44368","57","yes","1024"
"94.82758620689656","94.82758620689656","782.6379310344828","782.6379310344828","black","experiment","legacy","legacy","legacy","0","uniform","1","undefined","1","right","57","0","57","57","0","0","57","57","0","0","57","57","57","57","0","Wed Oct 13 20:09:07 2021","The main experiment item","yes","Sternbergtask.osexp","C:/Users/warne/OneDrive/Documents/Tarleton - MS Applied Psychology/Adv Quantitative Methods and Experimental Design/Labs","no","mono","no","18","no","white","no","yes","768","legacy","45","11","C:/Users/warne/OneDrive/Documents/Tarleton - MS Applied Psychology/Adv Quantitative Methods and Experimental Design/Labs/AW-subject-4.csv","legacy","7 8 6 1","Lentiform Loewenfeld","3.3.9","0","n","0","right","right","right","right","NA","1025","67510","3350","1025","NA","2","legacy","4","1024","2","48000","-16","experiment","4","even","3","427802","70215","424463","425586","2683","148602","425590","374647","2703","145252","430836","426595","429809","429809","NA","Sternberg task","55","45393","58","yes","1024"
"94.91525423728814","94.91525423728814","782.4745762711865","782.4745762711865","black","experiment","legacy","legacy","legacy","0","uniform","1","undefined","1","left","58","0","58","58","0","0","58","58","0","0","58","58","58","58","0","Wed Oct 13 20:09:07 2021","The main experiment item","yes","Sternbergtask.osexp","C:/Users/warne/OneDrive/Documents/Tarleton - MS Applied Psychology/Adv Quantitative Methods and Experimental Design/Labs","no","mono","no","18","no","white","no","yes","768","legacy","46","11","C:/Users/warne/OneDrive/Documents/Tarleton - MS Applied Psychology/Adv Quantitative Methods and Experimental Design/Labs/AW-subject-4.csv","legacy","9 6 2 4 1","Lentiform Loewenfeld","3.3.9","4","y","0","left","right","right","left","NA","773","67510","3350","773","NA","2","legacy","5","1024","2","48000","-16","experiment","4","even","4","434158","70215","430842","431949","2683","148602","431952","374647","2703","145252","436940","432955","436166","436165","NA","Sternberg task","56","46166","59","yes","1024"
"95","95","779.5","779.5","black","experiment","legacy","legacy","legacy","0","uniform","1","undefined","1","right","59","0","59","59","0","0","59","59","0","0","59","59","59","59","0","Wed Oct 13 20:09:07 2021","The main experiment item","yes","Sternbergtask.osexp","C:/Users/warne/OneDrive/Documents/Tarleton - MS Applied Psychology/Adv Quantitative Methods and Experimental Design/Labs","no","mono","no","18","no","white","no","yes","768","legacy","47","11","C:/Users/warne/OneDrive/Documents/Tarleton - MS Applied Psychology/Adv Quantitative Methods and Experimental Design/Labs/AW-subject-4.csv","legacy","7 1","Lentiform Loewenfeld","3.3.9","0","n","0","right","right","right","right","NA","604","67510","3350","604","NA","2","legacy","2","1024","2","48000","-16","experiment","4","even","8","440295","70215","436947","438075","2683","148602","438080","374647","2703","145252","442907","439087","442302","442301","NA","Sternberg task","57","46770","60","yes","1024"
"95.08196721311475","95.08196721311475","778.7868852459017","778.7868852459017","black","experiment","legacy","legacy","legacy","0","uniform","1","undefined","1","left","60","0","60","60","0","0","60","60","0","0","60","60","60","60","0","Wed Oct 13 20:09:07 2021","The main experiment item","yes","Sternbergtask.osexp","C:/Users/warne/OneDrive/Documents/Tarleton - MS Applied Psychology/Adv Quantitative Methods and Experimental Design/Labs","no","mono","no","18","no","white","no","yes","768","legacy","48","11","C:/Users/warne/OneDrive/Documents/Tarleton - MS Applied Psychology/Adv Quantitative Methods and Experimental Design/Labs/AW-subject-4.csv","legacy","3 9 6 2","Lentiform Loewenfeld","3.3.9","4","y","0","left","right","right","left","NA","736","67510","3350","736","NA","2","legacy","4","1024","2","48000","-16","experiment","4","even","2","446308","70215","442956","444091","2683","148602","444094","374647","2703","145252","449052","445101","448315","448315","NA","Sternberg task","58","47506","61","yes","1024"
"95.16129032258064","95.16129032258064","779.9193548387096","779.9193548387096","black","experiment","legacy","legacy","legacy","0","uniform","1","undefined","1","right","61","0","61","61","0","0","61","61","0","0","61","61","61","61","0","Wed Oct 13 20:09:07 2021","The main experiment item","yes","Sternbergtask.osexp","C:/Users/warne/OneDrive/Documents/Tarleton - MS Applied Psychology/Adv Quantitative Methods and Experimental Design/Labs","no","mono","no","18","no","white","no","yes","768","legacy","49","11","C:/Users/warne/OneDrive/Documents/Tarleton - MS Applied Psychology/Adv Quantitative Methods and Experimental Design/Labs/AW-subject-4.csv","legacy","2 8 9 4 1","Lentiform Loewenfeld","3.3.9","0","n","0","right","right","right","right","NA","849","67510","3350","849","NA","2","legacy","5","1024","2","48000","-16","experiment","4","even","5","452457","70215","449100","450239","2683","148602","450243","374647","2703","145252","455315","451250","454464","454464","NA","Sternberg task","59","48355","62","yes","1024"
"95.23809523809524","95.23809523809524","779.4603174603175","779.4603174603175","black","experiment","legacy","legacy","legacy","0","uniform","1","undefined","1","right","62","0","62","62","0","0","62","62","0","0","62","62","62","62","0","Wed Oct 13 20:09:07 2021","The main experiment item","yes","Sternbergtask.osexp","C:/Users/warne/OneDrive/Documents/Tarleton - MS Applied Psychology/Adv Quantitative Methods and Experimental Design/Labs","no","mono","no","18","no","white","no","yes","768","legacy","50","11","C:/Users/warne/OneDrive/Documents/Tarleton - MS Applied Psychology/Adv Quantitative Methods and Experimental Design/Labs/AW-subject-4.csv","legacy","3 9 8 1 6 4","Lentiform Loewenfeld","3.3.9","0","n","0","right","right","right","right","NA","751","67510","3350","751","NA","2","legacy","6","1024","2","48000","-16","experiment","4","even","7","458712","70215","455363","456493","2683","148602","456498","374647","2703","145252","461471","457505","460719","460718","NA","Sternberg task","60","49106","63","yes","1024"
"93.75","93.75","780.515625","780.515625","black","experiment","legacy","legacy","legacy","0","uniform","0","undefined","0","right","63","0","63","63","0","0","63","63","0","0","63","63","63","63","0","Wed Oct 13 20:09:07 2021","The main experiment item","yes","Sternbergtask.osexp","C:/Users/warne/OneDrive/Documents/Tarleton - MS Applied Psychology/Adv Quantitative Methods and Experimental Design/Labs","no","mono","no","18","no","white","no","yes","768","legacy","51","11","C:/Users/warne/OneDrive/Documents/Tarleton - MS Applied Psychology/Adv Quantitative Methods and Experimental Design/Labs/AW-subject-4.csv","legacy","8 5 4 2 9 6","Lentiform Loewenfeld","3.3.9","0","n","0","left","right","right","left","NA","847","67510","3350","847","NA","2","legacy","6","1024","2","48000","-16","experiment","4","even","3","464839","70215","461478","462621","2683","148602","462624","374647","2703","145252","467696","463632","466848","466848","NA","Sternberg task","60","49953","64","yes","1024"
"93.84615384615384","93.84615384615384","778.8153846153846","778.8153846153846","black","experiment","legacy","legacy","legacy","0","uniform","1","undefined","1","left","64","0","64","64","0","0","64","64","0","0","64","64","64","64","0","Wed Oct 13 20:09:07 2021","The main experiment item","yes","Sternbergtask.osexp","C:/Users/warne/OneDrive/Documents/Tarleton - MS Applied Psychology/Adv Quantitative Methods and Experimental Design/Labs","no","mono","no","18","no","white","no","yes","768","legacy","52","11","C:/Users/warne/OneDrive/Documents/Tarleton - MS Applied Psychology/Adv Quantitative Methods and Experimental Design/Labs/AW-subject-4.csv","legacy","9 1 7 2","Lentiform Loewenfeld","3.3.9","2","y","0","left","right","right","left","NA","670","67510","3350","670","NA","2","legacy","4","1024","2","48000","-16","experiment","4","even","1","471106","70215","461478","468888","2683","148602","468892","467742","2703","145252","473785","469899","473113","473113","NA","Sternberg task","61","50623","65","yes","1024"
"93.93939393939394","93.93939393939394","777.1060606060606","777.1060606060606","black","experiment","legacy","legacy","legacy","0","uniform","1","undefined","1","left","65","0","65","65","0","0","65","65","0","0","65","65","65","65","0","Wed Oct 13 20:09:07 2021","The main experiment item","yes","Sternbergtask.osexp","C:/Users/warne/OneDrive/Documents/Tarleton - MS Applied Psychology/Adv Quantitative Methods and Experimental Design/Labs","no","mono","no","18","no","white","no","yes","768","legacy","53","11","C:/Users/warne/OneDrive/Documents/Tarleton - MS Applied Psychology/Adv Quantitative Methods and Experimental Design/Labs/AW-subject-4.csv","legacy","2 5 4 8 7","Lentiform Loewenfeld","3.3.9","3","y","0","left","right","right","left","NA","666","67510","3350","666","NA","2","legacy","5","1024","2","48000","-16","experiment","4","even","4","477185","70215","473832","474967","2683","148602","474971","467742","2703","145252","479859","475977","479192","479191","NA","Sternberg task","62","51289","66","yes","1024"
"94.02985074626865","94.02985074626865","778.7462686567164","778.7462686567164","black","experiment","legacy","legacy","legacy","0","uniform","1","undefined","1","left","66","0","66","66","0","0","66","66","0","0","66","66","66","66","0","Wed Oct 13 20:09:07 2021","The main experiment item","yes","Sternbergtask.osexp","C:/Users/warne/OneDrive/Documents/Tarleton - MS Applied Psychology/Adv Quantitative Methods and Experimental Design/Labs","no","mono","no","18","no","white","no","yes","768","legacy","54","11","C:/Users/warne/OneDrive/Documents/Tarleton - MS Applied Psychology/Adv Quantitative Methods and Experimental Design/Labs/AW-subject-4.csv","legacy","8","Lentiform Loewenfeld","3.3.9","1","y","0","left","right","right","left","NA","887","67510","3350","887","NA","2","legacy","1","1024","2","48000","-16","experiment","4","even","8","483282","70215","479907","481061","2683","148602","481066","467742","2703","145252","486176","482074","485288","485288","NA","Sternberg task","63","52176","67","yes","1024"
"94.11764705882354","94.11764705882354","777.6470588235294","777.6470588235294","black","experiment","legacy","legacy","legacy","0","uniform","1","undefined","1","left","67","0","67","67","0","0","67","67","0","0","67","67","67","67","0","Wed Oct 13 20:09:07 2021","The main experiment item","yes","Sternbergtask.osexp","C:/Users/warne/OneDrive/Documents/Tarleton - MS Applied Psychology/Adv Quantitative Methods and Experimental Design/Labs","no","mono","no","18","no","white","no","yes","768","legacy","55","11","C:/Users/warne/OneDrive/Documents/Tarleton - MS Applied Psychology/Adv Quantitative Methods and Experimental Design/Labs/AW-subject-4.csv","legacy","4 9 7 8 5 3","Lentiform Loewenfeld","3.3.9","4","y","0","left","right","right","left","NA","704","67510","3350","704","NA","2","legacy","6","1024","2","48000","-16","experiment","4","even","8","489586","70215","486223","487367","2683","148602","487370","467742","2703","145252","492297","488378","491592","491592","NA","Sternberg task","64","52880","68","yes","1024"
"94.20289855072464","94.20289855072464","779.4927536231884","779.4927536231884","black","experiment","legacy","legacy","legacy","0","uniform","1","undefined","1","right","68","0","68","68","0","0","68","68","0","0","68","68","68","68","0","Wed Oct 13 20:09:07 2021","The main experiment item","yes","Sternbergtask.osexp","C:/Users/warne/OneDrive/Documents/Tarleton - MS Applied Psychology/Adv Quantitative Methods and Experimental Design/Labs","no","mono","no","18","no","white","no","yes","768","legacy","56","11","C:/Users/warne/OneDrive/Documents/Tarleton - MS Applied Psychology/Adv Quantitative Methods and Experimental Design/Labs/AW-subject-4.csv","legacy","1","Lentiform Loewenfeld","3.3.9","0","n","0","right","right","right","right","NA","905","67510","3350","905","NA","2","legacy","1","1024","2","48000","-16","experiment","4","even","7","495676","70215","492304","493459","2683","148602","493461","467742","2703","145252","498589","494468","497683","497683","NA","Sternberg task","65","53785","69","yes","1024"
"94.28571428571429","94.28571428571429","784.5142857142857","784.5142857142857","black","experiment","legacy","legacy","legacy","0","uniform","1","undefined","1","right","69","0","69","69","0","0","69","69","0","0","69","69","69","69","0","Wed Oct 13 20:09:07 2021","The main experiment item","yes","Sternbergtask.osexp","C:/Users/warne/OneDrive/Documents/Tarleton - MS Applied Psychology/Adv Quantitative Methods and Experimental Design/Labs","no","mono","no","18","no","white","no","yes","768","legacy","57","11","C:/Users/warne/OneDrive/Documents/Tarleton - MS Applied Psychology/Adv Quantitative Methods and Experimental Design/Labs/AW-subject-4.csv","legacy","8 9","Lentiform Loewenfeld","3.3.9","0","n","0","right","right","right","right","NA","1131","67510","3350","1131","NA","2","legacy","2","1024","2","48000","-16","experiment","4","even","5","501988","70215","498636","499771","2683","148602","499775","467742","2703","145252","505128","500782","503996","503996","NA","Sternberg task","66","54916","70","yes","1024"
"94.36619718309859","94.36619718309859","781.3521126760563","781.3521126760563","black","experiment","legacy","legacy","legacy","0","uniform","1","undefined","1","left","70","0","70","70","0","0","70","70","0","0","70","70","70","70","0","Wed Oct 13 20:09:07 2021","The main experiment item","yes","Sternbergtask.osexp","C:/Users/warne/OneDrive/Documents/Tarleton - MS Applied Psychology/Adv Quantitative Methods and Experimental Design/Labs","no","mono","no","18","no","white","no","yes","768","legacy","58","11","C:/Users/warne/OneDrive/Documents/Tarleton - MS Applied Psychology/Adv Quantitative Methods and Experimental Design/Labs/AW-subject-4.csv","legacy","4 6 5 8","Lentiform Loewenfeld","3.3.9","1","y","0","left","right","right","left","NA","560","67510","3350","560","NA","2","legacy","4","1024","2","48000","-16","experiment","4","even","4","508545","70215","505174","506330","2683","148602","506333","467742","2703","145252","511113","507339","510552","510552","NA","Sternberg task","67","55476","71","yes","1024"
"94.44444444444444","94.44444444444444","778.6388888888889","778.6388888888889","black","experiment","legacy","legacy","legacy","0","uniform","1","undefined","1","left","71","0","71","71","0","0","71","71","0","0","71","71","71","71","0","Wed Oct 13 20:09:07 2021","The main experiment item","yes","Sternbergtask.osexp","C:/Users/warne/OneDrive/Documents/Tarleton - MS Applied Psychology/Adv Quantitative Methods and Experimental Design/Labs","no","mono","no","18","no","white","no","yes","768","legacy","59","11","C:/Users/warne/OneDrive/Documents/Tarleton - MS Applied Psychology/Adv Quantitative Methods and Experimental Design/Labs/AW-subject-4.csv","legacy","4","Lentiform Loewenfeld","3.3.9","1","y","0","left","right","right","left","NA","586","67510","3350","586","NA","2","legacy","1","1024","2","48000","-16","experiment","4","even","4","514535","70215","511161","512317","2683","148602","512321","467742","2703","145252","517128","513327","516541","516541","NA","Sternberg task","68","56062","72","yes","1024"
"94.52054794520548","94.52054794520548","776.1369863013699","776.1369863013699","black","experiment","legacy","legacy","legacy","0","uniform","1","undefined","1","left","72","0","72","72","0","0","72","72","0","0","72","72","72","72","0","Wed Oct 13 20:09:07 2021","The main experiment item","yes","Sternbergtask.osexp","C:/Users/warne/OneDrive/Documents/Tarleton - MS Applied Psychology/Adv Quantitative Methods and Experimental Design/Labs","no","mono","no","18","no","white","no","yes","768","legacy","60","11","C:/Users/warne/OneDrive/Documents/Tarleton - MS Applied Psychology/Adv Quantitative Methods and Experimental Design/Labs/AW-subject-4.csv","legacy","3 2 1 4 7","Lentiform Loewenfeld","3.3.9","2","y","0","left","right","right","left","NA","596","67510","3350","596","NA","2","legacy","5","1024","2","48000","-16","experiment","4","even","2","520565","70215","517177","518347","2683","148602","518351","467742","2703","145252","523168","519358","522571","522571","NA","Sternberg task","69","56658","73","yes","1024"
"94.5945945945946","94.5945945945946","775.027027027027","775.027027027027","black","experiment","legacy","legacy","legacy","0","uniform","1","undefined","1","right","73","0","73","73","0","0","73","73","0","0","73","73","73","73","0","Wed Oct 13 20:09:07 2021","The main experiment item","yes","Sternbergtask.osexp","C:/Users/warne/OneDrive/Documents/Tarleton - MS Applied Psychology/Adv Quantitative Methods and Experimental Design/Labs","no","mono","no","18","no","white","no","yes","768","legacy","61","11","C:/Users/warne/OneDrive/Documents/Tarleton - MS Applied Psychology/Adv Quantitative Methods and Experimental Design/Labs/AW-subject-4.csv","legacy","5 3 2 6 9 8","Lentiform Loewenfeld","3.3.9","0","n","0","right","right","right","right","NA","694","67510","3350","694","NA","2","legacy","6","1024","2","48000","-16","experiment","4","even","4","526576","70215","523217","524356","2683","148602","524360","467742","2703","145252","529274","525369","528579","528579","NA","Sternberg task","70","57352","74","yes","1024"
"94.66666666666667","94.66666666666667","772.5466666666666","772.5466666666666","black","experiment","legacy","legacy","legacy","0","uniform","1","undefined","1","right","74","0","74","74","0","0","74","74","0","0","74","74","74","74","0","Wed Oct 13 20:09:07 2021","The main experiment item","yes","Sternbergtask.osexp","C:/Users/warne/OneDrive/Documents/Tarleton - MS Applied Psychology/Adv Quantitative Methods and Experimental Design/Labs","no","mono","no","18","no","white","no","yes","768","legacy","62","11","C:/Users/warne/OneDrive/Documents/Tarleton - MS Applied Psychology/Adv Quantitative Methods and Experimental Design/Labs/AW-subject-4.csv","legacy","2 7 5","Lentiform Loewenfeld","3.3.9","0","n","0","right","right","right","right","NA","589","67510","3350","589","NA","2","legacy","3","1024","2","48000","-16","experiment","4","even","8","532635","70215","529280","530415","2683","148602","530419","467742","2703","145252","535232","531428","534642","534641","NA","Sternberg task","71","57941","75","yes","1024"
"93.42105263157895","93.42105263157895","772.1578947368421","772.1578947368421","black","experiment","legacy","legacy","legacy","0","uniform","0","undefined","0","left","75","0","75","75","0","0","75","75","0","0","75","75","75","75","0","Wed Oct 13 20:09:07 2021","The main experiment item","yes","Sternbergtask.osexp","C:/Users/warne/OneDrive/Documents/Tarleton - MS Applied Psychology/Adv Quantitative Methods and Experimental Design/Labs","no","mono","no","18","no","white","no","yes","768","legacy","63","11","C:/Users/warne/OneDrive/Documents/Tarleton - MS Applied Psychology/Adv Quantitative Methods and Experimental Design/Labs/AW-subject-4.csv","legacy","7 1 8 5 6 2","Lentiform Loewenfeld","3.3.9","2","y","0","right","right","right","right","NA","743","67510","3350","743","NA","2","legacy","6","1024","2","48000","-16","experiment","4","even","1","538655","70215","535280","536437","2683","148602","536441","467742","2703","145252","541407","537448","540663","540663","NA","Sternberg task","71","58684","76","yes","1024"
"93.50649350649351","93.50649350649351","772.3766233766233","772.3766233766233","black","experiment","legacy","legacy","legacy","0","uniform","1","undefined","1","left","76","0","76","76","0","0","76","76","0","0","76","76","76","76","0","Wed Oct 13 20:09:07 2021","The main experiment item","yes","Sternbergtask.osexp","C:/Users/warne/OneDrive/Documents/Tarleton - MS Applied Psychology/Adv Quantitative Methods and Experimental Design/Labs","no","mono","no","18","no","white","no","yes","768","legacy","64","11","C:/Users/warne/OneDrive/Documents/Tarleton - MS Applied Psychology/Adv Quantitative Methods and Experimental Design/Labs/AW-subject-4.csv","legacy","4 7 6 8 2 3","Lentiform Loewenfeld","3.3.9","6","y","0","left","right","right","left","NA","789","67510","3350","789","NA","2","legacy","6","1024","2","48000","-16","experiment","4","even","3","544803","70215","535280","542583","2683","148602","542588","541454","2703","145252","547601","543596","546810","546810","NA","Sternberg task","72","59473","77","yes","1024"
"92.3076923076923","92.3076923076923","781.6282051282051","781.6282051282051","black","experiment","legacy","legacy","legacy","0","uniform","0","undefined","0","right","77","0","77","77","0","0","77","77","0","0","77","77","77","77","0","Wed Oct 13 20:09:07 2021","The main experiment item","yes","Sternbergtask.osexp","C:/Users/warne/OneDrive/Documents/Tarleton - MS Applied Psychology/Adv Quantitative Methods and Experimental Design/Labs","no","mono","no","18","no","white","no","yes","768","legacy","65","11","C:/Users/warne/OneDrive/Documents/Tarleton - MS Applied Psychology/Adv Quantitative Methods and Experimental Design/Labs/AW-subject-4.csv","legacy","7 4 2 8 1 9","Lentiform Loewenfeld","3.3.9","0","n","0","left","right","right","left","NA","1494","67510","3350","1494","NA","2","legacy","6","1024","2","48000","-16","experiment","4","even","5","550996","70215","547648","548778","2683","148602","548782","541454","2703","145252","554498","549790","553003","553003","NA","Sternberg task","72","60967","78","yes","1024"
"92.40506329113924","92.40506329113924","779.8354430379746","779.8354430379746","black","experiment","legacy","legacy","legacy","0","uniform","1","undefined","1","left","78","0","78","78","0","0","78","78","0","0","78","78","78","78","0","Wed Oct 13 20:09:07 2021","The main experiment item","yes","Sternbergtask.osexp","C:/Users/warne/OneDrive/Documents/Tarleton - MS Applied Psychology/Adv Quantitative Methods and Experimental Design/Labs","no","mono","no","18","no","white","no","yes","768","legacy","66","11","C:/Users/warne/OneDrive/Documents/Tarleton - MS Applied Psychology/Adv Quantitative Methods and Experimental Design/Labs/AW-subject-4.csv","legacy","6 5","Lentiform Loewenfeld","3.3.9","2","y","0","left","right","right","left","NA","640","67510","3350","640","NA","2","legacy","2","1024","2","48000","-16","experiment","4","even","5","557896","70215","547648","555677","2683","148602","555681","554545","2703","145252","560543","556688","559902","559901","NA","Sternberg task","73","61607","79","yes","1024"
"92.5","92.5","780.475","780.475","black","experiment","legacy","legacy","legacy","0","uniform","1","undefined","1","left","79","0","79","79","0","0","79","79","0","0","79","79","79","79","0","Wed Oct 13 20:09:07 2021","The main experiment item","yes","Sternbergtask.osexp","C:/Users/warne/OneDrive/Documents/Tarleton - MS Applied Psychology/Adv Quantitative Methods and Experimental Design/Labs","no","mono","no","18","no","white","no","yes","768","legacy","67","11","C:/Users/warne/OneDrive/Documents/Tarleton - MS Applied Psychology/Adv Quantitative Methods and Experimental Design/Labs/AW-subject-4.csv","legacy","6 7 8 5","Lentiform Loewenfeld","3.3.9","3","y","0","left","right","right","left","NA","831","67510","3350","831","NA","2","legacy","4","1024","2","48000","-16","experiment","4","even","8","563944","70215","560591","561725","2683","148602","561729","554545","2703","145252","566783","562736","565951","565951","NA","Sternberg task","74","62438","80","yes","1024"
"92.5925925925926","92.5925925925926","776.9506172839506","776.9506172839506","black","experiment","legacy","legacy","legacy","0","uniform","1","undefined","1","left","80","0","80","80","0","0","80","80","0","0","80","80","80","80","0","Wed Oct 13 20:09:07 2021","The main experiment item","yes","Sternbergtask.osexp","C:/Users/warne/OneDrive/Documents/Tarleton - MS Applied Psychology/Adv Quantitative Methods and Experimental Design/Labs","no","mono","no","18","no","white","no","yes","768","legacy","68","11","C:/Users/warne/OneDrive/Documents/Tarleton - MS Applied Psychology/Adv Quantitative Methods and Experimental Design/Labs/AW-subject-4.csv","legacy","6 2","Lentiform Loewenfeld","3.3.9","1","y","0","left","right","right","left","NA","495","67510","3350","495","NA","2","legacy","2","1024","2","48000","-16","experiment","4","even","6","570206","70215","566831","567987","2683","148602","567991","554545","2703","145252","572710","568999","572214","572214","NA","Sternberg task","75","62933","81","yes","1024"
"92.6829268292683","92.6829268292683","777.7317073170732","777.7317073170732","black","experiment","legacy","legacy","legacy","0","uniform","1","undefined","1","right","81","0","81","81","0","0","81","81","0","0","81","81","81","81","0","Wed Oct 13 20:09:07 2021","The main experiment item","yes","Sternbergtask.osexp","C:/Users/warne/OneDrive/Documents/Tarleton - MS Applied Psychology/Adv Quantitative Methods and Experimental Design/Labs","no","mono","no","18","no","white","no","yes","768","legacy","69","11","C:/Users/warne/OneDrive/Documents/Tarleton - MS Applied Psychology/Adv Quantitative Methods and Experimental Design/Labs/AW-subject-4.csv","legacy","8 5 7 3 6","Lentiform Loewenfeld","3.3.9","0","n","0","right","right","right","right","NA","841","67510","3350","841","NA","2","legacy","5","1024","2","48000","-16","experiment","4","even","9","576106","70215","572757","573889","2683","148602","573892","554545","2703","145252","578956","574899","578113","578113","NA","Sternberg task","76","63774","82","yes","1024"
"92.7710843373494","92.7710843373494","776.5542168674699","776.5542168674699","black","experiment","legacy","legacy","legacy","0","uniform","1","undefined","1","right","82","0","82","82","0","0","82","82","0","0","82","82","82","82","0","Wed Oct 13 20:09:07 2021","The main experiment item","yes","Sternbergtask.osexp","C:/Users/warne/OneDrive/Documents/Tarleton - MS Applied Psychology/Adv Quantitative Methods and Experimental Design/Labs","no","mono","no","18","no","white","no","yes","768","legacy","70","11","C:/Users/warne/OneDrive/Documents/Tarleton - MS Applied Psychology/Adv Quantitative Methods and Experimental Design/Labs/AW-subject-4.csv","legacy","2 3 8 5 6 7","Lentiform Loewenfeld","3.3.9","0","n","0","right","right","right","right","NA","680","67510","3350","680","NA","2","legacy","6","1024","2","48000","-16","experiment","4","even","1","582362","70215","579005","580144","2683","148602","580148","554545","2703","145252","585050","581155","584369","584369","NA","Sternberg task","77","64454","83","yes","1024"
"92.85714285714286","92.85714285714286","776.5119047619048","776.5119047619048","black","experiment","legacy","legacy","legacy","0","uniform","1","undefined","1","right","83","0","83","83","0","0","83","83","0","0","83","83","83","83","0","Wed Oct 13 20:09:07 2021","The main experiment item","yes","Sternbergtask.osexp","C:/Users/warne/OneDrive/Documents/Tarleton - MS Applied Psychology/Adv Quantitative Methods and Experimental Design/Labs","no","mono","no","18","no","white","no","yes","768","legacy","71","11","C:/Users/warne/OneDrive/Documents/Tarleton - MS Applied Psychology/Adv Quantitative Methods and Experimental Design/Labs/AW-subject-4.csv","legacy","7 6 4 8 1 2","Lentiform Loewenfeld","3.3.9","0","n","0","right","right","right","right","NA","773","67510","3350","773","NA","2","legacy","6","1024","2","48000","-16","experiment","4","even","9","588466","70215","585097","586248","2683","148602","586252","554545","2703","145252","591249","587258","590475","590475","NA","Sternberg task","78","65227","84","yes","1024"
"92.94117647058823","92.94117647058823","774.5176470588235","774.5176470588235","black","experiment","legacy","legacy","legacy","0","uniform","1","undefined","1","left","84","0","84","84","0","0","84","84","0","0","84","84","84","84","0","Wed Oct 13 20:09:07 2021","The main experiment item","yes","Sternbergtask.osexp","C:/Users/warne/OneDrive/Documents/Tarleton - MS Applied Psychology/Adv Quantitative Methods and Experimental Design/Labs","no","mono","no","18","no","white","no","yes","768","legacy","72","11","C:/Users/warne/OneDrive/Documents/Tarleton - MS Applied Psychology/Adv Quantitative Methods and Experimental Design/Labs/AW-subject-4.csv","legacy","8 5 4 7 3 1","Lentiform Loewenfeld","3.3.9","2","y","0","left","right","right","left","NA","607","67510","3350","607","NA","2","legacy","6","1024","2","48000","-16","experiment","4","even","5","594646","70215","591298","592428","2683","148602","592432","554545","2703","145252","597263","593439","596655","596654","NA","Sternberg task","79","65834","85","yes","1024"
"93.02325581395348","93.02325581395348","773.4883720930233","773.4883720930233","black","experiment","legacy","legacy","legacy","0","uniform","1","undefined","1","left","85","0","85","85","0","0","85","85","0","0","85","85","85","85","0","Wed Oct 13 20:09:07 2021","The main experiment item","yes","Sternbergtask.osexp","C:/Users/warne/OneDrive/Documents/Tarleton - MS Applied Psychology/Adv Quantitative Methods and Experimental Design/Labs","no","mono","no","18","no","white","no","yes","768","legacy","73","11","C:/Users/warne/OneDrive/Documents/Tarleton - MS Applied Psychology/Adv Quantitative Methods and Experimental Design/Labs/AW-subject-4.csv","legacy","7","Lentiform Loewenfeld","3.3.9","1","y","0","left","right","right","left","NA","686","67510","3350","686","NA","2","legacy","1","1024","2","48000","-16","experiment","4","even","7","600677","70215","597309","598459","2683","148602","598463","554545","2703","145252","603371","599470","602684","602684","NA","Sternberg task","80","66520","86","yes","1024"
"93.10344827586206","93.10344827586206","772.7931034482758","772.7931034482758","black","experiment","legacy","legacy","legacy","0","uniform","1","undefined","1","right","86","0","86","86","0","0","86","86","0","0","86","86","86","86","0","Wed Oct 13 20:09:07 2021","The main experiment item","yes","Sternbergtask.osexp","C:/Users/warne/OneDrive/Documents/Tarleton - MS Applied Psychology/Adv Quantitative Methods and Experimental Design/Labs","no","mono","no","18","no","white","no","yes","768","legacy","74","11","C:/Users/warne/OneDrive/Documents/Tarleton - MS Applied Psychology/Adv Quantitative Methods and Experimental Design/Labs/AW-subject-4.csv","legacy","8 4 3 5","Lentiform Loewenfeld","3.3.9","0","n","0","right","right","right","right","NA","713","67510","3350","713","NA","2","legacy","4","1024","2","48000","-16","experiment","4","even","6","606788","70215","603420","604568","2683","148602","604572","554545","2703","145252","609511","605579","608796","608796","NA","Sternberg task","81","67233","87","yes","1024"
"93.18181818181819","93.18181818181819","772.5","772.5","black","experiment","legacy","legacy","legacy","0","uniform","1","undefined","1","left","87","0","87","87","0","0","87","87","0","0","87","87","87","87","0","Wed Oct 13 20:09:07 2021","The main experiment item","yes","Sternbergtask.osexp","C:/Users/warne/OneDrive/Documents/Tarleton - MS Applied Psychology/Adv Quantitative Methods and Experimental Design/Labs","no","mono","no","18","no","white","no","yes","768","legacy","75","11","C:/Users/warne/OneDrive/Documents/Tarleton - MS Applied Psychology/Adv Quantitative Methods and Experimental Design/Labs/AW-subject-4.csv","legacy","9 5 8 1","Lentiform Loewenfeld","3.3.9","2","y","0","left","right","right","left","NA","747","67510","3350","747","NA","2","legacy","4","1024","2","48000","-16","experiment","4","even","5","612932","70215","609558","610714","2683","148602","610718","554545","2703","145252","615688","611725","614940","614940","NA","Sternberg task","82","67980","88","yes","1024"
"93.25842696629213","93.25842696629213","769.4269662921348","769.4269662921348","black","experiment","legacy","legacy","legacy","0","uniform","1","undefined","1","left","88","0","88","88","0","0","88","88","0","0","88","88","88","88","0","Wed Oct 13 20:09:07 2021","The main experiment item","yes","Sternbergtask.osexp","C:/Users/warne/OneDrive/Documents/Tarleton - MS Applied Psychology/Adv Quantitative Methods and Experimental Design/Labs","no","mono","no","18","no","white","no","yes","768","legacy","76","11","C:/Users/warne/OneDrive/Documents/Tarleton - MS Applied Psychology/Adv Quantitative Methods and Experimental Design/Labs/AW-subject-4.csv","legacy","9 3 1 2 5","Lentiform Loewenfeld","3.3.9","4","y","0","left","right","right","left","NA","499","67510","3350","499","NA","2","legacy","5","1024","2","48000","-16","experiment","4","even","2","619104","70215","615736","616886","2683","148602","616890","554545","2703","145252","621609","617897","621109","621109","NA","Sternberg task","83","68479","89","yes","1024"
"93.33333333333333","93.33333333333333","766.8666666666667","766.8666666666667","black","experiment","legacy","legacy","legacy","0","uniform","1","undefined","1","left","89","0","89","89","0","0","89","89","0","0","89","89","89","89","0","Wed Oct 13 20:09:07 2021","The main experiment item","yes","Sternbergtask.osexp","C:/Users/warne/OneDrive/Documents/Tarleton - MS Applied Psychology/Adv Quantitative Methods and Experimental Design/Labs","no","mono","no","18","no","white","no","yes","768","legacy","77","11","C:/Users/warne/OneDrive/Documents/Tarleton - MS Applied Psychology/Adv Quantitative Methods and Experimental Design/Labs/AW-subject-4.csv","legacy","6 7 9 3 1 2","Lentiform Loewenfeld","3.3.9","1","y","0","left","right","right","left","NA","539","67510","3350","539","NA","2","legacy","6","1024","2","48000","-16","experiment","4","even","6","624954","70215","621616","622736","2683","148602","622739","554545","2703","145252","627502","623747","626962","626962","NA","Sternberg task","84","69018","90","yes","1024"
"93.4065934065934","93.4065934065934","765.5714285714286","765.5714285714286","black","experiment","legacy","legacy","legacy","0","uniform","1","undefined","1","left","90","0","90","90","0","0","90","90","0","0","90","90","90","90","0","Wed Oct 13 20:09:07 2021","The main experiment item","yes","Sternbergtask.osexp","C:/Users/warne/OneDrive/Documents/Tarleton - MS Applied Psychology/Adv Quantitative Methods and Experimental Design/Labs","no","mono","no","18","no","white","no","yes","768","legacy","78","11","C:/Users/warne/OneDrive/Documents/Tarleton - MS Applied Psychology/Adv Quantitative Methods and Experimental Design/Labs/AW-subject-4.csv","legacy","8 9 5 7 1 6","Lentiform Loewenfeld","3.3.9","4","y","0","left","right","right","left","NA","649","67510","3350","649","NA","2","legacy","6","1024","2","48000","-16","experiment","4","even","7","630923","70215","627549","628703","2683","148602","628709","554545","2703","145252","633581","629716","632931","632931","NA","Sternberg task","85","69667","91","yes","1024"
"93.47826086956522","93.47826086956522","766.0434782608696","766.0434782608696","black","experiment","legacy","legacy","legacy","0","uniform","1","undefined","1","right","91","0","91","91","0","0","91","91","0","0","91","91","91","91","0","Wed Oct 13 20:09:07 2021","The main experiment item","yes","Sternbergtask.osexp","C:/Users/warne/OneDrive/Documents/Tarleton - MS Applied Psychology/Adv Quantitative Methods and Experimental Design/Labs","no","mono","no","18","no","white","no","yes","768","legacy","79","11","C:/Users/warne/OneDrive/Documents/Tarleton - MS Applied Psychology/Adv Quantitative Methods and Experimental Design/Labs/AW-subject-4.csv","legacy","4 2 7 6 1 3","Lentiform Loewenfeld","3.3.9","0","n","0","right","right","right","right","NA","809","67510","3350","809","NA","2","legacy","6","1024","2","48000","-16","experiment","4","even","8","636980","70215","633628","634760","2683","148602","634765","554545","2703","145252","639797","635772","638987","638987","NA","Sternberg task","86","70476","92","yes","1024"
"93.54838709677419","93.54838709677419","768.5698924731183","768.5698924731183","black","experiment","legacy","legacy","legacy","0","uniform","1","undefined","1","right","92","0","92","92","0","0","92","92","0","0","92","92","92","92","0","Wed Oct 13 20:09:07 2021","The main experiment item","yes","Sternbergtask.osexp","C:/Users/warne/OneDrive/Documents/Tarleton - MS Applied Psychology/Adv Quantitative Methods and Experimental Design/Labs","no","mono","no","18","no","white","no","yes","768","legacy","80","11","C:/Users/warne/OneDrive/Documents/Tarleton - MS Applied Psychology/Adv Quantitative Methods and Experimental Design/Labs/AW-subject-4.csv","legacy","6 2 9 3 8 4","Lentiform Loewenfeld","3.3.9","0","n","0","right","right","right","right","NA","1001","67510","3350","1001","NA","2","legacy","6","1024","2","48000","-16","experiment","4","even","1","643217","70215","639845","640999","2683","148602","641002","554545","2703","145252","646226","642010","645224","645224","NA","Sternberg task","87","71477","93","yes","1024"
"93.61702127659575","93.61702127659575","770.3404255319149","770.3404255319149","black","experiment","legacy","legacy","legacy","0","uniform","1","undefined","1","right","93","0","93","93","0","0","93","93","0","0","93","93","93","93","0","Wed Oct 13 20:09:07 2021","The main experiment item","yes","Sternbergtask.osexp","C:/Users/warne/OneDrive/Documents/Tarleton - MS Applied Psychology/Adv Quantitative Methods and Experimental Design/Labs","no","mono","no","18","no","white","no","yes","768","legacy","81","11","C:/Users/warne/OneDrive/Documents/Tarleton - MS Applied Psychology/Adv Quantitative Methods and Experimental Design/Labs/AW-subject-4.csv","legacy","6 3 1 7 9 8","Lentiform Loewenfeld","3.3.9","0","n","0","right","right","right","right","NA","935","67510","3350","935","NA","2","legacy","6","1024","2","48000","-16","experiment","4","even","4","649593","70215","646232","647373","2683","148602","647377","554545","2703","145252","652537","648385","651601","651600","NA","Sternberg task","88","72412","94","yes","1024"
"93.6842105263158","93.6842105263158","769.8315789473684","769.8315789473684","black","experiment","legacy","legacy","legacy","0","uniform","1","undefined","1","right","94","0","94","94","0","0","94","94","0","0","94","94","94","94","0","Wed Oct 13 20:09:07 2021","The main experiment item","yes","Sternbergtask.osexp","C:/Users/warne/OneDrive/Documents/Tarleton - MS Applied Psychology/Adv Quantitative Methods and Experimental Design/Labs","no","mono","no","18","no","white","no","yes","768","legacy","82","11","C:/Users/warne/OneDrive/Documents/Tarleton - MS Applied Psychology/Adv Quantitative Methods and Experimental Design/Labs/AW-subject-4.csv","legacy","5 9 2 3","Lentiform Loewenfeld","3.3.9","0","n","0","right","right","right","right","NA","722","67510","3350","722","NA","2","legacy","4","1024","2","48000","-16","experiment","4","even","8","655957","70215","652586","653739","2683","148602","653743","554545","2703","145252","658686","654750","657963","657962","NA","Sternberg task","89","73134","95","yes","1024"
"93.75","93.75","771.1354166666666","771.1354166666666","black","experiment","legacy","legacy","legacy","0","uniform","1","undefined","1","left","95","0","95","95","0","0","95","95","0","0","95","95","95","95","0","Wed Oct 13 20:09:07 2021","The main experiment item","yes","Sternbergtask.osexp","C:/Users/warne/OneDrive/Documents/Tarleton - MS Applied Psychology/Adv Quantitative Methods and Experimental Design/Labs","no","mono","no","18","no","white","no","yes","768","legacy","83","11","C:/Users/warne/OneDrive/Documents/Tarleton - MS Applied Psychology/Adv Quantitative Methods and Experimental Design/Labs/AW-subject-4.csv","legacy","3 5 9 6 2 4","Lentiform Loewenfeld","3.3.9","1","y","0","left","right","right","left","NA","895","67510","3350","895","NA","2","legacy","6","1024","2","48000","-16","experiment","4","even","3","662083","70215","658733","659864","2683","148602","659868","554545","2703","145252","664986","660876","664090","664090","NA","Sternberg task","90","74029","96","yes","1024"
