acc,accuracy,average_response_time,avg_rt,background,block,canvas_backend,clock_backend,color_backend,compensation,coordinates,correct,correct_instruction1,correct_keyboard_response,correct_response,count_ISI,count_correctFeedback,count_expSequence,count_experiment,count_fixation,count_incorrectFeedback,count_instruction1,count_instruction2,count_keyboard_response,count_logger,count_memorySet,count_new_loop,count_practiceLoop,count_probe,count_thankYou,datetime,description,disable_garbage_collection,experiment_file,experiment_path,font_bold,font_family,font_italic,font_size,font_underline,foreground,form_clicks,fullscreen,height,keyboard_backend,live_row,live_row_practiceLoop,logfile,mouse_backend,numberSet,opensesame_codename,opensesame_version,posInSet,present,repeat_cycle,response,response_instruction1,response_instruction2,response_keyboard_response,response_thankYou,response_time,response_time_instruction1,response_time_instruction2,response_time_keyboard_response,response_time_thankYou,round_decimals,sampler_backend,setSize,sound_buf_size,sound_channels,sound_freq,sound_sample_size,start,subject_nr,subject_parity,target,time_ISI,time_correctFeedback,time_expSequence,time_experiment,time_fixation,time_incorrectFeedback,time_instruction1,time_instruction2,time_keyboard_response,time_logger,time_memorySet,time_new_loop,time_practiceLoop,time_probe,time_thankYou,title,total_correct,total_response_time,total_responses,uniform_coordinates,width
100,100,648,648,black,practice,legacy,legacy,legacy,0,uniform,1,undefined,1,left,0,0,0,0,0,0,0,0,0,0,0,0,0,0,0,10/27/19 16:17,sternberg task,yes,sternbergtask.osexp,C:/Users/DLGoupil/Desktop,no,mono,no,18,no,white,no,yes,768,legacy,0,0,C:/Users/DLGoupil/Desktop/dg-subject-3.csv,legacy,4 8,Kafkaesque Koffka,3.2.8,1,y,0,left,right,NA,left,NA,648,3612,NA,648,NA,2,legacy,2,1024,2,48000,-16,experiment,3,odd,4,8796,NA,6587,2031,6590,NA,2035,NA,10799,11448,7593,NA,5648,10799,NA,New experiment,1,648,1,yes,1024
100,100,675.5,675.5,black,practice,legacy,legacy,legacy,0,uniform,1,undefined,1,left,1,1,1,0,1,1,0,0,1,1,1,0,0,1,0,10/27/19 16:17,sternberg task,yes,sternbergtask.osexp,C:/Users/DLGoupil/Desktop,no,mono,no,18,no,white,no,yes,768,legacy,1,1,C:/Users/DLGoupil/Desktop/dg-subject-3.csv,legacy,4 3 1 7 9 8,Kafkaesque Koffka,3.2.8,1,y,0,left,right,NA,left,NA,703,3612,NA,703,NA,2,legacy,6,1024,2,48000,-16,experiment,3,odd,4,14869,11520,12660,2031,12663,NA,2035,NA,16872,17576,13666,NA,5648,16872,NA,New experiment,2,1351,2,yes,1024
100,100,730.6666667,730.6666667,black,practice,legacy,legacy,legacy,0,uniform,1,undefined,1,right,2,2,2,0,2,2,0,0,2,2,2,0,0,2,0,10/27/19 16:17,sternberg task,yes,sternbergtask.osexp,C:/Users/DLGoupil/Desktop,no,mono,no,18,no,white,no,yes,768,legacy,2,2,C:/Users/DLGoupil/Desktop/dg-subject-3.csv,legacy,3 1 9 4,Kafkaesque Koffka,3.2.8,0,n,0,right,right,NA,right,NA,841,3612,NA,841,NA,2,legacy,4,1024,2,48000,-16,experiment,3,odd,6,20923,17581,18714,2031,18716,NA,2035,NA,22926,23768,19720,NA,5648,22926,NA,New experiment,3,2192,3,yes,1024
100,100,774.5,774.5,black,practice,legacy,legacy,legacy,0,uniform,1,undefined,1,left,3,3,3,0,3,3,0,0,3,3,3,0,0,3,0,10/27/19 16:17,sternberg task,yes,sternbergtask.osexp,C:/Users/DLGoupil/Desktop,no,mono,no,18,no,white,no,yes,768,legacy,3,3,C:/Users/DLGoupil/Desktop/dg-subject-3.csv,legacy,1 5 2 9,Kafkaesque Koffka,3.2.8,2,y,0,left,right,NA,left,NA,906,3612,NA,906,NA,2,legacy,4,1024,2,48000,-16,experiment,3,odd,5,27122,23773,24914,2031,24916,NA,2035,NA,29125,30031,25919,NA,5648,29125,NA,New experiment,4,3098,4,yes,1024
100,100,768.6,768.6,black,practice,legacy,legacy,legacy,0,uniform,1,undefined,1,right,4,4,4,0,4,4,0,0,4,4,4,0,0,4,0,10/27/19 16:17,sternberg task,yes,sternbergtask.osexp,C:/Users/DLGoupil/Desktop,no,mono,no,18,no,white,no,yes,768,legacy,4,4,C:/Users/DLGoupil/Desktop/dg-subject-3.csv,legacy,4 1 5,Kafkaesque Koffka,3.2.8,0,n,0,right,right,NA,right,NA,745,3612,NA,745,NA,2,legacy,3,1024,2,48000,-16,experiment,3,odd,2,33387,30036,31179,2031,31181,NA,2035,NA,35390,36136,32184,NA,5648,35390,NA,New experiment,5,3843,5,yes,1024
100,100,828.1666667,828.1666667,black,practice,legacy,legacy,legacy,0,uniform,1,undefined,1,right,5,5,5,0,5,5,0,0,5,5,5,0,0,5,0,10/27/19 16:17,sternberg task,yes,sternbergtask.osexp,C:/Users/DLGoupil/Desktop,no,mono,no,18,no,white,no,yes,768,legacy,5,5,C:/Users/DLGoupil/Desktop/dg-subject-3.csv,legacy,5,Kafkaesque Koffka,3.2.8,0,n,0,right,right,NA,right,NA,1126,3612,NA,1126,NA,2,legacy,1,1024,2,48000,-16,experiment,3,odd,3,39486,36141,37278,2031,37280,NA,2035,NA,41489,42615,38283,NA,5648,41489,NA,New experiment,6,4969,6,yes,1024
100,100,914.1428571,914.1428571,black,practice,legacy,legacy,legacy,0,uniform,1,undefined,1,right,6,6,6,0,6,6,0,0,6,6,6,0,0,6,0,10/27/19 16:17,sternberg task,yes,sternbergtask.osexp,C:/Users/DLGoupil/Desktop,no,mono,no,18,no,white,no,yes,768,legacy,6,6,C:/Users/DLGoupil/Desktop/dg-subject-3.csv,legacy,5 7 8 4 1 2,Kafkaesque Koffka,3.2.8,0,n,0,right,right,NA,right,NA,1430,3612,NA,1430,NA,2,legacy,6,1024,2,48000,-16,experiment,3,odd,6,45966,42620,43757,2031,43760,NA,2035,NA,47969,49399,44763,NA,5648,47969,NA,New experiment,7,6399,7,yes,1024
100,100,1019.625,1019.625,black,practice,legacy,legacy,legacy,0,uniform,1,undefined,1,left,7,7,7,0,7,7,0,0,7,7,7,0,0,7,0,10/27/19 16:17,sternberg task,yes,sternbergtask.osexp,C:/Users/DLGoupil/Desktop,no,mono,no,18,no,white,no,yes,768,legacy,7,7,C:/Users/DLGoupil/Desktop/dg-subject-3.csv,legacy,1 7 9 8 5,Kafkaesque Koffka,3.2.8,4,y,0,left,right,NA,left,NA,1758,3612,NA,1758,NA,2,legacy,5,1024,2,48000,-16,experiment,3,odd,8,52750,49404,50542,2031,50545,NA,2035,NA,54753,56512,51548,NA,5648,54753,NA,New experiment,8,8157,8,yes,1024
100,100,1016.555556,1016.555556,black,practice,legacy,legacy,legacy,0,uniform,1,undefined,1,right,8,8,8,0,8,8,0,0,8,8,8,0,0,8,0,10/27/19 16:17,sternberg task,yes,sternbergtask.osexp,C:/Users/DLGoupil/Desktop,no,mono,no,18,no,white,no,yes,768,legacy,8,8,C:/Users/DLGoupil/Desktop/dg-subject-3.csv,legacy,9 6 7 4 5,Kafkaesque Koffka,3.2.8,0,n,0,right,right,NA,right,NA,992,3612,NA,992,NA,2,legacy,5,1024,2,48000,-16,experiment,3,odd,3,59860,56517,57652,2031,57654,NA,2035,NA,61863,62856,58657,NA,5648,61863,NA,New experiment,9,9149,9,yes,1024
100,100,979.9,979.9,black,practice,legacy,legacy,legacy,0,uniform,1,undefined,1,right,9,9,9,0,9,9,0,0,9,9,9,0,0,9,0,10/27/19 16:17,sternberg task,yes,sternbergtask.osexp,C:/Users/DLGoupil/Desktop,no,mono,no,18,no,white,no,yes,768,legacy,9,9,C:/Users/DLGoupil/Desktop/dg-subject-3.csv,legacy,2 1,Kafkaesque Koffka,3.2.8,0,n,0,right,right,NA,right,NA,650,3612,NA,650,NA,2,legacy,2,1024,2,48000,-16,experiment,3,odd,5,66210,62861,64001,2031,64003,NA,2035,NA,68213,68863,65007,NA,5648,68213,NA,New experiment,10,9799,10,yes,1024
100,100,961.0909091,961.0909091,black,practice,legacy,legacy,legacy,0,uniform,1,undefined,1,left,10,10,10,0,10,10,0,0,10,10,10,0,0,10,0,10/27/19 16:17,sternberg task,yes,sternbergtask.osexp,C:/Users/DLGoupil/Desktop,no,mono,no,18,no,white,no,yes,768,legacy,10,10,C:/Users/DLGoupil/Desktop/dg-subject-3.csv,legacy,6,Kafkaesque Koffka,3.2.8,1,y,0,left,right,NA,left,NA,773,3612,NA,773,NA,2,legacy,1,1024,2,48000,-16,experiment,3,odd,6,72215,68868,70006,2031,70009,NA,2035,NA,74218,74992,71012,NA,5648,74218,NA,New experiment,11,10572,11,yes,1024
100,100,939,939,black,practice,legacy,legacy,legacy,0,uniform,1,undefined,1,left,11,11,11,0,11,11,0,0,11,11,11,0,0,11,0,10/27/19 16:17,sternberg task,yes,sternbergtask.osexp,C:/Users/DLGoupil/Desktop,no,mono,no,18,no,white,no,yes,768,legacy,11,11,C:/Users/DLGoupil/Desktop/dg-subject-3.csv,legacy,2 9 4,Kafkaesque Koffka,3.2.8,3,y,0,left,right,NA,left,NA,696,3612,NA,696,NA,2,legacy,3,1024,2,48000,-16,experiment,3,odd,4,78340,74997,76131,2031,76134,NA,2035,NA,80343,81039,77137,NA,5648,80343,NA,New experiment,12,11268,12,yes,1024
100,100,929.7692308,929.7692308,black,experiment,legacy,legacy,legacy,0,uniform,1,undefined,1,right,12,12,12,0,12,12,0,0,12,12,12,0,0,12,0,10/27/19 16:17,sternberg task,yes,sternbergtask.osexp,C:/Users/DLGoupil/Desktop,no,mono,no,18,no,white,no,yes,768,legacy,0,11,C:/Users/DLGoupil/Desktop/dg-subject-3.csv,legacy,8 6 3 4 7,Kafkaesque Koffka,3.2.8,0,n,0,right,right,right,right,NA,819,3612,1283,819,NA,2,legacy,5,1024,2,48000,-16,experiment,3,odd,1,85769,81044,83561,2031,83563,NA,2035,82076,87772,88592,84566,83360,5648,87772,NA,New experiment,13,12087,13,yes,1024
100,100,905.7857143,905.7857143,black,experiment,legacy,legacy,legacy,0,uniform,1,undefined,1,left,13,13,13,0,13,13,0,0,13,13,13,0,0,13,0,10/27/19 16:17,sternberg task,yes,sternbergtask.osexp,C:/Users/DLGoupil/Desktop,no,mono,no,18,no,white,no,yes,768,legacy,1,11,C:/Users/DLGoupil/Desktop/dg-subject-3.csv,legacy,2 8 5 1,Kafkaesque Koffka,3.2.8,4,y,0,left,right,right,left,NA,594,3612,1283,594,NA,2,legacy,4,1024,2,48000,-16,experiment,3,odd,1,91938,88597,89730,2031,89733,NA,2035,82076,93941,94536,90736,83360,5648,93941,NA,New experiment,14,12681,14,yes,1024
100,100,885.2,885.2,black,experiment,legacy,legacy,legacy,0,uniform,1,undefined,1,right,14,14,14,0,14,14,0,0,14,14,14,0,0,14,0,10/27/19 16:17,sternberg task,yes,sternbergtask.osexp,C:/Users/DLGoupil/Desktop,no,mono,no,18,no,white,no,yes,768,legacy,2,11,C:/Users/DLGoupil/Desktop/dg-subject-3.csv,legacy,6 8,Kafkaesque Koffka,3.2.8,0,n,0,right,right,right,right,NA,597,3612,1283,597,NA,2,legacy,2,1024,2,48000,-16,experiment,3,odd,9,97888,94541,95680,2031,95682,NA,2035,82076,99891,100488,96685,83360,5648,99891,NA,New experiment,15,13278,15,yes,1024
100,100,878.6875,878.6875,black,experiment,legacy,legacy,legacy,0,uniform,1,undefined,1,right,15,15,15,0,15,15,0,0,15,15,15,0,0,15,0,10/27/19 16:17,sternberg task,yes,sternbergtask.osexp,C:/Users/DLGoupil/Desktop,no,mono,no,18,no,white,no,yes,768,legacy,3,11,C:/Users/DLGoupil/Desktop/dg-subject-3.csv,legacy,3 4 2,Kafkaesque Koffka,3.2.8,0,n,0,right,right,right,right,NA,781,3612,1283,781,NA,2,legacy,3,1024,2,48000,-16,experiment,3,odd,5,103840,100493,101630,2031,101633,NA,2035,82076,105843,106624,102636,83360,5648,105843,NA,New experiment,16,14059,16,yes,1024
100,100,866.7647059,866.7647059,black,experiment,legacy,legacy,legacy,0,uniform,1,undefined,1,left,16,16,16,0,16,16,0,0,16,16,16,0,0,16,0,10/27/19 16:17,sternberg task,yes,sternbergtask.osexp,C:/Users/DLGoupil/Desktop,no,mono,no,18,no,white,no,yes,768,legacy,4,11,C:/Users/DLGoupil/Desktop/dg-subject-3.csv,legacy,9 4 2,Kafkaesque Koffka,3.2.8,1,y,0,left,right,right,left,NA,676,3612,1283,676,NA,2,legacy,3,1024,2,48000,-16,experiment,3,odd,9,109977,106629,107769,2031,107771,NA,2035,82076,111980,112656,108774,83360,5648,111980,NA,New experiment,17,14735,17,yes,1024
100,100,878.3333333,878.3333333,black,experiment,legacy,legacy,legacy,0,uniform,1,undefined,1,right,17,17,17,0,17,17,0,0,17,17,17,0,0,17,0,10/27/19 16:17,sternberg task,yes,sternbergtask.osexp,C:/Users/DLGoupil/Desktop,no,mono,no,18,no,white,no,yes,768,legacy,5,11,C:/Users/DLGoupil/Desktop/dg-subject-3.csv,legacy,7 1 5 6 3,Kafkaesque Koffka,3.2.8,0,n,0,right,right,right,right,NA,1075,3612,1283,1075,NA,2,legacy,5,1024,2,48000,-16,experiment,3,odd,8,116010,112661,113801,2031,113804,NA,2035,82076,118013,119088,114807,83360,5648,118013,NA,New experiment,18,15810,18,yes,1024
100,100,866.8947368,866.8947368,black,experiment,legacy,legacy,legacy,0,uniform,1,undefined,1,left,18,18,18,0,18,18,0,0,18,18,18,0,0,18,0,10/27/19 16:17,sternberg task,yes,sternbergtask.osexp,C:/Users/DLGoupil/Desktop,no,mono,no,18,no,white,no,yes,768,legacy,6,11,C:/Users/DLGoupil/Desktop/dg-subject-3.csv,legacy,4 6 5 8,Kafkaesque Koffka,3.2.8,1,y,0,left,right,right,left,NA,661,3612,1283,661,NA,2,legacy,4,1024,2,48000,-16,experiment,3,odd,4,122439,119093,120231,2031,120233,NA,2035,82076,124442,125104,121236,83360,5648,124442,NA,New experiment,19,16471,19,yes,1024
100,100,894.05,894.05,black,experiment,legacy,legacy,legacy,0,uniform,1,undefined,1,left,19,19,19,0,19,19,0,0,19,19,19,0,0,19,0,10/27/19 16:17,sternberg task,yes,sternbergtask.osexp,C:/Users/DLGoupil/Desktop,no,mono,no,18,no,white,no,yes,768,legacy,7,11,C:/Users/DLGoupil/Desktop/dg-subject-3.csv,legacy,8 5 4 7 3 1,Kafkaesque Koffka,3.2.8,2,y,0,left,right,right,left,NA,1410,3612,1283,1410,NA,2,legacy,6,1024,2,48000,-16,experiment,3,odd,5,128458,125109,126250,2031,126252,NA,2035,82076,130461,131872,127255,83360,5648,130461,NA,New experiment,20,17881,20,yes,1024
100,100,893.8095238,893.8095238,black,experiment,legacy,legacy,legacy,0,uniform,1,undefined,1,right,20,20,20,0,20,20,0,0,20,20,20,0,0,20,0,10/27/19 16:17,sternberg task,yes,sternbergtask.osexp,C:/Users/DLGoupil/Desktop,no,mono,no,18,no,white,no,yes,768,legacy,8,11,C:/Users/DLGoupil/Desktop/dg-subject-3.csv,legacy,7 6 4 8 1 2,Kafkaesque Koffka,3.2.8,0,n,0,right,right,right,right,NA,889,3612,1283,889,NA,2,legacy,6,1024,2,48000,-16,experiment,3,odd,9,135219,131877,133011,2031,133013,NA,2035,82076,137222,138112,134016,83360,5648,137222,NA,New experiment,21,18770,21,yes,1024
100,100,895.7272727,895.7272727,black,experiment,legacy,legacy,legacy,0,uniform,1,undefined,1,right,21,21,21,0,21,21,0,0,21,21,21,0,0,21,0,10/27/19 16:17,sternberg task,yes,sternbergtask.osexp,C:/Users/DLGoupil/Desktop,no,mono,no,18,no,white,no,yes,768,legacy,9,11,C:/Users/DLGoupil/Desktop/dg-subject-3.csv,legacy,2 8 6 3 1,Kafkaesque Koffka,3.2.8,0,n,0,right,right,right,right,NA,936,3612,1283,936,NA,2,legacy,5,1024,2,48000,-16,experiment,3,odd,7,141461,138116,139252,2031,139255,NA,2035,82076,143464,144400,140258,83360,5648,143464,NA,New experiment,22,19706,22,yes,1024
100,100,886.2608696,886.2608696,black,experiment,legacy,legacy,legacy,0,uniform,1,undefined,1,left,22,22,22,0,22,22,0,0,22,22,22,0,0,22,0,10/27/19 16:17,sternberg task,yes,sternbergtask.osexp,C:/Users/DLGoupil/Desktop,no,mono,no,18,no,white,no,yes,768,legacy,10,11,C:/Users/DLGoupil/Desktop/dg-subject-3.csv,legacy,8 5 1 3 9,Kafkaesque Koffka,3.2.8,4,y,0,left,right,right,left,NA,678,3612,1283,678,NA,2,legacy,5,1024,2,48000,-16,experiment,3,odd,3,147751,144405,145543,2031,145545,NA,2035,82076,149754,150432,146548,83360,5648,149754,NA,New experiment,23,20384,23,yes,1024
100,100,871.5833333,871.5833333,black,experiment,legacy,legacy,legacy,0,uniform,1,undefined,1,left,23,23,23,0,23,23,0,0,23,23,23,0,0,23,0,10/27/19 16:17,sternberg task,yes,sternbergtask.osexp,C:/Users/DLGoupil/Desktop,no,mono,no,18,no,white,no,yes,768,legacy,11,11,C:/Users/DLGoupil/Desktop/dg-subject-3.csv,legacy,4,Kafkaesque Koffka,3.2.8,1,y,0,left,right,right,left,NA,534,3612,1283,534,NA,2,legacy,1,1024,2,48000,-16,experiment,3,odd,4,153782,150438,151574,2031,151576,NA,2035,82076,155785,156320,152579,83360,5648,155785,NA,New experiment,24,20918,24,yes,1024
100,100,859.12,859.12,black,experiment,legacy,legacy,legacy,0,uniform,1,undefined,1,left,24,24,24,0,24,24,0,0,24,24,24,0,0,24,0,10/27/19 16:17,sternberg task,yes,sternbergtask.osexp,C:/Users/DLGoupil/Desktop,no,mono,no,18,no,white,no,yes,768,legacy,12,11,C:/Users/DLGoupil/Desktop/dg-subject-3.csv,legacy,9 5 8 1,Kafkaesque Koffka,3.2.8,2,y,0,left,right,right,left,NA,560,3612,1283,560,NA,2,legacy,4,1024,2,48000,-16,experiment,3,odd,5,159669,156324,157461,2031,157463,NA,2035,82076,161672,162232,158466,83360,5648,161672,NA,New experiment,25,21478,25,yes,1024
100,100,867.1538462,867.1538462,black,experiment,legacy,legacy,legacy,0,uniform,1,undefined,1,left,25,25,25,0,25,25,0,0,25,25,25,0,0,25,0,10/27/19 16:17,sternberg task,yes,sternbergtask.osexp,C:/Users/DLGoupil/Desktop,no,mono,no,18,no,white,no,yes,768,legacy,13,11,C:/Users/DLGoupil/Desktop/dg-subject-3.csv,legacy,8 9 5 7 1 6,Kafkaesque Koffka,3.2.8,4,y,0,left,right,right,left,NA,1068,3612,1283,1068,NA,2,legacy,6,1024,2,48000,-16,experiment,3,odd,7,165578,162237,163370,2031,163372,NA,2035,82076,167580,168648,164375,83360,5648,167580,NA,New experiment,26,22546,26,yes,1024
100,100,876.1481481,876.1481481,black,experiment,legacy,legacy,legacy,0,uniform,1,undefined,1,left,26,26,26,0,26,26,0,0,26,26,26,0,0,26,0,10/27/19 16:17,sternberg task,yes,sternbergtask.osexp,C:/Users/DLGoupil/Desktop,no,mono,no,18,no,white,no,yes,768,legacy,14,11,C:/Users/DLGoupil/Desktop/dg-subject-3.csv,legacy,3 9 6 2,Kafkaesque Koffka,3.2.8,4,y,0,left,right,right,left,NA,1110,3612,1283,1110,NA,2,legacy,4,1024,2,48000,-16,experiment,3,odd,2,171998,168653,169789,2031,169792,NA,2035,82076,174001,175111,170795,83360,5648,174001,NA,New experiment,27,23656,27,yes,1024
100,100,868.4285714,868.4285714,black,experiment,legacy,legacy,legacy,0,uniform,1,undefined,1,right,27,27,27,0,27,27,0,0,27,27,27,0,0,27,0,10/27/19 16:17,sternberg task,yes,sternbergtask.osexp,C:/Users/DLGoupil/Desktop,no,mono,no,18,no,white,no,yes,768,legacy,15,11,C:/Users/DLGoupil/Desktop/dg-subject-3.csv,legacy,7 1,Kafkaesque Koffka,3.2.8,0,n,0,right,right,right,right,NA,660,3612,1283,660,NA,2,legacy,2,1024,2,48000,-16,experiment,3,odd,8,178465,175116,176257,2031,176259,NA,2035,82076,180468,181128,177262,83360,5648,180468,NA,New experiment,28,24316,28,yes,1024
100,100,857.8275862,857.8275862,black,experiment,legacy,legacy,legacy,0,uniform,1,undefined,1,left,28,28,28,0,28,28,0,0,28,28,28,0,0,28,0,10/27/19 16:17,sternberg task,yes,sternbergtask.osexp,C:/Users/DLGoupil/Desktop,no,mono,no,18,no,white,no,yes,768,legacy,16,11,C:/Users/DLGoupil/Desktop/dg-subject-3.csv,legacy,6 2,Kafkaesque Koffka,3.2.8,1,y,0,left,right,right,left,NA,561,3612,1283,561,NA,2,legacy,2,1024,2,48000,-16,experiment,3,odd,6,184476,181133,182268,2031,182270,NA,2035,82076,186479,187040,183273,83360,5648,186479,NA,New experiment,29,24877,29,yes,1024
100,100,860.7333333,860.7333333,black,experiment,legacy,legacy,legacy,0,uniform,1,undefined,1,left,29,29,29,0,29,29,0,0,29,29,29,0,0,29,0,10/27/19 16:17,sternberg task,yes,sternbergtask.osexp,C:/Users/DLGoupil/Desktop,no,mono,no,18,no,white,no,yes,768,legacy,17,11,C:/Users/DLGoupil/Desktop/dg-subject-3.csv,legacy,6 9 7 4 5 1,Kafkaesque Koffka,3.2.8,2,y,0,left,right,right,left,NA,945,3612,1283,945,NA,2,legacy,6,1024,2,48000,-16,experiment,3,odd,9,190388,187046,188180,2031,188182,NA,2035,82076,192391,193336,189185,83360,5648,192391,NA,New experiment,30,25822,30,yes,1024
100,100,860.3225806,860.3225806,black,experiment,legacy,legacy,legacy,0,uniform,1,undefined,1,right,30,30,30,0,30,30,0,0,30,30,30,0,0,30,0,10/27/19 16:17,sternberg task,yes,sternbergtask.osexp,C:/Users/DLGoupil/Desktop,no,mono,no,18,no,white,no,yes,768,legacy,18,11,C:/Users/DLGoupil/Desktop/dg-subject-3.csv,legacy,2 8 9,Kafkaesque Koffka,3.2.8,0,n,0,right,right,right,right,NA,848,3612,1283,848,NA,2,legacy,3,1024,2,48000,-16,experiment,3,odd,6,196684,193341,194476,2031,194478,NA,2035,82076,198687,199536,195481,83360,5648,198687,NA,New experiment,31,26670,31,yes,1024
100,100,858.5,858.5,black,experiment,legacy,legacy,legacy,0,uniform,1,undefined,1,right,31,31,31,0,31,31,0,0,31,31,31,0,0,31,0,10/27/19 16:17,sternberg task,yes,sternbergtask.osexp,C:/Users/DLGoupil/Desktop,no,mono,no,18,no,white,no,yes,768,legacy,19,11,C:/Users/DLGoupil/Desktop/dg-subject-3.csv,legacy,9 8 2 7 4,Kafkaesque Koffka,3.2.8,0,n,0,right,right,right,right,NA,802,3612,1283,802,NA,2,legacy,5,1024,2,48000,-16,experiment,3,odd,5,202899,199541,200691,2031,200693,NA,2035,82076,204902,205704,201696,83360,5648,204902,NA,New experiment,32,27472,32,yes,1024
100,100,865.2121212,865.2121212,black,experiment,legacy,legacy,legacy,0,uniform,1,undefined,1,right,32,32,32,0,32,32,0,0,32,32,32,0,0,32,0,10/27/19 16:17,sternberg task,yes,sternbergtask.osexp,C:/Users/DLGoupil/Desktop,no,mono,no,18,no,white,no,yes,768,legacy,20,11,C:/Users/DLGoupil/Desktop/dg-subject-3.csv,legacy,7 9,Kafkaesque Koffka,3.2.8,0,n,0,right,right,right,right,NA,1080,3612,1283,1080,NA,2,legacy,2,1024,2,48000,-16,experiment,3,odd,1,209052,205709,206844,2031,206846,NA,2035,82076,211055,212136,207849,83360,5648,211055,NA,New experiment,33,28552,33,yes,1024
100,100,861.5,861.5,black,experiment,legacy,legacy,legacy,0,uniform,1,undefined,1,left,33,33,33,0,33,33,0,0,33,33,33,0,0,33,0,10/27/19 16:17,sternberg task,yes,sternbergtask.osexp,C:/Users/DLGoupil/Desktop,no,mono,no,18,no,white,no,yes,768,legacy,21,11,C:/Users/DLGoupil/Desktop/dg-subject-3.csv,legacy,8,Kafkaesque Koffka,3.2.8,1,y,0,left,right,right,left,NA,739,3612,1283,739,NA,2,legacy,1,1024,2,48000,-16,experiment,3,odd,8,215490,212141,213281,2031,213284,NA,2035,82076,217493,218233,214287,83360,5648,217493,NA,New experiment,34,29291,34,yes,1024
100,100,860.3142857,860.3142857,black,experiment,legacy,legacy,legacy,0,uniform,1,undefined,1,right,34,34,34,0,34,34,0,0,34,34,34,0,0,34,0,10/27/19 16:17,sternberg task,yes,sternbergtask.osexp,C:/Users/DLGoupil/Desktop,no,mono,no,18,no,white,no,yes,768,legacy,22,11,C:/Users/DLGoupil/Desktop/dg-subject-3.csv,legacy,8 4 3 9,Kafkaesque Koffka,3.2.8,0,n,0,right,right,right,right,NA,820,3612,1283,820,NA,2,legacy,4,1024,2,48000,-16,experiment,3,odd,5,221585,218238,219376,2031,219379,NA,2035,82076,223588,224408,220382,83360,5648,223588,NA,New experiment,35,30111,35,yes,1024
100,100,860.75,860.75,black,experiment,legacy,legacy,legacy,0,uniform,1,undefined,1,right,35,35,35,0,35,35,0,0,35,35,35,0,0,35,0,10/27/19 16:17,sternberg task,yes,sternbergtask.osexp,C:/Users/DLGoupil/Desktop,no,mono,no,18,no,white,no,yes,768,legacy,23,11,C:/Users/DLGoupil/Desktop/dg-subject-3.csv,legacy,5 3 8 7 2 4,Kafkaesque Koffka,3.2.8,0,n,0,right,right,right,right,NA,876,3612,1283,876,NA,2,legacy,6,1024,2,48000,-16,experiment,3,odd,9,227761,224413,225552,2031,225555,NA,2035,82076,229764,230641,226558,83360,5648,229764,NA,New experiment,36,30987,36,yes,1024
100,100,854.6486486,854.6486486,black,experiment,legacy,legacy,legacy,0,uniform,1,undefined,1,left,36,36,36,0,36,36,0,0,36,36,36,0,0,36,0,10/27/19 16:17,sternberg task,yes,sternbergtask.osexp,C:/Users/DLGoupil/Desktop,no,mono,no,18,no,white,no,yes,768,legacy,24,11,C:/Users/DLGoupil/Desktop/dg-subject-3.csv,legacy,3 5 4 7,Kafkaesque Koffka,3.2.8,1,y,0,left,right,right,left,NA,635,3612,1283,635,NA,2,legacy,4,1024,2,48000,-16,experiment,3,odd,3,233985,230645,231778,2031,231780,NA,2035,82076,235988,236624,232782,83360,5648,235988,NA,New experiment,37,31622,37,yes,1024
100,100,853.7631579,853.7631579,black,experiment,legacy,legacy,legacy,0,uniform,1,undefined,1,right,37,37,37,0,37,37,0,0,37,37,37,0,0,37,0,10/27/19 16:17,sternberg task,yes,sternbergtask.osexp,C:/Users/DLGoupil/Desktop,no,mono,no,18,no,white,no,yes,768,legacy,25,11,C:/Users/DLGoupil/Desktop/dg-subject-3.csv,legacy,1 6 4 3 9 7,Kafkaesque Koffka,3.2.8,0,n,0,right,right,right,right,NA,821,3612,1283,821,NA,2,legacy,6,1024,2,48000,-16,experiment,3,odd,8,239975,236629,237767,2031,237769,NA,2035,82076,241978,242800,238772,83360,5648,241978,NA,New experiment,38,32443,38,yes,1024
100,100,862.1282051,862.1282051,black,experiment,legacy,legacy,legacy,0,uniform,1,undefined,1,right,38,38,38,0,38,38,0,0,38,38,38,0,0,38,0,10/27/19 16:17,sternberg task,yes,sternbergtask.osexp,C:/Users/DLGoupil/Desktop,no,mono,no,18,no,white,no,yes,768,legacy,26,11,C:/Users/DLGoupil/Desktop/dg-subject-3.csv,legacy,1 7 5 2 9,Kafkaesque Koffka,3.2.8,0,n,0,right,right,right,right,NA,1180,3612,1283,1180,NA,2,legacy,5,1024,2,48000,-16,experiment,3,odd,3,246152,242805,243943,2031,243946,NA,2035,82076,248155,249336,244949,83360,5648,248155,NA,New experiment,39,33623,39,yes,1024
100,100,862.25,862.25,black,experiment,legacy,legacy,legacy,0,uniform,1,undefined,1,right,39,39,39,0,39,39,0,0,39,39,39,0,0,39,0,10/27/19 16:17,sternberg task,yes,sternbergtask.osexp,C:/Users/DLGoupil/Desktop,no,mono,no,18,no,white,no,yes,768,legacy,27,11,C:/Users/DLGoupil/Desktop/dg-subject-3.csv,legacy,1 7 5 2,Kafkaesque Koffka,3.2.8,0,n,0,right,right,right,right,NA,867,3612,1283,867,NA,2,legacy,4,1024,2,48000,-16,experiment,3,odd,3,252689,249341,250481,2031,250483,NA,2035,82076,254692,255560,251486,83360,5648,254692,NA,New experiment,40,34490,40,yes,1024
100,100,862.4390244,862.4390244,black,experiment,legacy,legacy,legacy,0,uniform,1,undefined,1,left,40,40,40,0,40,40,0,0,40,40,40,0,0,40,0,10/27/19 16:17,sternberg task,yes,sternbergtask.osexp,C:/Users/DLGoupil/Desktop,no,mono,no,18,no,white,no,yes,768,legacy,28,11,C:/Users/DLGoupil/Desktop/dg-subject-3.csv,legacy,9 3 1 2 5,Kafkaesque Koffka,3.2.8,4,y,0,left,right,right,left,NA,870,3612,1283,870,NA,2,legacy,5,1024,2,48000,-16,experiment,3,odd,2,258910,255565,256701,2031,256704,NA,2035,82076,260913,261784,257707,83360,5648,260913,NA,New experiment,41,35360,41,yes,1024
100,100,855.2619048,855.2619048,black,experiment,legacy,legacy,legacy,0,uniform,1,undefined,1,left,41,41,41,0,41,41,0,0,41,41,41,0,0,41,0,10/27/19 16:17,sternberg task,yes,sternbergtask.osexp,C:/Users/DLGoupil/Desktop,no,mono,no,18,no,white,no,yes,768,legacy,29,11,C:/Users/DLGoupil/Desktop/dg-subject-3.csv,legacy,8 3,Kafkaesque Koffka,3.2.8,2,y,0,left,right,right,left,NA,561,3612,1283,561,NA,2,legacy,2,1024,2,48000,-16,experiment,3,odd,3,265139,261789,262931,2031,262933,NA,2035,82076,267142,267704,263936,83360,5648,267142,NA,New experiment,42,35921,42,yes,1024
100,100,856.8837209,856.8837209,black,experiment,legacy,legacy,legacy,0,uniform,1,undefined,1,left,42,42,42,0,42,42,0,0,42,42,42,0,0,42,0,10/27/19 16:17,sternberg task,yes,sternbergtask.osexp,C:/Users/DLGoupil/Desktop,no,mono,no,18,no,white,no,yes,768,legacy,30,11,C:/Users/DLGoupil/Desktop/dg-subject-3.csv,legacy,8 5 3 7 4 6,Kafkaesque Koffka,3.2.8,6,y,0,left,right,right,left,NA,925,3612,1283,925,NA,2,legacy,6,1024,2,48000,-16,experiment,3,odd,6,271055,267709,268847,2031,268849,NA,2035,82076,273058,273984,269852,83360,5648,273058,NA,New experiment,43,36846,43,yes,1024
100,100,856.7045455,856.7045455,black,experiment,legacy,legacy,legacy,0,uniform,1,undefined,1,left,43,43,43,0,43,43,0,0,43,43,43,0,0,43,0,10/27/19 16:17,sternberg task,yes,sternbergtask.osexp,C:/Users/DLGoupil/Desktop,no,mono,no,18,no,white,no,yes,768,legacy,31,11,C:/Users/DLGoupil/Desktop/dg-subject-3.csv,legacy,5 2 9 6 1 7,Kafkaesque Koffka,3.2.8,3,y,0,left,right,right,left,NA,849,3612,1283,849,NA,2,legacy,6,1024,2,48000,-16,experiment,3,odd,9,277332,273989,275124,2031,275126,NA,2035,82076,279335,280185,276129,83360,5648,279335,NA,New experiment,44,37695,44,yes,1024
100,100,852.1777778,852.1777778,black,experiment,legacy,legacy,legacy,0,uniform,1,undefined,1,left,44,44,44,0,44,44,0,0,44,44,44,0,0,44,0,10/27/19 16:17,sternberg task,yes,sternbergtask.osexp,C:/Users/DLGoupil/Desktop,no,mono,no,18,no,white,no,yes,768,legacy,32,11,C:/Users/DLGoupil/Desktop/dg-subject-3.csv,legacy,2 6 1 7 4,Kafkaesque Koffka,3.2.8,2,y,0,left,right,right,left,NA,653,3612,1283,653,NA,2,legacy,5,1024,2,48000,-16,experiment,3,odd,6,283535,280190,281326,2031,281329,NA,2035,82076,285538,286192,282332,83360,5648,285538,NA,New experiment,45,38348,45,yes,1024
100,100,852.4347826,852.4347826,black,experiment,legacy,legacy,legacy,0,uniform,1,undefined,1,right,45,45,45,0,45,45,0,0,45,45,45,0,0,45,0,10/27/19 16:17,sternberg task,yes,sternbergtask.osexp,C:/Users/DLGoupil/Desktop,no,mono,no,18,no,white,no,yes,768,legacy,33,11,C:/Users/DLGoupil/Desktop/dg-subject-3.csv,legacy,7 3 2 8,Kafkaesque Koffka,3.2.8,0,n,0,right,right,right,right,NA,864,3612,1283,864,NA,2,legacy,4,1024,2,48000,-16,experiment,3,odd,4,289540,286197,287332,2031,287334,NA,2035,82076,291543,292408,288337,83360,5648,291543,NA,New experiment,46,39212,46,yes,1024
100,100,851.6595745,851.6595745,black,experiment,legacy,legacy,legacy,0,uniform,1,undefined,1,right,46,46,46,0,46,46,0,0,46,46,46,0,0,46,0,10/27/19 16:17,sternberg task,yes,sternbergtask.osexp,C:/Users/DLGoupil/Desktop,no,mono,no,18,no,white,no,yes,768,legacy,34,11,C:/Users/DLGoupil/Desktop/dg-subject-3.csv,legacy,6 9 5,Kafkaesque Koffka,3.2.8,0,n,0,right,right,right,right,NA,816,3612,1283,816,NA,2,legacy,3,1024,2,48000,-16,experiment,3,odd,8,295756,292413,293548,2031,293550,NA,2035,82076,297759,298576,294553,83360,5648,297759,NA,New experiment,47,40028,47,yes,1024
100,100,846.125,846.125,black,experiment,legacy,legacy,legacy,0,uniform,1,undefined,1,left,47,47,47,0,47,47,0,0,47,47,47,0,0,47,0,10/27/19 16:17,sternberg task,yes,sternbergtask.osexp,C:/Users/DLGoupil/Desktop,no,mono,no,18,no,white,no,yes,768,legacy,35,11,C:/Users/DLGoupil/Desktop/dg-subject-3.csv,legacy,7 1 8 5 6 2,Kafkaesque Koffka,3.2.8,2,y,0,left,right,right,left,NA,586,3612,1283,586,NA,2,legacy,6,1024,2,48000,-16,experiment,3,odd,1,301931,298581,299722,2031,299725,NA,2035,82076,303934,304521,300728,83360,5648,303934,NA,New experiment,48,40614,48,yes,1024
100,100,843.0408163,843.0408163,black,experiment,legacy,legacy,legacy,0,uniform,1,undefined,1,left,48,48,48,0,48,48,0,0,48,48,48,0,0,48,0,10/27/19 16:17,sternberg task,yes,sternbergtask.osexp,C:/Users/DLGoupil/Desktop,no,mono,no,18,no,white,no,yes,768,legacy,36,11,C:/Users/DLGoupil/Desktop/dg-subject-3.csv,legacy,9 8 4,Kafkaesque Koffka,3.2.8,1,y,0,left,right,right,left,NA,695,3612,1283,695,NA,2,legacy,3,1024,2,48000,-16,experiment,3,odd,9,307870,304525,305661,2031,305664,NA,2035,82076,309873,310568,306667,83360,5648,309873,NA,New experiment,49,41309,49,yes,1024
100,100,844.66,844.66,black,experiment,legacy,legacy,legacy,0,uniform,1,undefined,1,right,49,49,49,0,49,49,0,0,49,49,49,0,0,49,0,10/27/19 16:17,sternberg task,yes,sternbergtask.osexp,C:/Users/DLGoupil/Desktop,no,mono,no,18,no,white,no,yes,768,legacy,37,11,C:/Users/DLGoupil/Desktop/dg-subject-3.csv,legacy,8 5 7 3 6,Kafkaesque Koffka,3.2.8,0,n,0,right,right,right,right,NA,924,3612,1283,924,NA,2,legacy,5,1024,2,48000,-16,experiment,3,odd,9,313921,310573,311713,2031,311715,NA,2035,82076,315924,316849,312718,83360,5648,315924,NA,New experiment,50,42233,50,yes,1024
100,100,840.4313725,840.4313725,black,experiment,legacy,legacy,legacy,0,uniform,1,undefined,1,right,50,50,50,0,50,50,0,0,50,50,50,0,0,50,0,10/27/19 16:17,sternberg task,yes,sternbergtask.osexp,C:/Users/DLGoupil/Desktop,no,mono,no,18,no,white,no,yes,768,legacy,38,11,C:/Users/DLGoupil/Desktop/dg-subject-3.csv,legacy,9,Kafkaesque Koffka,3.2.8,0,n,0,right,right,right,right,NA,629,3612,1283,629,NA,2,legacy,1,1024,2,48000,-16,experiment,3,odd,6,320199,316853,317990,2031,317993,NA,2035,82076,322202,322832,318996,83360,5648,322202,NA,New experiment,51,42862,51,yes,1024
100,100,841.2307692,841.2307692,black,experiment,legacy,legacy,legacy,0,uniform,1,undefined,1,right,51,51,51,0,51,51,0,0,51,51,51,0,0,51,0,10/27/19 16:17,sternberg task,yes,sternbergtask.osexp,C:/Users/DLGoupil/Desktop,no,mono,no,18,no,white,no,yes,768,legacy,39,11,C:/Users/DLGoupil/Desktop/dg-subject-3.csv,legacy,1 4 9 2 5,Kafkaesque Koffka,3.2.8,0,n,0,right,right,right,right,NA,882,3612,1283,882,NA,2,legacy,5,1024,2,48000,-16,experiment,3,odd,7,326186,322837,323978,2031,323980,NA,2035,82076,328189,329072,324983,83360,5648,328189,NA,New experiment,52,43744,52,yes,1024
100,100,836.8490566,836.8490566,black,experiment,legacy,legacy,legacy,0,uniform,1,undefined,1,left,52,52,52,0,52,52,0,0,52,52,52,0,0,52,0,10/27/19 16:17,sternberg task,yes,sternbergtask.osexp,C:/Users/DLGoupil/Desktop,no,mono,no,18,no,white,no,yes,768,legacy,40,11,C:/Users/DLGoupil/Desktop/dg-subject-3.csv,legacy,9 5 3 8 4,Kafkaesque Koffka,3.2.8,1,y,0,left,right,right,left,NA,609,3612,1283,609,NA,2,legacy,5,1024,2,48000,-16,experiment,3,odd,9,332427,329077,330219,2031,330221,NA,2035,82076,334430,335040,331224,83360,5648,334430,NA,New experiment,53,44353,53,yes,1024
98.14814815,98.14814815,840.1481481,840.1481481,black,experiment,legacy,legacy,legacy,0,uniform,0,undefined,0,left,53,53,53,0,53,53,0,0,53,53,53,0,0,53,0,10/27/19 16:17,sternberg task,yes,sternbergtask.osexp,C:/Users/DLGoupil/Desktop,no,mono,no,18,no,white,no,yes,768,legacy,41,11,C:/Users/DLGoupil/Desktop/dg-subject-3.csv,legacy,4 9 7 8 5 3,Kafkaesque Koffka,3.2.8,4,y,0,right,right,right,right,NA,1015,3612,1283,1015,NA,2,legacy,6,1024,2,48000,-16,experiment,3,odd,8,338397,335045,336189,2031,336191,NA,2035,82076,340400,341416,337194,83360,5648,340400,NA,New experiment,53,45368,54,yes,1024
98.18181818,98.18181818,841.7272727,841.7272727,black,experiment,legacy,legacy,legacy,0,uniform,1,undefined,1,left,54,54,54,0,54,54,0,0,54,54,54,0,0,54,0,10/27/19 16:17,sternberg task,yes,sternbergtask.osexp,C:/Users/DLGoupil/Desktop,no,mono,no,18,no,white,no,yes,768,legacy,42,11,C:/Users/DLGoupil/Desktop/dg-subject-3.csv,legacy,5 2 6,Kafkaesque Koffka,3.2.8,2,y,0,left,right,right,left,NA,927,3612,1283,927,NA,2,legacy,3,1024,2,48000,-16,experiment,3,odd,2,344765,335045,342556,2031,342558,341421,2035,82076,346768,347696,343562,83360,5648,346768,NA,New experiment,54,46295,55,yes,1024
98.21428571,98.21428571,843.5357143,843.5357143,black,experiment,legacy,legacy,legacy,0,uniform,1,undefined,1,right,55,55,55,0,55,55,0,0,55,55,55,0,0,55,0,10/27/19 16:17,sternberg task,yes,sternbergtask.osexp,C:/Users/DLGoupil/Desktop,no,mono,no,18,no,white,no,yes,768,legacy,43,11,C:/Users/DLGoupil/Desktop/dg-subject-3.csv,legacy,6 7 5 9,Kafkaesque Koffka,3.2.8,0,n,0,right,right,right,right,NA,943,3612,1283,943,NA,2,legacy,4,1024,2,48000,-16,experiment,3,odd,2,351045,347701,348837,2031,348839,341421,2035,82076,353048,353992,349842,83360,5648,353048,NA,New experiment,55,47238,56,yes,1024
98.24561404,98.24561404,840.1403509,840.1403509,black,experiment,legacy,legacy,legacy,0,uniform,1,undefined,1,left,56,56,56,0,56,56,0,0,56,56,56,0,0,56,0,10/27/19 16:17,sternberg task,yes,sternbergtask.osexp,C:/Users/DLGoupil/Desktop,no,mono,no,18,no,white,no,yes,768,legacy,44,11,C:/Users/DLGoupil/Desktop/dg-subject-3.csv,legacy,4 1 8 7 5,Kafkaesque Koffka,3.2.8,3,y,0,left,right,right,left,NA,650,3612,1283,650,NA,2,legacy,5,1024,2,48000,-16,experiment,3,odd,8,357339,353997,355131,2031,355133,341421,2035,82076,359342,359993,356136,83360,5648,359342,NA,New experiment,56,47888,57,yes,1024
98.27586207,98.27586207,834.8965517,834.8965517,black,experiment,legacy,legacy,legacy,0,uniform,1,undefined,1,left,57,57,57,0,57,57,0,0,57,57,57,0,0,57,0,10/27/19 16:17,sternberg task,yes,sternbergtask.osexp,C:/Users/DLGoupil/Desktop,no,mono,no,18,no,white,no,yes,768,legacy,45,11,C:/Users/DLGoupil/Desktop/dg-subject-3.csv,legacy,6 7 9 3 1 2,Kafkaesque Koffka,3.2.8,1,y,0,left,right,right,left,NA,536,3612,1283,536,NA,2,legacy,6,1024,2,48000,-16,experiment,3,odd,6,363341,359997,361133,2031,361135,341421,2035,82076,365344,365881,362138,83360,5648,365344,NA,New experiment,57,48424,58,yes,1024
98.30508475,98.30508475,831.3559322,831.3559322,black,experiment,legacy,legacy,legacy,0,uniform,1,undefined,1,right,58,58,58,0,58,58,0,0,58,58,58,0,0,58,0,10/27/19 16:17,sternberg task,yes,sternbergtask.osexp,C:/Users/DLGoupil/Desktop,no,mono,no,18,no,white,no,yes,768,legacy,46,11,C:/Users/DLGoupil/Desktop/dg-subject-3.csv,legacy,1,Kafkaesque Koffka,3.2.8,0,n,0,right,right,right,right,NA,626,3612,1283,626,NA,2,legacy,1,1024,2,48000,-16,experiment,3,odd,7,369235,365886,367028,2031,367031,341421,2035,82076,371237,371864,368033,83360,5648,371237,NA,New experiment,58,49050,59,yes,1024
98.33333333,98.33333333,828.6666667,828.6666667,black,experiment,legacy,legacy,legacy,0,uniform,1,undefined,1,left,59,59,59,0,59,59,0,0,59,59,59,0,0,59,0,10/27/19 16:17,sternberg task,yes,sternbergtask.osexp,C:/Users/DLGoupil/Desktop,no,mono,no,18,no,white,no,yes,768,legacy,47,11,C:/Users/DLGoupil/Desktop/dg-subject-3.csv,legacy,4 1 5,Kafkaesque Koffka,3.2.8,2,y,0,left,right,right,left,NA,670,3612,1283,670,NA,2,legacy,3,1024,2,48000,-16,experiment,3,odd,1,375214,371869,373007,2031,373009,341421,2035,82076,377217,377888,374012,83360,5648,377217,NA,New experiment,59,49720,60,yes,1024
98.36065574,98.36065574,827.8196721,827.8196721,black,experiment,legacy,legacy,legacy,0,uniform,1,undefined,1,right,60,60,60,0,60,60,0,0,60,60,60,0,0,60,0,10/27/19 16:17,sternberg task,yes,sternbergtask.osexp,C:/Users/DLGoupil/Desktop,no,mono,no,18,no,white,no,yes,768,legacy,48,11,C:/Users/DLGoupil/Desktop/dg-subject-3.csv,legacy,2 5 1 4,Kafkaesque Koffka,3.2.8,0,n,0,right,right,right,right,NA,777,3612,1283,777,NA,2,legacy,4,1024,2,48000,-16,experiment,3,odd,6,381243,377895,379035,2031,379037,341421,2035,82076,383246,384025,380040,83360,5648,383246,NA,New experiment,60,50497,61,yes,1024
98.38709677,98.38709677,827.5322581,827.5322581,black,experiment,legacy,legacy,legacy,0,uniform,1,undefined,1,right,61,61,61,0,61,61,0,0,61,61,61,0,0,61,0,10/27/19 16:17,sternberg task,yes,sternbergtask.osexp,C:/Users/DLGoupil/Desktop,no,mono,no,18,no,white,no,yes,768,legacy,49,11,C:/Users/DLGoupil/Desktop/dg-subject-3.csv,legacy,1 8 7,Kafkaesque Koffka,3.2.8,0,n,0,right,right,right,right,NA,810,3612,1283,810,NA,2,legacy,3,1024,2,48000,-16,experiment,3,odd,4,387371,384029,385162,2031,385165,341421,2035,82076,389374,390185,386168,83360,5648,389374,NA,New experiment,61,51307,62,yes,1024
96.82539683,96.82539683,825.6190476,825.6190476,black,experiment,legacy,legacy,legacy,0,uniform,0,undefined,0,right,62,62,62,0,62,62,0,0,62,62,62,0,0,62,0,10/27/19 16:17,sternberg task,yes,sternbergtask.osexp,C:/Users/DLGoupil/Desktop,no,mono,no,18,no,white,no,yes,768,legacy,50,11,C:/Users/DLGoupil/Desktop/dg-subject-3.csv,legacy,6 3 1 7 9 8,Kafkaesque Koffka,3.2.8,0,n,0,left,right,right,left,NA,707,3612,1283,707,NA,2,legacy,6,1024,2,48000,-16,experiment,3,odd,4,393538,390189,391330,2031,391332,341421,2035,82076,395541,396249,392335,83360,5648,395541,NA,New experiment,61,52014,63,yes,1024
96.875,96.875,828.265625,828.265625,black,experiment,legacy,legacy,legacy,0,uniform,1,undefined,1,left,63,63,63,0,63,63,0,0,63,63,63,0,0,63,0,10/27/19 16:17,sternberg task,yes,sternbergtask.osexp,C:/Users/DLGoupil/Desktop,no,mono,no,18,no,white,no,yes,768,legacy,51,11,C:/Users/DLGoupil/Desktop/dg-subject-3.csv,legacy,7 8 6 3 1,Kafkaesque Koffka,3.2.8,5,y,0,left,right,right,left,NA,995,3612,1283,995,NA,2,legacy,5,1024,2,48000,-16,experiment,3,odd,1,399602,390189,397394,2031,397396,396254,2035,82076,401605,402601,398399,83360,5648,401605,NA,New experiment,62,53009,64,yes,1024
96.92307692,96.92307692,829.6153846,829.6153846,black,experiment,legacy,legacy,legacy,0,uniform,1,undefined,1,left,64,64,64,0,64,64,0,0,64,64,64,0,0,64,0,10/27/19 16:17,sternberg task,yes,sternbergtask.osexp,C:/Users/DLGoupil/Desktop,no,mono,no,18,no,white,no,yes,768,legacy,52,11,C:/Users/DLGoupil/Desktop/dg-subject-3.csv,legacy,3 4 9 6 2 9,Kafkaesque Koffka,3.2.8,5,y,0,left,right,right,left,NA,916,3612,1283,916,NA,2,legacy,6,1024,2,48000,-16,experiment,3,odd,2,405961,402606,403752,2031,403754,396254,2035,82076,407964,408881,404758,83360,5648,407964,NA,New experiment,63,53925,65,yes,1024
96.96969697,96.96969697,827.5151515,827.5151515,black,experiment,legacy,legacy,legacy,0,uniform,1,undefined,1,right,65,65,65,0,65,65,0,0,65,65,65,0,0,65,0,10/27/19 16:17,sternberg task,yes,sternbergtask.osexp,C:/Users/DLGoupil/Desktop,no,mono,no,18,no,white,no,yes,768,legacy,53,11,C:/Users/DLGoupil/Desktop/dg-subject-3.csv,legacy,3 9 1,Kafkaesque Koffka,3.2.8,0,n,0,right,right,right,right,NA,691,3612,1283,691,NA,2,legacy,3,1024,2,48000,-16,experiment,3,odd,7,412233,408886,410024,2031,410027,396254,2035,82076,414236,414928,411030,83360,5648,414236,NA,New experiment,64,54616,66,yes,1024
97.01492537,97.01492537,830.4776119,830.4776119,black,experiment,legacy,legacy,legacy,0,uniform,1,undefined,1,right,66,66,66,0,66,66,0,0,66,66,66,0,0,66,0,10/27/19 16:17,sternberg task,yes,sternbergtask.osexp,C:/Users/DLGoupil/Desktop,no,mono,no,18,no,white,no,yes,768,legacy,54,11,C:/Users/DLGoupil/Desktop/dg-subject-3.csv,legacy,6 9 4 5 2,Kafkaesque Koffka,3.2.8,0,n,0,right,right,right,right,NA,1026,3612,1283,1026,NA,2,legacy,5,1024,2,48000,-16,experiment,3,odd,1,418274,414933,416065,2031,416067,396254,2035,82076,420277,421304,417071,83360,5648,420277,NA,New experiment,65,55642,67,yes,1024
97.05882353,97.05882353,828.7058824,828.7058824,black,experiment,legacy,legacy,legacy,0,uniform,1,undefined,1,left,67,67,67,0,67,67,0,0,67,67,67,0,0,67,0,10/27/19 16:17,sternberg task,yes,sternbergtask.osexp,C:/Users/DLGoupil/Desktop,no,mono,no,18,no,white,no,yes,768,legacy,55,11,C:/Users/DLGoupil/Desktop/dg-subject-3.csv,legacy,2 5 4 8 7,Kafkaesque Koffka,3.2.8,3,y,0,left,right,right,left,NA,710,3612,1283,710,NA,2,legacy,5,1024,2,48000,-16,experiment,3,odd,4,424654,421309,422447,2031,422449,396254,2035,82076,426657,427369,423452,83360,5648,426657,NA,New experiment,66,56352,68,yes,1024
97.10144928,97.10144928,825.4782609,825.4782609,black,experiment,legacy,legacy,legacy,0,uniform,1,undefined,1,left,68,68,68,0,68,68,0,0,68,68,68,0,0,68,0,10/27/19 16:17,sternberg task,yes,sternbergtask.osexp,C:/Users/DLGoupil/Desktop,no,mono,no,18,no,white,no,yes,768,legacy,56,11,C:/Users/DLGoupil/Desktop/dg-subject-3.csv,legacy,2 3,Kafkaesque Koffka,3.2.8,1,y,0,left,right,right,left,NA,606,3612,1283,606,NA,2,legacy,2,1024,2,48000,-16,experiment,3,odd,2,430718,427374,428510,2031,428512,396254,2035,82076,432721,433328,429515,83360,5648,432721,NA,New experiment,67,56958,69,yes,1024
97.14285714,97.14285714,821.9428571,821.9428571,black,experiment,legacy,legacy,legacy,0,uniform,1,undefined,1,left,69,69,69,0,69,69,0,0,69,69,69,0,0,69,0,10/27/19 16:17,sternberg task,yes,sternbergtask.osexp,C:/Users/DLGoupil/Desktop,no,mono,no,18,no,white,no,yes,768,legacy,57,11,C:/Users/DLGoupil/Desktop/dg-subject-3.csv,legacy,9 6 2 4 1,Kafkaesque Koffka,3.2.8,4,y,0,left,right,right,left,NA,578,3612,1283,578,NA,2,legacy,5,1024,2,48000,-16,experiment,3,odd,4,436682,433333,434473,2031,434476,396254,2035,82076,438685,439264,435479,83360,5648,438685,NA,New experiment,68,57536,70,yes,1024
97.18309859,97.18309859,827.6338028,827.6338028,black,experiment,legacy,legacy,legacy,0,uniform,1,undefined,1,right,70,70,70,0,70,70,0,0,70,70,70,0,0,70,0,10/27/19 16:17,sternberg task,yes,sternbergtask.osexp,C:/Users/DLGoupil/Desktop,no,mono,no,18,no,white,no,yes,768,legacy,58,11,C:/Users/DLGoupil/Desktop/dg-subject-3.csv,legacy,7 1 8 4 9 3,Kafkaesque Koffka,3.2.8,0,n,0,right,right,right,right,NA,1226,3612,1283,1226,NA,2,legacy,6,1024,2,48000,-16,experiment,3,odd,6,442618,439269,440409,2031,440412,396254,2035,82076,444621,445848,441415,83360,5648,444621,NA,New experiment,69,58762,71,yes,1024
97.22222222,97.22222222,830.9722222,830.9722222,black,experiment,legacy,legacy,legacy,0,uniform,1,undefined,1,right,71,71,71,0,71,71,0,0,71,71,71,0,0,71,0,10/27/19 16:17,sternberg task,yes,sternbergtask.osexp,C:/Users/DLGoupil/Desktop,no,mono,no,18,no,white,no,yes,768,legacy,59,11,C:/Users/DLGoupil/Desktop/dg-subject-3.csv,legacy,9 7 4 5 8,Kafkaesque Koffka,3.2.8,0,n,0,right,right,right,right,NA,1068,3612,1283,1068,NA,2,legacy,5,1024,2,48000,-16,experiment,3,odd,6,449200,445853,446991,2031,446993,396254,2035,82076,451203,452272,447997,83360,5648,451203,NA,New experiment,70,59830,72,yes,1024
97.26027397,97.26027397,830.5479452,830.5479452,black,experiment,legacy,legacy,legacy,0,uniform,1,undefined,1,right,72,72,72,0,72,72,0,0,72,72,72,0,0,72,0,10/27/19 16:17,sternberg task,yes,sternbergtask.osexp,C:/Users/DLGoupil/Desktop,no,mono,no,18,no,white,no,yes,768,legacy,60,11,C:/Users/DLGoupil/Desktop/dg-subject-3.csv,legacy,1 3 2 6 9,Kafkaesque Koffka,3.2.8,0,n,0,right,right,right,right,NA,800,3612,1283,800,NA,2,legacy,5,1024,2,48000,-16,experiment,3,odd,5,455620,452277,453412,2031,453414,396254,2035,82076,457623,458424,454417,83360,5648,457623,NA,New experiment,71,60630,73,yes,1024
97.2972973,97.2972973,832.7972973,832.7972973,black,experiment,legacy,legacy,legacy,0,uniform,1,undefined,1,right,73,73,73,0,73,73,0,0,73,73,73,0,0,73,0,10/27/19 16:17,sternberg task,yes,sternbergtask.osexp,C:/Users/DLGoupil/Desktop,no,mono,no,18,no,white,no,yes,768,legacy,61,11,C:/Users/DLGoupil/Desktop/dg-subject-3.csv,legacy,8 2 1 4 5 9,Kafkaesque Koffka,3.2.8,0,n,0,right,right,right,right,NA,997,3612,1283,997,NA,2,legacy,6,1024,2,48000,-16,experiment,3,odd,7,461775,458431,459567,2031,459569,396254,2035,82076,463778,464776,460572,83360,5648,463778,NA,New experiment,72,61627,74,yes,1024
97.33333333,97.33333333,828.8266667,828.8266667,black,experiment,legacy,legacy,legacy,0,uniform,1,undefined,1,left,74,74,74,0,74,74,0,0,74,74,74,0,0,74,0,10/27/19 16:17,sternberg task,yes,sternbergtask.osexp,C:/Users/DLGoupil/Desktop,no,mono,no,18,no,white,no,yes,768,legacy,62,11,C:/Users/DLGoupil/Desktop/dg-subject-3.csv,legacy,8 7 3,Kafkaesque Koffka,3.2.8,1,y,0,left,right,right,left,NA,535,3612,1283,535,NA,2,legacy,3,1024,2,48000,-16,experiment,3,odd,8,468125,464781,465917,2031,465919,396254,2035,82076,470128,470666,466922,83360,5648,470128,NA,New experiment,73,62162,75,yes,1024
97.36842105,97.36842105,829.0131579,829.0131579,black,experiment,legacy,legacy,legacy,0,uniform,1,undefined,1,right,75,75,75,0,75,75,0,0,75,75,75,0,0,75,0,10/27/19 16:17,sternberg task,yes,sternbergtask.osexp,C:/Users/DLGoupil/Desktop,no,mono,no,18,no,white,no,yes,768,legacy,63,11,C:/Users/DLGoupil/Desktop/dg-subject-3.csv,legacy,1 4 9 3,Kafkaesque Koffka,3.2.8,0,n,0,right,right,right,right,NA,843,3612,1283,843,NA,2,legacy,4,1024,2,48000,-16,experiment,3,odd,5,474009,470672,471802,2031,471804,396254,2035,82076,476012,476857,472806,83360,5648,476012,NA,New experiment,74,63005,76,yes,1024
97.4025974,97.4025974,826.6883117,826.6883117,black,experiment,legacy,legacy,legacy,0,uniform,1,undefined,1,left,76,76,76,0,76,76,0,0,76,76,76,0,0,76,0,10/27/19 16:17,sternberg task,yes,sternbergtask.osexp,C:/Users/DLGoupil/Desktop,no,mono,no,18,no,white,no,yes,768,legacy,64,11,C:/Users/DLGoupil/Desktop/dg-subject-3.csv,legacy,8 9 5 6 7,Kafkaesque Koffka,3.2.8,1,y,0,left,right,right,left,NA,650,3612,1283,650,NA,2,legacy,5,1024,2,48000,-16,experiment,3,odd,8,480210,476861,478001,2031,478003,396254,2035,82076,482213,482865,479007,83360,5648,482213,NA,New experiment,75,63655,77,yes,1024
97.43589744,97.43589744,826.3076923,826.3076923,black,experiment,legacy,legacy,legacy,0,uniform,1,undefined,1,right,77,77,77,0,77,77,0,0,77,77,77,0,0,77,0,10/27/19 16:17,sternberg task,yes,sternbergtask.osexp,C:/Users/DLGoupil/Desktop,no,mono,no,18,no,white,no,yes,768,legacy,65,11,C:/Users/DLGoupil/Desktop/dg-subject-3.csv,legacy,6 8 4,Kafkaesque Koffka,3.2.8,0,n,0,right,right,right,right,NA,797,3612,1283,797,NA,2,legacy,3,1024,2,48000,-16,experiment,3,odd,1,486215,482869,484006,2031,484009,396254,2035,82076,488218,489016,485012,83360,5648,488218,NA,New experiment,76,64452,78,yes,1024
97.46835443,97.46835443,828.9873418,828.9873418,black,experiment,legacy,legacy,legacy,0,uniform,1,undefined,1,left,78,78,78,0,78,78,0,0,78,78,78,0,0,78,0,10/27/19 16:17,sternberg task,yes,sternbergtask.osexp,C:/Users/DLGoupil/Desktop,no,mono,no,18,no,white,no,yes,768,legacy,66,11,C:/Users/DLGoupil/Desktop/dg-subject-3.csv,legacy,7 8 4 6 9 5,Kafkaesque Koffka,3.2.8,4,y,0,left,right,right,left,NA,1038,3612,1283,1038,NA,2,legacy,6,1024,2,48000,-16,experiment,3,odd,6,492366,489021,490158,2031,490160,396254,2035,82076,494369,495408,491163,83360,5648,494369,NA,New experiment,77,65490,79,yes,1024
97.5,97.5,827.225,827.225,black,experiment,legacy,legacy,legacy,0,uniform,1,undefined,1,left,79,79,79,0,79,79,0,0,79,79,79,0,0,79,0,10/27/19 16:17,sternberg task,yes,sternbergtask.osexp,C:/Users/DLGoupil/Desktop,no,mono,no,18,no,white,no,yes,768,legacy,67,11,C:/Users/DLGoupil/Desktop/dg-subject-3.csv,legacy,3 2 1 4 7,Kafkaesque Koffka,3.2.8,2,y,0,left,right,right,left,NA,688,3612,1283,688,NA,2,legacy,5,1024,2,48000,-16,experiment,3,odd,2,498756,495413,496548,2031,496550,396254,2035,82076,500759,501448,497553,83360,5648,500759,NA,New experiment,78,66178,80,yes,1024
97.5308642,97.5308642,827.8148148,827.8148148,black,experiment,legacy,legacy,legacy,0,uniform,1,undefined,1,right,80,80,80,0,80,80,0,0,80,80,80,0,0,80,0,10/27/19 16:17,sternberg task,yes,sternbergtask.osexp,C:/Users/DLGoupil/Desktop,no,mono,no,18,no,white,no,yes,768,legacy,68,11,C:/Users/DLGoupil/Desktop/dg-subject-3.csv,legacy,5 3 2 6 9 8,Kafkaesque Koffka,3.2.8,0,n,0,right,right,right,right,NA,875,3612,1283,875,NA,2,legacy,6,1024,2,48000,-16,experiment,3,odd,4,504801,501454,502592,2031,502594,396254,2035,82076,506804,507681,503598,83360,5648,506804,NA,New experiment,79,67053,81,yes,1024
97.56097561,97.56097561,827.1829268,827.1829268,black,experiment,legacy,legacy,legacy,0,uniform,1,undefined,1,right,81,81,81,0,81,81,0,0,81,81,81,0,0,81,0,10/27/19 16:17,sternberg task,yes,sternbergtask.osexp,C:/Users/DLGoupil/Desktop,no,mono,no,18,no,white,no,yes,768,legacy,69,11,C:/Users/DLGoupil/Desktop/dg-subject-3.csv,legacy,5 9 2 3,Kafkaesque Koffka,3.2.8,0,n,0,right,right,right,right,NA,776,3612,1283,776,NA,2,legacy,4,1024,2,48000,-16,experiment,3,odd,8,511020,507685,508812,2031,508814,396254,2035,82076,513023,513800,509817,83360,5648,513023,NA,New experiment,80,67829,82,yes,1024
97.59036145,97.59036145,826.4578313,826.4578313,black,experiment,legacy,legacy,legacy,0,uniform,1,undefined,1,left,82,82,82,0,82,82,0,0,82,82,82,0,0,82,0,10/27/19 16:17,sternberg task,yes,sternbergtask.osexp,C:/Users/DLGoupil/Desktop,no,mono,no,18,no,white,no,yes,768,legacy,70,11,C:/Users/DLGoupil/Desktop/dg-subject-3.csv,legacy,9 3 8 2 1 4,Kafkaesque Koffka,3.2.8,3,y,0,left,right,right,left,NA,767,3612,1283,767,NA,2,legacy,6,1024,2,48000,-16,experiment,3,odd,8,517149,513805,514941,2031,514943,396254,2035,82076,519152,519920,515946,83360,5648,519152,NA,New experiment,81,68596,83,yes,1024
97.61904762,97.61904762,825.8452381,825.8452381,black,experiment,legacy,legacy,legacy,0,uniform,1,undefined,1,right,83,83,83,0,83,83,0,0,83,83,83,0,0,83,0,10/27/19 16:17,sternberg task,yes,sternbergtask.osexp,C:/Users/DLGoupil/Desktop,no,mono,no,18,no,white,no,yes,768,legacy,71,11,C:/Users/DLGoupil/Desktop/dg-subject-3.csv,legacy,2 8 7 9 5 3,Kafkaesque Koffka,3.2.8,0,n,0,right,right,right,right,NA,775,3612,1283,775,NA,2,legacy,6,1024,2,48000,-16,experiment,3,odd,6,523269,519925,521061,2031,521063,396254,2035,82076,525272,526048,522066,83360,5648,525272,NA,New experiment,82,69371,84,yes,1024
97.64705882,97.64705882,826.2823529,826.2823529,black,experiment,legacy,legacy,legacy,0,uniform,1,undefined,1,right,84,84,84,0,84,84,0,0,84,84,84,0,0,84,0,10/27/19 16:17,sternberg task,yes,sternbergtask.osexp,C:/Users/DLGoupil/Desktop,no,mono,no,18,no,white,no,yes,768,legacy,72,11,C:/Users/DLGoupil/Desktop/dg-subject-3.csv,legacy,7 9 1 6,Kafkaesque Koffka,3.2.8,0,n,0,right,right,right,right,NA,863,3612,1283,863,NA,2,legacy,4,1024,2,48000,-16,experiment,3,odd,4,529397,526053,527189,2031,527191,396254,2035,82076,531400,532264,528194,83360,5648,531400,NA,New experiment,83,70234,85,yes,1024
97.6744186,97.6744186,823.9302326,823.9302326,black,experiment,legacy,legacy,legacy,0,uniform,1,undefined,1,left,85,85,85,0,85,85,0,0,85,85,85,0,0,85,0,10/27/19 16:17,sternberg task,yes,sternbergtask.osexp,C:/Users/DLGoupil/Desktop,no,mono,no,18,no,white,no,yes,768,legacy,73,11,C:/Users/DLGoupil/Desktop/dg-subject-3.csv,legacy,6 5,Kafkaesque Koffka,3.2.8,2,y,0,left,right,right,left,NA,624,3612,1283,624,NA,2,legacy,2,1024,2,48000,-16,experiment,3,odd,5,535612,532269,533403,2031,533406,396254,2035,82076,537615,538240,534409,83360,5648,537615,NA,New experiment,84,70858,86,yes,1024
97.70114943,97.70114943,824.6206897,824.6206897,black,experiment,legacy,legacy,legacy,0,uniform,1,undefined,1,right,86,86,86,0,86,86,0,0,86,86,86,0,0,86,0,10/27/19 16:17,sternberg task,yes,sternbergtask.osexp,C:/Users/DLGoupil/Desktop,no,mono,no,18,no,white,no,yes,768,legacy,74,11,C:/Users/DLGoupil/Desktop/dg-subject-3.csv,legacy,1 4 3 6 5,Kafkaesque Koffka,3.2.8,0,n,0,right,right,right,right,NA,884,3612,1283,884,NA,2,legacy,5,1024,2,48000,-16,experiment,3,odd,8,541592,538245,539384,2031,539386,396254,2035,82076,543595,544481,540389,83360,5648,543595,NA,New experiment,85,71742,87,yes,1024
97.72727273,97.72727273,822.8295455,822.8295455,black,experiment,legacy,legacy,legacy,0,uniform,1,undefined,1,right,87,87,87,0,87,87,0,0,87,87,87,0,0,87,0,10/27/19 16:17,sternberg task,yes,sternbergtask.osexp,C:/Users/DLGoupil/Desktop,no,mono,no,18,no,white,no,yes,768,legacy,75,11,C:/Users/DLGoupil/Desktop/dg-subject-3.csv,legacy,5 7 3,Kafkaesque Koffka,3.2.8,0,n,0,right,right,right,right,NA,667,3612,1283,667,NA,2,legacy,3,1024,2,48000,-16,experiment,3,odd,9,547833,544485,545625,2031,545627,396254,2035,82076,549836,550505,546630,83360,5648,549836,NA,New experiment,86,72409,88,yes,1024
97.75280899,97.75280899,822.2247191,822.2247191,black,experiment,legacy,legacy,legacy,0,uniform,1,undefined,1,right,88,88,88,0,88,88,0,0,88,88,88,0,0,88,0,10/27/19 16:17,sternberg task,yes,sternbergtask.osexp,C:/Users/DLGoupil/Desktop,no,mono,no,18,no,white,no,yes,768,legacy,76,11,C:/Users/DLGoupil/Desktop/dg-subject-3.csv,legacy,7 8 6 1,Kafkaesque Koffka,3.2.8,0,n,0,right,right,right,right,NA,769,3612,1283,769,NA,2,legacy,4,1024,2,48000,-16,experiment,3,odd,3,553859,550510,551651,2031,551653,396254,2035,82076,555862,556632,552656,83360,5648,555862,NA,New experiment,87,73178,89,yes,1024
96.66666667,96.66666667,824.8444444,824.8444444,black,experiment,legacy,legacy,legacy,0,uniform,0,undefined,0,right,89,89,89,0,89,89,0,0,89,89,89,0,0,89,0,10/27/19 16:17,sternberg task,yes,sternbergtask.osexp,C:/Users/DLGoupil/Desktop,no,mono,no,18,no,white,no,yes,768,legacy,77,11,C:/Users/DLGoupil/Desktop/dg-subject-3.csv,legacy,8 4 3 5,Kafkaesque Koffka,3.2.8,0,n,0,left,right,right,left,NA,1058,3612,1283,1058,NA,2,legacy,4,1024,2,48000,-16,experiment,3,odd,6,559986,556637,557777,2031,557780,396254,2035,82076,561989,563048,558783,83360,5648,561989,NA,New experiment,87,74236,90,yes,1024
96.7032967,96.7032967,823.6483516,823.6483516,black,experiment,legacy,legacy,legacy,0,uniform,1,undefined,1,left,90,90,90,0,90,90,0,0,90,90,90,0,0,90,0,10/27/19 16:17,sternberg task,yes,sternbergtask.osexp,C:/Users/DLGoupil/Desktop,no,mono,no,18,no,white,no,yes,768,legacy,78,11,C:/Users/DLGoupil/Desktop/dg-subject-3.csv,legacy,3 4,Kafkaesque Koffka,3.2.8,1,y,0,left,right,right,left,NA,716,3612,1283,716,NA,2,legacy,2,1024,2,48000,-16,experiment,3,odd,3,566400,556637,564191,2031,564194,563053,2035,82076,568403,569120,565197,83360,5648,568403,NA,New experiment,88,74952,91,yes,1024
96.73913043,96.73913043,825.6413043,825.6413043,black,experiment,legacy,legacy,legacy,0,uniform,1,undefined,1,right,91,91,91,0,91,91,0,0,91,91,91,0,0,91,0,10/27/19 16:17,sternberg task,yes,sternbergtask.osexp,C:/Users/DLGoupil/Desktop,no,mono,no,18,no,white,no,yes,768,legacy,79,11,C:/Users/DLGoupil/Desktop/dg-subject-3.csv,legacy,4 2 7 6 1 3,Kafkaesque Koffka,3.2.8,0,n,0,right,right,right,right,NA,1007,3612,1283,1007,NA,2,legacy,6,1024,2,48000,-16,experiment,3,odd,8,572469,569126,570261,2031,570263,563053,2035,82076,574472,575480,571266,83360,5648,574472,NA,New experiment,89,75959,92,yes,1024
96.77419355,96.77419355,824.0537634,824.0537634,black,experiment,legacy,legacy,legacy,0,uniform,1,undefined,1,left,92,92,92,0,92,92,0,0,92,92,92,0,0,92,0,10/27/19 16:17,sternberg task,yes,sternbergtask.osexp,C:/Users/DLGoupil/Desktop,no,mono,no,18,no,white,no,yes,768,legacy,80,11,C:/Users/DLGoupil/Desktop/dg-subject-3.csv,legacy,2 4 8 5 1 3,Kafkaesque Koffka,3.2.8,1,y,0,left,right,right,left,NA,678,3612,1283,678,NA,2,legacy,6,1024,2,48000,-16,experiment,3,odd,2,578830,575485,576622,2031,576624,563053,2035,82076,580833,581513,577627,83360,5648,580833,NA,New experiment,90,76637,93,yes,1024
96.80851064,96.80851064,821.5,821.5,black,experiment,legacy,legacy,legacy,0,uniform,1,undefined,1,left,93,93,93,0,93,93,0,0,93,93,93,0,0,93,0,10/27/19 16:17,sternberg task,yes,sternbergtask.osexp,C:/Users/DLGoupil/Desktop,no,mono,no,18,no,white,no,yes,768,legacy,81,11,C:/Users/DLGoupil/Desktop/dg-subject-3.csv,legacy,2 3 7 4,Kafkaesque Koffka,3.2.8,1,y,0,left,right,right,left,NA,584,3612,1283,584,NA,2,legacy,4,1024,2,48000,-16,experiment,3,odd,2,584860,581517,582653,2031,582655,563053,2035,82076,586863,587449,583657,83360,5648,586863,NA,New experiment,91,77221,94,yes,1024
95.78947368,95.78947368,824.5473684,824.5473684,black,experiment,legacy,legacy,legacy,0,uniform,0,undefined,0,left,94,94,94,0,94,94,0,0,94,94,94,0,0,94,0,10/27/19 16:17,sternberg task,yes,sternbergtask.osexp,C:/Users/DLGoupil/Desktop,no,mono,no,18,no,white,no,yes,768,legacy,82,11,C:/Users/DLGoupil/Desktop/dg-subject-3.csv,legacy,5 7 3 6 2,Kafkaesque Koffka,3.2.8,5,y,0,right,right,right,right,NA,1111,3612,1283,1111,NA,2,legacy,5,1024,2,48000,-16,experiment,3,odd,2,590798,587454,588589,2031,588592,563053,2035,82076,592800,593913,589595,83360,5648,592800,NA,New experiment,91,78332,95,yes,1024
95.83333333,95.83333333,823.3854167,823.3854167,black,experiment,legacy,legacy,legacy,0,uniform,1,undefined,1,left,95,95,95,0,95,95,0,0,95,95,95,0,0,95,0,10/27/19 16:17,sternberg task,yes,sternbergtask.osexp,C:/Users/DLGoupil/Desktop,no,mono,no,18,no,white,no,yes,768,legacy,83,11,C:/Users/DLGoupil/Desktop/dg-subject-3.csv,legacy,2 4 6 9,Kafkaesque Koffka,3.2.8,3,y,0,left,right,right,left,NA,713,3612,1283,713,NA,2,legacy,4,1024,2,48000,-16,experiment,3,odd,6,597267,587454,595058,2031,595061,593918,2035,82076,599270,599984,596064,83360,5648,599270,NA,New experiment,92,79045,96,yes,1024
95.87628866,95.87628866,825.4329897,825.4329897,black,experiment,legacy,legacy,legacy,0,uniform,1,undefined,1,right,96,96,96,0,96,96,0,0,96,96,96,0,0,96,0,10/27/19 16:17,sternberg task,yes,sternbergtask.osexp,C:/Users/DLGoupil/Desktop,no,mono,no,18,no,white,no,yes,768,legacy,84,11,C:/Users/DLGoupil/Desktop/dg-subject-3.csv,legacy,3 9 8 1 6 4,Kafkaesque Koffka,3.2.8,0,n,0,right,right,right,right,NA,1022,3612,1283,1022,NA,2,legacy,6,1024,2,48000,-16,experiment,3,odd,7,603334,599989,601126,2031,601128,593918,2035,82076,605337,606361,602131,83360,5648,605337,NA,New experiment,93,80067,97,yes,1024
95.91836735,95.91836735,826.7040816,826.7040816,black,experiment,legacy,legacy,legacy,0,uniform,1,undefined,1,right,97,97,97,0,97,97,0,0,97,97,97,0,0,97,0,10/27/19 16:17,sternberg task,yes,sternbergtask.osexp,C:/Users/DLGoupil/Desktop,no,mono,no,18,no,white,no,yes,768,legacy,85,11,C:/Users/DLGoupil/Desktop/dg-subject-3.csv,legacy,2 7 5,Kafkaesque Koffka,3.2.8,0,n,0,right,right,right,right,NA,950,3612,1283,950,NA,2,legacy,3,1024,2,48000,-16,experiment,3,odd,8,609718,606366,607509,2031,607512,593918,2035,82076,611721,612672,608515,83360,5648,611721,NA,New experiment,94,81017,98,yes,1024
95.95959596,95.95959596,831.3232323,831.3232323,black,experiment,legacy,legacy,legacy,0,uniform,1,undefined,1,left,98,98,98,0,98,98,0,0,98,98,98,0,0,98,0,10/27/19 16:17,sternberg task,yes,sternbergtask.osexp,C:/Users/DLGoupil/Desktop,no,mono,no,18,no,white,no,yes,768,legacy,86,11,C:/Users/DLGoupil/Desktop/dg-subject-3.csv,legacy,8 1 6,Kafkaesque Koffka,3.2.8,3,y,0,left,right,right,left,NA,1284,3612,1283,1284,NA,2,legacy,3,1024,2,48000,-16,experiment,3,odd,6,616016,612677,613807,2031,613810,593918,2035,82076,618019,619304,614813,83360,5648,618019,NA,New experiment,95,82301,99,yes,1024
96,96,832.04,832.04,black,experiment,legacy,legacy,legacy,0,uniform,1,undefined,1,right,99,99,99,0,99,99,0,0,99,99,99,0,0,99,0,10/27/19 16:17,sternberg task,yes,sternbergtask.osexp,C:/Users/DLGoupil/Desktop,no,mono,no,18,no,white,no,yes,768,legacy,87,11,C:/Users/DLGoupil/Desktop/dg-subject-3.csv,legacy,6 9 7 3 8 2,Kafkaesque Koffka,3.2.8,0,n,0,right,right,right,right,NA,903,3612,1283,903,NA,2,legacy,6,1024,2,48000,-16,experiment,3,odd,5,622653,619309,620445,2031,620447,593918,2035,82076,624656,625561,621450,83360,5648,624656,NA,New experiment,96,83204,100,yes,1024
96.03960396,96.03960396,832.9009901,832.9009901,black,experiment,legacy,legacy,legacy,0,uniform,1,undefined,1,right,100,100,100,0,100,100,0,0,100,100,100,0,0,100,0,10/27/19 16:17,sternberg task,yes,sternbergtask.osexp,C:/Users/DLGoupil/Desktop,no,mono,no,18,no,white,no,yes,768,legacy,88,11,C:/Users/DLGoupil/Desktop/dg-subject-3.csv,legacy,3 4 9 6 7 8,Kafkaesque Koffka,3.2.8,0,n,0,right,right,right,right,NA,919,3612,1283,919,NA,2,legacy,6,1024,2,48000,-16,experiment,3,odd,2,628901,625565,626692,2031,626695,593918,2035,82076,630904,631825,627698,83360,5648,630904,NA,New experiment,97,84123,101,yes,1024
96.07843137,96.07843137,832.745098,832.745098,black,experiment,legacy,legacy,legacy,0,uniform,1,undefined,1,left,101,101,101,0,101,101,0,0,101,101,101,0,0,101,0,10/27/19 16:17,sternberg task,yes,sternbergtask.osexp,C:/Users/DLGoupil/Desktop,no,mono,no,18,no,white,no,yes,768,legacy,89,11,C:/Users/DLGoupil/Desktop/dg-subject-3.csv,legacy,4 3 2 5 8,Kafkaesque Koffka,3.2.8,2,y,0,left,right,right,left,NA,817,3612,1283,817,NA,2,legacy,5,1024,2,48000,-16,experiment,3,odd,3,635172,631829,632963,2031,632966,593918,2035,82076,637175,637993,633969,83360,5648,637175,NA,New experiment,98,84940,102,yes,1024
96.11650485,96.11650485,832.0873786,832.0873786,black,experiment,legacy,legacy,legacy,0,uniform,1,undefined,1,right,102,102,102,0,102,102,0,0,102,102,102,0,0,102,0,10/27/19 16:17,sternberg task,yes,sternbergtask.osexp,C:/Users/DLGoupil/Desktop,no,mono,no,18,no,white,no,yes,768,legacy,90,11,C:/Users/DLGoupil/Desktop/dg-subject-3.csv,legacy,5 2,Kafkaesque Koffka,3.2.8,0,n,0,right,right,right,right,NA,765,3612,1283,765,NA,2,legacy,2,1024,2,48000,-16,experiment,3,odd,7,641343,637998,639135,2031,639137,593918,2035,82076,643346,644113,640140,83360,5648,643346,NA,New experiment,99,85705,103,yes,1024
96.15384615,96.15384615,831.9711538,831.9711538,black,experiment,legacy,legacy,legacy,0,uniform,1,undefined,1,right,103,103,103,0,103,103,0,0,103,103,103,0,0,103,0,10/27/19 16:17,sternberg task,yes,sternbergtask.osexp,C:/Users/DLGoupil/Desktop,no,mono,no,18,no,white,no,yes,768,legacy,91,11,C:/Users/DLGoupil/Desktop/dg-subject-3.csv,legacy,1 5 3 2 8,Kafkaesque Koffka,3.2.8,0,n,0,right,right,right,right,NA,820,3612,1283,820,NA,2,legacy,5,1024,2,48000,-16,experiment,3,odd,4,647464,644117,645256,2031,645258,593918,2035,82076,649468,650289,646261,83360,5648,649467,NA,New experiment,100,86525,104,yes,1024
96.19047619,96.19047619,830.6190476,830.6190476,black,experiment,legacy,legacy,legacy,0,uniform,1,undefined,1,left,104,104,104,0,104,104,0,0,104,104,104,0,0,104,0,10/27/19 16:17,sternberg task,yes,sternbergtask.osexp,C:/Users/DLGoupil/Desktop,no,mono,no,18,no,white,no,yes,768,legacy,92,11,C:/Users/DLGoupil/Desktop/dg-subject-3.csv,legacy,9 1 6 7 8,Kafkaesque Koffka,3.2.8,1,y,0,left,right,right,left,NA,690,3612,1283,690,NA,2,legacy,5,1024,2,48000,-16,experiment,3,odd,9,653641,650294,651433,2031,651435,593918,2035,82076,655645,656336,652438,83360,5648,655644,NA,New experiment,101,87215,105,yes,1024
96.22641509,96.22641509,830.5,830.5,black,experiment,legacy,legacy,legacy,0,uniform,1,undefined,1,right,105,105,105,0,105,105,0,0,105,105,105,0,0,105,0,10/27/19 16:17,sternberg task,yes,sternbergtask.osexp,C:/Users/DLGoupil/Desktop,no,mono,no,18,no,white,no,yes,768,legacy,93,11,C:/Users/DLGoupil/Desktop/dg-subject-3.csv,legacy,9 5 3 2 8 6,Kafkaesque Koffka,3.2.8,0,n,0,right,right,right,right,NA,818,3612,1283,818,NA,2,legacy,6,1024,2,48000,-16,experiment,3,odd,7,659683,656341,657475,2031,657477,593918,2035,82076,661685,662504,658480,83360,5648,661685,NA,New experiment,102,88033,106,yes,1024
95.3271028,95.3271028,833.1962617,833.1962617,black,experiment,legacy,legacy,legacy,0,uniform,0,undefined,0,left,106,106,106,0,106,106,0,0,106,106,106,0,0,106,0,10/27/19 16:17,sternberg task,yes,sternbergtask.osexp,C:/Users/DLGoupil/Desktop,no,mono,no,18,no,white,no,yes,768,legacy,94,11,C:/Users/DLGoupil/Desktop/dg-subject-3.csv,legacy,7 4 2 6 3 5,Kafkaesque Koffka,3.2.8,6,y,0,right,right,right,right,NA,1119,3612,1283,1119,NA,2,legacy,6,1024,2,48000,-16,experiment,3,odd,5,665853,662509,663646,2031,663648,593918,2035,82076,667856,668976,664650,83360,5648,667856,NA,New experiment,102,89152,107,yes,1024
95.37037037,95.37037037,838.3703704,838.3703704,black,experiment,legacy,legacy,legacy,0,uniform,1,undefined,1,left,107,107,107,0,107,107,0,0,107,107,107,0,0,107,0,10/27/19 16:17,sternberg task,yes,sternbergtask.osexp,C:/Users/DLGoupil/Desktop,no,mono,no,18,no,white,no,yes,768,legacy,95,11,C:/Users/DLGoupil/Desktop/dg-subject-3.csv,legacy,3 9 7 6 4,Kafkaesque Koffka,3.2.8,3,y,0,left,right,right,left,NA,1392,3612,1283,1392,NA,2,legacy,5,1024,2,48000,-16,experiment,3,odd,7,672324,662509,670116,2031,670118,668981,2035,82076,674327,675720,671121,83360,5648,674327,NA,New experiment,103,90544,108,yes,1024
95.41284404,95.41284404,838.440367,838.440367,black,experiment,legacy,legacy,legacy,0,uniform,1,undefined,1,right,108,108,108,0,108,108,0,0,108,108,108,0,0,108,0,10/27/19 16:17,sternberg task,yes,sternbergtask.osexp,C:/Users/DLGoupil/Desktop,no,mono,no,18,no,white,no,yes,768,legacy,96,11,C:/Users/DLGoupil/Desktop/dg-subject-3.csv,legacy,2 6 4 3 9,Kafkaesque Koffka,3.2.8,0,n,0,right,right,right,right,NA,846,3612,1283,846,NA,2,legacy,5,1024,2,48000,-16,experiment,3,odd,1,679078,675725,676869,2031,676872,668981,2035,82076,681081,681928,677875,83360,5648,681081,NA,New experiment,104,91390,109,yes,1024
95.45454545,95.45454545,838.8,838.8,black,experiment,legacy,legacy,legacy,0,uniform,1,undefined,1,right,109,109,109,0,109,109,0,0,109,109,109,0,0,109,0,10/27/19 16:17,sternberg task,yes,sternbergtask.osexp,C:/Users/DLGoupil/Desktop,no,mono,no,18,no,white,no,yes,768,legacy,97,11,C:/Users/DLGoupil/Desktop/dg-subject-3.csv,legacy,4 2 6 9,Kafkaesque Koffka,3.2.8,0,n,0,right,right,right,right,NA,878,3612,1283,878,NA,2,legacy,4,1024,2,48000,-16,experiment,3,odd,7,685278,681933,683070,2031,683072,668981,2035,82076,687281,688160,684075,83360,5648,687281,NA,New experiment,105,92268,110,yes,1024
95.4954955,95.4954955,841.6576577,841.6576577,black,experiment,legacy,legacy,legacy,0,uniform,1,undefined,1,right,110,110,110,0,110,110,0,0,110,110,110,0,0,110,0,10/27/19 16:17,sternberg task,yes,sternbergtask.osexp,C:/Users/DLGoupil/Desktop,no,mono,no,18,no,white,no,yes,768,legacy,98,11,C:/Users/DLGoupil/Desktop/dg-subject-3.csv,legacy,4 1,Kafkaesque Koffka,3.2.8,0,n,0,right,right,right,right,NA,1156,3612,1283,1156,NA,2,legacy,2,1024,2,48000,-16,experiment,3,odd,6,691512,688165,689304,2031,689306,668981,2035,82076,693515,694673,690309,83360,5648,693515,NA,New experiment,106,93424,111,yes,1024
95.53571429,95.53571429,839.2946429,839.2946429,black,experiment,legacy,legacy,legacy,0,uniform,1,undefined,1,left,111,111,111,0,111,111,0,0,111,111,111,0,0,111,0,10/27/19 16:17,sternberg task,yes,sternbergtask.osexp,C:/Users/DLGoupil/Desktop,no,mono,no,18,no,white,no,yes,768,legacy,99,11,C:/Users/DLGoupil/Desktop/dg-subject-3.csv,legacy,7,Kafkaesque Koffka,3.2.8,1,y,0,left,right,right,left,NA,577,3612,1283,577,NA,2,legacy,1,1024,2,48000,-16,experiment,3,odd,7,698019,694678,695810,2031,695813,668981,2035,82076,700022,700601,696816,83360,5648,700022,NA,New experiment,107,94001,112,yes,1024
95.57522124,95.57522124,840.1769912,840.1769912,black,experiment,legacy,legacy,legacy,0,uniform,1,undefined,1,left,112,112,112,0,112,112,0,0,112,112,112,0,0,112,0,10/27/19 16:17,sternberg task,yes,sternbergtask.osexp,C:/Users/DLGoupil/Desktop,no,mono,no,18,no,white,no,yes,768,legacy,100,11,C:/Users/DLGoupil/Desktop/dg-subject-3.csv,legacy,4 7 6 8 2 3,Kafkaesque Koffka,3.2.8,6,y,0,left,right,right,left,NA,939,3612,1283,939,NA,2,legacy,6,1024,2,48000,-16,experiment,3,odd,3,703953,700605,701744,2031,701746,668981,2035,82076,705956,706897,702750,83360,5648,705956,NA,New experiment,108,94940,113,yes,1024
95.61403509,95.61403509,840.1315789,840.1315789,black,experiment,legacy,legacy,legacy,0,uniform,1,undefined,1,right,113,113,113,0,113,113,0,0,113,113,113,0,0,113,0,10/27/19 16:17,sternberg task,yes,sternbergtask.osexp,C:/Users/DLGoupil/Desktop,no,mono,no,18,no,white,no,yes,768,legacy,101,11,C:/Users/DLGoupil/Desktop/dg-subject-3.csv,legacy,1 6 4,Kafkaesque Koffka,3.2.8,0,n,0,right,right,right,right,NA,835,3612,1283,835,NA,2,legacy,3,1024,2,48000,-16,experiment,3,odd,7,710250,706901,708042,2031,708044,668981,2035,82076,712253,713089,709047,83360,5648,712253,NA,New experiment,109,95775,114,yes,1024
95.65217391,95.65217391,838.3130435,838.3130435,black,experiment,legacy,legacy,legacy,0,uniform,1,undefined,1,left,114,114,114,0,114,114,0,0,114,114,114,0,0,114,0,10/27/19 16:17,sternberg task,yes,sternbergtask.osexp,C:/Users/DLGoupil/Desktop,no,mono,no,18,no,white,no,yes,768,legacy,102,11,C:/Users/DLGoupil/Desktop/dg-subject-3.csv,legacy,6 1 2,Kafkaesque Koffka,3.2.8,3,y,0,left,right,right,left,NA,631,3612,1283,631,NA,2,legacy,3,1024,2,48000,-16,experiment,3,odd,2,716438,713094,714230,2031,714232,668981,2035,82076,718441,719073,715235,83360,5648,718441,NA,New experiment,110,96406,115,yes,1024
95.68965517,95.68965517,836.4051724,836.4051724,black,experiment,legacy,legacy,legacy,0,uniform,1,undefined,1,right,115,115,115,0,115,115,0,0,115,115,115,0,0,115,0,10/27/19 16:17,sternberg task,yes,sternbergtask.osexp,C:/Users/DLGoupil/Desktop,no,mono,no,18,no,white,no,yes,768,legacy,103,11,C:/Users/DLGoupil/Desktop/dg-subject-3.csv,legacy,5,Kafkaesque Koffka,3.2.8,0,n,0,right,right,right,right,NA,617,3612,1283,617,NA,2,legacy,1,1024,2,48000,-16,experiment,3,odd,8,722428,719079,720219,2031,720221,668981,2035,82076,724431,725049,721225,83360,5648,724431,NA,New experiment,111,97023,116,yes,1024
95.72649573,95.72649573,836.4615385,836.4615385,black,experiment,legacy,legacy,legacy,0,uniform,1,undefined,1,right,116,116,116,0,116,116,0,0,116,116,116,0,0,116,0,10/27/19 16:17,sternberg task,yes,sternbergtask.osexp,C:/Users/DLGoupil/Desktop,no,mono,no,18,no,white,no,yes,768,legacy,104,11,C:/Users/DLGoupil/Desktop/dg-subject-3.csv,legacy,2 8 9 4 1,Kafkaesque Koffka,3.2.8,0,n,0,right,right,right,right,NA,843,3612,1283,843,NA,2,legacy,5,1024,2,48000,-16,experiment,3,odd,5,728401,725054,726192,2031,726194,668981,2035,82076,730404,731249,727198,83360,5648,730404,NA,New experiment,112,97866,117,yes,1024
95.76271186,95.76271186,837.0762712,837.0762712,black,experiment,legacy,legacy,legacy,0,uniform,1,undefined,1,right,117,117,117,0,117,117,0,0,117,117,117,0,0,117,0,10/27/19 16:17,sternberg task,yes,sternbergtask.osexp,C:/Users/DLGoupil/Desktop,no,mono,no,18,no,white,no,yes,768,legacy,105,11,C:/Users/DLGoupil/Desktop/dg-subject-3.csv,legacy,6 2 9 3 8 4,Kafkaesque Koffka,3.2.8,0,n,0,right,right,right,right,NA,909,3612,1283,909,NA,2,legacy,6,1024,2,48000,-16,experiment,3,odd,1,734599,731253,732390,2031,732393,668981,2035,82076,736602,737513,733396,83360,5648,736602,NA,New experiment,113,98775,118,yes,1024
95.79831933,95.79831933,836.9663866,836.9663866,black,experiment,legacy,legacy,legacy,0,uniform,1,undefined,1,right,118,118,118,0,118,118,0,0,118,118,118,0,0,118,0,10/27/19 16:17,sternberg task,yes,sternbergtask.osexp,C:/Users/DLGoupil/Desktop,no,mono,no,18,no,white,no,yes,768,legacy,106,11,C:/Users/DLGoupil/Desktop/dg-subject-3.csv,legacy,6 9 4 5 3 2,Kafkaesque Koffka,3.2.8,0,n,0,right,right,right,right,NA,824,3612,1283,824,NA,2,legacy,6,1024,2,48000,-16,experiment,3,odd,8,740861,737518,738654,2031,738656,668981,2035,82076,742864,743689,739658,83360,5648,742864,NA,New experiment,114,99599,119,yes,1024
95.83333333,95.83333333,836.6583333,836.6583333,black,experiment,legacy,legacy,legacy,0,uniform,1,undefined,1,left,119,119,119,0,119,119,0,0,119,119,119,0,0,119,0,10/27/19 16:17,sternberg task,yes,sternbergtask.osexp,C:/Users/DLGoupil/Desktop,no,mono,no,18,no,white,no,yes,768,legacy,107,11,C:/Users/DLGoupil/Desktop/dg-subject-3.csv,legacy,7 2 3,Kafkaesque Koffka,3.2.8,3,y,0,left,right,right,left,NA,800,3612,1283,800,NA,2,legacy,3,1024,2,48000,-16,experiment,3,odd,3,747037,743694,744829,2031,744831,668981,2035,82076,749039,749841,745834,83360,5648,749039,NA,New experiment,115,100399,120,yes,1024
95.8677686,95.8677686,835.0991736,835.0991736,black,experiment,legacy,legacy,legacy,0,uniform,1,undefined,1,left,120,120,120,0,120,120,0,0,120,120,120,0,0,120,0,10/27/19 16:17,sternberg task,yes,sternbergtask.osexp,C:/Users/DLGoupil/Desktop,no,mono,no,18,no,white,no,yes,768,legacy,108,11,C:/Users/DLGoupil/Desktop/dg-subject-3.csv,legacy,6 7 8 5,Kafkaesque Koffka,3.2.8,3,y,0,left,right,right,left,NA,648,3612,1283,648,NA,2,legacy,4,1024,2,48000,-16,experiment,3,odd,8,753188,749846,750980,2031,750982,668981,2035,82076,755191,755841,751985,83360,5648,755191,NA,New experiment,116,101047,121,yes,1024
95.90163934,95.90163934,833.6803279,833.6803279,black,experiment,legacy,legacy,legacy,0,uniform,1,undefined,1,left,121,121,121,0,121,121,0,0,121,121,121,0,0,121,0,10/27/19 16:17,sternberg task,yes,sternbergtask.osexp,C:/Users/DLGoupil/Desktop,no,mono,no,18,no,white,no,yes,768,legacy,109,11,C:/Users/DLGoupil/Desktop/dg-subject-3.csv,legacy,7 1 3,Kafkaesque Koffka,3.2.8,2,y,0,left,right,right,left,NA,662,3612,1283,662,NA,2,legacy,3,1024,2,48000,-16,experiment,3,odd,1,759190,755846,756982,2031,756984,668981,2035,82076,761193,761857,757987,83360,5648,761193,NA,New experiment,117,101709,122,yes,1024
95.93495935,95.93495935,832.2520325,832.2520325,black,experiment,legacy,legacy,legacy,0,uniform,1,undefined,1,left,122,122,122,0,122,122,0,0,122,122,122,0,0,122,0,10/27/19 16:17,sternberg task,yes,sternbergtask.osexp,C:/Users/DLGoupil/Desktop,no,mono,no,18,no,white,no,yes,768,legacy,110,11,C:/Users/DLGoupil/Desktop/dg-subject-3.csv,legacy,6 9 3 1,Kafkaesque Koffka,3.2.8,4,y,0,left,right,right,left,NA,658,3612,1283,658,NA,2,legacy,4,1024,2,48000,-16,experiment,3,odd,1,765210,761862,763002,2031,763004,668981,2035,82076,767213,767872,764007,83360,5648,767213,NA,New experiment,118,102367,123,yes,1024
95.96774194,95.96774194,832.7177419,832.7177419,black,experiment,legacy,legacy,legacy,0,uniform,1,undefined,1,right,123,123,123,0,123,123,0,0,123,123,123,0,0,123,0,10/27/19 16:17,sternberg task,yes,sternbergtask.osexp,C:/Users/DLGoupil/Desktop,no,mono,no,18,no,white,no,yes,768,legacy,111,11,C:/Users/DLGoupil/Desktop/dg-subject-3.csv,legacy,1 7 8 3 9,Kafkaesque Koffka,3.2.8,0,n,0,right,right,right,right,NA,890,3612,1283,890,NA,2,legacy,5,1024,2,48000,-16,experiment,3,odd,2,771219,767877,769011,2031,769013,668981,2035,82076,773222,774113,770016,83360,5648,773222,NA,New experiment,119,103257,124,yes,1024
96,96,831.112,831.112,black,experiment,legacy,legacy,legacy,0,uniform,1,undefined,1,left,124,124,124,0,124,124,0,0,124,124,124,0,0,124,0,10/27/19 16:17,sternberg task,yes,sternbergtask.osexp,C:/Users/DLGoupil/Desktop,no,mono,no,18,no,white,no,yes,768,legacy,112,11,C:/Users/DLGoupil/Desktop/dg-subject-3.csv,legacy,7 6,Kafkaesque Koffka,3.2.8,2,y,0,left,right,right,left,NA,632,3612,1283,632,NA,2,legacy,2,1024,2,48000,-16,experiment,3,odd,6,777461,774119,775253,2031,775255,668981,2035,82076,779464,780097,776258,83360,5648,779464,NA,New experiment,120,103889,125,yes,1024
96.03174603,96.03174603,831.1428571,831.1428571,black,experiment,legacy,legacy,legacy,0,uniform,1,undefined,1,left,125,125,125,0,125,125,0,0,125,125,125,0,0,125,0,10/27/19 16:17,sternberg task,yes,sternbergtask.osexp,C:/Users/DLGoupil/Desktop,no,mono,no,18,no,white,no,yes,768,legacy,113,11,C:/Users/DLGoupil/Desktop/dg-subject-3.csv,legacy,3 5 9 6 2 4,Kafkaesque Koffka,3.2.8,1,y,0,left,right,right,left,NA,835,3612,1283,835,NA,2,legacy,6,1024,2,48000,-16,experiment,3,odd,3,783450,780102,781242,2031,781244,668981,2035,82076,785453,786289,782247,83360,5648,785453,NA,New experiment,121,104724,126,yes,1024
96.06299213,96.06299213,834.6535433,834.6535433,black,experiment,legacy,legacy,legacy,0,uniform,1,undefined,1,right,126,126,126,0,126,126,0,0,126,126,126,0,0,126,0,10/27/19 16:17,sternberg task,yes,sternbergtask.osexp,C:/Users/DLGoupil/Desktop,no,mono,no,18,no,white,no,yes,768,legacy,114,11,C:/Users/DLGoupil/Desktop/dg-subject-3.csv,legacy,8 5 4 2 9 6,Kafkaesque Koffka,3.2.8,0,n,0,right,right,right,right,NA,1277,3612,1283,1277,NA,2,legacy,6,1024,2,48000,-16,experiment,3,odd,3,789640,786294,787431,2031,787434,668981,2035,82076,791643,792921,788437,83360,5648,791643,NA,New experiment,122,106001,127,yes,1024
96.09375,96.09375,833.4296875,833.4296875,black,experiment,legacy,legacy,legacy,0,uniform,1,undefined,1,right,127,127,127,0,127,127,0,0,127,127,127,0,0,127,0,10/27/19 16:17,sternberg task,yes,sternbergtask.osexp,C:/Users/DLGoupil/Desktop,no,mono,no,18,no,white,no,yes,768,legacy,115,11,C:/Users/DLGoupil/Desktop/dg-subject-3.csv,legacy,8 9,Kafkaesque Koffka,3.2.8,0,n,0,right,right,right,right,NA,678,3612,1283,678,NA,2,legacy,2,1024,2,48000,-16,experiment,3,odd,5,796271,792927,794062,2031,794065,668981,2035,82076,798274,798953,795068,83360,5648,798274,NA,New experiment,123,106679,128,yes,1024
96.12403101,96.12403101,834.0232558,834.0232558,black,experiment,legacy,legacy,legacy,0,uniform,1,undefined,1,right,128,128,128,0,128,128,0,0,128,128,128,0,0,128,0,10/27/19 16:17,sternberg task,yes,sternbergtask.osexp,C:/Users/DLGoupil/Desktop,no,mono,no,18,no,white,no,yes,768,legacy,116,11,C:/Users/DLGoupil/Desktop/dg-subject-3.csv,legacy,7 4 2 8 1 9,Kafkaesque Koffka,3.2.8,0,n,0,right,right,right,right,NA,910,3612,1283,910,NA,2,legacy,6,1024,2,48000,-16,experiment,3,odd,5,802302,798958,800093,2031,800095,668981,2035,82076,804305,805217,801099,83360,5648,804305,NA,New experiment,124,107589,129,yes,1024
96.15384615,96.15384615,834.5384615,834.5384615,black,experiment,legacy,legacy,legacy,0,uniform,1,undefined,1,left,129,129,129,0,129,129,0,0,129,129,129,0,0,129,0,10/27/19 16:17,sternberg task,yes,sternbergtask.osexp,C:/Users/DLGoupil/Desktop,no,mono,no,18,no,white,no,yes,768,legacy,117,11,C:/Users/DLGoupil/Desktop/dg-subject-3.csv,legacy,1 4 9 3 2 5,Kafkaesque Koffka,3.2.8,3,y,0,left,right,right,left,NA,901,3612,1283,901,NA,2,legacy,6,1024,2,48000,-16,experiment,3,odd,9,808567,805222,806359,2031,806361,668981,2035,82076,810570,811472,807364,83360,5648,810570,NA,New experiment,125,108490,130,yes,1024
96.18320611,96.18320611,833.5343511,833.5343511,black,experiment,legacy,legacy,legacy,0,uniform,1,undefined,1,left,130,130,130,0,130,130,0,0,130,130,130,0,0,130,0,10/27/19 16:17,sternberg task,yes,sternbergtask.osexp,C:/Users/DLGoupil/Desktop,no,mono,no,18,no,white,no,yes,768,legacy,118,11,C:/Users/DLGoupil/Desktop/dg-subject-3.csv,legacy,5 7 8 2 3 8,Kafkaesque Koffka,3.2.8,5,y,0,left,right,right,left,NA,703,3612,1283,703,NA,2,legacy,6,1024,2,48000,-16,experiment,3,odd,3,814829,811477,812621,2031,812623,668981,2035,82076,816832,817537,813626,83360,5648,816832,NA,New experiment,126,109193,131,yes,1024
96.21212121,96.21212121,832.6742424,832.6742424,black,experiment,legacy,legacy,legacy,0,uniform,1,undefined,1,right,131,131,131,0,131,131,0,0,131,131,131,0,0,131,0,10/27/19 16:17,sternberg task,yes,sternbergtask.osexp,C:/Users/DLGoupil/Desktop,no,mono,no,18,no,white,no,yes,768,legacy,119,11,C:/Users/DLGoupil/Desktop/dg-subject-3.csv,legacy,4 8 1 2,Kafkaesque Koffka,3.2.8,0,n,0,right,right,right,right,NA,720,3612,1283,720,NA,2,legacy,4,1024,2,48000,-16,experiment,3,odd,7,820892,817542,818684,2031,818686,668981,2035,82076,822895,823617,819689,83360,5648,822895,NA,New experiment,127,109913,132,yes,1024
96.2406015,96.2406015,832.6015038,832.6015038,black,experiment,legacy,legacy,legacy,0,uniform,1,undefined,1,right,132,132,132,0,132,132,0,0,132,132,132,0,0,132,0,10/27/19 16:17,sternberg task,yes,sternbergtask.osexp,C:/Users/DLGoupil/Desktop,no,mono,no,18,no,white,no,yes,768,legacy,120,11,C:/Users/DLGoupil/Desktop/dg-subject-3.csv,legacy,2 3 8 5 6 7,Kafkaesque Koffka,3.2.8,0,n,0,right,right,right,right,NA,823,3612,1283,823,NA,2,legacy,6,1024,2,48000,-16,experiment,3,odd,1,826965,823622,824756,2031,824759,668981,2035,82076,828968,829793,825762,83360,5648,828968,NA,New experiment,128,110736,133,yes,1024
96.26865672,96.26865672,834.4477612,834.4477612,black,experiment,legacy,legacy,legacy,0,uniform,1,undefined,1,left,133,133,133,0,133,133,0,0,133,133,133,0,0,133,0,10/27/19 16:17,sternberg task,yes,sternbergtask.osexp,C:/Users/DLGoupil/Desktop,no,mono,no,18,no,white,no,yes,768,legacy,121,11,C:/Users/DLGoupil/Desktop/dg-subject-3.csv,legacy,4 6 2 5 1,Kafkaesque Koffka,3.2.8,5,y,0,left,right,right,left,NA,1080,3612,1283,1080,NA,2,legacy,5,1024,2,48000,-16,experiment,3,odd,1,833140,829798,830931,2031,830934,668981,2035,82076,835143,836225,831937,83360,5648,835143,NA,New experiment,129,111816,134,yes,1024
96.2962963,96.2962963,836.5925926,836.5925926,black,experiment,legacy,legacy,legacy,0,uniform,1,undefined,1,left,134,134,134,0,134,134,0,0,134,134,134,0,0,134,0,10/27/19 16:17,sternberg task,yes,sternbergtask.osexp,C:/Users/DLGoupil/Desktop,no,mono,no,18,no,white,no,yes,768,legacy,122,11,C:/Users/DLGoupil/Desktop/dg-subject-3.csv,legacy,6 8 9 3 4 9,Kafkaesque Koffka,3.2.8,5,y,0,left,right,right,left,NA,1124,3612,1283,1124,NA,2,legacy,6,1024,2,48000,-16,experiment,3,odd,4,839577,836229,837368,2031,837371,668981,2035,82076,841580,842705,838374,83360,5648,841580,NA,New experiment,130,112940,135,yes,1024
96.32352941,96.32352941,835.4411765,835.4411765,black,experiment,legacy,legacy,legacy,0,uniform,1,undefined,1,left,135,135,135,0,135,135,0,0,135,135,135,0,0,135,0,10/27/19 16:17,sternberg task,yes,sternbergtask.osexp,C:/Users/DLGoupil/Desktop,no,mono,no,18,no,white,no,yes,768,legacy,123,11,C:/Users/DLGoupil/Desktop/dg-subject-3.csv,legacy,9 1 7 2,Kafkaesque Koffka,3.2.8,2,y,0,left,right,right,left,NA,680,3612,1283,680,NA,2,legacy,4,1024,2,48000,-16,experiment,3,odd,1,846060,842710,843851,2031,843854,668981,2035,82076,848063,848745,844857,83360,5648,848063,NA,New experiment,131,113620,136,yes,1024
96.35036496,96.35036496,836.8978102,836.8978102,black,experiment,legacy,legacy,legacy,0,uniform,1,undefined,1,left,136,136,136,0,136,136,0,0,136,136,136,0,0,136,0,10/27/19 16:17,sternberg task,yes,sternbergtask.osexp,C:/Users/DLGoupil/Desktop,no,mono,no,18,no,white,no,yes,768,legacy,124,11,C:/Users/DLGoupil/Desktop/dg-subject-3.csv,legacy,8 9 6 1,Kafkaesque Koffka,3.2.8,2,y,0,left,right,right,left,NA,1035,3612,1283,1035,NA,2,legacy,4,1024,2,48000,-16,experiment,3,odd,9,852096,848749,849887,2031,849889,668981,2035,82076,854100,855137,850893,83360,5648,854100,NA,New experiment,132,114655,137,yes,1024
96.37681159,96.37681159,836.326087,836.326087,black,experiment,legacy,legacy,legacy,0,uniform,1,undefined,1,left,137,137,137,0,137,137,0,0,137,137,137,0,0,137,0,10/27/19 16:17,sternberg task,yes,sternbergtask.osexp,C:/Users/DLGoupil/Desktop,no,mono,no,18,no,white,no,yes,768,legacy,125,11,C:/Users/DLGoupil/Desktop/dg-subject-3.csv,legacy,3 5 7 1,Kafkaesque Koffka,3.2.8,3,y,0,left,right,right,left,NA,758,3612,1283,758,NA,2,legacy,4,1024,2,48000,-16,experiment,3,odd,7,858486,855142,856278,2031,856280,668981,2035,82076,860489,861249,857283,83360,5648,860489,NA,New experiment,133,115413,138,yes,1024