"acc","accuracy","average_response_time","avg_rt","background","block","canvas_backend","clock_backend","color_backend","correct","correct_instuctions1","correct_keyboard_response","correct_response","count_Exp_sequence","count_Fixation","count_ISI","count_MemorySet","count_correctFeedback","count_experiment","count_experiment_loop","count_incorrectFeeback","count_instructions2","count_instuctions1","count_keyboard_response","count_logger","count_practice_loop","count_probe","count_thankyou","datetime","description","disable_garbage_collection","experiment_file","experiment_path","font_bold","font_family","font_italic","font_size","font_underline","foreground","form_clicks","fullscreen","height","keyboard_backend","live_row","live_row_practice_loop","logfile","mouse_backend","numberSet","opensesame_codename","opensesame_version","posInSet","present","repeat_cycle","response","response_instructions2","response_instuctions1","response_keyboard_response","response_thankyou","response_time","response_time_instructions2","response_time_instuctions1","response_time_keyboard_response","response_time_thankyou","round_decimals","sampler_backend","setSize","sound_buf_size","sound_channels","sound_freq","sound_sample_size","start","subject_nr","subject_parity","target","time_Exp_sequence","time_Fixation","time_ISI","time_MemorySet","time_correctFeedback","time_experiment","time_experiment_loop","time_incorrectFeeback","time_instructions2","time_instuctions1","time_keyboard_response","time_logger","time_practice_loop","time_probe","time_thankyou","title","total_correct","total_response_time","total_responses","width"
"100","100","795","795","#3d3846","practice","legacy","legacy","legacy","1","undefined","1","right","0","0","0","0","0","0","0","0","0","0","0","0","0","0","0","Thu Oct 19 11:51:10 2023","The main experiment item","True","SternbergTask.osexp","/Users/RMILLER1/Library/CloudStorage/OneDrive-tarleton.edu(NTNET)/TSU Online Classes/Graduate Class/ Adv Quant Methods and Design","False","mono","False","18","no","white","no","no","768","legacy","0","0","/Users/RMILLER1/Library/CloudStorage/OneDrive-tarleton.edu(NTNET)/TSU Online Classes/Graduate Class/ Adv Quant Methods and Design/Sternberg/RM-subject-2.csv","legacy","4 1 5","Melodramatic Milgram","4.0.5","0","n","0","right","NA","left","right","NA","795.0","NA","4908","795","NA","2","legacy","3","1024","2","48000","-16","experiment","2","even","2","16368","16371","18583","17378","NA","11305","NA","NA","NA","11356","20587","21383","16295","20587","NA","SternbergTask","1","795.0","1","1024"
"100","100","715","715","#3d3846","practice","legacy","legacy","legacy","1","undefined","1","left","1","1","1","1","1","0","0","1","0","0","1","1","0","1","0","Thu Oct 19 11:51:10 2023","The main experiment item","True","SternbergTask.osexp","/Users/RMILLER1/Library/CloudStorage/OneDrive-tarleton.edu(NTNET)/TSU Online Classes/Graduate Class/ Adv Quant Methods and Design","False","mono","False","18","no","white","no","no","768","legacy","1","1","/Users/RMILLER1/Library/CloudStorage/OneDrive-tarleton.edu(NTNET)/TSU Online Classes/Graduate Class/ Adv Quant Methods and Design/Sternberg/RM-subject-2.csv","legacy","4 3 1 7 9 8","Melodramatic Milgram","4.0.5","1","y","0","left","NA","left","left","NA","635.0","NA","4908","635","NA","2","legacy","6","1024","2","48000","-16","experiment","2","even","4","22471","22474","24705","23479","21414","11305","NA","NA","NA","11356","26709","27344","16295","26709","NA","SternbergTask","2","1430.0","2","1024"
"100","100","750","750","#3d3846","practice","legacy","legacy","legacy","1","undefined","1","left","2","2","2","2","2","0","0","2","0","0","2","2","0","2","0","Thu Oct 19 11:51:10 2023","The main experiment item","True","SternbergTask.osexp","/Users/RMILLER1/Library/CloudStorage/OneDrive-tarleton.edu(NTNET)/TSU Online Classes/Graduate Class/ Adv Quant Methods and Design","False","mono","False","18","no","white","no","no","768","legacy","2","2","/Users/RMILLER1/Library/CloudStorage/OneDrive-tarleton.edu(NTNET)/TSU Online Classes/Graduate Class/ Adv Quant Methods and Design/Sternberg/RM-subject-2.csv","legacy","2 9 4","Melodramatic Milgram","4.0.5","3","y","0","left","NA","left","left","NA","822.0","NA","4908","822","NA","2","legacy","3","1024","2","48000","-16","experiment","2","even","4","28382","28386","30595","29392","27349","11305","NA","NA","NA","11356","32598","33426","16295","32598","NA","SternbergTask","3","2252.0","3","1024"
"100","100","752","752","#3d3846","practice","legacy","legacy","legacy","1","undefined","1","right","3","3","3","3","3","0","0","3","0","0","3","3","0","3","0","Thu Oct 19 11:51:10 2023","The main experiment item","True","SternbergTask.osexp","/Users/RMILLER1/Library/CloudStorage/OneDrive-tarleton.edu(NTNET)/TSU Online Classes/Graduate Class/ Adv Quant Methods and Design","False","mono","False","18","no","white","no","no","768","legacy","3","3","/Users/RMILLER1/Library/CloudStorage/OneDrive-tarleton.edu(NTNET)/TSU Online Classes/Graduate Class/ Adv Quant Methods and Design/Sternberg/RM-subject-2.csv","legacy","2 1","Melodramatic Milgram","4.0.5","0","n","0","right","NA","left","right","NA","759.0","NA","4908","759","NA","2","legacy","2","1024","2","48000","-16","experiment","2","even","5","34472","34475","36685","35479","33430","11305","NA","NA","NA","11356","38691","39450","16295","38691","NA","SternbergTask","4","3011.0","4","1024"
"100","100","704","704","#3d3846","practice","legacy","legacy","legacy","1","undefined","1","right","4","4","4","4","4","0","0","4","0","0","4","4","0","4","0","Thu Oct 19 11:51:10 2023","The main experiment item","True","SternbergTask.osexp","/Users/RMILLER1/Library/CloudStorage/OneDrive-tarleton.edu(NTNET)/TSU Online Classes/Graduate Class/ Adv Quant Methods and Design","False","mono","False","18","no","white","no","no","768","legacy","4","4","/Users/RMILLER1/Library/CloudStorage/OneDrive-tarleton.edu(NTNET)/TSU Online Classes/Graduate Class/ Adv Quant Methods and Design/Sternberg/RM-subject-2.csv","legacy","5 7 8 4 1 2","Melodramatic Milgram","4.0.5","0","n","0","right","NA","left","right","NA","511.0","NA","4908","511","NA","2","legacy","6","1024","2","48000","-16","experiment","2","even","6","40505","40509","42717","41512","39456","11305","NA","NA","NA","11356","44721","45233","16295","44721","NA","SternbergTask","5","3522.0","5","1024"
"100","100","723","723","#3d3846","practice","legacy","legacy","legacy","1","undefined","1","right","5","5","5","5","5","0","0","5","0","0","5","5","0","5","0","Thu Oct 19 11:51:10 2023","The main experiment item","True","SternbergTask.osexp","/Users/RMILLER1/Library/CloudStorage/OneDrive-tarleton.edu(NTNET)/TSU Online Classes/Graduate Class/ Adv Quant Methods and Design","False","mono","False","18","no","white","no","no","768","legacy","5","5","/Users/RMILLER1/Library/CloudStorage/OneDrive-tarleton.edu(NTNET)/TSU Online Classes/Graduate Class/ Adv Quant Methods and Design/Sternberg/RM-subject-2.csv","legacy","9 6 7 4 5","Melodramatic Milgram","4.0.5","0","n","0","right","NA","left","right","NA","819.0","NA","4908","819","NA","2","legacy","5","1024","2","48000","-16","experiment","2","even","3","46274","46277","48485","47281","45238","11305","NA","NA","NA","11356","50488","51307","16295","50488","NA","SternbergTask","6","4341.0","6","1024"
"100","100","739","739","#3d3846","practice","legacy","legacy","legacy","1","undefined","1","left","6","6","6","6","6","0","0","6","0","0","6","6","0","6","0","Thu Oct 19 11:51:10 2023","The main experiment item","True","SternbergTask.osexp","/Users/RMILLER1/Library/CloudStorage/OneDrive-tarleton.edu(NTNET)/TSU Online Classes/Graduate Class/ Adv Quant Methods and Design","False","mono","False","18","no","white","no","no","768","legacy","6","6","/Users/RMILLER1/Library/CloudStorage/OneDrive-tarleton.edu(NTNET)/TSU Online Classes/Graduate Class/ Adv Quant Methods and Design/Sternberg/RM-subject-2.csv","legacy","6","Melodramatic Milgram","4.0.5","1","y","0","left","NA","left","left","NA","832.0","NA","4908","832","NA","2","legacy","1","1024","2","48000","-16","experiment","2","even","6","52357","52360","54568","53364","51312","11305","NA","NA","NA","11356","56573","57406","16295","56573","NA","SternbergTask","7","5173.0","7","1024"
"100","100","742","742","#3d3846","practice","legacy","legacy","legacy","1","undefined","1","right","7","7","7","7","7","0","0","7","0","0","7","7","0","7","0","Thu Oct 19 11:51:10 2023","The main experiment item","True","SternbergTask.osexp","/Users/RMILLER1/Library/CloudStorage/OneDrive-tarleton.edu(NTNET)/TSU Online Classes/Graduate Class/ Adv Quant Methods and Design","False","mono","False","18","no","white","no","no","768","legacy","7","7","/Users/RMILLER1/Library/CloudStorage/OneDrive-tarleton.edu(NTNET)/TSU Online Classes/Graduate Class/ Adv Quant Methods and Design/Sternberg/RM-subject-2.csv","legacy","3 1 9 4","Melodramatic Milgram","4.0.5","0","n","0","right","NA","left","right","NA","767.0","NA","4908","767","NA","2","legacy","4","1024","2","48000","-16","experiment","2","even","6","58450","58452","60664","59456","57411","11305","NA","NA","NA","11356","62667","63435","16295","62667","NA","SternbergTask","8","5940.0","8","1024"
"100","100","735","735","#3d3846","practice","legacy","legacy","legacy","1","undefined","1","left","8","8","8","8","8","0","0","8","0","0","8","8","0","8","0","Thu Oct 19 11:51:10 2023","The main experiment item","True","SternbergTask.osexp","/Users/RMILLER1/Library/CloudStorage/OneDrive-tarleton.edu(NTNET)/TSU Online Classes/Graduate Class/ Adv Quant Methods and Design","False","mono","False","18","no","white","no","no","768","legacy","8","8","/Users/RMILLER1/Library/CloudStorage/OneDrive-tarleton.edu(NTNET)/TSU Online Classes/Graduate Class/ Adv Quant Methods and Design/Sternberg/RM-subject-2.csv","legacy","1 5 2 9","Melodramatic Milgram","4.0.5","2","y","0","left","NA","left","left","NA","681.0","NA","4908","681","NA","2","legacy","4","1024","2","48000","-16","experiment","2","even","5","64480","64484","66691","65488","63442","11305","NA","NA","NA","11356","68694","69375","16295","68694","NA","SternbergTask","9","6621.0","9","1024"
"100","100","734","734","#3d3846","practice","legacy","legacy","legacy","1","undefined","1","left","9","9","9","9","9","0","0","9","0","0","9","9","0","9","0","Thu Oct 19 11:51:10 2023","The main experiment item","True","SternbergTask.osexp","/Users/RMILLER1/Library/CloudStorage/OneDrive-tarleton.edu(NTNET)/TSU Online Classes/Graduate Class/ Adv Quant Methods and Design","False","mono","False","18","no","white","no","no","768","legacy","9","9","/Users/RMILLER1/Library/CloudStorage/OneDrive-tarleton.edu(NTNET)/TSU Online Classes/Graduate Class/ Adv Quant Methods and Design/Sternberg/RM-subject-2.csv","legacy","1 7 9 8 5","Melodramatic Milgram","4.0.5","4","y","0","left","NA","left","left","NA","724.0","NA","4908","724","NA","2","legacy","5","1024","2","48000","-16","experiment","2","even","8","70424","70426","72634","71429","69382","11305","NA","NA","NA","11356","74637","75361","16295","74637","NA","SternbergTask","10","7345.0","10","1024"
"100","100","706","706","#3d3846","practice","legacy","legacy","legacy","1","undefined","1","right","10","10","10","10","10","0","0","10","0","0","10","10","0","10","0","Thu Oct 19 11:51:10 2023","The main experiment item","True","SternbergTask.osexp","/Users/RMILLER1/Library/CloudStorage/OneDrive-tarleton.edu(NTNET)/TSU Online Classes/Graduate Class/ Adv Quant Methods and Design","False","mono","False","18","no","white","no","no","768","legacy","10","10","/Users/RMILLER1/Library/CloudStorage/OneDrive-tarleton.edu(NTNET)/TSU Online Classes/Graduate Class/ Adv Quant Methods and Design/Sternberg/RM-subject-2.csv","legacy","5","Melodramatic Milgram","4.0.5","0","n","0","right","NA","left","right","NA","427.0","NA","4908","427","NA","2","legacy","1","1024","2","48000","-16","experiment","2","even","3","76408","76412","78622","77418","75367","11305","NA","NA","NA","11356","80626","81053","16295","80626","NA","SternbergTask","11","7772.0","11","1024"
"100","100","689","689","#3d3846","practice","legacy","legacy","legacy","1","undefined","1","left","11","11","11","11","11","0","0","11","0","0","11","11","0","11","0","Thu Oct 19 11:51:10 2023","The main experiment item","True","SternbergTask.osexp","/Users/RMILLER1/Library/CloudStorage/OneDrive-tarleton.edu(NTNET)/TSU Online Classes/Graduate Class/ Adv Quant Methods and Design","False","mono","False","18","no","white","no","no","768","legacy","11","11","/Users/RMILLER1/Library/CloudStorage/OneDrive-tarleton.edu(NTNET)/TSU Online Classes/Graduate Class/ Adv Quant Methods and Design/Sternberg/RM-subject-2.csv","legacy","4 8","Melodramatic Milgram","4.0.5","1","y","0","left","NA","left","left","NA","498.0","NA","4908","498","NA","2","legacy","2","1024","2","48000","-16","experiment","2","even","4","82093","82095","84308","83099","81060","11305","NA","NA","NA","11356","86315","86813","16295","86315","NA","SternbergTask","12","8270.0","12","1024"
"100","100","676","676","#3d3846","experiment","legacy","legacy","legacy","1","undefined","1","left","12","12","12","12","12","0","0","12","0","0","12","12","0","12","0","Thu Oct 19 11:51:10 2023","The main experiment item","True","SternbergTask.osexp","/Users/RMILLER1/Library/CloudStorage/OneDrive-tarleton.edu(NTNET)/TSU Online Classes/Graduate Class/ Adv Quant Methods and Design","False","mono","False","18","no","white","no","no","768","legacy","0","11","/Users/RMILLER1/Library/CloudStorage/OneDrive-tarleton.edu(NTNET)/TSU Online Classes/Graduate Class/ Adv Quant Methods and Design/Sternberg/RM-subject-2.csv","legacy","6 2","Melodramatic Milgram","4.0.5","1","y","0","left","right","left","left","NA","520.0","10197","4908","520","NA","2","legacy","2","1024","2","48000","-16","experiment","2","even","6","98048","98050","100262","99054","86817","11305","98020","NA","87822","11356","102266","102787","16295","102265","NA","SternbergTask","13","8790.0","13","1024"
"100","100","686","686","#3d3846","experiment","legacy","legacy","legacy","1","undefined","1","right","13","13","13","13","13","0","0","13","0","0","13","13","0","13","0","Thu Oct 19 11:51:10 2023","The main experiment item","True","SternbergTask.osexp","/Users/RMILLER1/Library/CloudStorage/OneDrive-tarleton.edu(NTNET)/TSU Online Classes/Graduate Class/ Adv Quant Methods and Design","False","mono","False","18","no","white","no","no","768","legacy","1","11","/Users/RMILLER1/Library/CloudStorage/OneDrive-tarleton.edu(NTNET)/TSU Online Classes/Graduate Class/ Adv Quant Methods and Design/Sternberg/RM-subject-2.csv","legacy","2 8 6 3 1","Melodramatic Milgram","4.0.5","0","n","0","right","right","left","right","NA","818.0","10197","4908","818","NA","2","legacy","5","1024","2","48000","-16","experiment","2","even","7","103824","103826","106038","104830","102789","11305","98020","NA","87822","11356","108045","108864","16295","108044","NA","SternbergTask","14","9608.0","14","1024"
"93","93","717","717","#3d3846","experiment","legacy","legacy","legacy","0","undefined","0","right","14","14","14","14","14","0","0","14","0","0","14","14","0","14","0","Thu Oct 19 11:51:10 2023","The main experiment item","True","SternbergTask.osexp","/Users/RMILLER1/Library/CloudStorage/OneDrive-tarleton.edu(NTNET)/TSU Online Classes/Graduate Class/ Adv Quant Methods and Design","False","mono","False","18","no","white","no","no","768","legacy","2","11","/Users/RMILLER1/Library/CloudStorage/OneDrive-tarleton.edu(NTNET)/TSU Online Classes/Graduate Class/ Adv Quant Methods and Design/Sternberg/RM-subject-2.csv","legacy","1 6 4 3 9 7","Melodramatic Milgram","4.0.5","0","n","0","left","right","left","left","NA","1150.0","10197","4908","1150","NA","2","legacy","6","1024","2","48000","-16","experiment","2","even","8","109909","109912","112122","110918","108869","11305","98020","NA","87822","11356","114125","115275","16295","114125","NA","SternbergTask","14","10758.0","15","1024"
"93","93","718","718","#3d3846","experiment","legacy","legacy","legacy","1","undefined","1","right","15","15","15","15","15","0","0","15","0","0","15","15","0","15","0","Thu Oct 19 11:51:10 2023","The main experiment item","True","SternbergTask.osexp","/Users/RMILLER1/Library/CloudStorage/OneDrive-tarleton.edu(NTNET)/TSU Online Classes/Graduate Class/ Adv Quant Methods and Design","False","mono","False","18","no","white","no","no","768","legacy","3","11","/Users/RMILLER1/Library/CloudStorage/OneDrive-tarleton.edu(NTNET)/TSU Online Classes/Graduate Class/ Adv Quant Methods and Design/Sternberg/RM-subject-2.csv","legacy","2 8 9","Melodramatic Milgram","4.0.5","0","n","0","right","right","left","right","NA","742.0","10197","4908","742","NA","2","legacy","3","1024","2","48000","-16","experiment","2","even","6","116295","116297","118503","117300","108869","11305","98020","115279","87822","11356","120507","121250","16295","120507","NA","SternbergTask","15","11500.0","16","1024"
"94","94","734","734","#3d3846","experiment","legacy","legacy","legacy","1","undefined","1","right","16","16","16","16","16","0","0","16","0","0","16","16","0","16","0","Thu Oct 19 11:51:10 2023","The main experiment item","True","SternbergTask.osexp","/Users/RMILLER1/Library/CloudStorage/OneDrive-tarleton.edu(NTNET)/TSU Online Classes/Graduate Class/ Adv Quant Methods and Design","False","mono","False","18","no","white","no","no","768","legacy","4","11","/Users/RMILLER1/Library/CloudStorage/OneDrive-tarleton.edu(NTNET)/TSU Online Classes/Graduate Class/ Adv Quant Methods and Design/Sternberg/RM-subject-2.csv","legacy","6 9 5","Melodramatic Milgram","4.0.5","0","n","0","right","right","left","right","NA","983.0","10197","4908","983","NA","2","legacy","3","1024","2","48000","-16","experiment","2","even","8","122297","122301","124507","123305","121253","11305","98020","115279","87822","11356","126510","127493","16295","126510","NA","SternbergTask","16","12483.0","17","1024"
"94","94","743","743","#3d3846","experiment","legacy","legacy","legacy","1","undefined","1","left","17","17","17","17","17","0","0","17","0","0","17","17","0","17","0","Thu Oct 19 11:51:10 2023","The main experiment item","True","SternbergTask.osexp","/Users/RMILLER1/Library/CloudStorage/OneDrive-tarleton.edu(NTNET)/TSU Online Classes/Graduate Class/ Adv Quant Methods and Design","False","mono","False","18","no","white","no","no","768","legacy","5","11","/Users/RMILLER1/Library/CloudStorage/OneDrive-tarleton.edu(NTNET)/TSU Online Classes/Graduate Class/ Adv Quant Methods and Design/Sternberg/RM-subject-2.csv","legacy","8 3","Melodramatic Milgram","4.0.5","2","y","0","left","right","left","left","NA","903.0","10197","4908","903","NA","2","legacy","2","1024","2","48000","-16","experiment","2","even","3","128522","128525","130730","129528","127499","11305","98020","115279","87822","11356","132733","133636","16295","132733","NA","SternbergTask","17","13386.0","18","1024"
"94","94","747","747","#3d3846","experiment","legacy","legacy","legacy","1","undefined","1","left","18","18","18","18","18","0","0","18","0","0","18","18","0","18","0","Thu Oct 19 11:51:10 2023","The main experiment item","True","SternbergTask.osexp","/Users/RMILLER1/Library/CloudStorage/OneDrive-tarleton.edu(NTNET)/TSU Online Classes/Graduate Class/ Adv Quant Methods and Design","False","mono","False","18","no","white","no","no","768","legacy","6","11","/Users/RMILLER1/Library/CloudStorage/OneDrive-tarleton.edu(NTNET)/TSU Online Classes/Graduate Class/ Adv Quant Methods and Design/Sternberg/RM-subject-2.csv","legacy","9 1 7 2","Melodramatic Milgram","4.0.5","2","y","0","left","right","left","left","NA","825.0","10197","4908","825","NA","2","legacy","4","1024","2","48000","-16","experiment","2","even","1","134672","134675","136882","135679","133642","11305","98020","115279","87822","11356","138886","139711","16295","138885","NA","SternbergTask","18","14211.0","19","1024"
"95","95","740","740","#3d3846","experiment","legacy","legacy","legacy","1","undefined","1","right","19","19","19","19","19","0","0","19","0","0","19","19","0","19","0","Thu Oct 19 11:51:10 2023","The main experiment item","True","SternbergTask.osexp","/Users/RMILLER1/Library/CloudStorage/OneDrive-tarleton.edu(NTNET)/TSU Online Classes/Graduate Class/ Adv Quant Methods and Design","False","mono","False","18","no","white","no","no","768","legacy","7","11","/Users/RMILLER1/Library/CloudStorage/OneDrive-tarleton.edu(NTNET)/TSU Online Classes/Graduate Class/ Adv Quant Methods and Design/Sternberg/RM-subject-2.csv","legacy","8 4 3 5","Melodramatic Milgram","4.0.5","0","n","0","right","right","left","right","NA","591.0","10197","4908","591","NA","2","legacy","4","1024","2","48000","-16","experiment","2","even","6","140754","140757","142967","141760","139716","11305","98020","115279","87822","11356","144970","145561","16295","144970","NA","SternbergTask","19","14802.0","20","1024"
"95","95","737","737","#3d3846","experiment","legacy","legacy","legacy","1","undefined","1","left","20","20","20","20","20","0","0","20","0","0","20","20","0","20","0","Thu Oct 19 11:51:10 2023","The main experiment item","True","SternbergTask.osexp","/Users/RMILLER1/Library/CloudStorage/OneDrive-tarleton.edu(NTNET)/TSU Online Classes/Graduate Class/ Adv Quant Methods and Design","False","mono","False","18","no","white","no","no","768","legacy","8","11","/Users/RMILLER1/Library/CloudStorage/OneDrive-tarleton.edu(NTNET)/TSU Online Classes/Graduate Class/ Adv Quant Methods and Design/Sternberg/RM-subject-2.csv","legacy","7 8 6 3 1","Melodramatic Milgram","4.0.5","5","y","0","left","right","left","left","NA","693.0","10197","4908","693","NA","2","legacy","5","1024","2","48000","-16","experiment","2","even","1","146593","146596","148805","147599","145565","11305","98020","115279","87822","11356","150808","151501","16295","150808","NA","SternbergTask","20","15495.0","21","1024"
"95","95","751","751","#3d3846","experiment","legacy","legacy","legacy","1","undefined","1","right","21","21","21","21","21","0","0","21","0","0","21","21","0","21","0","Thu Oct 19 11:51:10 2023","The main experiment item","True","SternbergTask.osexp","/Users/RMILLER1/Library/CloudStorage/OneDrive-tarleton.edu(NTNET)/TSU Online Classes/Graduate Class/ Adv Quant Methods and Design","False","mono","False","18","no","white","no","no","768","legacy","9","11","/Users/RMILLER1/Library/CloudStorage/OneDrive-tarleton.edu(NTNET)/TSU Online Classes/Graduate Class/ Adv Quant Methods and Design/Sternberg/RM-subject-2.csv","legacy","7 9 1 6","Melodramatic Milgram","4.0.5","0","n","0","right","right","left","right","NA","1041.0","10197","4908","1041","NA","2","legacy","4","1024","2","48000","-16","experiment","2","even","4","152539","152544","154756","153547","151504","11305","98020","115279","87822","11356","156759","157800","16295","156759","NA","SternbergTask","21","16536.0","22","1024"
"91","91","755","755","#3d3846","experiment","legacy","legacy","legacy","0","undefined","0","left","22","22","22","22","22","0","0","22","0","0","22","22","0","22","0","Thu Oct 19 11:51:10 2023","The main experiment item","True","SternbergTask.osexp","/Users/RMILLER1/Library/CloudStorage/OneDrive-tarleton.edu(NTNET)/TSU Online Classes/Graduate Class/ Adv Quant Methods and Design","False","mono","False","18","no","white","no","no","768","legacy","10","11","/Users/RMILLER1/Library/CloudStorage/OneDrive-tarleton.edu(NTNET)/TSU Online Classes/Graduate Class/ Adv Quant Methods and Design/Sternberg/RM-subject-2.csv","legacy","7 8 4 6 9 5","Melodramatic Milgram","4.0.5","4","y","0","right","right","left","right","NA","841.0","10197","4908","841","NA","2","legacy","6","1024","2","48000","-16","experiment","2","even","6","158846","158849","161055","159853","157803","11305","98020","115279","87822","11356","163058","163899","16295","163058","NA","SternbergTask","21","17377.0","23","1024"
"91","91","747","747","#3d3846","experiment","legacy","legacy","legacy","1","undefined","1","left","23","23","23","23","23","0","0","23","0","0","23","23","0","23","0","Thu Oct 19 11:51:10 2023","The main experiment item","True","SternbergTask.osexp","/Users/RMILLER1/Library/CloudStorage/OneDrive-tarleton.edu(NTNET)/TSU Online Classes/Graduate Class/ Adv Quant Methods and Design","False","mono","False","18","no","white","no","no","768","legacy","11","11","/Users/RMILLER1/Library/CloudStorage/OneDrive-tarleton.edu(NTNET)/TSU Online Classes/Graduate Class/ Adv Quant Methods and Design/Sternberg/RM-subject-2.csv","legacy","8 9 5 7 1 6","Melodramatic Milgram","4.0.5","4","y","0","left","right","left","left","NA","560.0","10197","4908","560","NA","2","legacy","6","1024","2","48000","-16","experiment","2","even","7","164948","164950","167161","165955","157803","11305","98020","163904","87822","11356","169164","169724","16295","169164","NA","SternbergTask","22","17937.0","24","1024"
"92","92","737","737","#3d3846","experiment","legacy","legacy","legacy","1","undefined","1","left","24","24","24","24","24","0","0","24","0","0","24","24","0","24","0","Thu Oct 19 11:51:10 2023","The main experiment item","True","SternbergTask.osexp","/Users/RMILLER1/Library/CloudStorage/OneDrive-tarleton.edu(NTNET)/TSU Online Classes/Graduate Class/ Adv Quant Methods and Design","False","mono","False","18","no","white","no","no","768","legacy","12","11","/Users/RMILLER1/Library/CloudStorage/OneDrive-tarleton.edu(NTNET)/TSU Online Classes/Graduate Class/ Adv Quant Methods and Design/Sternberg/RM-subject-2.csv","legacy","7 4 2 6 3 5","Melodramatic Milgram","4.0.5","6","y","0","left","right","left","left","NA","507.0","10197","4908","507","NA","2","legacy","6","1024","2","48000","-16","experiment","2","even","5","170761","170764","172974","171768","169731","11305","98020","163904","87822","11356","174979","175487","16295","174978","NA","SternbergTask","23","18444.0","25","1024"
"88","88","735","735","#3d3846","experiment","legacy","legacy","legacy","0","undefined","0","right","25","25","25","25","25","0","0","25","0","0","25","25","0","25","0","Thu Oct 19 11:51:10 2023","The main experiment item","True","SternbergTask.osexp","/Users/RMILLER1/Library/CloudStorage/OneDrive-tarleton.edu(NTNET)/TSU Online Classes/Graduate Class/ Adv Quant Methods and Design","False","mono","False","18","no","white","no","no","768","legacy","13","11","/Users/RMILLER1/Library/CloudStorage/OneDrive-tarleton.edu(NTNET)/TSU Online Classes/Graduate Class/ Adv Quant Methods and Design/Sternberg/RM-subject-2.csv","legacy","7 3 2 8","Melodramatic Milgram","4.0.5","0","n","0","left","right","left","left","NA","689.0","10197","4908","689","NA","2","legacy","4","1024","2","48000","-16","experiment","2","even","4","176523","176525","178734","177530","175491","11305","98020","163904","87822","11356","180737","181427","16295","180737","NA","SternbergTask","23","19133.0","26","1024"
"85","85","726","726","#3d3846","experiment","legacy","legacy","legacy","0","undefined","0","right","26","26","26","26","26","0","0","26","0","0","26","26","0","26","0","Thu Oct 19 11:51:10 2023","The main experiment item","True","SternbergTask.osexp","/Users/RMILLER1/Library/CloudStorage/OneDrive-tarleton.edu(NTNET)/TSU Online Classes/Graduate Class/ Adv Quant Methods and Design","False","mono","False","18","no","white","no","no","768","legacy","14","11","/Users/RMILLER1/Library/CloudStorage/OneDrive-tarleton.edu(NTNET)/TSU Online Classes/Graduate Class/ Adv Quant Methods and Design/Sternberg/RM-subject-2.csv","legacy","8 5 4 2 9 6","Melodramatic Milgram","4.0.5","0","n","0","left","right","left","left","NA","479.0","10197","4908","479","NA","2","legacy","6","1024","2","48000","-16","experiment","2","even","3","182466","182469","184682","183473","175491","11305","98020","181432","87822","11356","186685","187164","16295","186685","NA","SternbergTask","23","19612.0","27","1024"
"85","85","724","724","#3d3846","experiment","legacy","legacy","legacy","1","undefined","1","right","27","27","27","27","27","0","0","27","0","0","27","27","0","27","0","Thu Oct 19 11:51:10 2023","The main experiment item","True","SternbergTask.osexp","/Users/RMILLER1/Library/CloudStorage/OneDrive-tarleton.edu(NTNET)/TSU Online Classes/Graduate Class/ Adv Quant Methods and Design","False","mono","False","18","no","white","no","no","768","legacy","15","11","/Users/RMILLER1/Library/CloudStorage/OneDrive-tarleton.edu(NTNET)/TSU Online Classes/Graduate Class/ Adv Quant Methods and Design/Sternberg/RM-subject-2.csv","legacy","5 7 3","Melodramatic Milgram","4.0.5","0","n","0","right","right","left","right","NA","687.0","10197","4908","687","NA","2","legacy","3","1024","2","48000","-16","experiment","2","even","9","188200","188203","190413","189207","175491","11305","98020","187168","87822","11356","192417","193104","16295","192416","NA","SternbergTask","24","20299.0","28","1024"
"82","82","720","720","#3d3846","experiment","legacy","legacy","legacy","0","undefined","0","right","28","28","28","28","28","0","0","28","0","0","28","28","0","28","0","Thu Oct 19 11:51:10 2023","The main experiment item","True","SternbergTask.osexp","/Users/RMILLER1/Library/CloudStorage/OneDrive-tarleton.edu(NTNET)/TSU Online Classes/Graduate Class/ Adv Quant Methods and Design","False","mono","False","18","no","white","no","no","768","legacy","16","11","/Users/RMILLER1/Library/CloudStorage/OneDrive-tarleton.edu(NTNET)/TSU Online Classes/Graduate Class/ Adv Quant Methods and Design/Sternberg/RM-subject-2.csv","legacy","1 4 9 2 5","Melodramatic Milgram","4.0.5","0","n","0","left","right","left","left","NA","593.0","10197","4908","593","NA","2","legacy","5","1024","2","48000","-16","experiment","2","even","7","194141","194145","196357","195150","193110","11305","98020","187168","87822","11356","198361","198954","16295","198361","NA","SternbergTask","24","20892.0","29","1024"
"80","80","714","714","#3d3846","experiment","legacy","legacy","legacy","0","undefined","0","left","29","29","29","29","29","0","0","29","0","0","29","29","0","29","0","Thu Oct 19 11:51:10 2023","The main experiment item","True","SternbergTask.osexp","/Users/RMILLER1/Library/CloudStorage/OneDrive-tarleton.edu(NTNET)/TSU Online Classes/Graduate Class/ Adv Quant Methods and Design","False","mono","False","18","no","white","no","no","768","legacy","17","11","/Users/RMILLER1/Library/CloudStorage/OneDrive-tarleton.edu(NTNET)/TSU Online Classes/Graduate Class/ Adv Quant Methods and Design/Sternberg/RM-subject-2.csv","legacy","8 5 3 7 4 6","Melodramatic Milgram","4.0.5","6","y","0","right","right","left","right","NA","549.0","10197","4908","549","NA","2","legacy","6","1024","2","48000","-16","experiment","2","even","6","199994","199997","202207","201000","193110","11305","98020","198962","87822","11356","204210","204759","16295","204210","NA","SternbergTask","24","21441.0","30","1024"
"80","80","712","712","#3d3846","experiment","legacy","legacy","legacy","1","undefined","1","left","30","30","30","30","30","0","0","30","0","0","30","30","0","30","0","Thu Oct 19 11:51:10 2023","The main experiment item","True","SternbergTask.osexp","/Users/RMILLER1/Library/CloudStorage/OneDrive-tarleton.edu(NTNET)/TSU Online Classes/Graduate Class/ Adv Quant Methods and Design","False","mono","False","18","no","white","no","no","768","legacy","18","11","/Users/RMILLER1/Library/CloudStorage/OneDrive-tarleton.edu(NTNET)/TSU Online Classes/Graduate Class/ Adv Quant Methods and Design/Sternberg/RM-subject-2.csv","legacy","8","Melodramatic Milgram","4.0.5","1","y","0","left","right","left","left","NA","642.0","10197","4908","642","NA","2","legacy","1","1024","2","48000","-16","experiment","2","even","8","205797","205800","208008","206803","193110","11305","98020","204765","87822","11356","210012","210654","16295","210011","NA","SternbergTask","25","22083.0","31","1024"
"81","81","718","718","#3d3846","experiment","legacy","legacy","legacy","1","undefined","1","left","31","31","31","31","31","0","0","31","0","0","31","31","0","31","0","Thu Oct 19 11:51:10 2023","The main experiment item","True","SternbergTask.osexp","/Users/RMILLER1/Library/CloudStorage/OneDrive-tarleton.edu(NTNET)/TSU Online Classes/Graduate Class/ Adv Quant Methods and Design","False","mono","False","18","no","white","no","no","768","legacy","19","11","/Users/RMILLER1/Library/CloudStorage/OneDrive-tarleton.edu(NTNET)/TSU Online Classes/Graduate Class/ Adv Quant Methods and Design/Sternberg/RM-subject-2.csv","legacy","3 9 6 2","Melodramatic Milgram","4.0.5","4","y","0","left","right","left","left","NA","914.0","10197","4908","914","NA","2","legacy","4","1024","2","48000","-16","experiment","2","even","2","211689","211692","213901","212695","210657","11305","98020","204765","87822","11356","215905","216820","16295","215905","NA","SternbergTask","26","22997.0","32","1024"
"81","81","731","731","#3d3846","experiment","legacy","legacy","legacy","1","undefined","1","left","32","32","32","32","32","0","0","32","0","0","32","32","0","32","0","Thu Oct 19 11:51:10 2023","The main experiment item","True","SternbergTask.osexp","/Users/RMILLER1/Library/CloudStorage/OneDrive-tarleton.edu(NTNET)/TSU Online Classes/Graduate Class/ Adv Quant Methods and Design","False","mono","False","18","no","white","no","no","768","legacy","20","11","/Users/RMILLER1/Library/CloudStorage/OneDrive-tarleton.edu(NTNET)/TSU Online Classes/Graduate Class/ Adv Quant Methods and Design/Sternberg/RM-subject-2.csv","legacy","3 4","Melodramatic Milgram","4.0.5","1","y","0","left","right","left","left","NA","1130.0","10197","4908","1130","NA","2","legacy","2","1024","2","48000","-16","experiment","2","even","3","217866","217868","220077","218873","216823","11305","98020","204765","87822","11356","222080","223210","16295","222080","NA","SternbergTask","27","24127.0","33","1024"
"82","82","728","728","#3d3846","experiment","legacy","legacy","legacy","1","undefined","1","right","33","33","33","33","33","0","0","33","0","0","33","33","0","33","0","Thu Oct 19 11:51:10 2023","The main experiment item","True","SternbergTask.osexp","/Users/RMILLER1/Library/CloudStorage/OneDrive-tarleton.edu(NTNET)/TSU Online Classes/Graduate Class/ Adv Quant Methods and Design","False","mono","False","18","no","white","no","no","768","legacy","21","11","/Users/RMILLER1/Library/CloudStorage/OneDrive-tarleton.edu(NTNET)/TSU Online Classes/Graduate Class/ Adv Quant Methods and Design/Sternberg/RM-subject-2.csv","legacy","5 3 2 6 9 8","Melodramatic Milgram","4.0.5","0","n","0","right","right","left","right","NA","642.0","10197","4908","642","NA","2","legacy","6","1024","2","48000","-16","experiment","2","even","4","224231","224233","226437","225235","223213","11305","98020","204765","87822","11356","228440","229082","16295","228440","NA","SternbergTask","28","24769.0","34","1024"
"80","80","741","741","#3d3846","experiment","legacy","legacy","legacy","0","undefined","0","right","34","34","34","34","34","0","0","34","0","0","34","34","0","34","0","Thu Oct 19 11:51:10 2023","The main experiment item","True","SternbergTask.osexp","/Users/RMILLER1/Library/CloudStorage/OneDrive-tarleton.edu(NTNET)/TSU Online Classes/Graduate Class/ Adv Quant Methods and Design","False","mono","False","18","no","white","no","no","768","legacy","22","11","/Users/RMILLER1/Library/CloudStorage/OneDrive-tarleton.edu(NTNET)/TSU Online Classes/Graduate Class/ Adv Quant Methods and Design/Sternberg/RM-subject-2.csv","legacy","1 4 3 6 5","Melodramatic Milgram","4.0.5","0","n","0","left","right","left","left","NA","1174.0","10197","4908","1174","NA","2","legacy","5","1024","2","48000","-16","experiment","2","even","8","230127","230130","232338","231134","229087","11305","98020","204765","87822","11356","234342","235517","16295","234341","NA","SternbergTask","28","25943.0","35","1024"
"80","80","749","749","#3d3846","experiment","legacy","legacy","legacy","1","undefined","1","right","35","35","35","35","35","0","0","35","0","0","35","35","0","35","0","Thu Oct 19 11:51:10 2023","The main experiment item","True","SternbergTask.osexp","/Users/RMILLER1/Library/CloudStorage/OneDrive-tarleton.edu(NTNET)/TSU Online Classes/Graduate Class/ Adv Quant Methods and Design","False","mono","False","18","no","white","no","no","768","legacy","23","11","/Users/RMILLER1/Library/CloudStorage/OneDrive-tarleton.edu(NTNET)/TSU Online Classes/Graduate Class/ Adv Quant Methods and Design/Sternberg/RM-subject-2.csv","legacy","1 7 5 2 9","Melodramatic Milgram","4.0.5","0","n","0","right","right","left","right","NA","1037.0","10197","4908","1037","NA","2","legacy","5","1024","2","48000","-16","experiment","2","even","3","236540","236543","238749","237547","229087","11305","98020","235519","87822","11356","240757","241795","16295","240757","NA","SternbergTask","29","26980.0","36","1024"
"81","81","745","745","#3d3846","experiment","legacy","legacy","legacy","1","undefined","1","left","36","36","36","36","36","0","0","36","0","0","36","36","0","36","0","Thu Oct 19 11:51:10 2023","The main experiment item","True","SternbergTask.osexp","/Users/RMILLER1/Library/CloudStorage/OneDrive-tarleton.edu(NTNET)/TSU Online Classes/Graduate Class/ Adv Quant Methods and Design","False","mono","False","18","no","white","no","no","768","legacy","24","11","/Users/RMILLER1/Library/CloudStorage/OneDrive-tarleton.edu(NTNET)/TSU Online Classes/Graduate Class/ Adv Quant Methods and Design/Sternberg/RM-subject-2.csv","legacy","6 9 7 4 5 1","Melodramatic Milgram","4.0.5","2","y","0","left","right","left","left","NA","603.0","10197","4908","603","NA","2","legacy","6","1024","2","48000","-16","experiment","2","even","9","242828","242830","245040","243833","241798","11305","98020","235519","87822","11356","247042","247646","16295","247042","NA","SternbergTask","30","27583.0","37","1024"
"81","81","743","743","#3d3846","experiment","legacy","legacy","legacy","1","undefined","1","right","37","37","37","37","37","0","0","37","0","0","37","37","0","37","0","Thu Oct 19 11:51:10 2023","The main experiment item","True","SternbergTask.osexp","/Users/RMILLER1/Library/CloudStorage/OneDrive-tarleton.edu(NTNET)/TSU Online Classes/Graduate Class/ Adv Quant Methods and Design","False","mono","False","18","no","white","no","no","768","legacy","25","11","/Users/RMILLER1/Library/CloudStorage/OneDrive-tarleton.edu(NTNET)/TSU Online Classes/Graduate Class/ Adv Quant Methods and Design/Sternberg/RM-subject-2.csv","legacy","1","Melodramatic Milgram","4.0.5","0","n","0","right","right","left","right","NA","652.0","10197","4908","652","NA","2","legacy","1","1024","2","48000","-16","experiment","2","even","7","248681","248684","250903","249697","247648","11305","98020","235519","87822","11356","252910","253563","16295","252909","NA","SternbergTask","31","28235.0","38","1024"
"82","82","743","743","#3d3846","experiment","legacy","legacy","legacy","1","undefined","1","right","38","38","38","38","38","0","0","38","0","0","38","38","0","38","0","Thu Oct 19 11:51:10 2023","The main experiment item","True","SternbergTask.osexp","/Users/RMILLER1/Library/CloudStorage/OneDrive-tarleton.edu(NTNET)/TSU Online Classes/Graduate Class/ Adv Quant Methods and Design","False","mono","False","18","no","white","no","no","768","legacy","26","11","/Users/RMILLER1/Library/CloudStorage/OneDrive-tarleton.edu(NTNET)/TSU Online Classes/Graduate Class/ Adv Quant Methods and Design/Sternberg/RM-subject-2.csv","legacy","2 5 1 4","Melodramatic Milgram","4.0.5","0","n","0","right","right","left","right","NA","752.0","10197","4908","752","NA","2","legacy","4","1024","2","48000","-16","experiment","2","even","6","254602","254605","256815","255609","253570","11305","98020","235519","87822","11356","258818","259571","16295","258818","NA","SternbergTask","32","28987.0","39","1024"
"82","82","742","742","#3d3846","experiment","legacy","legacy","legacy","1","undefined","1","right","39","39","39","39","39","0","0","39","0","0","39","39","0","39","0","Thu Oct 19 11:51:10 2023","The main experiment item","True","SternbergTask.osexp","/Users/RMILLER1/Library/CloudStorage/OneDrive-tarleton.edu(NTNET)/TSU Online Classes/Graduate Class/ Adv Quant Methods and Design","False","mono","False","18","no","white","no","no","768","legacy","27","11","/Users/RMILLER1/Library/CloudStorage/OneDrive-tarleton.edu(NTNET)/TSU Online Classes/Graduate Class/ Adv Quant Methods and Design/Sternberg/RM-subject-2.csv","legacy","2 8 9 4 1","Melodramatic Milgram","4.0.5","0","n","0","right","right","left","right","NA","724.0","10197","4908","724","NA","2","legacy","5","1024","2","48000","-16","experiment","2","even","5","260614","260619","262828","261622","259578","11305","98020","235519","87822","11356","264831","265555","16295","264830","NA","SternbergTask","33","29711.0","40","1024"
"82","82","748","748","#3d3846","experiment","legacy","legacy","legacy","1","undefined","1","right","40","40","40","40","40","0","0","40","0","0","40","40","0","40","0","Thu Oct 19 11:51:10 2023","The main experiment item","True","SternbergTask.osexp","/Users/RMILLER1/Library/CloudStorage/OneDrive-tarleton.edu(NTNET)/TSU Online Classes/Graduate Class/ Adv Quant Methods and Design","False","mono","False","18","no","white","no","no","768","legacy","28","11","/Users/RMILLER1/Library/CloudStorage/OneDrive-tarleton.edu(NTNET)/TSU Online Classes/Graduate Class/ Adv Quant Methods and Design/Sternberg/RM-subject-2.csv","legacy","6 9 7 3 8 2","Melodramatic Milgram","4.0.5","0","n","0","right","right","left","right","NA","995.0","10197","4908","995","NA","2","legacy","6","1024","2","48000","-16","experiment","2","even","5","266600","266604","268812","267607","265562","11305","98020","235519","87822","11356","270815","271810","16295","270815","NA","SternbergTask","34","30706.0","41","1024"
"83","83","745","745","#3d3846","experiment","legacy","legacy","legacy","1","undefined","1","right","41","41","41","41","41","0","0","41","0","0","41","41","0","41","0","Thu Oct 19 11:51:10 2023","The main experiment item","True","SternbergTask.osexp","/Users/RMILLER1/Library/CloudStorage/OneDrive-tarleton.edu(NTNET)/TSU Online Classes/Graduate Class/ Adv Quant Methods and Design","False","mono","False","18","no","white","no","no","768","legacy","29","11","/Users/RMILLER1/Library/CloudStorage/OneDrive-tarleton.edu(NTNET)/TSU Online Classes/Graduate Class/ Adv Quant Methods and Design/Sternberg/RM-subject-2.csv","legacy","1 3 2 6 9","Melodramatic Milgram","4.0.5","0","n","0","right","right","left","right","NA","601.0","10197","4908","601","NA","2","legacy","5","1024","2","48000","-16","experiment","2","even","5","272846","272850","275055","273853","271814","11305","98020","235519","87822","11356","277059","277660","16295","277058","NA","SternbergTask","35","31307.0","42","1024"
"83","83","741","741","#3d3846","experiment","legacy","legacy","legacy","1","undefined","1","left","42","42","42","42","42","0","0","42","0","0","42","42","0","42","0","Thu Oct 19 11:51:10 2023","The main experiment item","True","SternbergTask.osexp","/Users/RMILLER1/Library/CloudStorage/OneDrive-tarleton.edu(NTNET)/TSU Online Classes/Graduate Class/ Adv Quant Methods and Design","False","mono","False","18","no","white","no","no","768","legacy","30","11","/Users/RMILLER1/Library/CloudStorage/OneDrive-tarleton.edu(NTNET)/TSU Online Classes/Graduate Class/ Adv Quant Methods and Design/Sternberg/RM-subject-2.csv","legacy","9 6 2 4 1","Melodramatic Milgram","4.0.5","4","y","0","left","right","left","left","NA","593.0","10197","4908","593","NA","2","legacy","5","1024","2","48000","-16","experiment","2","even","4","278696","278701","280913","279706","277664","11305","98020","235519","87822","11356","282917","283513","16295","282916","NA","SternbergTask","36","31900.0","43","1024"
"84","84","741","741","#3d3846","experiment","legacy","legacy","legacy","1","undefined","1","right","43","43","43","43","43","0","0","43","0","0","43","43","0","43","0","Thu Oct 19 11:51:10 2023","The main experiment item","True","SternbergTask.osexp","/Users/RMILLER1/Library/CloudStorage/OneDrive-tarleton.edu(NTNET)/TSU Online Classes/Graduate Class/ Adv Quant Methods and Design","False","mono","False","18","no","white","no","no","768","legacy","31","11","/Users/RMILLER1/Library/CloudStorage/OneDrive-tarleton.edu(NTNET)/TSU Online Classes/Graduate Class/ Adv Quant Methods and Design/Sternberg/RM-subject-2.csv","legacy","5","Melodramatic Milgram","4.0.5","0","n","0","right","right","left","right","NA","730.0","10197","4908","730","NA","2","legacy","1","1024","2","48000","-16","experiment","2","even","8","284548","284553","286762","285556","283517","11305","98020","235519","87822","11356","288765","289495","16295","288765","NA","SternbergTask","37","32630.0","44","1024"
"82","82","745","745","#3d3846","experiment","legacy","legacy","legacy","0","undefined","0","right","44","44","44","44","44","0","0","44","0","0","44","44","0","44","0","Thu Oct 19 11:51:10 2023","The main experiment item","True","SternbergTask.osexp","/Users/RMILLER1/Library/CloudStorage/OneDrive-tarleton.edu(NTNET)/TSU Online Classes/Graduate Class/ Adv Quant Methods and Design","False","mono","False","18","no","white","no","no","768","legacy","32","11","/Users/RMILLER1/Library/CloudStorage/OneDrive-tarleton.edu(NTNET)/TSU Online Classes/Graduate Class/ Adv Quant Methods and Design/Sternberg/RM-subject-2.csv","legacy","3 9 8 1 6 4","Melodramatic Milgram","4.0.5","0","n","0","left","right","left","left","NA","908.0","10197","4908","908","NA","2","legacy","6","1024","2","48000","-16","experiment","2","even","7","290544","290548","292792","291552","289503","11305","98020","235519","87822","11356","294796","295704","16295","294796","NA","SternbergTask","37","33538.0","45","1024"
"82","82","751","751","#3d3846","experiment","legacy","legacy","legacy","1","undefined","1","left","45","45","45","45","45","0","0","45","0","0","45","45","0","45","0","Thu Oct 19 11:51:10 2023","The main experiment item","True","SternbergTask.osexp","/Users/RMILLER1/Library/CloudStorage/OneDrive-tarleton.edu(NTNET)/TSU Online Classes/Graduate Class/ Adv Quant Methods and Design","False","mono","False","18","no","white","no","no","768","legacy","33","11","/Users/RMILLER1/Library/CloudStorage/OneDrive-tarleton.edu(NTNET)/TSU Online Classes/Graduate Class/ Adv Quant Methods and Design/Sternberg/RM-subject-2.csv","legacy","2 3","Melodramatic Milgram","4.0.5","1","y","0","left","right","left","left","NA","1010.0","10197","4908","1010","NA","2","legacy","2","1024","2","48000","-16","experiment","2","even","2","296755","296757","298966","297761","289503","11305","98020","295711","87822","11356","300972","301983","16295","300972","NA","SternbergTask","38","34548.0","46","1024"
"82","82","753","753","#3d3846","experiment","legacy","legacy","legacy","1","undefined","1","right","46","46","46","46","46","0","0","46","0","0","46","46","0","46","0","Thu Oct 19 11:51:10 2023","The main experiment item","True","SternbergTask.osexp","/Users/RMILLER1/Library/CloudStorage/OneDrive-tarleton.edu(NTNET)/TSU Online Classes/Graduate Class/ Adv Quant Methods and Design","False","mono","False","18","no","white","no","no","768","legacy","34","11","/Users/RMILLER1/Library/CloudStorage/OneDrive-tarleton.edu(NTNET)/TSU Online Classes/Graduate Class/ Adv Quant Methods and Design/Sternberg/RM-subject-2.csv","legacy","6 3 1 7 9 8","Melodramatic Milgram","4.0.5","0","n","0","right","right","left","right","NA","846.0","10197","4908","846","NA","2","legacy","6","1024","2","48000","-16","experiment","2","even","4","303019","303022","305228","304025","301989","11305","98020","295711","87822","11356","307232","308079","16295","307232","NA","SternbergTask","39","35394.0","47","1024"
"81","81","758","758","#3d3846","experiment","legacy","legacy","legacy","0","undefined","0","left","47","47","47","47","47","0","0","47","0","0","47","47","0","47","0","Thu Oct 19 11:51:10 2023","The main experiment item","True","SternbergTask.osexp","/Users/RMILLER1/Library/CloudStorage/OneDrive-tarleton.edu(NTNET)/TSU Online Classes/Graduate Class/ Adv Quant Methods and Design","False","mono","False","18","no","white","no","no","768","legacy","35","11","/Users/RMILLER1/Library/CloudStorage/OneDrive-tarleton.edu(NTNET)/TSU Online Classes/Graduate Class/ Adv Quant Methods and Design/Sternberg/RM-subject-2.csv","legacy","8 5 4 7 3 1","Melodramatic Milgram","4.0.5","2","y","0","right","right","left","right","NA","1010.0","10197","4908","1010","NA","2","legacy","6","1024","2","48000","-16","experiment","2","even","5","309129","309131","311342","310135","308084","11305","98020","295711","87822","11356","313347","314357","16295","313347","NA","SternbergTask","39","36404.0","48","1024"
"81","81","756","756","#3d3846","experiment","legacy","legacy","legacy","1","undefined","1","left","48","48","48","48","48","0","0","48","0","0","48","48","0","48","0","Thu Oct 19 11:51:10 2023","The main experiment item","True","SternbergTask.osexp","/Users/RMILLER1/Library/CloudStorage/OneDrive-tarleton.edu(NTNET)/TSU Online Classes/Graduate Class/ Adv Quant Methods and Design","False","mono","False","18","no","white","no","no","768","legacy","36","11","/Users/RMILLER1/Library/CloudStorage/OneDrive-tarleton.edu(NTNET)/TSU Online Classes/Graduate Class/ Adv Quant Methods and Design/Sternberg/RM-subject-2.csv","legacy","6 7 9 3 1 2","Melodramatic Milgram","4.0.5","1","y","0","left","right","left","left","NA","665.0","10197","4908","665","NA","2","legacy","6","1024","2","48000","-16","experiment","2","even","6","315397","315399","317604","316402","308084","11305","98020","314365","87822","11356","319610","320275","16295","319610","NA","SternbergTask","40","37069.0","49","1024"
"80","80","753","753","#3d3846","experiment","legacy","legacy","legacy","0","undefined","0","right","49","49","49","49","49","0","0","49","0","0","49","49","0","49","0","Thu Oct 19 11:51:10 2023","The main experiment item","True","SternbergTask.osexp","/Users/RMILLER1/Library/CloudStorage/OneDrive-tarleton.edu(NTNET)/TSU Online Classes/Graduate Class/ Adv Quant Methods and Design","False","mono","False","18","no","white","no","no","768","legacy","37","11","/Users/RMILLER1/Library/CloudStorage/OneDrive-tarleton.edu(NTNET)/TSU Online Classes/Graduate Class/ Adv Quant Methods and Design/Sternberg/RM-subject-2.csv","legacy","1 6 4","Melodramatic Milgram","4.0.5","0","n","0","left","right","left","left","NA","605.0","10197","4908","605","NA","2","legacy","3","1024","2","48000","-16","experiment","2","even","7","321324","321326","323539","322332","320280","11305","98020","314365","87822","11356","325543","326148","16295","325543","NA","SternbergTask","40","37674.0","50","1024"
"80","80","751","751","#3d3846","experiment","legacy","legacy","legacy","1","undefined","1","right","50","50","50","50","50","0","0","50","0","0","50","50","0","50","0","Thu Oct 19 11:51:10 2023","The main experiment item","True","SternbergTask.osexp","/Users/RMILLER1/Library/CloudStorage/OneDrive-tarleton.edu(NTNET)/TSU Online Classes/Graduate Class/ Adv Quant Methods and Design","False","mono","False","18","no","white","no","no","768","legacy","38","11","/Users/RMILLER1/Library/CloudStorage/OneDrive-tarleton.edu(NTNET)/TSU Online Classes/Graduate Class/ Adv Quant Methods and Design/Sternberg/RM-subject-2.csv","legacy","1 8 7","Melodramatic Milgram","4.0.5","0","n","0","right","right","left","right","NA","637.0","10197","4908","637","NA","2","legacy","3","1024","2","48000","-16","experiment","2","even","4","327190","327195","329403","328198","320280","11305","98020","326155","87822","11356","331406","332044","16295","331406","NA","SternbergTask","41","38311.0","51","1024"
"80","80","759","759","#3d3846","experiment","legacy","legacy","legacy","1","undefined","1","right","51","51","51","51","51","0","0","51","0","0","51","51","0","51","0","Thu Oct 19 11:51:10 2023","The main experiment item","True","SternbergTask.osexp","/Users/RMILLER1/Library/CloudStorage/OneDrive-tarleton.edu(NTNET)/TSU Online Classes/Graduate Class/ Adv Quant Methods and Design","False","mono","False","18","no","white","no","no","768","legacy","39","11","/Users/RMILLER1/Library/CloudStorage/OneDrive-tarleton.edu(NTNET)/TSU Online Classes/Graduate Class/ Adv Quant Methods and Design/Sternberg/RM-subject-2.csv","legacy","7 1 8 4 9 3","Melodramatic Milgram","4.0.5","0","n","0","right","right","left","right","NA","1167.0","10197","4908","1167","NA","2","legacy","6","1024","2","48000","-16","experiment","2","even","6","333078","333080","335308","334085","332048","11305","98020","326155","87822","11356","337310","338478","16295","337310","NA","SternbergTask","42","39478.0","52","1024"
"79","79","773","773","#3d3846","experiment","legacy","legacy","legacy","0","undefined","0","right","52","52","52","52","52","0","0","52","0","0","52","52","0","52","0","Thu Oct 19 11:51:10 2023","The main experiment item","True","SternbergTask.osexp","/Users/RMILLER1/Library/CloudStorage/OneDrive-tarleton.edu(NTNET)/TSU Online Classes/Graduate Class/ Adv Quant Methods and Design","False","mono","False","18","no","white","no","no","768","legacy","40","11","/Users/RMILLER1/Library/CloudStorage/OneDrive-tarleton.edu(NTNET)/TSU Online Classes/Graduate Class/ Adv Quant Methods and Design/Sternberg/RM-subject-2.csv","legacy","8 6 3 4 7","Melodramatic Milgram","4.0.5","0","n","0","left","right","left","left","NA","1512.0","10197","4908","1512","NA","2","legacy","5","1024","2","48000","-16","experiment","2","even","1","339508","339510","341715","340512","338480","11305","98020","326155","87822","11356","343717","345229","16295","343717","NA","SternbergTask","42","40990.0","53","1024"
"79","79","771","771","#3d3846","experiment","legacy","legacy","legacy","1","undefined","1","right","53","53","53","53","53","0","0","53","0","0","53","53","0","53","0","Thu Oct 19 11:51:10 2023","The main experiment item","True","SternbergTask.osexp","/Users/RMILLER1/Library/CloudStorage/OneDrive-tarleton.edu(NTNET)/TSU Online Classes/Graduate Class/ Adv Quant Methods and Design","False","mono","False","18","no","white","no","no","768","legacy","41","11","/Users/RMILLER1/Library/CloudStorage/OneDrive-tarleton.edu(NTNET)/TSU Online Classes/Graduate Class/ Adv Quant Methods and Design/Sternberg/RM-subject-2.csv","legacy","7 1 5 6 3","Melodramatic Milgram","4.0.5","0","n","0","right","right","left","right","NA","682.0","10197","4908","682","NA","2","legacy","5","1024","2","48000","-16","experiment","2","even","8","346269","346275","348482","347279","338480","11305","98020","345233","87822","11356","350485","351168","16295","350485","NA","SternbergTask","43","41672.0","54","1024"
"80","80","772","772","#3d3846","experiment","legacy","legacy","legacy","1","undefined","1","right","54","54","54","54","54","0","0","54","0","0","54","54","0","54","0","Thu Oct 19 11:51:10 2023","The main experiment item","True","SternbergTask.osexp","/Users/RMILLER1/Library/CloudStorage/OneDrive-tarleton.edu(NTNET)/TSU Online Classes/Graduate Class/ Adv Quant Methods and Design","False","mono","False","18","no","white","no","no","768","legacy","42","11","/Users/RMILLER1/Library/CloudStorage/OneDrive-tarleton.edu(NTNET)/TSU Online Classes/Graduate Class/ Adv Quant Methods and Design/Sternberg/RM-subject-2.csv","legacy","4 2 7 6 1 3","Melodramatic Milgram","4.0.5","0","n","0","right","right","left","right","NA","790.0","10197","4908","790","NA","2","legacy","6","1024","2","48000","-16","experiment","2","even","8","352216","352220","354427","353223","351174","11305","98020","345233","87822","11356","356431","357222","16295","356430","NA","SternbergTask","44","42462.0","55","1024"
"80","80","774","774","#3d3846","experiment","legacy","legacy","legacy","1","undefined","1","right","55","55","55","55","55","0","0","55","0","0","55","55","0","55","0","Thu Oct 19 11:51:10 2023","The main experiment item","True","SternbergTask.osexp","/Users/RMILLER1/Library/CloudStorage/OneDrive-tarleton.edu(NTNET)/TSU Online Classes/Graduate Class/ Adv Quant Methods and Design","False","mono","False","18","no","white","no","no","768","legacy","43","11","/Users/RMILLER1/Library/CloudStorage/OneDrive-tarleton.edu(NTNET)/TSU Online Classes/Graduate Class/ Adv Quant Methods and Design/Sternberg/RM-subject-2.csv","legacy","4 2 6 9","Melodramatic Milgram","4.0.5","0","n","0","right","right","left","right","NA","929.0","10197","4908","929","NA","2","legacy","4","1024","2","48000","-16","experiment","2","even","7","358265","358268","360476","359271","357225","11305","98020","345233","87822","11356","362479","363409","16295","362479","NA","SternbergTask","45","43391.0","56","1024"
"80","80","773","773","#3d3846","experiment","legacy","legacy","legacy","1","undefined","1","left","56","56","56","56","56","0","0","56","0","0","56","56","0","56","0","Thu Oct 19 11:51:10 2023","The main experiment item","True","SternbergTask.osexp","/Users/RMILLER1/Library/CloudStorage/OneDrive-tarleton.edu(NTNET)/TSU Online Classes/Graduate Class/ Adv Quant Methods and Design","False","mono","False","18","no","white","no","no","768","legacy","44","11","/Users/RMILLER1/Library/CloudStorage/OneDrive-tarleton.edu(NTNET)/TSU Online Classes/Graduate Class/ Adv Quant Methods and Design/Sternberg/RM-subject-2.csv","legacy","3 5 4 7","Melodramatic Milgram","4.0.5","1","y","0","left","right","left","left","NA","702.0","10197","4908","702","NA","2","legacy","4","1024","2","48000","-16","experiment","2","even","3","364457","364462","366668","365466","363413","11305","98020","345233","87822","11356","368671","369373","16295","368671","NA","SternbergTask","46","44093.0","57","1024"
"81","81","775","775","#3d3846","experiment","legacy","legacy","legacy","1","undefined","1","left","57","57","57","57","57","0","0","57","0","0","57","57","0","57","0","Thu Oct 19 11:51:10 2023","The main experiment item","True","SternbergTask.osexp","/Users/RMILLER1/Library/CloudStorage/OneDrive-tarleton.edu(NTNET)/TSU Online Classes/Graduate Class/ Adv Quant Methods and Design","False","mono","False","18","no","white","no","no","768","legacy","45","11","/Users/RMILLER1/Library/CloudStorage/OneDrive-tarleton.edu(NTNET)/TSU Online Classes/Graduate Class/ Adv Quant Methods and Design/Sternberg/RM-subject-2.csv","legacy","9 5 8 1","Melodramatic Milgram","4.0.5","2","y","0","left","right","left","left","NA","865.0","10197","4908","865","NA","2","legacy","4","1024","2","48000","-16","experiment","2","even","5","370422","370424","372633","371428","369377","11305","98020","345233","87822","11356","374648","375513","16295","374648","NA","SternbergTask","47","44958.0","58","1024"
"79","79","784","784","#3d3846","experiment","legacy","legacy","legacy","0","undefined","0","right","58","58","58","58","58","0","0","58","0","0","58","58","0","58","0","Thu Oct 19 11:51:10 2023","The main experiment item","True","SternbergTask.osexp","/Users/RMILLER1/Library/CloudStorage/OneDrive-tarleton.edu(NTNET)/TSU Online Classes/Graduate Class/ Adv Quant Methods and Design","False","mono","False","18","no","white","no","no","768","legacy","46","11","/Users/RMILLER1/Library/CloudStorage/OneDrive-tarleton.edu(NTNET)/TSU Online Classes/Graduate Class/ Adv Quant Methods and Design/Sternberg/RM-subject-2.csv","legacy","7 4 2 8 1 9","Melodramatic Milgram","4.0.5","0","n","0","left","right","left","left","NA","1346.0","10197","4908","1346","NA","2","legacy","6","1024","2","48000","-16","experiment","2","even","5","376562","376565","378778","377570","375517","11305","98020","345233","87822","11356","380782","382128","16295","380782","NA","SternbergTask","47","46304.0","59","1024"
"80","80","784","784","#3d3846","experiment","legacy","legacy","legacy","1","undefined","1","right","59","59","59","59","59","0","0","59","0","0","59","59","0","59","0","Thu Oct 19 11:51:10 2023","The main experiment item","True","SternbergTask.osexp","/Users/RMILLER1/Library/CloudStorage/OneDrive-tarleton.edu(NTNET)/TSU Online Classes/Graduate Class/ Adv Quant Methods and Design","False","mono","False","18","no","white","no","no","768","legacy","47","11","/Users/RMILLER1/Library/CloudStorage/OneDrive-tarleton.edu(NTNET)/TSU Online Classes/Graduate Class/ Adv Quant Methods and Design/Sternberg/RM-subject-2.csv","legacy","1 7 5 2","Melodramatic Milgram","4.0.5","0","n","0","right","right","left","right","NA","759.0","10197","4908","759","NA","2","legacy","4","1024","2","48000","-16","experiment","2","even","3","383163","383166","385376","384170","375517","11305","98020","382131","87822","11356","387378","388138","16295","387378","NA","SternbergTask","48","47063.0","60","1024"
"80","80","785","785","#3d3846","experiment","legacy","legacy","legacy","1","undefined","1","right","60","60","60","60","60","0","0","60","0","0","60","60","0","60","0","Thu Oct 19 11:51:10 2023","The main experiment item","True","SternbergTask.osexp","/Users/RMILLER1/Library/CloudStorage/OneDrive-tarleton.edu(NTNET)/TSU Online Classes/Graduate Class/ Adv Quant Methods and Design","False","mono","False","18","no","white","no","no","768","legacy","48","11","/Users/RMILLER1/Library/CloudStorage/OneDrive-tarleton.edu(NTNET)/TSU Online Classes/Graduate Class/ Adv Quant Methods and Design/Sternberg/RM-subject-2.csv","legacy","3 4 2","Melodramatic Milgram","4.0.5","0","n","0","right","right","left","right","NA","824.0","10197","4908","824","NA","2","legacy","3","1024","2","48000","-16","experiment","2","even","5","389172","389175","391383","390179","388141","11305","98020","382131","87822","11356","393387","394212","16295","393387","NA","SternbergTask","49","47887.0","61","1024"
"79","79","784","784","#3d3846","experiment","legacy","legacy","legacy","0","undefined","0","left","61","61","61","61","61","0","0","61","0","0","61","61","0","61","0","Thu Oct 19 11:51:10 2023","The main experiment item","True","SternbergTask.osexp","/Users/RMILLER1/Library/CloudStorage/OneDrive-tarleton.edu(NTNET)/TSU Online Classes/Graduate Class/ Adv Quant Methods and Design","False","mono","False","18","no","white","no","no","768","legacy","49","11","/Users/RMILLER1/Library/CloudStorage/OneDrive-tarleton.edu(NTNET)/TSU Online Classes/Graduate Class/ Adv Quant Methods and Design/Sternberg/RM-subject-2.csv","legacy","3 5 7 1","Melodramatic Milgram","4.0.5","3","y","0","right","right","left","right","NA","747.0","10197","4908","747","NA","2","legacy","4","1024","2","48000","-16","experiment","2","even","7","395254","395259","397469","396263","394218","11305","98020","382131","87822","11356","399472","400220","16295","399472","NA","SternbergTask","49","48634.0","62","1024"
"77","77","779","779","#3d3846","experiment","legacy","legacy","legacy","0","undefined","0","right","62","62","62","62","62","0","0","62","0","0","62","62","0","62","0","Thu Oct 19 11:51:10 2023","The main experiment item","True","SternbergTask.osexp","/Users/RMILLER1/Library/CloudStorage/OneDrive-tarleton.edu(NTNET)/TSU Online Classes/Graduate Class/ Adv Quant Methods and Design","False","mono","False","18","no","white","no","no","768","legacy","50","11","/Users/RMILLER1/Library/CloudStorage/OneDrive-tarleton.edu(NTNET)/TSU Online Classes/Graduate Class/ Adv Quant Methods and Design/Sternberg/RM-subject-2.csv","legacy","8 4 3 9","Melodramatic Milgram","4.0.5","0","n","0","left","right","left","left","NA","456.0","10197","4908","456","NA","2","legacy","4","1024","2","48000","-16","experiment","2","even","5","401265","401269","403476","402273","394218","11305","98020","400225","87822","11356","405479","405935","16295","405479","NA","SternbergTask","49","49090.0","63","1024"
"78","78","772","772","#3d3846","experiment","legacy","legacy","legacy","1","undefined","1","left","63","63","63","63","63","0","0","63","0","0","63","63","0","63","0","Thu Oct 19 11:51:10 2023","The main experiment item","True","SternbergTask.osexp","/Users/RMILLER1/Library/CloudStorage/OneDrive-tarleton.edu(NTNET)/TSU Online Classes/Graduate Class/ Adv Quant Methods and Design","False","mono","False","18","no","white","no","no","768","legacy","51","11","/Users/RMILLER1/Library/CloudStorage/OneDrive-tarleton.edu(NTNET)/TSU Online Classes/Graduate Class/ Adv Quant Methods and Design/Sternberg/RM-subject-2.csv","legacy","4","Melodramatic Milgram","4.0.5","1","y","0","left","right","left","left","NA","341.0","10197","4908","341","NA","2","legacy","1","1024","2","48000","-16","experiment","2","even","4","406975","406979","409192","407986","394218","11305","98020","405941","87822","11356","411196","411537","16295","411196","NA","SternbergTask","50","49431.0","64","1024"
"78","78","775","775","#3d3846","experiment","legacy","legacy","legacy","1","undefined","1","right","64","64","64","64","64","0","0","64","0","0","64","64","0","64","0","Thu Oct 19 11:51:10 2023","The main experiment item","True","SternbergTask.osexp","/Users/RMILLER1/Library/CloudStorage/OneDrive-tarleton.edu(NTNET)/TSU Online Classes/Graduate Class/ Adv Quant Methods and Design","False","mono","False","18","no","white","no","no","768","legacy","52","11","/Users/RMILLER1/Library/CloudStorage/OneDrive-tarleton.edu(NTNET)/TSU Online Classes/Graduate Class/ Adv Quant Methods and Design/Sternberg/RM-subject-2.csv","legacy","9 7 4 5 8","Melodramatic Milgram","4.0.5","0","n","0","right","right","left","right","NA","965.0","10197","4908","965","NA","2","legacy","5","1024","2","48000","-16","experiment","2","even","6","412567","412569","414778","413573","411542","11305","98020","405941","87822","11356","416781","417747","16295","416781","NA","SternbergTask","51","50396.0","65","1024"
"78","78","773","773","#3d3846","experiment","legacy","legacy","legacy","1","undefined","1","left","65","65","65","65","65","0","0","65","0","0","65","65","0","65","0","Thu Oct 19 11:51:10 2023","The main experiment item","True","SternbergTask.osexp","/Users/RMILLER1/Library/CloudStorage/OneDrive-tarleton.edu(NTNET)/TSU Online Classes/Graduate Class/ Adv Quant Methods and Design","False","mono","False","18","no","white","no","no","768","legacy","53","11","/Users/RMILLER1/Library/CloudStorage/OneDrive-tarleton.edu(NTNET)/TSU Online Classes/Graduate Class/ Adv Quant Methods and Design/Sternberg/RM-subject-2.csv","legacy","3 5 9 6 2 4","Melodramatic Milgram","4.0.5","1","y","0","left","right","left","left","NA","675.0","10197","4908","675","NA","2","legacy","6","1024","2","48000","-16","experiment","2","even","3","418825","418827","421033","419831","417754","11305","98020","405941","87822","11356","423036","423711","16295","423036","NA","SternbergTask","52","51071.0","66","1024"
"79","79","771","771","#3d3846","experiment","legacy","legacy","legacy","1","undefined","1","left","66","66","66","66","66","0","0","66","0","0","66","66","0","66","0","Thu Oct 19 11:51:10 2023","The main experiment item","True","SternbergTask.osexp","/Users/RMILLER1/Library/CloudStorage/OneDrive-tarleton.edu(NTNET)/TSU Online Classes/Graduate Class/ Adv Quant Methods and Design","False","mono","False","18","no","white","no","no","768","legacy","54","11","/Users/RMILLER1/Library/CloudStorage/OneDrive-tarleton.edu(NTNET)/TSU Online Classes/Graduate Class/ Adv Quant Methods and Design/Sternberg/RM-subject-2.csv","legacy","6 8 9 3 4 9","Melodramatic Milgram","4.0.5","5","y","0","left","right","left","left","NA","614.0","10197","4908","614","NA","2","legacy","6","1024","2","48000","-16","experiment","2","even","4","424756","424760","426966","425763","423718","11305","98020","405941","87822","11356","428968","429582","16295","428968","NA","SternbergTask","53","51685.0","67","1024"
"77","77","767","767","#3d3846","experiment","legacy","legacy","legacy","0","undefined","0","right","67","67","67","67","67","0","0","67","0","0","67","67","0","67","0","Thu Oct 19 11:51:10 2023","The main experiment item","True","SternbergTask.osexp","/Users/RMILLER1/Library/CloudStorage/OneDrive-tarleton.edu(NTNET)/TSU Online Classes/Graduate Class/ Adv Quant Methods and Design","False","mono","False","18","no","white","no","no","768","legacy","55","11","/Users/RMILLER1/Library/CloudStorage/OneDrive-tarleton.edu(NTNET)/TSU Online Classes/Graduate Class/ Adv Quant Methods and Design/Sternberg/RM-subject-2.csv","legacy","2 6 4 3 9","Melodramatic Milgram","4.0.5","0","n","0","left","right","left","left","NA","477.0","10197","4908","477","NA","2","legacy","5","1024","2","48000","-16","experiment","2","even","1","430622","430627","432838","431630","429586","11305","98020","405941","87822","11356","434842","435320","16295","434842","NA","SternbergTask","53","52162.0","68","1024"
"76","76","766","766","#3d3846","experiment","legacy","legacy","legacy","0","undefined","0","right","68","68","68","68","68","0","0","68","0","0","68","68","0","68","0","Thu Oct 19 11:51:10 2023","The main experiment item","True","SternbergTask.osexp","/Users/RMILLER1/Library/CloudStorage/OneDrive-tarleton.edu(NTNET)/TSU Online Classes/Graduate Class/ Adv Quant Methods and Design","False","mono","False","18","no","white","no","no","768","legacy","56","11","/Users/RMILLER1/Library/CloudStorage/OneDrive-tarleton.edu(NTNET)/TSU Online Classes/Graduate Class/ Adv Quant Methods and Design/Sternberg/RM-subject-2.csv","legacy","1 7 8 3 9","Melodramatic Milgram","4.0.5","0","n","0","left","right","left","left","NA","707.0","10197","4908","707","NA","2","legacy","5","1024","2","48000","-16","experiment","2","even","2","436357","436360","438571","437363","429586","11305","98020","435326","87822","11356","440574","441282","16295","440574","NA","SternbergTask","53","52869.0","69","1024"
"77","77","763","763","#3d3846","experiment","legacy","legacy","legacy","1","undefined","1","left","69","69","69","69","69","0","0","69","0","0","69","69","0","69","0","Thu Oct 19 11:51:10 2023","The main experiment item","True","SternbergTask.osexp","/Users/RMILLER1/Library/CloudStorage/OneDrive-tarleton.edu(NTNET)/TSU Online Classes/Graduate Class/ Adv Quant Methods and Design","False","mono","False","18","no","white","no","no","768","legacy","57","11","/Users/RMILLER1/Library/CloudStorage/OneDrive-tarleton.edu(NTNET)/TSU Online Classes/Graduate Class/ Adv Quant Methods and Design/Sternberg/RM-subject-2.csv","legacy","5 2 6","Melodramatic Milgram","4.0.5","2","y","0","left","right","left","left","NA","551.0","10197","4908","551","NA","2","legacy","3","1024","2","48000","-16","experiment","2","even","2","442320","442322","444531","443326","429586","11305","98020","441287","87822","11356","446535","447087","16295","446534","NA","SternbergTask","54","53420.0","70","1024"
"77","77","761","761","#3d3846","experiment","legacy","legacy","legacy","1","undefined","1","left","70","70","70","70","70","0","0","70","0","0","70","70","0","70","0","Thu Oct 19 11:51:10 2023","The main experiment item","True","SternbergTask.osexp","/Users/RMILLER1/Library/CloudStorage/OneDrive-tarleton.edu(NTNET)/TSU Online Classes/Graduate Class/ Adv Quant Methods and Design","False","mono","False","18","no","white","no","no","768","legacy","58","11","/Users/RMILLER1/Library/CloudStorage/OneDrive-tarleton.edu(NTNET)/TSU Online Classes/Graduate Class/ Adv Quant Methods and Design/Sternberg/RM-subject-2.csv","legacy","2 6 1 7 4","Melodramatic Milgram","4.0.5","2","y","0","left","right","left","left","NA","614.0","10197","4908","614","NA","2","legacy","5","1024","2","48000","-16","experiment","2","even","6","448123","448126","450338","449130","447092","11305","98020","441287","87822","11356","452345","452959","16295","452345","NA","SternbergTask","55","54034.0","71","1024"
"77","77","757","757","#3d3846","experiment","legacy","legacy","legacy","1","undefined","1","left","71","71","71","71","71","0","0","71","0","0","71","71","0","71","0","Thu Oct 19 11:51:10 2023","The main experiment item","True","SternbergTask.osexp","/Users/RMILLER1/Library/CloudStorage/OneDrive-tarleton.edu(NTNET)/TSU Online Classes/Graduate Class/ Adv Quant Methods and Design","False","mono","False","18","no","white","no","no","768","legacy","59","11","/Users/RMILLER1/Library/CloudStorage/OneDrive-tarleton.edu(NTNET)/TSU Online Classes/Graduate Class/ Adv Quant Methods and Design/Sternberg/RM-subject-2.csv","legacy","3 4 9 6 2 9","Melodramatic Milgram","4.0.5","5","y","0","left","right","left","left","NA","531.0","10197","4908","531","NA","2","legacy","6","1024","2","48000","-16","experiment","2","even","2","453993","453996","456208","455000","452963","11305","98020","441287","87822","11356","458211","458742","16295","458211","NA","SternbergTask","56","54565.0","72","1024"
"78","78","754","754","#3d3846","experiment","legacy","legacy","legacy","1","undefined","1","left","72","72","72","72","72","0","0","72","0","0","72","72","0","72","0","Thu Oct 19 11:51:10 2023","The main experiment item","True","SternbergTask.osexp","/Users/RMILLER1/Library/CloudStorage/OneDrive-tarleton.edu(NTNET)/TSU Online Classes/Graduate Class/ Adv Quant Methods and Design","False","mono","False","18","no","white","no","no","768","legacy","60","11","/Users/RMILLER1/Library/CloudStorage/OneDrive-tarleton.edu(NTNET)/TSU Online Classes/Graduate Class/ Adv Quant Methods and Design/Sternberg/RM-subject-2.csv","legacy","8 5 1 3 9","Melodramatic Milgram","4.0.5","4","y","0","left","right","left","left","NA","547.0","10197","4908","547","NA","2","legacy","5","1024","2","48000","-16","experiment","2","even","3","459785","459788","461996","460792","458750","11305","98020","441287","87822","11356","463999","464546","16295","463999","NA","SternbergTask","57","55112.0","73","1024"
"78","78","753","753","#3d3846","experiment","legacy","legacy","legacy","1","undefined","1","left","73","73","73","73","73","0","0","73","0","0","73","73","0","73","0","Thu Oct 19 11:51:10 2023","The main experiment item","True","SternbergTask.osexp","/Users/RMILLER1/Library/CloudStorage/OneDrive-tarleton.edu(NTNET)/TSU Online Classes/Graduate Class/ Adv Quant Methods and Design","False","mono","False","18","no","white","no","no","768","legacy","61","11","/Users/RMILLER1/Library/CloudStorage/OneDrive-tarleton.edu(NTNET)/TSU Online Classes/Graduate Class/ Adv Quant Methods and Design/Sternberg/RM-subject-2.csv","legacy","9 8 4","Melodramatic Milgram","4.0.5","1","y","0","left","right","left","left","NA","682.0","10197","4908","682","NA","2","legacy","3","1024","2","48000","-16","experiment","2","even","9","465587","465589","467802","466593","464553","11305","98020","441287","87822","11356","469805","470487","16295","469805","NA","SternbergTask","58","55794.0","74","1024"
"78","78","750","750","#3d3846","experiment","legacy","legacy","legacy","1","undefined","1","left","74","74","74","74","74","0","0","74","0","0","74","74","0","74","0","Thu Oct 19 11:51:10 2023","The main experiment item","True","SternbergTask.osexp","/Users/RMILLER1/Library/CloudStorage/OneDrive-tarleton.edu(NTNET)/TSU Online Classes/Graduate Class/ Adv Quant Methods and Design","False","mono","False","18","no","white","no","no","768","legacy","62","11","/Users/RMILLER1/Library/CloudStorage/OneDrive-tarleton.edu(NTNET)/TSU Online Classes/Graduate Class/ Adv Quant Methods and Design/Sternberg/RM-subject-2.csv","legacy","4 1 8 7 5","Melodramatic Milgram","4.0.5","3","y","0","left","right","left","left","NA","500.0","10197","4908","500","NA","2","legacy","5","1024","2","48000","-16","experiment","2","even","8","471532","471536","473745","472539","470493","11305","98020","441287","87822","11356","475749","476250","16295","475749","NA","SternbergTask","59","56294.0","75","1024"
"77","77","747","747","#3d3846","experiment","legacy","legacy","legacy","0","undefined","0","right","75","75","75","75","75","0","0","75","0","0","75","75","0","75","0","Thu Oct 19 11:51:10 2023","The main experiment item","True","SternbergTask.osexp","/Users/RMILLER1/Library/CloudStorage/OneDrive-tarleton.edu(NTNET)/TSU Online Classes/Graduate Class/ Adv Quant Methods and Design","False","mono","False","18","no","white","no","no","768","legacy","63","11","/Users/RMILLER1/Library/CloudStorage/OneDrive-tarleton.edu(NTNET)/TSU Online Classes/Graduate Class/ Adv Quant Methods and Design/Sternberg/RM-subject-2.csv","legacy","4 1","Melodramatic Milgram","4.0.5","0","n","0","left","right","left","left","NA","500.0","10197","4908","500","NA","2","legacy","2","1024","2","48000","-16","experiment","2","even","6","477291","477295","479504","478298","476258","11305","98020","441287","87822","11356","481507","482007","16295","481507","NA","SternbergTask","59","56794.0","76","1024"
"77","77","743","743","#3d3846","experiment","legacy","legacy","legacy","1","undefined","1","left","76","76","76","76","76","0","0","76","0","0","76","76","0","76","0","Thu Oct 19 11:51:10 2023","The main experiment item","True","SternbergTask.osexp","/Users/RMILLER1/Library/CloudStorage/OneDrive-tarleton.edu(NTNET)/TSU Online Classes/Graduate Class/ Adv Quant Methods and Design","False","mono","False","18","no","white","no","no","768","legacy","64","11","/Users/RMILLER1/Library/CloudStorage/OneDrive-tarleton.edu(NTNET)/TSU Online Classes/Graduate Class/ Adv Quant Methods and Design/Sternberg/RM-subject-2.csv","legacy","7 1 8 5 6 2","Melodramatic Milgram","4.0.5","2","y","0","left","right","left","left","NA","481.0","10197","4908","481","NA","2","legacy","6","1024","2","48000","-16","experiment","2","even","1","483046","483049","485257","484053","476258","11305","98020","482011","87822","11356","487263","487745","16295","487263","NA","SternbergTask","60","57275.0","77","1024"
"78","78","741","741","#3d3846","experiment","legacy","legacy","legacy","1","undefined","1","left","77","77","77","77","77","0","0","77","0","0","77","77","0","77","0","Thu Oct 19 11:51:10 2023","The main experiment item","True","SternbergTask.osexp","/Users/RMILLER1/Library/CloudStorage/OneDrive-tarleton.edu(NTNET)/TSU Online Classes/Graduate Class/ Adv Quant Methods and Design","False","mono","False","18","no","white","no","no","768","legacy","65","11","/Users/RMILLER1/Library/CloudStorage/OneDrive-tarleton.edu(NTNET)/TSU Online Classes/Graduate Class/ Adv Quant Methods and Design/Sternberg/RM-subject-2.csv","legacy","8 7 3","Melodramatic Milgram","4.0.5","1","y","0","left","right","left","left","NA","545.0","10197","4908","545","NA","2","legacy","3","1024","2","48000","-16","experiment","2","even","8","488785","488788","491001","489794","487751","11305","98020","482011","87822","11356","493004","493550","16295","493004","NA","SternbergTask","61","57820.0","78","1024"
"78","78","737","737","#3d3846","experiment","legacy","legacy","legacy","1","undefined","1","left","78","78","78","78","78","0","0","78","0","0","78","78","0","78","0","Thu Oct 19 11:51:10 2023","The main experiment item","True","SternbergTask.osexp","/Users/RMILLER1/Library/CloudStorage/OneDrive-tarleton.edu(NTNET)/TSU Online Classes/Graduate Class/ Adv Quant Methods and Design","False","mono","False","18","no","white","no","no","768","legacy","66","11","/Users/RMILLER1/Library/CloudStorage/OneDrive-tarleton.edu(NTNET)/TSU Online Classes/Graduate Class/ Adv Quant Methods and Design/Sternberg/RM-subject-2.csv","legacy","4 6 2 5 1","Melodramatic Milgram","4.0.5","5","y","0","left","right","left","left","NA","465.0","10197","4908","465","NA","2","legacy","5","1024","2","48000","-16","experiment","2","even","1","494582","494584","496797","495589","493554","11305","98020","482011","87822","11356","498801","499267","16295","498801","NA","SternbergTask","62","58285.0","79","1024"
"78","78","736","736","#3d3846","experiment","legacy","legacy","legacy","1","undefined","1","left","79","79","79","79","79","0","0","79","0","0","79","79","0","79","0","Thu Oct 19 11:51:10 2023","The main experiment item","True","SternbergTask.osexp","/Users/RMILLER1/Library/CloudStorage/OneDrive-tarleton.edu(NTNET)/TSU Online Classes/Graduate Class/ Adv Quant Methods and Design","False","mono","False","18","no","white","no","no","768","legacy","67","11","/Users/RMILLER1/Library/CloudStorage/OneDrive-tarleton.edu(NTNET)/TSU Online Classes/Graduate Class/ Adv Quant Methods and Design/Sternberg/RM-subject-2.csv","legacy","9 1 6 7 8","Melodramatic Milgram","4.0.5","1","y","0","left","right","left","left","NA","674.0","10197","4908","674","NA","2","legacy","5","1024","2","48000","-16","experiment","2","even","9","500295","500298","502506","501300","499269","11305","98020","482011","87822","11356","504508","505182","16295","504508","NA","SternbergTask","63","58959.0","80","1024"
"79","79","734","734","#3d3846","experiment","legacy","legacy","legacy","1","undefined","1","left","80","80","80","80","80","0","0","80","0","0","80","80","0","80","0","Thu Oct 19 11:51:10 2023","The main experiment item","True","SternbergTask.osexp","/Users/RMILLER1/Library/CloudStorage/OneDrive-tarleton.edu(NTNET)/TSU Online Classes/Graduate Class/ Adv Quant Methods and Design","False","mono","False","18","no","white","no","no","768","legacy","68","11","/Users/RMILLER1/Library/CloudStorage/OneDrive-tarleton.edu(NTNET)/TSU Online Classes/Graduate Class/ Adv Quant Methods and Design/Sternberg/RM-subject-2.csv","legacy","4 7 6 8 2 3","Melodramatic Milgram","4.0.5","6","y","0","left","right","left","left","NA","574.0","10197","4908","574","NA","2","legacy","6","1024","2","48000","-16","experiment","2","even","3","506219","506223","508431","507226","505188","11305","98020","482011","87822","11356","510435","511010","16295","510435","NA","SternbergTask","64","59533.0","81","1024"
"79","79","733","733","#3d3846","experiment","legacy","legacy","legacy","1","undefined","1","left","81","81","81","81","81","0","0","81","0","0","81","81","0","81","0","Thu Oct 19 11:51:10 2023","The main experiment item","True","SternbergTask.osexp","/Users/RMILLER1/Library/CloudStorage/OneDrive-tarleton.edu(NTNET)/TSU Online Classes/Graduate Class/ Adv Quant Methods and Design","False","mono","False","18","no","white","no","no","768","legacy","69","11","/Users/RMILLER1/Library/CloudStorage/OneDrive-tarleton.edu(NTNET)/TSU Online Classes/Graduate Class/ Adv Quant Methods and Design/Sternberg/RM-subject-2.csv","legacy","4 3 2 5 8","Melodramatic Milgram","4.0.5","2","y","0","left","right","left","left","NA","628.0","10197","4908","628","NA","2","legacy","5","1024","2","48000","-16","experiment","2","even","3","512042","512044","514252","513048","511014","11305","98020","482011","87822","11356","516255","516884","16295","516255","NA","SternbergTask","65","60161.0","82","1024"
"79","79","736","736","#3d3846","experiment","legacy","legacy","legacy","1","undefined","1","left","82","82","82","82","82","0","0","82","0","0","82","82","0","82","0","Thu Oct 19 11:51:10 2023","The main experiment item","True","SternbergTask.osexp","/Users/RMILLER1/Library/CloudStorage/OneDrive-tarleton.edu(NTNET)/TSU Online Classes/Graduate Class/ Adv Quant Methods and Design","False","mono","False","18","no","white","no","no","768","legacy","70","11","/Users/RMILLER1/Library/CloudStorage/OneDrive-tarleton.edu(NTNET)/TSU Online Classes/Graduate Class/ Adv Quant Methods and Design/Sternberg/RM-subject-2.csv","legacy","5 2 9 6 1 7","Melodramatic Milgram","4.0.5","3","y","0","left","right","left","left","NA","929.0","10197","4908","929","NA","2","legacy","6","1024","2","48000","-16","experiment","2","even","9","517922","517925","520137","518929","516888","11305","98020","482011","87822","11356","522140","523070","16295","522140","NA","SternbergTask","66","61090.0","83","1024"
"79","79","733","733","#3d3846","experiment","legacy","legacy","legacy","1","undefined","1","left","83","83","83","83","83","0","0","83","0","0","83","83","0","83","0","Thu Oct 19 11:51:10 2023","The main experiment item","True","SternbergTask.osexp","/Users/RMILLER1/Library/CloudStorage/OneDrive-tarleton.edu(NTNET)/TSU Online Classes/Graduate Class/ Adv Quant Methods and Design","False","mono","False","18","no","white","no","no","768","legacy","71","11","/Users/RMILLER1/Library/CloudStorage/OneDrive-tarleton.edu(NTNET)/TSU Online Classes/Graduate Class/ Adv Quant Methods and Design/Sternberg/RM-subject-2.csv","legacy","3 9 7 6 4","Melodramatic Milgram","4.0.5","3","y","0","left","right","left","left","NA","497.0","10197","4908","497","NA","2","legacy","5","1024","2","48000","-16","experiment","2","even","7","524114","524118","526328","525123","523073","11305","98020","482011","87822","11356","528332","528830","16295","528331","NA","SternbergTask","67","61587.0","84","1024"
"80","80","736","736","#3d3846","experiment","legacy","legacy","legacy","1","undefined","1","left","84","84","84","84","84","0","0","84","0","0","84","84","0","84","0","Thu Oct 19 11:51:10 2023","The main experiment item","True","SternbergTask.osexp","/Users/RMILLER1/Library/CloudStorage/OneDrive-tarleton.edu(NTNET)/TSU Online Classes/Graduate Class/ Adv Quant Methods and Design","False","mono","False","18","no","white","no","no","768","legacy","72","11","/Users/RMILLER1/Library/CloudStorage/OneDrive-tarleton.edu(NTNET)/TSU Online Classes/Graduate Class/ Adv Quant Methods and Design/Sternberg/RM-subject-2.csv","legacy","7 2 3","Melodramatic Milgram","4.0.5","3","y","0","left","right","left","left","NA","1033.0","10197","4908","1033","NA","2","legacy","3","1024","2","48000","-16","experiment","2","even","3","529869","529883","532092","530887","528834","11305","98020","482011","87822","11356","534096","535129","16295","534096","NA","SternbergTask","68","62620.0","85","1024"
"80","80","731","731","#3d3846","experiment","legacy","legacy","legacy","1","undefined","1","left","85","85","85","85","85","0","0","85","0","0","85","85","0","85","0","Thu Oct 19 11:51:10 2023","The main experiment item","True","SternbergTask.osexp","/Users/RMILLER1/Library/CloudStorage/OneDrive-tarleton.edu(NTNET)/TSU Online Classes/Graduate Class/ Adv Quant Methods and Design","False","mono","False","18","no","white","no","no","768","legacy","73","11","/Users/RMILLER1/Library/CloudStorage/OneDrive-tarleton.edu(NTNET)/TSU Online Classes/Graduate Class/ Adv Quant Methods and Design/Sternberg/RM-subject-2.csv","legacy","7","Melodramatic Milgram","4.0.5","1","y","0","left","right","left","left","NA","326.0","10197","4908","326","NA","2","legacy","1","1024","2","48000","-16","experiment","2","even","7","536150","536153","538358","537156","535133","11305","98020","482011","87822","11356","540361","540688","16295","540360","NA","SternbergTask","69","62946.0","86","1024"
"80","80","731","731","#3d3846","experiment","legacy","legacy","legacy","1","undefined","1","right","86","86","86","86","86","0","0","86","0","0","86","86","0","86","0","Thu Oct 19 11:51:10 2023","The main experiment item","True","SternbergTask.osexp","/Users/RMILLER1/Library/CloudStorage/OneDrive-tarleton.edu(NTNET)/TSU Online Classes/Graduate Class/ Adv Quant Methods and Design","False","mono","False","18","no","white","no","no","768","legacy","74","11","/Users/RMILLER1/Library/CloudStorage/OneDrive-tarleton.edu(NTNET)/TSU Online Classes/Graduate Class/ Adv Quant Methods and Design/Sternberg/RM-subject-2.csv","legacy","6 9 4 5 3 2","Melodramatic Milgram","4.0.5","0","n","0","right","right","left","right","NA","673.0","10197","4908","673","NA","2","legacy","6","1024","2","48000","-16","experiment","2","even","8","541733","541738","543951","542743","540694","11305","98020","482011","87822","11356","545954","546628","16295","545954","NA","SternbergTask","70","63619.0","87","1024"
"80","80","727","727","#3d3846","experiment","legacy","legacy","legacy","1","undefined","1","right","87","87","87","87","87","0","0","87","0","0","87","87","0","87","0","Thu Oct 19 11:51:10 2023","The main experiment item","True","SternbergTask.osexp","/Users/RMILLER1/Library/CloudStorage/OneDrive-tarleton.edu(NTNET)/TSU Online Classes/Graduate Class/ Adv Quant Methods and Design","False","mono","False","18","no","white","no","no","768","legacy","75","11","/Users/RMILLER1/Library/CloudStorage/OneDrive-tarleton.edu(NTNET)/TSU Online Classes/Graduate Class/ Adv Quant Methods and Design/Sternberg/RM-subject-2.csv","legacy","9","Melodramatic Milgram","4.0.5","0","n","0","right","right","left","right","NA","417.0","10197","4908","417","NA","2","legacy","1","1024","2","48000","-16","experiment","2","even","6","547665","547668","549877","548671","546633","11305","98020","482011","87822","11356","551880","552298","16295","551880","NA","SternbergTask","71","64036.0","88","1024"
"80","80","724","724","#3d3846","experiment","legacy","legacy","legacy","1","undefined","1","left","88","88","88","88","88","0","0","88","0","0","88","88","0","88","0","Thu Oct 19 11:51:10 2023","The main experiment item","True","SternbergTask.osexp","/Users/RMILLER1/Library/CloudStorage/OneDrive-tarleton.edu(NTNET)/TSU Online Classes/Graduate Class/ Adv Quant Methods and Design","False","mono","False","18","no","white","no","no","768","legacy","76","11","/Users/RMILLER1/Library/CloudStorage/OneDrive-tarleton.edu(NTNET)/TSU Online Classes/Graduate Class/ Adv Quant Methods and Design/Sternberg/RM-subject-2.csv","legacy","2 5 4 8 7","Melodramatic Milgram","4.0.5","3","y","0","left","right","left","left","NA","467.0","10197","4908","467","NA","2","legacy","5","1024","2","48000","-16","experiment","2","even","4","553329","553332","555543","554337","552301","11305","98020","482011","87822","11356","557546","558013","16295","557546","NA","SternbergTask","72","64503.0","89","1024"
"81","81","724","724","#3d3846","experiment","legacy","legacy","legacy","1","undefined","1","right","89","89","89","89","89","0","0","89","0","0","89","89","0","89","0","Thu Oct 19 11:51:10 2023","The main experiment item","True","SternbergTask.osexp","/Users/RMILLER1/Library/CloudStorage/OneDrive-tarleton.edu(NTNET)/TSU Online Classes/Graduate Class/ Adv Quant Methods and Design","False","mono","False","18","no","white","no","no","768","legacy","77","11","/Users/RMILLER1/Library/CloudStorage/OneDrive-tarleton.edu(NTNET)/TSU Online Classes/Graduate Class/ Adv Quant Methods and Design/Sternberg/RM-subject-2.csv","legacy","4 8 1 2","Melodramatic Milgram","4.0.5","0","n","0","right","right","left","right","NA","663.0","10197","4908","663","NA","2","legacy","4","1024","2","48000","-16","experiment","2","even","7","559050","559053","561264","560056","558017","11305","98020","482011","87822","11356","563267","563931","16295","563267","NA","SternbergTask","73","65166.0","90","1024"
"81","81","722","722","#3d3846","experiment","legacy","legacy","legacy","1","undefined","1","left","90","90","90","90","90","0","0","90","0","0","90","90","0","90","0","Thu Oct 19 11:51:10 2023","The main experiment item","True","SternbergTask.osexp","/Users/RMILLER1/Library/CloudStorage/OneDrive-tarleton.edu(NTNET)/TSU Online Classes/Graduate Class/ Adv Quant Methods and Design","False","mono","False","18","no","white","no","no","768","legacy","78","11","/Users/RMILLER1/Library/CloudStorage/OneDrive-tarleton.edu(NTNET)/TSU Online Classes/Graduate Class/ Adv Quant Methods and Design/Sternberg/RM-subject-2.csv","legacy","9 5 3 8 4","Melodramatic Milgram","4.0.5","1","y","0","left","right","left","left","NA","584.0","10197","4908","584","NA","2","legacy","5","1024","2","48000","-16","experiment","2","even","9","564979","564983","567193","565986","563939","11305","98020","482011","87822","11356","569196","569781","16295","569196","NA","SternbergTask","74","65750.0","91","1024"
"80","80","721","721","#3d3846","experiment","legacy","legacy","legacy","0","undefined","0","right","91","91","91","91","91","0","0","91","0","0","91","91","0","91","0","Thu Oct 19 11:51:10 2023","The main experiment item","True","SternbergTask.osexp","/Users/RMILLER1/Library/CloudStorage/OneDrive-tarleton.edu(NTNET)/TSU Online Classes/Graduate Class/ Adv Quant Methods and Design","False","mono","False","18","no","white","no","no","768","legacy","79","11","/Users/RMILLER1/Library/CloudStorage/OneDrive-tarleton.edu(NTNET)/TSU Online Classes/Graduate Class/ Adv Quant Methods and Design/Sternberg/RM-subject-2.csv","legacy","1 5 3 2 8","Melodramatic Milgram","4.0.5","0","n","0","left","right","left","left","NA","636.0","10197","4908","636","NA","2","legacy","5","1024","2","48000","-16","experiment","2","even","4","570821","570824","573036","571828","569787","11305","98020","482011","87822","11356","575039","575676","16295","575039","NA","SternbergTask","74","66386.0","92","1024"
"79","79","721","721","#3d3846","experiment","legacy","legacy","legacy","0","undefined","0","left","92","92","92","92","92","0","0","92","0","0","92","92","0","92","0","Thu Oct 19 11:51:10 2023","The main experiment item","True","SternbergTask.osexp","/Users/RMILLER1/Library/CloudStorage/OneDrive-tarleton.edu(NTNET)/TSU Online Classes/Graduate Class/ Adv Quant Methods and Design","False","mono","False","18","no","white","no","no","768","legacy","80","11","/Users/RMILLER1/Library/CloudStorage/OneDrive-tarleton.edu(NTNET)/TSU Online Classes/Graduate Class/ Adv Quant Methods and Design/Sternberg/RM-subject-2.csv","legacy","4 9 7 8 5 3","Melodramatic Milgram","4.0.5","4","y","0","right","right","left","right","NA","749.0","10197","4908","749","NA","2","legacy","6","1024","2","48000","-16","experiment","2","even","8","576714","576717","578927","577720","569787","11305","98020","575680","87822","11356","580934","581684","16295","580934","NA","SternbergTask","74","67135.0","93","1024"
"79","79","720","720","#3d3846","experiment","legacy","legacy","legacy","1","undefined","1","right","93","93","93","93","93","0","0","93","0","0","93","93","0","93","0","Thu Oct 19 11:51:10 2023","The main experiment item","True","SternbergTask.osexp","/Users/RMILLER1/Library/CloudStorage/OneDrive-tarleton.edu(NTNET)/TSU Online Classes/Graduate Class/ Adv Quant Methods and Design","False","mono","False","18","no","white","no","no","768","legacy","81","11","/Users/RMILLER1/Library/CloudStorage/OneDrive-tarleton.edu(NTNET)/TSU Online Classes/Graduate Class/ Adv Quant Methods and Design/Sternberg/RM-subject-2.csv","legacy","7 1","Melodramatic Milgram","4.0.5","0","n","0","right","right","left","right","NA","626.0","10197","4908","626","NA","2","legacy","2","1024","2","48000","-16","experiment","2","even","8","582761","582764","584970","583768","569787","11305","98020","581694","87822","11356","586974","587601","16295","586974","NA","SternbergTask","75","67761.0","94","1024"
"80","80","722","722","#3d3846","experiment","legacy","legacy","legacy","1","undefined","1","right","94","94","94","94","94","0","0","94","0","0","94","94","0","94","0","Thu Oct 19 11:51:10 2023","The main experiment item","True","SternbergTask.osexp","/Users/RMILLER1/Library/CloudStorage/OneDrive-tarleton.edu(NTNET)/TSU Online Classes/Graduate Class/ Adv Quant Methods and Design","False","mono","False","18","no","white","no","no","768","legacy","82","11","/Users/RMILLER1/Library/CloudStorage/OneDrive-tarleton.edu(NTNET)/TSU Online Classes/Graduate Class/ Adv Quant Methods and Design/Sternberg/RM-subject-2.csv","legacy","1 4 9 3","Melodramatic Milgram","4.0.5","0","n","0","right","right","left","right","NA","905.0","10197","4908","905","NA","2","legacy","4","1024","2","48000","-16","experiment","2","even","5","588640","588645","590855","589650","587605","11305","98020","581694","87822","11356","592858","593764","16295","592858","NA","SternbergTask","76","68666.0","95","1024"
"80","80","722","722","#3d3846","experiment","legacy","legacy","legacy","1","undefined","1","right","95","95","95","95","95","0","0","95","0","0","95","95","0","95","0","Thu Oct 19 11:51:10 2023","The main experiment item","True","SternbergTask.osexp","/Users/RMILLER1/Library/CloudStorage/OneDrive-tarleton.edu(NTNET)/TSU Online Classes/Graduate Class/ Adv Quant Methods and Design","False","mono","False","18","no","white","no","no","768","legacy","83","11","/Users/RMILLER1/Library/CloudStorage/OneDrive-tarleton.edu(NTNET)/TSU Online Classes/Graduate Class/ Adv Quant Methods and Design/Sternberg/RM-subject-2.csv","legacy","7 9","Melodramatic Milgram","4.0.5","0","n","0","right","right","left","right","NA","738.0","10197","4908","738","NA","2","legacy","2","1024","2","48000","-16","experiment","2","even","1","594815","594820","597030","595825","593771","11305","98020","581694","87822","11356","599035","599774","16295","599035","NA","SternbergTask","77","69404.0","96","1024"
"79","79","727","727","#3d3846","experiment","legacy","legacy","legacy","0","undefined","0","left","96","96","96","96","96","0","0","96","0","0","96","96","0","96","0","Thu Oct 19 11:51:10 2023","The main experiment item","True","SternbergTask.osexp","/Users/RMILLER1/Library/CloudStorage/OneDrive-tarleton.edu(NTNET)/TSU Online Classes/Graduate Class/ Adv Quant Methods and Design","False","mono","False","18","no","white","no","no","768","legacy","84","11","/Users/RMILLER1/Library/CloudStorage/OneDrive-tarleton.edu(NTNET)/TSU Online Classes/Graduate Class/ Adv Quant Methods and Design/Sternberg/RM-subject-2.csv","legacy","2 3 7 4","Melodramatic Milgram","4.0.5","1","y","0","right","right","left","right","NA","1147.0","10197","4908","1147","NA","2","legacy","4","1024","2","48000","-16","experiment","2","even","2","600825","600828","603035","601832","599780","11305","98020","581694","87822","11356","605038","606186","16295","605038","NA","SternbergTask","77","70551.0","97","1024"
"79","79","727","727","#3d3846","experiment","legacy","legacy","legacy","1","undefined","1","right","97","97","97","97","97","0","0","97","0","0","97","97","0","97","0","Thu Oct 19 11:51:10 2023","The main experiment item","True","SternbergTask.osexp","/Users/RMILLER1/Library/CloudStorage/OneDrive-tarleton.edu(NTNET)/TSU Online Classes/Graduate Class/ Adv Quant Methods and Design","False","mono","False","18","no","white","no","no","768","legacy","85","11","/Users/RMILLER1/Library/CloudStorage/OneDrive-tarleton.edu(NTNET)/TSU Online Classes/Graduate Class/ Adv Quant Methods and Design/Sternberg/RM-subject-2.csv","legacy","8 5 7 3 6","Melodramatic Milgram","4.0.5","0","n","0","right","right","left","right","NA","771.0","10197","4908","771","NA","2","legacy","5","1024","2","48000","-16","experiment","2","even","9","607210","607213","609418","608215","599780","11305","98020","606188","87822","11356","611422","612196","16295","611422","NA","SternbergTask","78","71322.0","98","1024"
"79","79","724","724","#3d3846","experiment","legacy","legacy","legacy","1","undefined","1","left","98","98","98","98","98","0","0","98","0","0","98","98","0","98","0","Thu Oct 19 11:51:10 2023","The main experiment item","True","SternbergTask.osexp","/Users/RMILLER1/Library/CloudStorage/OneDrive-tarleton.edu(NTNET)/TSU Online Classes/Graduate Class/ Adv Quant Methods and Design","False","mono","False","18","no","white","no","no","768","legacy","86","11","/Users/RMILLER1/Library/CloudStorage/OneDrive-tarleton.edu(NTNET)/TSU Online Classes/Graduate Class/ Adv Quant Methods and Design/Sternberg/RM-subject-2.csv","legacy","6 7 8 5","Melodramatic Milgram","4.0.5","3","y","0","left","right","left","left","NA","438.0","10197","4908","438","NA","2","legacy","4","1024","2","48000","-16","experiment","2","even","8","613215","613217","615421","614219","612199","11305","98020","606188","87822","11356","617425","617863","16295","617425","NA","SternbergTask","79","71760.0","99","1024"
