acc,accuracy,average_response_time,avg_rt,background,block,canvas_backend,clock_backend,color_backend,compensation,coordinates,correct,correct_instructions1,correct_new_keyboard_response,correct_response,count_ISI,count_correctFeedback,count_expSequence,count_experiment,count_experimentLoop,count_fixation,count_incorrectFeedback,count_instructions1,count_instructions2,count_logger,count_memorySet,count_new_keyboard_response,count_practiceLoop,count_probe,count_thankYou,datetime,description,disable_garbage_collection,experiment_file,experiment_path,font_bold,font_family,font_italic,font_size,font_underline,foreground,form_clicks,fullscreen,height,keyboard_backend,live_row,live_row_practiceLoop,logfile,mouse_backend,numberSet,opensesame_codename,opensesame_version,posInSet,present,repeat_cycle,response,response_instructions1,response_instructions2,response_new_keyboard_response,response_thankYou,response_time,response_time_instructions1,response_time_instructions2,response_time_new_keyboard_response,response_time_thankYou,round_decimals,sampler_backend,setSize,sound_buf_size,sound_channels,sound_freq,sound_sample_size,start,subject_nr,subject_parity,target,time_ISI,time_correctFeedback,time_expSequence,time_experiment,time_experimentLoop,time_fixation,time_incorrectFeedback,time_instructions1,time_instructions2,time_logger,time_memorySet,time_new_keyboard_response,time_practiceLoop,time_probe,time_thankYou,title,total_correct,total_response_time,total_responses,uniform_coordinates,width
100,100,795,795,black,practice,legacy,legacy,legacy,0,uniform,1,undefined,1,left,0,0,0,0,0,0,0,0,0,0,0,0,0,0,0,10/14/19 14:04,The main experiment item,yes,Sternbergtask.osexp,C:/Users/Breena Riley/Desktop/2019 Fall/MultQuant/lab 3.1,no,mono,no,18,no,white,no,yes,768,legacy,0,0,C:/Users/Breena Riley/Desktop/2019 Fall/MultQuant/lab 3.1/BR-subject-2.csv,legacy,4 3 1 7 9 8,Kafkaesque Koffka,3.2.8,1,y,0,left,left,NA,left,NA,795,410332,NA,795,NA,2,legacy,6,1024,2,48000,-16,experiment,2,even,4,415259,NA,413055,2207,NA,413057,NA,2213,NA,418056,414058,417260,412546,417260,NA,Sternberg task,1,795,1,yes,1024
100,100,758,758,black,practice,legacy,legacy,legacy,0,uniform,1,undefined,1,left,1,1,1,0,0,1,1,0,0,1,1,1,0,1,0,10/14/19 14:04,The main experiment item,yes,Sternbergtask.osexp,C:/Users/Breena Riley/Desktop/2019 Fall/MultQuant/lab 3.1,no,mono,no,18,no,white,no,yes,768,legacy,1,1,C:/Users/Breena Riley/Desktop/2019 Fall/MultQuant/lab 3.1/BR-subject-2.csv,legacy,4 8,Kafkaesque Koffka,3.2.8,1,y,0,left,left,NA,left,NA,721,410332,NA,721,NA,2,legacy,2,1024,2,48000,-16,experiment,2,even,4,421415,418130,419211,2207,NA,419213,NA,2213,NA,424137,420214,423416,412546,423416,NA,Sternberg task,2,1516,2,yes,1024
66.66666667,66.66666667,1172,1172,black,practice,legacy,legacy,legacy,0,uniform,0,undefined,0,right,2,2,2,0,0,2,2,0,0,2,2,2,0,2,0,10/14/19 14:04,The main experiment item,yes,Sternbergtask.osexp,C:/Users/Breena Riley/Desktop/2019 Fall/MultQuant/lab 3.1,no,mono,no,18,no,white,no,yes,768,legacy,2,2,C:/Users/Breena Riley/Desktop/2019 Fall/MultQuant/lab 3.1/BR-subject-2.csv,legacy,5 7 8 4 1 2,Kafkaesque Koffka,3.2.8,0,n,0,None,left,NA,None,NA,2000,410332,NA,2000,NA,2,legacy,6,1024,2,48000,-16,experiment,2,even,6,427425,424145,425220,2207,NA,425222,NA,2213,NA,431426,426223,429426,412546,429426,NA,Sternberg task,2,3516,3,yes,1024
75,75,1265.25,1265.25,black,practice,legacy,legacy,legacy,0,uniform,1,undefined,1,left,3,3,3,0,0,3,3,0,0,3,3,3,0,3,0,10/14/19 14:04,The main experiment item,yes,Sternbergtask.osexp,C:/Users/Breena Riley/Desktop/2019 Fall/MultQuant/lab 3.1,no,mono,no,18,no,white,no,yes,768,legacy,3,3,C:/Users/Breena Riley/Desktop/2019 Fall/MultQuant/lab 3.1/BR-subject-2.csv,legacy,6,Kafkaesque Koffka,3.2.8,1,y,0,left,left,NA,left,NA,1545,410332,NA,1545,NA,2,legacy,1,1024,2,48000,-16,experiment,2,even,6,434711,424145,432506,2207,NA,432508,431434,2213,NA,438257,433509,436712,412546,436712,NA,Sternberg task,3,5061,4,yes,1024
60,60,1290.4,1290.4,black,practice,legacy,legacy,legacy,0,uniform,0,undefined,0,right,4,4,4,0,0,4,4,0,0,4,4,4,0,4,0,10/14/19 14:04,The main experiment item,yes,Sternbergtask.osexp,C:/Users/Breena Riley/Desktop/2019 Fall/MultQuant/lab 3.1,no,mono,no,18,no,white,no,yes,768,legacy,4,4,C:/Users/Breena Riley/Desktop/2019 Fall/MultQuant/lab 3.1/BR-subject-2.csv,legacy,4 1 5,Kafkaesque Koffka,3.2.8,0,n,0,left,left,NA,left,NA,1391,410332,NA,1391,NA,2,legacy,3,1024,2,48000,-16,experiment,2,even,2,441538,438263,439334,2207,NA,439336,431434,2213,NA,444931,440337,443539,412546,443539,NA,Sternberg task,3,6452,5,yes,1024
50,50,1209.833333,1209.833333,black,practice,legacy,legacy,legacy,0,uniform,0,undefined,0,right,5,5,5,0,0,5,5,0,0,5,5,5,0,5,0,10/14/19 14:04,The main experiment item,yes,Sternbergtask.osexp,C:/Users/Breena Riley/Desktop/2019 Fall/MultQuant/lab 3.1,no,mono,no,18,no,white,no,yes,768,legacy,5,5,C:/Users/Breena Riley/Desktop/2019 Fall/MultQuant/lab 3.1/BR-subject-2.csv,legacy,2 1,Kafkaesque Koffka,3.2.8,0,n,0,left,left,NA,left,NA,807,410332,NA,807,NA,2,legacy,2,1024,2,48000,-16,experiment,2,even,5,448211,438263,446007,2207,NA,446009,444938,2213,NA,451019,447010,450212,412546,450212,NA,Sternberg task,3,7259,6,yes,1024
57.14285714,57.14285714,1198,1198,black,practice,legacy,legacy,legacy,0,uniform,1,undefined,1,right,6,6,6,0,0,6,6,0,0,6,6,6,0,6,0,10/14/19 14:04,The main experiment item,yes,Sternbergtask.osexp,C:/Users/Breena Riley/Desktop/2019 Fall/MultQuant/lab 3.1,no,mono,no,18,no,white,no,yes,768,legacy,6,6,C:/Users/Breena Riley/Desktop/2019 Fall/MultQuant/lab 3.1/BR-subject-2.csv,legacy,9 6 7 4 5,Kafkaesque Koffka,3.2.8,0,n,0,right,left,NA,right,NA,1127,410332,NA,1127,NA,2,legacy,5,1024,2,48000,-16,experiment,2,even,3,454300,438263,452096,2207,NA,452098,451027,2213,NA,457429,453099,456301,412546,456301,NA,Sternberg task,4,8386,7,yes,1024
62.5,62.5,1183.375,1183.375,black,practice,legacy,legacy,legacy,0,uniform,1,undefined,1,left,7,7,7,0,0,7,7,0,0,7,7,7,0,7,0,10/14/19 14:04,The main experiment item,yes,Sternbergtask.osexp,C:/Users/Breena Riley/Desktop/2019 Fall/MultQuant/lab 3.1,no,mono,no,18,no,white,no,yes,768,legacy,7,7,C:/Users/Breena Riley/Desktop/2019 Fall/MultQuant/lab 3.1/BR-subject-2.csv,legacy,1 7 9 8 5,Kafkaesque Koffka,3.2.8,4,y,0,left,left,NA,left,NA,1081,410332,NA,1081,NA,2,legacy,5,1024,2,48000,-16,experiment,2,even,8,460709,457436,458506,2207,NA,458507,451027,2213,NA,463791,459508,462710,412546,462710,NA,Sternberg task,5,9467,8,yes,1024
66.66666667,66.66666667,1197.444444,1197.444444,black,practice,legacy,legacy,legacy,0,uniform,1,undefined,1,right,8,8,8,0,0,8,8,0,0,8,8,8,0,8,0,10/14/19 14:04,The main experiment item,yes,Sternbergtask.osexp,C:/Users/Breena Riley/Desktop/2019 Fall/MultQuant/lab 3.1,no,mono,no,18,no,white,no,yes,768,legacy,8,8,C:/Users/Breena Riley/Desktop/2019 Fall/MultQuant/lab 3.1/BR-subject-2.csv,legacy,3 1 9 4,Kafkaesque Koffka,3.2.8,0,n,0,right,left,NA,right,NA,1310,410332,NA,1310,NA,2,legacy,4,1024,2,48000,-16,experiment,2,even,6,467069,463795,464866,2207,NA,464867,451027,2213,NA,470380,465868,469070,412546,469070,NA,Sternberg task,6,10777,9,yes,1024
70,70,1184,1184,black,practice,legacy,legacy,legacy,0,uniform,1,undefined,1,right,9,9,9,0,0,9,9,0,0,9,9,9,0,9,0,10/14/19 14:04,The main experiment item,yes,Sternbergtask.osexp,C:/Users/Breena Riley/Desktop/2019 Fall/MultQuant/lab 3.1,no,mono,no,18,no,white,no,yes,768,legacy,9,9,C:/Users/Breena Riley/Desktop/2019 Fall/MultQuant/lab 3.1/BR-subject-2.csv,legacy,5,Kafkaesque Koffka,3.2.8,0,n,0,right,left,NA,right,NA,1063,410332,NA,1063,NA,2,legacy,1,1024,2,48000,-16,experiment,2,even,3,473664,470387,471460,2207,NA,471462,451027,2213,NA,476730,472463,475667,412546,475666,NA,Sternberg task,7,11840,10,yes,1024
72.72727273,72.72727273,1186.454545,1186.454545,black,practice,legacy,legacy,legacy,0,uniform,1,undefined,1,left,10,10,10,0,0,10,10,0,0,10,10,10,0,10,0,10/14/19 14:04,The main experiment item,yes,Sternbergtask.osexp,C:/Users/Breena Riley/Desktop/2019 Fall/MultQuant/lab 3.1,no,mono,no,18,no,white,no,yes,768,legacy,10,10,C:/Users/Breena Riley/Desktop/2019 Fall/MultQuant/lab 3.1/BR-subject-2.csv,legacy,1 5 2 9,Kafkaesque Koffka,3.2.8,2,y,0,left,left,NA,left,NA,1211,410332,NA,1211,NA,2,legacy,4,1024,2,48000,-16,experiment,2,even,5,480008,476735,477805,2207,NA,477806,451027,2213,NA,483221,478807,482009,412546,482009,NA,Sternberg task,8,13051,11,yes,1024
75,75,1180.666667,1180.666667,black,practice,legacy,legacy,legacy,0,uniform,1,undefined,1,left,11,11,11,0,0,11,11,0,0,11,11,11,0,11,0,10/14/19 14:04,The main experiment item,yes,Sternbergtask.osexp,C:/Users/Breena Riley/Desktop/2019 Fall/MultQuant/lab 3.1,no,mono,no,18,no,white,no,yes,768,legacy,11,11,C:/Users/Breena Riley/Desktop/2019 Fall/MultQuant/lab 3.1/BR-subject-2.csv,legacy,2 9 4,Kafkaesque Koffka,3.2.8,3,y,0,left,left,NA,left,NA,1117,410332,NA,1117,NA,2,legacy,3,1024,2,48000,-16,experiment,2,even,4,486500,483228,484296,2207,NA,484298,451027,2213,NA,489618,485299,488501,412546,488501,NA,Sternberg task,9,14168,12,yes,1024
76.92307692,76.92307692,1134.846154,1134.846154,black,experiment,legacy,legacy,legacy,0,uniform,1,undefined,1,left,12,12,12,0,0,12,12,0,0,12,12,12,0,12,0,10/14/19 14:04,The main experiment item,yes,Sternbergtask.osexp,C:/Users/Breena Riley/Desktop/2019 Fall/MultQuant/lab 3.1,no,mono,no,18,no,white,no,yes,768,legacy,0,11,C:/Users/Breena Riley/Desktop/2019 Fall/MultQuant/lab 3.1/BR-subject-2.csv,legacy,2 5 4 8 7,Kafkaesque Koffka,3.2.8,3,y,0,left,left,left,left,NA,585,410332,4441,585,NA,2,legacy,5,1024,2,48000,-16,experiment,2,even,4,497369,489626,495165,2207,495081,495167,451027,2213,490640,499955,496168,499370,412546,499370,NA,Sternberg task,10,14753,13,yes,1024
78.57142857,78.57142857,1090.928571,1090.928571,black,experiment,legacy,legacy,legacy,0,uniform,1,undefined,1,left,13,13,13,0,0,13,13,0,0,13,13,13,0,13,0,10/14/19 14:04,The main experiment item,yes,Sternbergtask.osexp,C:/Users/Breena Riley/Desktop/2019 Fall/MultQuant/lab 3.1,no,mono,no,18,no,white,no,yes,768,legacy,1,11,C:/Users/Breena Riley/Desktop/2019 Fall/MultQuant/lab 3.1/BR-subject-2.csv,legacy,5 2 6,Kafkaesque Koffka,3.2.8,2,y,0,left,left,left,left,NA,520,410332,4441,520,NA,2,legacy,3,1024,2,48000,-16,experiment,2,even,2,503239,499963,501036,2207,495081,501037,451027,2213,490640,505761,502038,505240,412546,505240,NA,Sternberg task,11,15273,14,yes,1024
80,80,1059.066667,1059.066667,black,experiment,legacy,legacy,legacy,0,uniform,1,undefined,1,left,14,14,14,0,0,14,14,0,0,14,14,14,0,14,0,10/14/19 14:04,The main experiment item,yes,Sternbergtask.osexp,C:/Users/Breena Riley/Desktop/2019 Fall/MultQuant/lab 3.1,no,mono,no,18,no,white,no,yes,768,legacy,2,11,C:/Users/Breena Riley/Desktop/2019 Fall/MultQuant/lab 3.1/BR-subject-2.csv,legacy,8 1 6,Kafkaesque Koffka,3.2.8,3,y,0,left,left,left,left,NA,613,410332,4441,613,NA,2,legacy,3,1024,2,48000,-16,experiment,2,even,6,509044,505768,506840,2207,495081,506842,451027,2213,490640,511658,507843,511045,412546,511045,NA,Sternberg task,12,15886,15,yes,1024
81.25,81.25,1050.75,1050.75,black,experiment,legacy,legacy,legacy,0,uniform,1,undefined,1,right,15,15,15,0,0,15,15,0,0,15,15,15,0,15,0,10/14/19 14:04,The main experiment item,yes,Sternbergtask.osexp,C:/Users/Breena Riley/Desktop/2019 Fall/MultQuant/lab 3.1,no,mono,no,18,no,white,no,yes,768,legacy,3,11,C:/Users/Breena Riley/Desktop/2019 Fall/MultQuant/lab 3.1/BR-subject-2.csv,legacy,7 1 8 4 9 3,Kafkaesque Koffka,3.2.8,0,n,0,right,left,left,right,NA,926,410332,4441,926,NA,2,legacy,6,1024,2,48000,-16,experiment,2,even,6,514943,511665,512739,2207,495081,512741,451027,2213,490640,517870,513742,516944,412546,516944,NA,Sternberg task,13,16812,16,yes,1024
82.35294118,82.35294118,1020.117647,1020.117647,black,experiment,legacy,legacy,legacy,0,uniform,1,undefined,1,left,16,16,16,0,0,16,16,0,0,16,16,16,0,16,0,10/14/19 14:04,The main experiment item,yes,Sternbergtask.osexp,C:/Users/Breena Riley/Desktop/2019 Fall/MultQuant/lab 3.1,no,mono,no,18,no,white,no,yes,768,legacy,4,11,C:/Users/Breena Riley/Desktop/2019 Fall/MultQuant/lab 3.1/BR-subject-2.csv,legacy,2 3,Kafkaesque Koffka,3.2.8,1,y,0,left,left,left,left,NA,530,410332,4441,530,NA,2,legacy,2,1024,2,48000,-16,experiment,2,even,2,521152,517878,518948,2207,495081,518950,451027,2213,490640,523685,519951,523154,412546,523154,NA,Sternberg task,14,17342,17,yes,1024
83.33333333,83.33333333,1008.388889,1008.388889,black,experiment,legacy,legacy,legacy,0,uniform,1,undefined,1,left,17,17,17,0,0,17,17,0,0,17,17,17,0,17,0,10/14/19 14:04,The main experiment item,yes,Sternbergtask.osexp,C:/Users/Breena Riley/Desktop/2019 Fall/MultQuant/lab 3.1,no,mono,no,18,no,white,no,yes,768,legacy,5,11,C:/Users/Breena Riley/Desktop/2019 Fall/MultQuant/lab 3.1/BR-subject-2.csv,legacy,6 9 7 4 5 1,Kafkaesque Koffka,3.2.8,2,y,0,left,left,left,left,NA,809,410332,4441,809,NA,2,legacy,6,1024,2,48000,-16,experiment,2,even,9,526967,523692,524763,2207,495081,524765,451027,2213,490640,529778,525766,528968,412546,528968,NA,Sternberg task,15,18151,18,yes,1024
84.21052632,84.21052632,979.7894737,979.7894737,black,experiment,legacy,legacy,legacy,0,uniform,1,undefined,1,left,18,18,18,0,0,18,18,0,0,18,18,18,0,18,0,10/14/19 14:04,The main experiment item,yes,Sternbergtask.osexp,C:/Users/Breena Riley/Desktop/2019 Fall/MultQuant/lab 3.1,no,mono,no,18,no,white,no,yes,768,legacy,6,11,C:/Users/Breena Riley/Desktop/2019 Fall/MultQuant/lab 3.1/BR-subject-2.csv,legacy,6 5,Kafkaesque Koffka,3.2.8,2,y,0,left,left,left,left,NA,465,410332,4441,465,NA,2,legacy,2,1024,2,48000,-16,experiment,2,even,5,533064,529785,530860,2207,495081,530862,451027,2213,490640,535530,531863,535065,412546,535065,NA,Sternberg task,16,18616,19,yes,1024
85,85,961.5,961.5,black,experiment,legacy,legacy,legacy,0,uniform,1,undefined,1,left,19,19,19,0,0,19,19,0,0,19,19,19,0,19,0,10/14/19 14:04,The main experiment item,yes,Sternbergtask.osexp,C:/Users/Breena Riley/Desktop/2019 Fall/MultQuant/lab 3.1,no,mono,no,18,no,white,no,yes,768,legacy,7,11,C:/Users/Breena Riley/Desktop/2019 Fall/MultQuant/lab 3.1/BR-subject-2.csv,legacy,5 7 3 6 2,Kafkaesque Koffka,3.2.8,5,y,0,left,left,left,left,NA,614,410332,4441,614,NA,2,legacy,5,1024,2,48000,-16,experiment,2,even,2,538812,535538,536607,2207,495081,536609,451027,2213,490640,541427,537610,540813,412546,540813,NA,Sternberg task,17,19230,20,yes,1024
85.71428571,85.71428571,950,950,black,experiment,legacy,legacy,legacy,0,uniform,1,undefined,1,left,20,20,20,0,0,20,20,0,0,20,20,20,0,20,0,10/14/19 14:04,The main experiment item,yes,Sternbergtask.osexp,C:/Users/Breena Riley/Desktop/2019 Fall/MultQuant/lab 3.1,no,mono,no,18,no,white,no,yes,768,legacy,8,11,C:/Users/Breena Riley/Desktop/2019 Fall/MultQuant/lab 3.1/BR-subject-2.csv,legacy,7,Kafkaesque Koffka,3.2.8,1,y,0,left,left,left,left,NA,720,410332,4441,720,NA,2,legacy,1,1024,2,48000,-16,experiment,2,even,7,544706,541432,542503,2207,495081,542504,451027,2213,490640,547428,543505,546707,412546,546707,NA,Sternberg task,18,19950,21,yes,1024
86.36363636,86.36363636,929.8181818,929.8181818,black,experiment,legacy,legacy,legacy,0,uniform,1,undefined,1,right,21,21,21,0,0,21,21,0,0,21,21,21,0,21,0,10/14/19 14:04,The main experiment item,yes,Sternbergtask.osexp,C:/Users/Breena Riley/Desktop/2019 Fall/MultQuant/lab 3.1,no,mono,no,18,no,white,no,yes,768,legacy,9,11,C:/Users/Breena Riley/Desktop/2019 Fall/MultQuant/lab 3.1/BR-subject-2.csv,legacy,6 8 4,Kafkaesque Koffka,3.2.8,0,n,0,right,left,left,right,NA,506,410332,4441,506,NA,2,legacy,3,1024,2,48000,-16,experiment,2,even,1,550713,547436,548509,2207,495081,548511,451027,2213,490640,553220,549512,552714,412546,552714,NA,Sternberg task,19,20456,22,yes,1024
86.95652174,86.95652174,912.2173913,912.2173913,black,experiment,legacy,legacy,legacy,0,uniform,1,undefined,1,right,22,22,22,0,0,22,22,0,0,22,22,22,0,22,0,10/14/19 14:04,The main experiment item,yes,Sternbergtask.osexp,C:/Users/Breena Riley/Desktop/2019 Fall/MultQuant/lab 3.1,no,mono,no,18,no,white,no,yes,768,legacy,10,11,C:/Users/Breena Riley/Desktop/2019 Fall/MultQuant/lab 3.1/BR-subject-2.csv,legacy,4 1,Kafkaesque Koffka,3.2.8,0,n,0,right,left,left,right,NA,525,410332,4441,525,NA,2,legacy,2,1024,2,48000,-16,experiment,2,even,6,556501,553228,554298,2207,495081,554299,451027,2213,490640,559027,555300,558502,412546,558502,NA,Sternberg task,20,20981,23,yes,1024
87.5,87.5,906.4583333,906.4583333,black,experiment,legacy,legacy,legacy,0,uniform,1,undefined,1,left,23,23,23,0,0,23,23,0,0,23,23,23,0,23,0,10/14/19 14:04,The main experiment item,yes,Sternbergtask.osexp,C:/Users/Breena Riley/Desktop/2019 Fall/MultQuant/lab 3.1,no,mono,no,18,no,white,no,yes,768,legacy,11,11,C:/Users/Breena Riley/Desktop/2019 Fall/MultQuant/lab 3.1/BR-subject-2.csv,legacy,9 8 4,Kafkaesque Koffka,3.2.8,1,y,0,left,left,left,left,NA,774,410332,4441,774,NA,2,legacy,3,1024,2,48000,-16,experiment,2,even,9,562307,559034,560103,2207,495081,560105,451027,2213,490640,565082,561106,564308,412546,564308,NA,Sternberg task,21,21755,24,yes,1024
88,88,899.96,899.96,black,experiment,legacy,legacy,legacy,0,uniform,1,undefined,1,left,24,24,24,0,0,24,24,0,0,24,24,24,0,24,0,10/14/19 14:04,The main experiment item,yes,Sternbergtask.osexp,C:/Users/Breena Riley/Desktop/2019 Fall/MultQuant/lab 3.1,no,mono,no,18,no,white,no,yes,768,legacy,12,11,C:/Users/Breena Riley/Desktop/2019 Fall/MultQuant/lab 3.1/BR-subject-2.csv,legacy,4 6 2 5 1,Kafkaesque Koffka,3.2.8,5,y,0,left,left,left,left,NA,744,410332,4441,744,NA,2,legacy,5,1024,2,48000,-16,experiment,2,even,1,568363,565089,566159,2207,495081,566160,451027,2213,490640,571109,567162,570364,412546,570364,NA,Sternberg task,22,22499,25,yes,1024
88.46153846,88.46153846,896.8076923,896.8076923,black,experiment,legacy,legacy,legacy,0,uniform,1,undefined,1,left,25,25,25,0,0,25,25,0,0,25,25,25,0,25,0,10/14/19 14:04,The main experiment item,yes,Sternbergtask.osexp,C:/Users/Breena Riley/Desktop/2019 Fall/MultQuant/lab 3.1,no,mono,no,18,no,white,no,yes,768,legacy,13,11,C:/Users/Breena Riley/Desktop/2019 Fall/MultQuant/lab 3.1/BR-subject-2.csv,legacy,3 5 7 1,Kafkaesque Koffka,3.2.8,3,y,0,left,left,left,left,NA,818,410332,4441,818,NA,2,legacy,4,1024,2,48000,-16,experiment,2,even,7,574391,571116,572188,2207,495081,572189,451027,2213,490640,577210,573190,576392,412546,576392,NA,Sternberg task,23,23317,26,yes,1024
88.88888889,88.88888889,903.4814815,903.4814815,black,experiment,legacy,legacy,legacy,0,uniform,1,undefined,1,right,26,26,26,0,0,26,26,0,0,26,26,26,0,26,0,10/14/19 14:04,The main experiment item,yes,Sternbergtask.osexp,C:/Users/Breena Riley/Desktop/2019 Fall/MultQuant/lab 3.1,no,mono,no,18,no,white,no,yes,768,legacy,14,11,C:/Users/Breena Riley/Desktop/2019 Fall/MultQuant/lab 3.1/BR-subject-2.csv,legacy,7 3 2 8,Kafkaesque Koffka,3.2.8,0,n,0,right,left,left,right,NA,1077,410332,4441,1077,NA,2,legacy,4,1024,2,48000,-16,experiment,2,even,4,580493,577218,578288,2207,495081,578290,451027,2213,490640,583573,579291,582494,412546,582494,NA,Sternberg task,24,24394,27,yes,1024
89.28571429,89.28571429,896.6428571,896.6428571,black,experiment,legacy,legacy,legacy,0,uniform,1,undefined,1,left,27,27,27,0,0,27,27,0,0,27,27,27,0,27,0,10/14/19 14:04,The main experiment item,yes,Sternbergtask.osexp,C:/Users/Breena Riley/Desktop/2019 Fall/MultQuant/lab 3.1,no,mono,no,18,no,white,no,yes,768,legacy,15,11,C:/Users/Breena Riley/Desktop/2019 Fall/MultQuant/lab 3.1/BR-subject-2.csv,legacy,3 5 9 6 2 4,Kafkaesque Koffka,3.2.8,1,y,0,left,left,left,left,NA,712,410332,4441,712,NA,2,legacy,6,1024,2,48000,-16,experiment,2,even,3,586854,583581,584650,2207,495081,584652,451027,2213,490640,589568,585653,588855,412546,588855,NA,Sternberg task,25,25106,28,yes,1024
89.65517241,89.65517241,883.4137931,883.4137931,black,experiment,legacy,legacy,legacy,0,uniform,1,undefined,1,left,28,28,28,0,0,28,28,0,0,28,28,28,0,28,0,10/14/19 14:04,The main experiment item,yes,Sternbergtask.osexp,C:/Users/Breena Riley/Desktop/2019 Fall/MultQuant/lab 3.1,no,mono,no,18,no,white,no,yes,768,legacy,16,11,C:/Users/Breena Riley/Desktop/2019 Fall/MultQuant/lab 3.1/BR-subject-2.csv,legacy,7 2 3,Kafkaesque Koffka,3.2.8,3,y,0,left,left,left,left,NA,513,410332,4441,513,NA,2,legacy,3,1024,2,48000,-16,experiment,2,even,3,592848,589575,590644,2207,495081,590646,451027,2213,490640,595363,591647,594849,412546,594849,NA,Sternberg task,26,25619,29,yes,1024
90,90,870.1333333,870.1333333,black,experiment,legacy,legacy,legacy,0,uniform,1,undefined,1,right,29,29,29,0,0,29,29,0,0,29,29,29,0,29,0,10/14/19 14:04,The main experiment item,yes,Sternbergtask.osexp,C:/Users/Breena Riley/Desktop/2019 Fall/MultQuant/lab 3.1,no,mono,no,18,no,white,no,yes,768,legacy,17,11,C:/Users/Breena Riley/Desktop/2019 Fall/MultQuant/lab 3.1/BR-subject-2.csv,legacy,6 7 5 9,Kafkaesque Koffka,3.2.8,0,n,0,right,left,left,right,NA,485,410332,4441,485,NA,2,legacy,4,1024,2,48000,-16,experiment,2,even,2,598644,595371,596440,2207,495081,596442,451027,2213,490640,601130,597443,600645,412546,600645,NA,Sternberg task,27,26104,30,yes,1024
90.32258065,90.32258065,861.5483871,861.5483871,black,experiment,legacy,legacy,legacy,0,uniform,1,undefined,1,right,30,30,30,0,0,30,30,0,0,30,30,30,0,30,0,10/14/19 14:04,The main experiment item,yes,Sternbergtask.osexp,C:/Users/Breena Riley/Desktop/2019 Fall/MultQuant/lab 3.1,no,mono,no,18,no,white,no,yes,768,legacy,18,11,C:/Users/Breena Riley/Desktop/2019 Fall/MultQuant/lab 3.1/BR-subject-2.csv,legacy,1,Kafkaesque Koffka,3.2.8,0,n,0,right,left,left,right,NA,604,410332,4441,604,NA,2,legacy,1,1024,2,48000,-16,experiment,2,even,7,604413,601137,602209,2207,495081,602211,451027,2213,490640,607019,603212,606414,412546,606414,NA,Sternberg task,28,26708,31,yes,1024
90.625,90.625,853.6875,853.6875,black,experiment,legacy,legacy,legacy,0,uniform,1,undefined,1,right,31,31,31,0,0,31,31,0,0,31,31,31,0,31,0,10/14/19 14:04,The main experiment item,yes,Sternbergtask.osexp,C:/Users/Breena Riley/Desktop/2019 Fall/MultQuant/lab 3.1,no,mono,no,18,no,white,no,yes,768,legacy,19,11,C:/Users/Breena Riley/Desktop/2019 Fall/MultQuant/lab 3.1/BR-subject-2.csv,legacy,2 8 7 9 5 3,Kafkaesque Koffka,3.2.8,0,n,0,right,left,left,right,NA,610,410332,4441,610,NA,2,legacy,6,1024,2,48000,-16,experiment,2,even,6,610299,607026,608095,2207,495081,608097,451027,2213,490640,612910,609098,612300,412546,612300,NA,Sternberg task,29,27318,32,yes,1024
87.87878788,87.87878788,849.1515152,849.1515152,black,experiment,legacy,legacy,legacy,0,uniform,0,undefined,0,left,32,32,32,0,0,32,32,0,0,32,32,32,0,32,0,10/14/19 14:04,The main experiment item,yes,Sternbergtask.osexp,C:/Users/Breena Riley/Desktop/2019 Fall/MultQuant/lab 3.1,no,mono,no,18,no,white,no,yes,768,legacy,20,11,C:/Users/Breena Riley/Desktop/2019 Fall/MultQuant/lab 3.1/BR-subject-2.csv,legacy,2 4 6 9,Kafkaesque Koffka,3.2.8,3,y,0,right,left,left,right,NA,704,410332,4441,704,NA,2,legacy,4,1024,2,48000,-16,experiment,2,even,6,616193,612918,613988,2207,495081,613990,451027,2213,490640,618899,614991,618194,412546,618194,NA,Sternberg task,29,28022,33,yes,1024
88.23529412,88.23529412,842.5294118,842.5294118,black,experiment,legacy,legacy,legacy,0,uniform,1,undefined,1,left,33,33,33,0,0,33,33,0,0,33,33,33,0,33,0,10/14/19 14:04,The main experiment item,yes,Sternbergtask.osexp,C:/Users/Breena Riley/Desktop/2019 Fall/MultQuant/lab 3.1,no,mono,no,18,no,white,no,yes,768,legacy,21,11,C:/Users/Breena Riley/Desktop/2019 Fall/MultQuant/lab 3.1/BR-subject-2.csv,legacy,3 5 4 7,Kafkaesque Koffka,3.2.8,1,y,0,left,left,left,left,NA,624,410332,4441,624,NA,2,legacy,4,1024,2,48000,-16,experiment,2,even,3,622178,612918,619973,2207,495081,619975,618902,2213,490640,624805,620977,624180,412546,624180,NA,Sternberg task,30,28646,34,yes,1024
88.57142857,88.57142857,839.6285714,839.6285714,black,experiment,legacy,legacy,legacy,0,uniform,1,undefined,1,left,34,34,34,0,0,34,34,0,0,34,34,34,0,34,0,10/14/19 14:04,The main experiment item,yes,Sternbergtask.osexp,C:/Users/Breena Riley/Desktop/2019 Fall/MultQuant/lab 3.1,no,mono,no,18,no,white,no,yes,768,legacy,22,11,C:/Users/Breena Riley/Desktop/2019 Fall/MultQuant/lab 3.1/BR-subject-2.csv,legacy,3 4 9 6 2 9,Kafkaesque Koffka,3.2.8,5,y,0,left,left,left,left,NA,741,410332,4441,741,NA,2,legacy,6,1024,2,48000,-16,experiment,2,even,2,628086,624813,625883,2207,495081,625884,618902,2213,490640,630829,626885,630087,412546,630087,NA,Sternberg task,31,29387,35,yes,1024
88.88888889,88.88888889,832.6944444,832.6944444,black,experiment,legacy,legacy,legacy,0,uniform,1,undefined,1,left,35,35,35,0,0,35,35,0,0,35,35,35,0,35,0,10/14/19 14:04,The main experiment item,yes,Sternbergtask.osexp,C:/Users/Breena Riley/Desktop/2019 Fall/MultQuant/lab 3.1,no,mono,no,18,no,white,no,yes,768,legacy,23,11,C:/Users/Breena Riley/Desktop/2019 Fall/MultQuant/lab 3.1/BR-subject-2.csv,legacy,9 1 7 2,Kafkaesque Koffka,3.2.8,2,y,0,left,left,left,left,NA,590,410332,4441,590,NA,2,legacy,4,1024,2,48000,-16,experiment,2,even,1,634111,630837,631908,2207,495081,631909,618902,2213,490640,636702,632910,636112,412546,636112,NA,Sternberg task,32,29977,36,yes,1024
89.18918919,89.18918919,827.8108108,827.8108108,black,experiment,legacy,legacy,legacy,0,uniform,1,undefined,1,right,36,36,36,0,0,36,36,0,0,36,36,36,0,36,0,10/14/19 14:04,The main experiment item,yes,Sternbergtask.osexp,C:/Users/Breena Riley/Desktop/2019 Fall/MultQuant/lab 3.1,no,mono,no,18,no,white,no,yes,768,legacy,24,11,C:/Users/Breena Riley/Desktop/2019 Fall/MultQuant/lab 3.1/BR-subject-2.csv,legacy,1 4 9 2 5,Kafkaesque Koffka,3.2.8,0,n,0,right,left,left,right,NA,652,410332,4441,652,NA,2,legacy,5,1024,2,48000,-16,experiment,2,even,7,639984,636710,637780,2207,495081,637782,618902,2213,490640,642638,638783,641985,412546,641985,NA,Sternberg task,33,30629,37,yes,1024
89.47368421,89.47368421,823.3157895,823.3157895,black,experiment,legacy,legacy,legacy,0,uniform,1,undefined,1,right,37,37,37,0,0,37,37,0,0,37,37,37,0,37,0,10/14/19 14:04,The main experiment item,yes,Sternbergtask.osexp,C:/Users/Breena Riley/Desktop/2019 Fall/MultQuant/lab 3.1,no,mono,no,18,no,white,no,yes,768,legacy,25,11,C:/Users/Breena Riley/Desktop/2019 Fall/MultQuant/lab 3.1/BR-subject-2.csv,legacy,1 8 7,Kafkaesque Koffka,3.2.8,0,n,0,right,left,left,right,NA,657,410332,4441,657,NA,2,legacy,3,1024,2,48000,-16,experiment,2,even,4,645917,642645,643714,2207,495081,643715,618902,2213,490640,648576,644716,647918,412546,647918,NA,Sternberg task,34,31286,38,yes,1024
89.74358974,89.74358974,833.4102564,833.4102564,black,experiment,legacy,legacy,legacy,0,uniform,1,undefined,1,right,38,38,38,0,0,38,38,0,0,38,38,38,0,38,0,10/14/19 14:04,The main experiment item,yes,Sternbergtask.osexp,C:/Users/Breena Riley/Desktop/2019 Fall/MultQuant/lab 3.1,no,mono,no,18,no,white,no,yes,768,legacy,26,11,C:/Users/Breena Riley/Desktop/2019 Fall/MultQuant/lab 3.1/BR-subject-2.csv,legacy,8 4 3 9,Kafkaesque Koffka,3.2.8,0,n,0,right,left,left,right,NA,1217,410332,4441,1217,NA,2,legacy,4,1024,2,48000,-16,experiment,2,even,5,651857,648583,649653,2207,495081,649655,618902,2213,490640,655075,650656,653858,412546,653858,NA,Sternberg task,35,32503,39,yes,1024
90,90,835,835,black,experiment,legacy,legacy,legacy,0,uniform,1,undefined,1,left,39,39,39,0,0,39,39,0,0,39,39,39,0,39,0,10/14/19 14:04,The main experiment item,yes,Sternbergtask.osexp,C:/Users/Breena Riley/Desktop/2019 Fall/MultQuant/lab 3.1,no,mono,no,18,no,white,no,yes,768,legacy,27,11,C:/Users/Breena Riley/Desktop/2019 Fall/MultQuant/lab 3.1/BR-subject-2.csv,legacy,7 8 4 6 9 5,Kafkaesque Koffka,3.2.8,4,y,0,left,left,left,left,NA,897,410332,4441,897,NA,2,legacy,6,1024,2,48000,-16,experiment,2,even,6,658355,655082,656151,2207,495081,656153,618902,2213,490640,661253,657154,660356,412546,660356,NA,Sternberg task,36,33400,40,yes,1024
90.24390244,90.24390244,828.6829268,828.6829268,black,experiment,legacy,legacy,legacy,0,uniform,1,undefined,1,right,40,40,40,0,0,40,40,0,0,40,40,40,0,40,0,10/14/19 14:04,The main experiment item,yes,Sternbergtask.osexp,C:/Users/Breena Riley/Desktop/2019 Fall/MultQuant/lab 3.1,no,mono,no,18,no,white,no,yes,768,legacy,28,11,C:/Users/Breena Riley/Desktop/2019 Fall/MultQuant/lab 3.1/BR-subject-2.csv,legacy,7 6 4 8 1 2,Kafkaesque Koffka,3.2.8,0,n,0,right,left,left,right,NA,576,410332,4441,576,NA,2,legacy,6,1024,2,48000,-16,experiment,2,even,9,664534,661262,662331,2207,495081,662332,618902,2213,490640,667111,663333,666535,412546,666535,NA,Sternberg task,37,33976,41,yes,1024
90.47619048,90.47619048,824.8095238,824.8095238,black,experiment,legacy,legacy,legacy,0,uniform,1,undefined,1,left,41,41,41,0,0,41,41,0,0,41,41,41,0,41,0,10/14/19 14:04,The main experiment item,yes,Sternbergtask.osexp,C:/Users/Breena Riley/Desktop/2019 Fall/MultQuant/lab 3.1,no,mono,no,18,no,white,no,yes,768,legacy,29,11,C:/Users/Breena Riley/Desktop/2019 Fall/MultQuant/lab 3.1/BR-subject-2.csv,legacy,8 5 1 3 9,Kafkaesque Koffka,3.2.8,4,y,0,left,left,left,left,NA,666,410332,4441,666,NA,2,legacy,5,1024,2,48000,-16,experiment,2,even,3,670397,667119,668192,2207,495081,668194,618902,2213,490640,673064,669196,672398,412546,672398,NA,Sternberg task,38,34642,42,yes,1024
90.69767442,90.69767442,821.372093,821.372093,black,experiment,legacy,legacy,legacy,0,uniform,1,undefined,1,right,42,42,42,0,0,42,42,0,0,42,42,42,0,42,0,10/14/19 14:04,The main experiment item,yes,Sternbergtask.osexp,C:/Users/Breena Riley/Desktop/2019 Fall/MultQuant/lab 3.1,no,mono,no,18,no,white,no,yes,768,legacy,30,11,C:/Users/Breena Riley/Desktop/2019 Fall/MultQuant/lab 3.1/BR-subject-2.csv,legacy,3 4 9 6 7 8,Kafkaesque Koffka,3.2.8,0,n,0,right,left,left,right,NA,677,410332,4441,677,NA,2,legacy,6,1024,2,48000,-16,experiment,2,even,2,676350,673071,674145,2207,495081,674148,618902,2213,490640,679028,675149,678351,412546,678351,NA,Sternberg task,39,35319,43,yes,1024
88.63636364,88.63636364,815.1818182,815.1818182,black,experiment,legacy,legacy,legacy,0,uniform,0,undefined,0,right,43,43,43,0,0,43,43,0,0,43,43,43,0,43,0,10/14/19 14:04,The main experiment item,yes,Sternbergtask.osexp,C:/Users/Breena Riley/Desktop/2019 Fall/MultQuant/lab 3.1,no,mono,no,18,no,white,no,yes,768,legacy,31,11,C:/Users/Breena Riley/Desktop/2019 Fall/MultQuant/lab 3.1/BR-subject-2.csv,legacy,7 1,Kafkaesque Koffka,3.2.8,0,n,0,left,left,left,left,NA,549,410332,4441,549,NA,2,legacy,2,1024,2,48000,-16,experiment,2,even,8,682309,679035,680105,2207,495081,680107,618902,2213,490640,684860,681108,684310,412546,684310,NA,Sternberg task,39,35868,44,yes,1024
88.88888889,88.88888889,813.7111111,813.7111111,black,experiment,legacy,legacy,legacy,0,uniform,1,undefined,1,left,44,44,44,0,0,44,44,0,0,44,44,44,0,44,0,10/14/19 14:04,The main experiment item,yes,Sternbergtask.osexp,C:/Users/Breena Riley/Desktop/2019 Fall/MultQuant/lab 3.1,no,mono,no,18,no,white,no,yes,768,legacy,32,11,C:/Users/Breena Riley/Desktop/2019 Fall/MultQuant/lab 3.1/BR-subject-2.csv,legacy,4 9 7 8 5 3,Kafkaesque Koffka,3.2.8,4,y,0,left,left,left,left,NA,749,410332,4441,749,NA,2,legacy,6,1024,2,48000,-16,experiment,2,even,8,688142,679035,685938,2207,495081,685940,684867,2213,490640,690893,686941,690143,412546,690143,NA,Sternberg task,40,36617,45,yes,1024
89.13043478,89.13043478,806.5869565,806.5869565,black,experiment,legacy,legacy,legacy,0,uniform,1,undefined,1,left,45,45,45,0,0,45,45,0,0,45,45,45,0,45,0,10/14/19 14:04,The main experiment item,yes,Sternbergtask.osexp,C:/Users/Breena Riley/Desktop/2019 Fall/MultQuant/lab 3.1,no,mono,no,18,no,white,no,yes,768,legacy,33,11,C:/Users/Breena Riley/Desktop/2019 Fall/MultQuant/lab 3.1/BR-subject-2.csv,legacy,8 3,Kafkaesque Koffka,3.2.8,2,y,0,left,left,left,left,NA,486,410332,4441,486,NA,2,legacy,2,1024,2,48000,-16,experiment,2,even,3,694174,690900,691970,2207,495081,691972,684867,2213,490640,696662,692973,696175,412546,696175,NA,Sternberg task,41,37103,46,yes,1024
89.36170213,89.36170213,803.0212766,803.0212766,black,experiment,legacy,legacy,legacy,0,uniform,1,undefined,1,right,46,46,46,0,0,46,46,0,0,46,46,46,0,46,0,10/14/19 14:04,The main experiment item,yes,Sternbergtask.osexp,C:/Users/Breena Riley/Desktop/2019 Fall/MultQuant/lab 3.1,no,mono,no,18,no,white,no,yes,768,legacy,34,11,C:/Users/Breena Riley/Desktop/2019 Fall/MultQuant/lab 3.1/BR-subject-2.csv,legacy,9 5 3 2 8 6,Kafkaesque Koffka,3.2.8,0,n,0,right,left,left,right,NA,639,410332,4441,639,NA,2,legacy,6,1024,2,48000,-16,experiment,2,even,7,699943,696669,697738,2207,495081,697740,684867,2213,490640,702583,698741,701944,412546,701944,NA,Sternberg task,42,37742,47,yes,1024
89.58333333,89.58333333,800.9166667,800.9166667,black,experiment,legacy,legacy,legacy,0,uniform,1,undefined,1,right,47,47,47,0,0,47,47,0,0,47,47,47,0,47,0,10/14/19 14:04,The main experiment item,yes,Sternbergtask.osexp,C:/Users/Breena Riley/Desktop/2019 Fall/MultQuant/lab 3.1,no,mono,no,18,no,white,no,yes,768,legacy,35,11,C:/Users/Breena Riley/Desktop/2019 Fall/MultQuant/lab 3.1/BR-subject-2.csv,legacy,6 9 5,Kafkaesque Koffka,3.2.8,0,n,0,right,left,left,right,NA,702,410332,4441,702,NA,2,legacy,3,1024,2,48000,-16,experiment,2,even,8,705866,702591,703663,2207,495081,703664,684867,2213,490640,708570,704665,707867,412546,707867,NA,Sternberg task,43,38444,48,yes,1024
89.79591837,89.79591837,801.877551,801.877551,black,experiment,legacy,legacy,legacy,0,uniform,1,undefined,1,right,48,48,48,0,0,48,48,0,0,48,48,48,0,48,0,10/14/19 14:04,The main experiment item,yes,Sternbergtask.osexp,C:/Users/Breena Riley/Desktop/2019 Fall/MultQuant/lab 3.1,no,mono,no,18,no,white,no,yes,768,legacy,36,11,C:/Users/Breena Riley/Desktop/2019 Fall/MultQuant/lab 3.1/BR-subject-2.csv,legacy,3 9 1,Kafkaesque Koffka,3.2.8,0,n,0,right,left,left,right,NA,848,410332,4441,848,NA,2,legacy,3,1024,2,48000,-16,experiment,2,even,7,711849,708577,709645,2207,495081,709647,684867,2213,490640,714698,710648,713850,412546,713850,NA,Sternberg task,44,39292,49,yes,1024
90,90,800.62,800.62,black,experiment,legacy,legacy,legacy,0,uniform,1,undefined,1,left,49,49,49,0,0,49,49,0,0,49,49,49,0,49,0,10/14/19 14:04,The main experiment item,yes,Sternbergtask.osexp,C:/Users/Breena Riley/Desktop/2019 Fall/MultQuant/lab 3.1,no,mono,no,18,no,white,no,yes,768,legacy,37,11,C:/Users/Breena Riley/Desktop/2019 Fall/MultQuant/lab 3.1/BR-subject-2.csv,legacy,9 3 8 2 1 4,Kafkaesque Koffka,3.2.8,3,y,0,left,left,left,left,NA,739,410332,4441,739,NA,2,legacy,6,1024,2,48000,-16,experiment,2,even,8,717982,714706,715778,2207,495081,715780,684867,2213,490640,720723,716781,719983,412546,719983,NA,Sternberg task,45,40031,50,yes,1024
90.19607843,90.19607843,796.1568627,796.1568627,black,experiment,legacy,legacy,legacy,0,uniform,1,undefined,1,right,50,50,50,0,0,50,50,0,0,50,50,50,0,50,0,10/14/19 14:04,The main experiment item,yes,Sternbergtask.osexp,C:/Users/Breena Riley/Desktop/2019 Fall/MultQuant/lab 3.1,no,mono,no,18,no,white,no,yes,768,legacy,38,11,C:/Users/Breena Riley/Desktop/2019 Fall/MultQuant/lab 3.1/BR-subject-2.csv,legacy,2 8 9,Kafkaesque Koffka,3.2.8,0,n,0,right,left,left,right,NA,573,410332,4441,573,NA,2,legacy,3,1024,2,48000,-16,experiment,2,even,6,724003,720730,721800,2207,495081,721801,684867,2213,490640,726577,722802,726004,412546,726004,NA,Sternberg task,46,40604,51,yes,1024
90.38461538,90.38461538,795.1923077,795.1923077,black,experiment,legacy,legacy,legacy,0,uniform,1,undefined,1,left,51,51,51,0,0,51,51,0,0,51,51,51,0,51,0,10/14/19 14:04,The main experiment item,yes,Sternbergtask.osexp,C:/Users/Breena Riley/Desktop/2019 Fall/MultQuant/lab 3.1,no,mono,no,18,no,white,no,yes,768,legacy,39,11,C:/Users/Breena Riley/Desktop/2019 Fall/MultQuant/lab 3.1/BR-subject-2.csv,legacy,7 1 8 5 6 2,Kafkaesque Koffka,3.2.8,2,y,0,left,left,left,left,NA,746,410332,4441,746,NA,2,legacy,6,1024,2,48000,-16,experiment,2,even,1,729858,726585,727655,2207,495081,727656,684867,2213,490640,732605,728657,731859,412546,731859,NA,Sternberg task,47,41350,52,yes,1024
90.56603774,90.56603774,794.7169811,794.7169811,black,experiment,legacy,legacy,legacy,0,uniform,1,undefined,1,left,52,52,52,0,0,52,52,0,0,52,52,52,0,52,0,10/14/19 14:04,The main experiment item,yes,Sternbergtask.osexp,C:/Users/Breena Riley/Desktop/2019 Fall/MultQuant/lab 3.1,no,mono,no,18,no,white,no,yes,768,legacy,40,11,C:/Users/Breena Riley/Desktop/2019 Fall/MultQuant/lab 3.1/BR-subject-2.csv,legacy,7 1 3,Kafkaesque Koffka,3.2.8,2,y,0,left,left,left,left,NA,770,410332,4441,770,NA,2,legacy,3,1024,2,48000,-16,experiment,2,even,1,735886,732613,733682,2207,495081,733683,684867,2213,490640,738658,734684,737888,412546,737887,NA,Sternberg task,48,42120,53,yes,1024
88.88888889,88.88888889,817.037037,817.037037,black,experiment,legacy,legacy,legacy,0,uniform,0,undefined,0,right,53,53,53,0,0,53,53,0,0,53,53,53,0,53,0,10/14/19 14:04,The main experiment item,yes,Sternbergtask.osexp,C:/Users/Breena Riley/Desktop/2019 Fall/MultQuant/lab 3.1,no,mono,no,18,no,white,no,yes,768,legacy,41,11,C:/Users/Breena Riley/Desktop/2019 Fall/MultQuant/lab 3.1/BR-subject-2.csv,legacy,6 8,Kafkaesque Koffka,3.2.8,0,n,0,None,left,left,None,NA,2000,410332,4441,2000,NA,2,legacy,2,1024,2,48000,-16,experiment,2,even,9,741939,738665,739735,2207,495081,739737,684867,2213,490640,745940,740738,743940,412546,743940,NA,Sternberg task,48,44120,54,yes,1024
87.27272727,87.27272727,815.2909091,815.2909091,black,experiment,legacy,legacy,legacy,0,uniform,0,undefined,0,right,54,54,54,0,0,54,54,0,0,54,54,54,0,54,0,10/14/19 14:04,The main experiment item,yes,Sternbergtask.osexp,C:/Users/Breena Riley/Desktop/2019 Fall/MultQuant/lab 3.1,no,mono,no,18,no,white,no,yes,768,legacy,42,11,C:/Users/Breena Riley/Desktop/2019 Fall/MultQuant/lab 3.1/BR-subject-2.csv,legacy,5 7 3,Kafkaesque Koffka,3.2.8,0,n,0,left,left,left,left,NA,721,410332,4441,721,NA,2,legacy,3,1024,2,48000,-16,experiment,2,even,9,749222,738665,747018,2207,495081,747020,745947,2213,490640,751945,748021,751223,412546,751223,NA,Sternberg task,48,44841,55,yes,1024
87.5,87.5,811.8928571,811.8928571,black,experiment,legacy,legacy,legacy,0,uniform,1,undefined,1,right,55,55,55,0,0,55,55,0,0,55,55,55,0,55,0,10/14/19 14:04,The main experiment item,yes,Sternbergtask.osexp,C:/Users/Breena Riley/Desktop/2019 Fall/MultQuant/lab 3.1,no,mono,no,18,no,white,no,yes,768,legacy,43,11,C:/Users/Breena Riley/Desktop/2019 Fall/MultQuant/lab 3.1/BR-subject-2.csv,legacy,6 9 4 5 3 2,Kafkaesque Koffka,3.2.8,0,n,0,right,left,left,right,NA,625,410332,4441,625,NA,2,legacy,6,1024,2,48000,-16,experiment,2,even,8,755227,738665,753023,2207,495081,753024,751951,2213,490640,757853,754025,757228,412546,757228,NA,Sternberg task,49,45466,56,yes,1024
87.71929825,87.71929825,809.7192982,809.7192982,black,experiment,legacy,legacy,legacy,0,uniform,1,undefined,1,right,56,56,56,0,0,56,56,0,0,56,56,56,0,56,0,10/14/19 14:04,The main experiment item,yes,Sternbergtask.osexp,C:/Users/Breena Riley/Desktop/2019 Fall/MultQuant/lab 3.1,no,mono,no,18,no,white,no,yes,768,legacy,44,11,C:/Users/Breena Riley/Desktop/2019 Fall/MultQuant/lab 3.1/BR-subject-2.csv,legacy,7 9 1 6,Kafkaesque Koffka,3.2.8,0,n,0,right,left,left,right,NA,688,410332,4441,688,NA,2,legacy,4,1024,2,48000,-16,experiment,2,even,4,761134,757860,758930,2207,495081,758932,751951,2213,490640,763824,759933,763135,412546,763135,NA,Sternberg task,50,46154,57,yes,1024
87.93103448,87.93103448,813.4137931,813.4137931,black,experiment,legacy,legacy,legacy,0,uniform,1,undefined,1,left,57,57,57,0,0,57,57,0,0,57,57,57,0,57,0,10/14/19 14:04,The main experiment item,yes,Sternbergtask.osexp,C:/Users/Breena Riley/Desktop/2019 Fall/MultQuant/lab 3.1,no,mono,no,18,no,white,no,yes,768,legacy,45,11,C:/Users/Breena Riley/Desktop/2019 Fall/MultQuant/lab 3.1/BR-subject-2.csv,legacy,4 1 8 7 5,Kafkaesque Koffka,3.2.8,3,y,0,left,left,left,left,NA,1024,410332,4441,1024,NA,2,legacy,5,1024,2,48000,-16,experiment,2,even,8,767107,763831,764904,2207,495081,764905,751951,2213,490640,770133,765906,769108,412546,769108,NA,Sternberg task,51,47178,58,yes,1024
88.13559322,88.13559322,813.7966102,813.7966102,black,experiment,legacy,legacy,legacy,0,uniform,1,undefined,1,right,58,58,58,0,0,58,58,0,0,58,58,58,0,58,0,10/14/19 14:04,The main experiment item,yes,Sternbergtask.osexp,C:/Users/Breena Riley/Desktop/2019 Fall/MultQuant/lab 3.1,no,mono,no,18,no,white,no,yes,768,legacy,46,11,C:/Users/Breena Riley/Desktop/2019 Fall/MultQuant/lab 3.1/BR-subject-2.csv,legacy,3 4 2,Kafkaesque Koffka,3.2.8,0,n,0,right,left,left,right,NA,836,410332,4441,836,NA,2,legacy,3,1024,2,48000,-16,experiment,2,even,5,773415,770141,771212,2207,495081,771213,751951,2213,490640,776253,772214,775416,412546,775416,NA,Sternberg task,52,48014,59,yes,1024
88.33333333,88.33333333,812.4666667,812.4666667,black,experiment,legacy,legacy,legacy,0,uniform,1,undefined,1,left,59,59,59,0,0,59,59,0,0,59,59,59,0,59,0,10/14/19 14:04,The main experiment item,yes,Sternbergtask.osexp,C:/Users/Breena Riley/Desktop/2019 Fall/MultQuant/lab 3.1,no,mono,no,18,no,white,no,yes,768,legacy,47,11,C:/Users/Breena Riley/Desktop/2019 Fall/MultQuant/lab 3.1/BR-subject-2.csv,legacy,3 4,Kafkaesque Koffka,3.2.8,1,y,0,left,left,left,left,NA,734,410332,4441,734,NA,2,legacy,2,1024,2,48000,-16,experiment,2,even,3,779530,776256,777327,2207,495081,777328,751951,2213,490640,782266,778329,781531,412546,781531,NA,Sternberg task,53,48748,60,yes,1024
88.52459016,88.52459016,809.9836066,809.9836066,black,experiment,legacy,legacy,legacy,0,uniform,1,undefined,1,right,60,60,60,0,0,60,60,0,0,60,60,60,0,60,0,10/14/19 14:04,The main experiment item,yes,Sternbergtask.osexp,C:/Users/Breena Riley/Desktop/2019 Fall/MultQuant/lab 3.1,no,mono,no,18,no,white,no,yes,768,legacy,48,11,C:/Users/Breena Riley/Desktop/2019 Fall/MultQuant/lab 3.1/BR-subject-2.csv,legacy,4 2 6 9,Kafkaesque Koffka,3.2.8,0,n,0,right,left,left,right,NA,661,410332,4441,661,NA,2,legacy,4,1024,2,48000,-16,experiment,2,even,7,785548,782274,783345,2207,495081,783346,751951,2213,490640,788210,784347,787549,412546,787549,NA,Sternberg task,54,49409,61,yes,1024
88.70967742,88.70967742,806.2419355,806.2419355,black,experiment,legacy,legacy,legacy,0,uniform,1,undefined,1,right,61,61,61,0,0,61,61,0,0,61,61,61,0,61,0,10/14/19 14:04,The main experiment item,yes,Sternbergtask.osexp,C:/Users/Breena Riley/Desktop/2019 Fall/MultQuant/lab 3.1,no,mono,no,18,no,white,no,yes,768,legacy,49,11,C:/Users/Breena Riley/Desktop/2019 Fall/MultQuant/lab 3.1/BR-subject-2.csv,legacy,2 7 5,Kafkaesque Koffka,3.2.8,0,n,0,right,left,left,right,NA,578,410332,4441,578,NA,2,legacy,3,1024,2,48000,-16,experiment,2,even,8,791491,788218,789287,2207,495081,789289,751951,2213,490640,794071,790290,793492,412546,793492,NA,Sternberg task,55,49987,62,yes,1024
88.88888889,88.88888889,803.4920635,803.4920635,black,experiment,legacy,legacy,legacy,0,uniform,1,undefined,1,right,62,62,62,0,0,62,62,0,0,62,62,62,0,62,0,10/14/19 14:04,The main experiment item,yes,Sternbergtask.osexp,C:/Users/Breena Riley/Desktop/2019 Fall/MultQuant/lab 3.1,no,mono,no,18,no,white,no,yes,768,legacy,50,11,C:/Users/Breena Riley/Desktop/2019 Fall/MultQuant/lab 3.1/BR-subject-2.csv,legacy,3 9 8 1 6 4,Kafkaesque Koffka,3.2.8,0,n,0,right,left,left,right,NA,633,410332,4441,633,NA,2,legacy,6,1024,2,48000,-16,experiment,2,even,7,797353,794079,795149,2207,495081,795151,751951,2213,490640,799988,796152,799354,412546,799354,NA,Sternberg task,56,50620,63,yes,1024
89.0625,89.0625,801.90625,801.90625,black,experiment,legacy,legacy,legacy,0,uniform,1,undefined,1,right,63,63,63,0,0,63,63,0,0,63,63,63,0,63,0,10/14/19 14:04,The main experiment item,yes,Sternbergtask.osexp,C:/Users/Breena Riley/Desktop/2019 Fall/MultQuant/lab 3.1,no,mono,no,18,no,white,no,yes,768,legacy,51,11,C:/Users/Breena Riley/Desktop/2019 Fall/MultQuant/lab 3.1/BR-subject-2.csv,legacy,2 3 8 5 6 7,Kafkaesque Koffka,3.2.8,0,n,0,right,left,left,right,NA,702,410332,4441,702,NA,2,legacy,6,1024,2,48000,-16,experiment,2,even,1,803272,799995,801068,2207,495081,801070,751951,2213,490640,805976,802071,805273,412546,805273,NA,Sternberg task,57,51322,64,yes,1024
89.23076923,89.23076923,799.8461538,799.8461538,black,experiment,legacy,legacy,legacy,0,uniform,1,undefined,1,left,64,64,64,0,0,64,64,0,0,64,64,64,0,64,0,10/14/19 14:04,The main experiment item,yes,Sternbergtask.osexp,C:/Users/Breena Riley/Desktop/2019 Fall/MultQuant/lab 3.1,no,mono,no,18,no,white,no,yes,768,legacy,52,11,C:/Users/Breena Riley/Desktop/2019 Fall/MultQuant/lab 3.1/BR-subject-2.csv,legacy,2 3 7 4,Kafkaesque Koffka,3.2.8,1,y,0,left,left,left,left,NA,668,410332,4441,668,NA,2,legacy,4,1024,2,48000,-16,experiment,2,even,2,809254,805980,807050,2207,495081,807052,751951,2213,490640,811923,808053,811255,412546,811255,NA,Sternberg task,58,51990,65,yes,1024
89.39393939,89.39393939,795.5,795.5,black,experiment,legacy,legacy,legacy,0,uniform,1,undefined,1,left,65,65,65,0,0,65,65,0,0,65,65,65,0,65,0,10/14/19 14:04,The main experiment item,yes,Sternbergtask.osexp,C:/Users/Breena Riley/Desktop/2019 Fall/MultQuant/lab 3.1,no,mono,no,18,no,white,no,yes,768,legacy,53,11,C:/Users/Breena Riley/Desktop/2019 Fall/MultQuant/lab 3.1/BR-subject-2.csv,legacy,6 7 8 5,Kafkaesque Koffka,3.2.8,3,y,0,left,left,left,left,NA,513,410332,4441,513,NA,2,legacy,4,1024,2,48000,-16,experiment,2,even,8,815205,811931,813001,2207,495081,813003,751951,2213,490640,817720,814004,817206,412546,817206,NA,Sternberg task,59,52503,66,yes,1024
89.55223881,89.55223881,793.5223881,793.5223881,black,experiment,legacy,legacy,legacy,0,uniform,1,undefined,1,right,66,66,66,0,0,66,66,0,0,66,66,66,0,66,0,10/14/19 14:04,The main experiment item,yes,Sternbergtask.osexp,C:/Users/Breena Riley/Desktop/2019 Fall/MultQuant/lab 3.1,no,mono,no,18,no,white,no,yes,768,legacy,54,11,C:/Users/Breena Riley/Desktop/2019 Fall/MultQuant/lab 3.1/BR-subject-2.csv,legacy,1 4 3 6 5,Kafkaesque Koffka,3.2.8,0,n,0,right,left,left,right,NA,663,410332,4441,663,NA,2,legacy,5,1024,2,48000,-16,experiment,2,even,8,821003,817727,818799,2207,495081,818801,751951,2213,490640,823668,819802,823004,412546,823004,NA,Sternberg task,60,53166,67,yes,1024
89.70588235,89.70588235,788.4411765,788.4411765,black,experiment,legacy,legacy,legacy,0,uniform,1,undefined,1,right,67,67,67,0,0,67,67,0,0,67,67,67,0,67,0,10/14/19 14:04,The main experiment item,yes,Sternbergtask.osexp,C:/Users/Breena Riley/Desktop/2019 Fall/MultQuant/lab 3.1,no,mono,no,18,no,white,no,yes,768,legacy,55,11,C:/Users/Breena Riley/Desktop/2019 Fall/MultQuant/lab 3.1/BR-subject-2.csv,legacy,8 9,Kafkaesque Koffka,3.2.8,0,n,0,right,left,left,right,NA,448,410332,4441,448,NA,2,legacy,2,1024,2,48000,-16,experiment,2,even,5,826949,823676,824745,2207,495081,824747,751951,2213,490640,829399,825748,828950,412546,828950,NA,Sternberg task,61,53614,68,yes,1024
89.85507246,89.85507246,784.4782609,784.4782609,black,experiment,legacy,legacy,legacy,0,uniform,1,undefined,1,right,68,68,68,0,0,68,68,0,0,68,68,68,0,68,0,10/14/19 14:04,The main experiment item,yes,Sternbergtask.osexp,C:/Users/Breena Riley/Desktop/2019 Fall/MultQuant/lab 3.1,no,mono,no,18,no,white,no,yes,768,legacy,56,11,C:/Users/Breena Riley/Desktop/2019 Fall/MultQuant/lab 3.1/BR-subject-2.csv,legacy,6 9 7 3 8 2,Kafkaesque Koffka,3.2.8,0,n,0,right,left,left,right,NA,515,410332,4441,515,NA,2,legacy,6,1024,2,48000,-16,experiment,2,even,5,832679,829406,830476,2207,495081,830477,751951,2213,490640,835196,831478,834680,412546,834680,NA,Sternberg task,62,54129,69,yes,1024
90,90,785.1285714,785.1285714,black,experiment,legacy,legacy,legacy,0,uniform,1,undefined,1,left,69,69,69,0,0,69,69,0,0,69,69,69,0,69,0,10/14/19 14:04,The main experiment item,yes,Sternbergtask.osexp,C:/Users/Breena Riley/Desktop/2019 Fall/MultQuant/lab 3.1,no,mono,no,18,no,white,no,yes,768,legacy,57,11,C:/Users/Breena Riley/Desktop/2019 Fall/MultQuant/lab 3.1/BR-subject-2.csv,legacy,5 7 8 2 3 8,Kafkaesque Koffka,3.2.8,5,y,0,left,left,left,left,NA,830,410332,4441,830,NA,2,legacy,6,1024,2,48000,-16,experiment,2,even,3,838478,835204,836274,2207,495081,836276,751951,2213,490640,841310,837277,840479,412546,840479,NA,Sternberg task,63,54959,70,yes,1024
90.14084507,90.14084507,782.1830986,782.1830986,black,experiment,legacy,legacy,legacy,0,uniform,1,undefined,1,right,70,70,70,0,0,70,70,0,0,70,70,70,0,70,0,10/14/19 14:04,The main experiment item,yes,Sternbergtask.osexp,C:/Users/Breena Riley/Desktop/2019 Fall/MultQuant/lab 3.1,no,mono,no,18,no,white,no,yes,768,legacy,58,11,C:/Users/Breena Riley/Desktop/2019 Fall/MultQuant/lab 3.1/BR-subject-2.csv,legacy,7 1 5 6 3,Kafkaesque Koffka,3.2.8,0,n,0,right,left,left,right,NA,576,410332,4441,576,NA,2,legacy,5,1024,2,48000,-16,experiment,2,even,8,844593,841317,842389,2207,495081,842390,751951,2213,490640,847170,843392,846594,412546,846594,NA,Sternberg task,64,55535,71,yes,1024
90.27777778,90.27777778,778.0694444,778.0694444,black,experiment,legacy,legacy,legacy,0,uniform,1,undefined,1,left,71,71,71,0,0,71,71,0,0,71,71,71,0,71,0,10/14/19 14:04,The main experiment item,yes,Sternbergtask.osexp,C:/Users/Breena Riley/Desktop/2019 Fall/MultQuant/lab 3.1,no,mono,no,18,no,white,no,yes,768,legacy,59,11,C:/Users/Breena Riley/Desktop/2019 Fall/MultQuant/lab 3.1/BR-subject-2.csv,legacy,9 4 2,Kafkaesque Koffka,3.2.8,1,y,0,left,left,left,left,NA,486,410332,4441,486,NA,2,legacy,3,1024,2,48000,-16,experiment,2,even,9,850452,847178,848249,2207,495081,848250,751951,2213,490640,852940,849251,852453,412546,852453,NA,Sternberg task,65,56021,72,yes,1024
90.4109589,90.4109589,774.0958904,774.0958904,black,experiment,legacy,legacy,legacy,0,uniform,1,undefined,1,right,72,72,72,0,0,72,72,0,0,72,72,72,0,72,0,10/14/19 14:04,The main experiment item,yes,Sternbergtask.osexp,C:/Users/Breena Riley/Desktop/2019 Fall/MultQuant/lab 3.1,no,mono,no,18,no,white,no,yes,768,legacy,60,11,C:/Users/Breena Riley/Desktop/2019 Fall/MultQuant/lab 3.1/BR-subject-2.csv,legacy,1 6 4,Kafkaesque Koffka,3.2.8,0,n,0,right,left,left,right,NA,488,410332,4441,488,NA,2,legacy,3,1024,2,48000,-16,experiment,2,even,7,856220,852948,854017,2207,495081,854018,751951,2213,490640,858710,855019,858221,412546,858221,NA,Sternberg task,66,56509,73,yes,1024
90.54054054,90.54054054,771.6891892,771.6891892,black,experiment,legacy,legacy,legacy,0,uniform,1,undefined,1,right,73,73,73,0,0,73,73,0,0,73,73,73,0,73,0,10/14/19 14:04,The main experiment item,yes,Sternbergtask.osexp,C:/Users/Breena Riley/Desktop/2019 Fall/MultQuant/lab 3.1,no,mono,no,18,no,white,no,yes,768,legacy,61,11,C:/Users/Breena Riley/Desktop/2019 Fall/MultQuant/lab 3.1/BR-subject-2.csv,legacy,1 7 8 3 9,Kafkaesque Koffka,3.2.8,0,n,0,right,left,left,right,NA,596,410332,4441,596,NA,2,legacy,5,1024,2,48000,-16,experiment,2,even,2,861991,858718,859787,2207,495081,859789,751951,2213,490640,864589,860790,863993,412546,863993,NA,Sternberg task,67,57105,74,yes,1024
90.66666667,90.66666667,772.3066667,772.3066667,black,experiment,legacy,legacy,legacy,0,uniform,1,undefined,1,right,74,74,74,0,0,74,74,0,0,74,74,74,0,74,0,10/14/19 14:04,The main experiment item,yes,Sternbergtask.osexp,C:/Users/Breena Riley/Desktop/2019 Fall/MultQuant/lab 3.1,no,mono,no,18,no,white,no,yes,768,legacy,62,11,C:/Users/Breena Riley/Desktop/2019 Fall/MultQuant/lab 3.1/BR-subject-2.csv,legacy,7 8 6 1,Kafkaesque Koffka,3.2.8,0,n,0,right,left,left,right,NA,818,410332,4441,818,NA,2,legacy,4,1024,2,48000,-16,experiment,2,even,3,867870,864596,865666,2207,495081,865668,751951,2213,490640,870689,866669,869871,412546,869871,NA,Sternberg task,68,57923,75,yes,1024
90.78947368,90.78947368,769.3157895,769.3157895,black,experiment,legacy,legacy,legacy,0,uniform,1,undefined,1,left,75,75,75,0,0,75,75,0,0,75,75,75,0,75,0,10/14/19 14:04,The main experiment item,yes,Sternbergtask.osexp,C:/Users/Breena Riley/Desktop/2019 Fall/MultQuant/lab 3.1,no,mono,no,18,no,white,no,yes,768,legacy,63,11,C:/Users/Breena Riley/Desktop/2019 Fall/MultQuant/lab 3.1/BR-subject-2.csv,legacy,8 9 5 6 7,Kafkaesque Koffka,3.2.8,1,y,0,left,left,left,left,NA,545,410332,4441,545,NA,2,legacy,5,1024,2,48000,-16,experiment,2,even,8,873972,870696,871768,2207,495081,871770,751951,2213,490640,876520,872771,875974,412546,875974,NA,Sternberg task,69,58468,76,yes,1024
90.90909091,90.90909091,769.7662338,769.7662338,black,experiment,legacy,legacy,legacy,0,uniform,1,undefined,1,left,76,76,76,0,0,76,76,0,0,76,76,76,0,76,0,10/14/19 14:04,The main experiment item,yes,Sternbergtask.osexp,C:/Users/Breena Riley/Desktop/2019 Fall/MultQuant/lab 3.1,no,mono,no,18,no,white,no,yes,768,legacy,64,11,C:/Users/Breena Riley/Desktop/2019 Fall/MultQuant/lab 3.1/BR-subject-2.csv,legacy,5 2 9 6 1 7,Kafkaesque Koffka,3.2.8,3,y,0,left,left,left,left,NA,804,410332,4441,804,NA,2,legacy,6,1024,2,48000,-16,experiment,2,even,9,879800,876527,877596,2207,495081,877598,751951,2213,490640,882606,878599,881801,412546,881801,NA,Sternberg task,70,59272,77,yes,1024
91.02564103,91.02564103,767.0128205,767.0128205,black,experiment,legacy,legacy,legacy,0,uniform,1,undefined,1,right,77,77,77,0,0,77,77,0,0,77,77,77,0,77,0,10/14/19 14:04,The main experiment item,yes,Sternbergtask.osexp,C:/Users/Breena Riley/Desktop/2019 Fall/MultQuant/lab 3.1,no,mono,no,18,no,white,no,yes,768,legacy,65,11,C:/Users/Breena Riley/Desktop/2019 Fall/MultQuant/lab 3.1/BR-subject-2.csv,legacy,1 6 4 3 9 7,Kafkaesque Koffka,3.2.8,0,n,0,right,left,left,right,NA,555,410332,4441,555,NA,2,legacy,6,1024,2,48000,-16,experiment,2,even,8,885886,882612,883683,2207,495081,883684,751951,2213,490640,888443,884685,887887,412546,887887,NA,Sternberg task,71,59827,78,yes,1024
91.13924051,91.13924051,767.278481,767.278481,black,experiment,legacy,legacy,legacy,0,uniform,1,undefined,1,left,78,78,78,0,0,78,78,0,0,78,78,78,0,78,0,10/14/19 14:04,The main experiment item,yes,Sternbergtask.osexp,C:/Users/Breena Riley/Desktop/2019 Fall/MultQuant/lab 3.1,no,mono,no,18,no,white,no,yes,768,legacy,66,11,C:/Users/Breena Riley/Desktop/2019 Fall/MultQuant/lab 3.1/BR-subject-2.csv,legacy,4 7 6 8 2 3,Kafkaesque Koffka,3.2.8,6,y,0,left,left,left,left,NA,788,410332,4441,788,NA,2,legacy,6,1024,2,48000,-16,experiment,2,even,3,891725,888450,889521,2207,495081,889523,751951,2213,490640,894515,890524,893726,412546,893726,NA,Sternberg task,72,60615,79,yes,1024
91.25,91.25,765.3,765.3,black,experiment,legacy,legacy,legacy,0,uniform,1,undefined,1,right,79,79,79,0,0,79,79,0,0,79,79,79,0,79,0,10/14/19 14:04,The main experiment item,yes,Sternbergtask.osexp,C:/Users/Breena Riley/Desktop/2019 Fall/MultQuant/lab 3.1,no,mono,no,18,no,white,no,yes,768,legacy,67,11,C:/Users/Breena Riley/Desktop/2019 Fall/MultQuant/lab 3.1/BR-subject-2.csv,legacy,7 9,Kafkaesque Koffka,3.2.8,0,n,0,right,left,left,right,NA,609,410332,4441,609,NA,2,legacy,2,1024,2,48000,-16,experiment,2,even,1,897796,894522,895592,2207,495081,895594,751951,2213,490640,900407,896595,899797,412546,899797,NA,Sternberg task,73,61224,80,yes,1024
91.35802469,91.35802469,762.8395062,762.8395062,black,experiment,legacy,legacy,legacy,0,uniform,1,undefined,1,right,80,80,80,0,0,80,80,0,0,80,80,80,0,80,0,10/14/19 14:04,The main experiment item,yes,Sternbergtask.osexp,C:/Users/Breena Riley/Desktop/2019 Fall/MultQuant/lab 3.1,no,mono,no,18,no,white,no,yes,768,legacy,68,11,C:/Users/Breena Riley/Desktop/2019 Fall/MultQuant/lab 3.1/BR-subject-2.csv,legacy,2 5 1 4,Kafkaesque Koffka,3.2.8,0,n,0,right,left,left,right,NA,566,410332,4441,566,NA,2,legacy,4,1024,2,48000,-16,experiment,2,even,6,903687,900414,901484,2207,495081,901485,751951,2213,490640,906255,902486,905688,412546,905688,NA,Sternberg task,74,61790,81,yes,1024
91.46341463,91.46341463,759.0609756,759.0609756,black,experiment,legacy,legacy,legacy,0,uniform,1,undefined,1,left,81,81,81,0,0,81,81,0,0,81,81,81,0,81,0,10/14/19 14:04,The main experiment item,yes,Sternbergtask.osexp,C:/Users/Breena Riley/Desktop/2019 Fall/MultQuant/lab 3.1,no,mono,no,18,no,white,no,yes,768,legacy,69,11,C:/Users/Breena Riley/Desktop/2019 Fall/MultQuant/lab 3.1/BR-subject-2.csv,legacy,9 5 3 8 4,Kafkaesque Koffka,3.2.8,1,y,0,left,left,left,left,NA,453,410332,4441,453,NA,2,legacy,5,1024,2,48000,-16,experiment,2,even,9,909536,906263,907332,2207,495081,907334,751951,2213,490640,911991,908335,911537,412546,911537,NA,Sternberg task,75,62243,82,yes,1024
90.36144578,90.36144578,755.9036145,755.9036145,black,experiment,legacy,legacy,legacy,0,uniform,0,undefined,0,left,82,82,82,0,0,82,82,0,0,82,82,82,0,82,0,10/14/19 14:04,The main experiment item,yes,Sternbergtask.osexp,C:/Users/Breena Riley/Desktop/2019 Fall/MultQuant/lab 3.1,no,mono,no,18,no,white,no,yes,768,legacy,70,11,C:/Users/Breena Riley/Desktop/2019 Fall/MultQuant/lab 3.1/BR-subject-2.csv,legacy,7 4 2 6 3 5,Kafkaesque Koffka,3.2.8,6,y,0,right,left,left,right,NA,497,410332,4441,497,NA,2,legacy,6,1024,2,48000,-16,experiment,2,even,5,915272,911998,913068,2207,495081,913070,751951,2213,490640,917772,914071,917274,412546,917274,NA,Sternberg task,75,62740,83,yes,1024
90.47619048,90.47619048,754.3571429,754.3571429,black,experiment,legacy,legacy,legacy,0,uniform,1,undefined,1,right,83,83,83,0,0,83,83,0,0,83,83,83,0,83,0,10/14/19 14:04,The main experiment item,yes,Sternbergtask.osexp,C:/Users/Breena Riley/Desktop/2019 Fall/MultQuant/lab 3.1,no,mono,no,18,no,white,no,yes,768,legacy,71,11,C:/Users/Breena Riley/Desktop/2019 Fall/MultQuant/lab 3.1/BR-subject-2.csv,legacy,8 5 7 3 6,Kafkaesque Koffka,3.2.8,0,n,0,right,left,left,right,NA,626,410332,4441,626,NA,2,legacy,5,1024,2,48000,-16,experiment,2,even,9,921055,911998,918850,2207,495081,918852,917780,2213,490640,923683,919854,923056,412546,923056,NA,Sternberg task,76,63366,84,yes,1024
90.58823529,90.58823529,751.8823529,751.8823529,black,experiment,legacy,legacy,legacy,0,uniform,1,undefined,1,left,84,84,84,0,0,84,84,0,0,84,84,84,0,84,0,10/14/19 14:04,The main experiment item,yes,Sternbergtask.osexp,C:/Users/Breena Riley/Desktop/2019 Fall/MultQuant/lab 3.1,no,mono,no,18,no,white,no,yes,768,legacy,72,11,C:/Users/Breena Riley/Desktop/2019 Fall/MultQuant/lab 3.1/BR-subject-2.csv,legacy,8,Kafkaesque Koffka,3.2.8,1,y,0,left,left,left,left,NA,544,410332,4441,544,NA,2,legacy,1,1024,2,48000,-16,experiment,2,even,8,926963,923690,924760,2207,495081,924761,917780,2213,490640,929509,925762,928964,412546,928964,NA,Sternberg task,77,63910,85,yes,1024
90.69767442,90.69767442,749.244186,749.244186,black,experiment,legacy,legacy,legacy,0,uniform,1,undefined,1,right,85,85,85,0,0,85,85,0,0,85,85,85,0,85,0,10/14/19 14:04,The main experiment item,yes,Sternbergtask.osexp,C:/Users/Breena Riley/Desktop/2019 Fall/MultQuant/lab 3.1,no,mono,no,18,no,white,no,yes,768,legacy,73,11,C:/Users/Breena Riley/Desktop/2019 Fall/MultQuant/lab 3.1/BR-subject-2.csv,legacy,2 6 4 3 9,Kafkaesque Koffka,3.2.8,0,n,0,right,left,left,right,NA,525,410332,4441,525,NA,2,legacy,5,1024,2,48000,-16,experiment,2,even,1,932789,929516,930585,2207,495081,930587,917780,2213,490640,935315,931588,934790,412546,934790,NA,Sternberg task,78,64435,86,yes,1024
90.8045977,90.8045977,750.1724138,750.1724138,black,experiment,legacy,legacy,legacy,0,uniform,1,undefined,1,left,86,86,86,0,0,86,86,0,0,86,86,86,0,86,0,10/14/19 14:04,The main experiment item,yes,Sternbergtask.osexp,C:/Users/Breena Riley/Desktop/2019 Fall/MultQuant/lab 3.1,no,mono,no,18,no,white,no,yes,768,legacy,74,11,C:/Users/Breena Riley/Desktop/2019 Fall/MultQuant/lab 3.1/BR-subject-2.csv,legacy,1 4 9 3 2 5,Kafkaesque Koffka,3.2.8,3,y,0,left,left,left,left,NA,830,410332,4441,830,NA,2,legacy,6,1024,2,48000,-16,experiment,2,even,9,938598,935323,936394,2207,495081,936396,917780,2213,490640,941429,937397,940599,412546,940599,NA,Sternberg task,79,65265,87,yes,1024
90.90909091,90.90909091,746.3863636,746.3863636,black,experiment,legacy,legacy,legacy,0,uniform,1,undefined,1,left,87,87,87,0,0,87,87,0,0,87,87,87,0,87,0,10/14/19 14:04,The main experiment item,yes,Sternbergtask.osexp,C:/Users/Breena Riley/Desktop/2019 Fall/MultQuant/lab 3.1,no,mono,no,18,no,white,no,yes,768,legacy,75,11,C:/Users/Breena Riley/Desktop/2019 Fall/MultQuant/lab 3.1/BR-subject-2.csv,legacy,4 1 5,Kafkaesque Koffka,3.2.8,2,y,0,left,left,left,left,NA,417,410332,4441,417,NA,2,legacy,3,1024,2,48000,-16,experiment,2,even,1,944712,941436,942509,2207,495081,942510,917780,2213,490640,947130,943511,946713,412546,946713,NA,Sternberg task,80,65682,88,yes,1024
91.01123596,91.01123596,744.6741573,744.6741573,black,experiment,legacy,legacy,legacy,0,uniform,1,undefined,1,right,88,88,88,0,0,88,88,0,0,88,88,88,0,88,0,10/14/19 14:04,The main experiment item,yes,Sternbergtask.osexp,C:/Users/Breena Riley/Desktop/2019 Fall/MultQuant/lab 3.1,no,mono,no,18,no,white,no,yes,768,legacy,76,11,C:/Users/Breena Riley/Desktop/2019 Fall/MultQuant/lab 3.1/BR-subject-2.csv,legacy,6 3 1 7 9 8,Kafkaesque Koffka,3.2.8,0,n,0,right,left,left,right,NA,594,410332,4441,594,NA,2,legacy,6,1024,2,48000,-16,experiment,2,even,4,950411,947138,948207,2207,495081,948209,917780,2213,490640,953006,949210,952412,412546,952412,NA,Sternberg task,81,66276,89,yes,1024
91.11111111,91.11111111,743.4777778,743.4777778,black,experiment,legacy,legacy,legacy,0,uniform,1,undefined,1,right,89,89,89,0,0,89,89,0,0,89,89,89,0,89,0,10/14/19 14:04,The main experiment item,yes,Sternbergtask.osexp,C:/Users/Breena Riley/Desktop/2019 Fall/MultQuant/lab 3.1,no,mono,no,18,no,white,no,yes,768,legacy,77,11,C:/Users/Breena Riley/Desktop/2019 Fall/MultQuant/lab 3.1/BR-subject-2.csv,legacy,6 2 9 3 8 4,Kafkaesque Koffka,3.2.8,0,n,0,right,left,left,right,NA,637,410332,4441,637,NA,2,legacy,6,1024,2,48000,-16,experiment,2,even,1,956287,953013,954082,2207,495081,954084,917780,2213,490640,958926,955085,958288,412546,958288,NA,Sternberg task,82,66913,90,yes,1024
91.20879121,91.20879121,741.5384615,741.5384615,black,experiment,legacy,legacy,legacy,0,uniform,1,undefined,1,right,90,90,90,0,0,90,90,0,0,90,90,90,0,90,0,10/14/19 14:04,The main experiment item,yes,Sternbergtask.osexp,C:/Users/Breena Riley/Desktop/2019 Fall/MultQuant/lab 3.1,no,mono,no,18,no,white,no,yes,768,legacy,78,11,C:/Users/Breena Riley/Desktop/2019 Fall/MultQuant/lab 3.1/BR-subject-2.csv,legacy,8 5 4 2 9 6,Kafkaesque Koffka,3.2.8,0,n,0,right,left,left,right,NA,567,410332,4441,567,NA,2,legacy,6,1024,2,48000,-16,experiment,2,even,3,962209,958933,960005,2207,495081,960007,917780,2213,490640,964778,961008,964210,412546,964210,NA,Sternberg task,83,67480,91,yes,1024
91.30434783,91.30434783,739.5,739.5,black,experiment,legacy,legacy,legacy,0,uniform,1,undefined,1,right,91,91,91,0,0,91,91,0,0,91,91,91,0,91,0,10/14/19 14:04,The main experiment item,yes,Sternbergtask.osexp,C:/Users/Breena Riley/Desktop/2019 Fall/MultQuant/lab 3.1,no,mono,no,18,no,white,no,yes,768,legacy,79,11,C:/Users/Breena Riley/Desktop/2019 Fall/MultQuant/lab 3.1/BR-subject-2.csv,legacy,9 8 2 7 4,Kafkaesque Koffka,3.2.8,0,n,0,right,left,left,right,NA,554,410332,4441,554,NA,2,legacy,5,1024,2,48000,-16,experiment,2,even,5,968061,964785,965857,2207,495081,965858,917780,2213,490640,970617,966860,970062,412546,970062,NA,Sternberg task,84,68034,92,yes,1024
91.39784946,91.39784946,736.1075269,736.1075269,black,experiment,legacy,legacy,legacy,0,uniform,1,undefined,1,left,92,92,92,0,0,92,92,0,0,92,92,92,0,92,0,10/14/19 14:04,The main experiment item,yes,Sternbergtask.osexp,C:/Users/Breena Riley/Desktop/2019 Fall/MultQuant/lab 3.1,no,mono,no,18,no,white,no,yes,768,legacy,80,11,C:/Users/Breena Riley/Desktop/2019 Fall/MultQuant/lab 3.1/BR-subject-2.csv,legacy,4 6 5 8,Kafkaesque Koffka,3.2.8,1,y,0,left,left,left,left,NA,424,410332,4441,424,NA,2,legacy,4,1024,2,48000,-16,experiment,2,even,4,973897,970625,971694,2207,495081,971695,917780,2213,490640,976323,972696,975898,412546,975898,NA,Sternberg task,85,68458,93,yes,1024
91.4893617,91.4893617,732.6382979,732.6382979,black,experiment,legacy,legacy,legacy,0,uniform,1,undefined,1,left,93,93,93,0,0,93,93,0,0,93,93,93,0,93,0,10/14/19 14:04,The main experiment item,yes,Sternbergtask.osexp,C:/Users/Breena Riley/Desktop/2019 Fall/MultQuant/lab 3.1,no,mono,no,18,no,white,no,yes,768,legacy,81,11,C:/Users/Breena Riley/Desktop/2019 Fall/MultQuant/lab 3.1/BR-subject-2.csv,legacy,7 6,Kafkaesque Koffka,3.2.8,2,y,0,left,left,left,left,NA,410,410332,4441,410,NA,2,legacy,2,1024,2,48000,-16,experiment,2,even,6,979604,976331,977400,2207,495081,977402,917780,2213,490640,982016,978403,981605,412546,981605,NA,Sternberg task,86,68868,94,yes,1024
91.57894737,91.57894737,732.4,732.4,black,experiment,legacy,legacy,legacy,0,uniform,1,undefined,1,left,94,94,94,0,0,94,94,0,0,94,94,94,0,94,0,10/14/19 14:04,The main experiment item,yes,Sternbergtask.osexp,C:/Users/Breena Riley/Desktop/2019 Fall/MultQuant/lab 3.1,no,mono,no,18,no,white,no,yes,768,legacy,82,11,C:/Users/Breena Riley/Desktop/2019 Fall/MultQuant/lab 3.1/BR-subject-2.csv,legacy,9 6 2 4 1,Kafkaesque Koffka,3.2.8,4,y,0,left,left,left,left,NA,710,410332,4441,710,NA,2,legacy,5,1024,2,48000,-16,experiment,2,even,4,985297,982023,983093,2207,495081,983095,917780,2213,490640,988009,984096,987298,412546,987298,NA,Sternberg task,87,69578,95,yes,1024
91.66666667,91.66666667,729.25,729.25,black,experiment,legacy,legacy,legacy,0,uniform,1,undefined,1,left,95,95,95,0,0,95,95,0,0,95,95,95,0,95,0,10/14/19 14:04,The main experiment item,yes,Sternbergtask.osexp,C:/Users/Breena Riley/Desktop/2019 Fall/MultQuant/lab 3.1,no,mono,no,18,no,white,no,yes,768,legacy,83,11,C:/Users/Breena Riley/Desktop/2019 Fall/MultQuant/lab 3.1/BR-subject-2.csv,legacy,3 9 6 2,Kafkaesque Koffka,3.2.8,4,y,0,left,left,left,left,NA,430,410332,4441,430,NA,2,legacy,4,1024,2,48000,-16,experiment,2,even,2,991289,988016,989085,2207,495081,989086,917780,2213,490640,993721,990088,993290,412546,993290,NA,Sternberg task,88,70008,96,yes,1024
91.75257732,91.75257732,729.6701031,729.6701031,black,experiment,legacy,legacy,legacy,0,uniform,1,undefined,1,left,96,96,96,0,0,96,96,0,0,96,96,96,0,96,0,10/14/19 14:04,The main experiment item,yes,Sternbergtask.osexp,C:/Users/Breena Riley/Desktop/2019 Fall/MultQuant/lab 3.1,no,mono,no,18,no,white,no,yes,768,legacy,84,11,C:/Users/Breena Riley/Desktop/2019 Fall/MultQuant/lab 3.1/BR-subject-2.csv,legacy,6 8 9 3 4 9,Kafkaesque Koffka,3.2.8,5,y,0,left,left,left,left,NA,770,410332,4441,770,NA,2,legacy,6,1024,2,48000,-16,experiment,2,even,4,997001,993727,994797,2207,495081,994798,917780,2213,490640,999774,995800,999003,412546,999003,NA,Sternberg task,89,70778,97,yes,1024
91.83673469,91.83673469,729.4489796,729.4489796,black,experiment,legacy,legacy,legacy,0,uniform,1,undefined,1,right,97,97,97,0,0,97,97,0,0,97,97,97,0,97,0,10/14/19 14:04,The main experiment item,yes,Sternbergtask.osexp,C:/Users/Breena Riley/Desktop/2019 Fall/MultQuant/lab 3.1,no,mono,no,18,no,white,no,yes,768,legacy,85,11,C:/Users/Breena Riley/Desktop/2019 Fall/MultQuant/lab 3.1/BR-subject-2.csv,legacy,8 2 1 4 5 9,Kafkaesque Koffka,3.2.8,0,n,0,right,left,left,right,NA,708,410332,4441,708,NA,2,legacy,6,1024,2,48000,-16,experiment,2,even,7,1003060,999782,1000857,2207,495081,1000858,917780,2213,490640,1005769,1001859,1005061,412546,1005061,NA,Sternberg task,90,71486,98,yes,1024
91.91919192,91.91919192,728.9292929,728.9292929,black,experiment,legacy,legacy,legacy,0,uniform,1,undefined,1,right,98,98,98,0,0,98,98,0,0,98,98,98,0,98,0,10/14/19 14:04,The main experiment item,yes,Sternbergtask.osexp,C:/Users/Breena Riley/Desktop/2019 Fall/MultQuant/lab 3.1,no,mono,no,18,no,white,no,yes,768,legacy,86,11,C:/Users/Breena Riley/Desktop/2019 Fall/MultQuant/lab 3.1/BR-subject-2.csv,legacy,4 2 7 6 1 3,Kafkaesque Koffka,3.2.8,0,n,0,right,left,left,right,NA,678,410332,4441,678,NA,2,legacy,6,1024,2,48000,-16,experiment,2,even,8,1009053,1005776,1006849,2207,495081,1006851,917780,2213,490640,1011733,1007852,1011054,412546,1011054,NA,Sternberg task,91,72164,99,yes,1024
92,92,729.7,729.7,black,experiment,legacy,legacy,legacy,0,uniform,1,undefined,1,right,99,99,99,0,0,99,99,0,0,99,99,99,0,99,0,10/14/19 14:04,The main experiment item,yes,Sternbergtask.osexp,C:/Users/Breena Riley/Desktop/2019 Fall/MultQuant/lab 3.1,no,mono,no,18,no,white,no,yes,768,legacy,87,11,C:/Users/Breena Riley/Desktop/2019 Fall/MultQuant/lab 3.1/BR-subject-2.csv,legacy,6 9 4 5 2,Kafkaesque Koffka,3.2.8,0,n,0,right,left,left,right,NA,806,410332,4441,806,NA,2,legacy,5,1024,2,48000,-16,experiment,2,even,1,1015013,1011741,1012809,2207,495081,1012811,917780,2213,490640,1017821,1013812,1017014,412546,1017014,NA,Sternberg task,92,72970,100,yes,1024
92.07920792,92.07920792,727.1386139,727.1386139,black,experiment,legacy,legacy,legacy,0,uniform,1,undefined,1,left,100,100,100,0,0,100,100,0,0,100,100,100,0,100,0,10/14/19 14:04,The main experiment item,yes,Sternbergtask.osexp,C:/Users/Breena Riley/Desktop/2019 Fall/MultQuant/lab 3.1,no,mono,no,18,no,white,no,yes,768,legacy,88,11,C:/Users/Breena Riley/Desktop/2019 Fall/MultQuant/lab 3.1/BR-subject-2.csv,legacy,4 3 2 5 8,Kafkaesque Koffka,3.2.8,2,y,0,left,left,left,left,NA,471,410332,4441,471,NA,2,legacy,5,1024,2,48000,-16,experiment,2,even,3,1021102,1017828,1018897,2207,495081,1018899,917780,2213,490640,1023575,1019901,1023103,412546,1023103,NA,Sternberg task,93,73441,101,yes,1024
91.17647059,91.17647059,725.4411765,725.4411765,black,experiment,legacy,legacy,legacy,0,uniform,0,undefined,0,left,101,101,101,0,0,101,101,0,0,101,101,101,0,101,0,10/14/19 14:04,The main experiment item,yes,Sternbergtask.osexp,C:/Users/Breena Riley/Desktop/2019 Fall/MultQuant/lab 3.1,no,mono,no,18,no,white,no,yes,768,legacy,89,11,C:/Users/Breena Riley/Desktop/2019 Fall/MultQuant/lab 3.1/BR-subject-2.csv,legacy,2 6 1 7 4,Kafkaesque Koffka,3.2.8,2,y,0,right,left,left,right,NA,554,410332,4441,554,NA,2,legacy,5,1024,2,48000,-16,experiment,2,even,6,1026855,1023582,1024652,2207,495081,1024653,917780,2213,490640,1029411,1025654,1028856,412546,1028856,NA,Sternberg task,93,73995,102,yes,1024
91.26213592,91.26213592,725.5339806,725.5339806,black,experiment,legacy,legacy,legacy,0,uniform,1,undefined,1,left,102,102,102,0,0,102,102,0,0,102,102,102,0,102,0,10/14/19 14:04,The main experiment item,yes,Sternbergtask.osexp,C:/Users/Breena Riley/Desktop/2019 Fall/MultQuant/lab 3.1,no,mono,no,18,no,white,no,yes,768,legacy,90,11,C:/Users/Breena Riley/Desktop/2019 Fall/MultQuant/lab 3.1/BR-subject-2.csv,legacy,2 4 8 5 1 3,Kafkaesque Koffka,3.2.8,1,y,0,left,left,left,left,NA,735,410332,4441,735,NA,2,legacy,6,1024,2,48000,-16,experiment,2,even,2,1032692,1023582,1030489,2207,495081,1030490,1029419,2213,490640,1035430,1031491,1034694,412546,1034694,NA,Sternberg task,94,74730,103,yes,1024
91.34615385,91.34615385,723.8557692,723.8557692,black,experiment,legacy,legacy,legacy,0,uniform,1,undefined,1,left,103,103,103,0,0,103,103,0,0,103,103,103,0,103,0,10/14/19 14:04,The main experiment item,yes,Sternbergtask.osexp,C:/Users/Breena Riley/Desktop/2019 Fall/MultQuant/lab 3.1,no,mono,no,18,no,white,no,yes,768,legacy,91,11,C:/Users/Breena Riley/Desktop/2019 Fall/MultQuant/lab 3.1/BR-subject-2.csv,legacy,3 2 1 4 7,Kafkaesque Koffka,3.2.8,2,y,0,left,left,left,left,NA,551,410332,4441,551,NA,2,legacy,5,1024,2,48000,-16,experiment,2,even,2,1038710,1035437,1036507,2207,495081,1036508,1029419,2213,490640,1041263,1037509,1040711,412546,1040711,NA,Sternberg task,95,75281,104,yes,1024
91.42857143,91.42857143,720.5809524,720.5809524,black,experiment,legacy,legacy,legacy,0,uniform,1,undefined,1,left,104,104,104,0,0,104,104,0,0,104,104,104,0,104,0,10/14/19 14:04,The main experiment item,yes,Sternbergtask.osexp,C:/Users/Breena Riley/Desktop/2019 Fall/MultQuant/lab 3.1,no,mono,no,18,no,white,no,yes,768,legacy,92,11,C:/Users/Breena Riley/Desktop/2019 Fall/MultQuant/lab 3.1/BR-subject-2.csv,legacy,4,Kafkaesque Koffka,3.2.8,1,y,0,left,left,left,left,NA,380,410332,4441,380,NA,2,legacy,1,1024,2,48000,-16,experiment,2,even,4,1044545,1041271,1042341,2207,495081,1042343,1029419,2213,490640,1046927,1043344,1046546,412546,1046546,NA,Sternberg task,96,75661,105,yes,1024
91.50943396,91.50943396,720.3113208,720.3113208,black,experiment,legacy,legacy,legacy,0,uniform,1,undefined,1,left,105,105,105,0,0,105,105,0,0,105,105,105,0,105,0,10/14/19 14:04,The main experiment item,yes,Sternbergtask.osexp,C:/Users/Breena Riley/Desktop/2019 Fall/MultQuant/lab 3.1,no,mono,no,18,no,white,no,yes,768,legacy,93,11,C:/Users/Breena Riley/Desktop/2019 Fall/MultQuant/lab 3.1/BR-subject-2.csv,legacy,8 5 3 7 4 6,Kafkaesque Koffka,3.2.8,6,y,0,left,left,left,left,NA,692,410332,4441,692,NA,2,legacy,6,1024,2,48000,-16,experiment,2,even,6,1050210,1046935,1048005,2207,495081,1048007,1029419,2213,490640,1052904,1049008,1052211,412546,1052211,NA,Sternberg task,97,76353,106,yes,1024
91.58878505,91.58878505,719.1495327,719.1495327,black,experiment,legacy,legacy,legacy,0,uniform,1,undefined,1,right,106,106,106,0,0,106,106,0,0,106,106,106,0,106,0,10/14/19 14:04,The main experiment item,yes,Sternbergtask.osexp,C:/Users/Breena Riley/Desktop/2019 Fall/MultQuant/lab 3.1,no,mono,no,18,no,white,no,yes,768,legacy,94,11,C:/Users/Breena Riley/Desktop/2019 Fall/MultQuant/lab 3.1/BR-subject-2.csv,legacy,2 8 9 4 1,Kafkaesque Koffka,3.2.8,0,n,0,right,left,left,right,NA,596,410332,4441,596,NA,2,legacy,5,1024,2,48000,-16,experiment,2,even,5,1056188,1052911,1053984,2207,495081,1053986,1029419,2213,490640,1058786,1054987,1058189,412546,1058189,NA,Sternberg task,98,76949,107,yes,1024
91.66666667,91.66666667,718.3148148,718.3148148,black,experiment,legacy,legacy,legacy,0,uniform,1,undefined,1,left,107,107,107,0,0,107,107,0,0,107,107,107,0,107,0,10/14/19 14:04,The main experiment item,yes,Sternbergtask.osexp,C:/Users/Breena Riley/Desktop/2019 Fall/MultQuant/lab 3.1,no,mono,no,18,no,white,no,yes,768,legacy,95,11,C:/Users/Breena Riley/Desktop/2019 Fall/MultQuant/lab 3.1/BR-subject-2.csv,legacy,8 7 3,Kafkaesque Koffka,3.2.8,1,y,0,left,left,left,left,NA,629,410332,4441,629,NA,2,legacy,3,1024,2,48000,-16,experiment,2,even,8,1062069,1058793,1059864,2207,495081,1059866,1029419,2213,490640,1064702,1060867,1064071,412546,1064071,NA,Sternberg task,99,77578,108,yes,1024
90.82568807,90.82568807,716.733945,716.733945,black,experiment,legacy,legacy,legacy,0,uniform,0,undefined,0,left,108,108,108,0,0,108,108,0,0,108,108,108,0,108,0,10/14/19 14:04,The main experiment item,yes,Sternbergtask.osexp,C:/Users/Breena Riley/Desktop/2019 Fall/MultQuant/lab 3.1,no,mono,no,18,no,white,no,yes,768,legacy,96,11,C:/Users/Breena Riley/Desktop/2019 Fall/MultQuant/lab 3.1/BR-subject-2.csv,legacy,9 5 8 1,Kafkaesque Koffka,3.2.8,2,y,0,right,left,left,right,NA,546,410332,4441,546,NA,2,legacy,4,1024,2,48000,-16,experiment,2,even,5,1067982,1064709,1065778,2207,495081,1065780,1029419,2213,490640,1070529,1066781,1069983,412546,1069983,NA,Sternberg task,99,78124,109,yes,1024
90.90909091,90.90909091,716.0272727,716.0272727,black,experiment,legacy,legacy,legacy,0,uniform,1,undefined,1,left,109,109,109,0,0,109,109,0,0,109,109,109,0,109,0,10/14/19 14:04,The main experiment item,yes,Sternbergtask.osexp,C:/Users/Breena Riley/Desktop/2019 Fall/MultQuant/lab 3.1,no,mono,no,18,no,white,no,yes,768,legacy,97,11,C:/Users/Breena Riley/Desktop/2019 Fall/MultQuant/lab 3.1/BR-subject-2.csv,legacy,6 9 3 1,Kafkaesque Koffka,3.2.8,4,y,0,left,left,left,left,NA,639,410332,4441,639,NA,2,legacy,4,1024,2,48000,-16,experiment,2,even,1,1073811,1064709,1071607,2207,495081,1071609,1070537,2213,490640,1076452,1072610,1075812,412546,1075812,NA,Sternberg task,100,78763,110,yes,1024
90.99099099,90.99099099,713.9369369,713.9369369,black,experiment,legacy,legacy,legacy,0,uniform,1,undefined,1,left,110,110,110,0,0,110,110,0,0,110,110,110,0,110,0,10/14/19 14:04,The main experiment item,yes,Sternbergtask.osexp,C:/Users/Breena Riley/Desktop/2019 Fall/MultQuant/lab 3.1,no,mono,no,18,no,white,no,yes,768,legacy,98,11,C:/Users/Breena Riley/Desktop/2019 Fall/MultQuant/lab 3.1/BR-subject-2.csv,legacy,8 5 4 7 3 1,Kafkaesque Koffka,3.2.8,2,y,0,left,left,left,left,NA,484,410332,4441,484,NA,2,legacy,6,1024,2,48000,-16,experiment,2,even,5,1079733,1076459,1077529,2207,495081,1077531,1070537,2213,490640,1082219,1078532,1081734,412546,1081734,NA,Sternberg task,101,79247,111,yes,1024
91.07142857,91.07142857,712.875,712.875,black,experiment,legacy,legacy,legacy,0,uniform,1,undefined,1,left,111,111,111,0,0,111,111,0,0,111,111,111,0,111,0,10/14/19 14:04,The main experiment item,yes,Sternbergtask.osexp,C:/Users/Breena Riley/Desktop/2019 Fall/MultQuant/lab 3.1,no,mono,no,18,no,white,no,yes,768,legacy,99,11,C:/Users/Breena Riley/Desktop/2019 Fall/MultQuant/lab 3.1/BR-subject-2.csv,legacy,6 1 2,Kafkaesque Koffka,3.2.8,3,y,0,left,left,left,left,NA,595,410332,4441,595,NA,2,legacy,3,1024,2,48000,-16,experiment,2,even,2,1085500,1082227,1083297,2207,495081,1083298,1070537,2213,490640,1088097,1084299,1087501,412546,1087501,NA,Sternberg task,102,79842,112,yes,1024
91.15044248,91.15044248,711.0707965,711.0707965,black,experiment,legacy,legacy,legacy,0,uniform,1,undefined,1,right,112,112,112,0,0,112,112,0,0,112,112,112,0,112,0,10/14/19 14:04,The main experiment item,yes,Sternbergtask.osexp,C:/Users/Breena Riley/Desktop/2019 Fall/MultQuant/lab 3.1,no,mono,no,18,no,white,no,yes,768,legacy,100,11,C:/Users/Breena Riley/Desktop/2019 Fall/MultQuant/lab 3.1/BR-subject-2.csv,legacy,5 2,Kafkaesque Koffka,3.2.8,0,n,0,right,left,left,right,NA,509,410332,4441,509,NA,2,legacy,2,1024,2,48000,-16,experiment,2,even,7,1091387,1088104,1089183,2207,495081,1089185,1070537,2213,490640,1093898,1090186,1093388,412546,1093388,NA,Sternberg task,103,80351,113,yes,1024
91.22807018,91.22807018,711.1140351,711.1140351,black,experiment,legacy,legacy,legacy,0,uniform,1,undefined,1,left,113,113,113,0,0,113,113,0,0,113,113,113,0,113,0,10/14/19 14:04,The main experiment item,yes,Sternbergtask.osexp,C:/Users/Breena Riley/Desktop/2019 Fall/MultQuant/lab 3.1,no,mono,no,18,no,white,no,yes,768,legacy,101,11,C:/Users/Breena Riley/Desktop/2019 Fall/MultQuant/lab 3.1/BR-subject-2.csv,legacy,9 3 1 2 5,Kafkaesque Koffka,3.2.8,4,y,0,left,left,left,left,NA,716,410332,4441,716,NA,2,legacy,5,1024,2,48000,-16,experiment,2,even,2,1097178,1093905,1094975,2207,495081,1094976,1070537,2213,490640,1099897,1095977,1099180,412546,1099180,NA,Sternberg task,104,81067,114,yes,1024
91.30434783,91.30434783,713.3913043,713.3913043,black,experiment,legacy,legacy,legacy,0,uniform,1,undefined,1,right,114,114,114,0,0,114,114,0,0,114,114,114,0,114,0,10/14/19 14:04,The main experiment item,yes,Sternbergtask.osexp,C:/Users/Breena Riley/Desktop/2019 Fall/MultQuant/lab 3.1,no,mono,no,18,no,white,no,yes,768,legacy,102,11,C:/Users/Breena Riley/Desktop/2019 Fall/MultQuant/lab 3.1/BR-subject-2.csv,legacy,5 3 2 6 9 8,Kafkaesque Koffka,3.2.8,0,n,0,right,left,left,right,NA,973,410332,4441,973,NA,2,legacy,6,1024,2,48000,-16,experiment,2,even,4,1103178,1099904,1100974,2207,495081,1100975,1070537,2213,490640,1106153,1101977,1105179,412546,1105179,NA,Sternberg task,105,82040,115,yes,1024
90.51724138,90.51724138,711.1810345,711.1810345,black,experiment,legacy,legacy,legacy,0,uniform,0,undefined,0,right,115,115,115,0,0,115,115,0,0,115,115,115,0,115,0,10/14/19 14:04,The main experiment item,yes,Sternbergtask.osexp,C:/Users/Breena Riley/Desktop/2019 Fall/MultQuant/lab 3.1,no,mono,no,18,no,white,no,yes,768,legacy,103,11,C:/Users/Breena Riley/Desktop/2019 Fall/MultQuant/lab 3.1/BR-subject-2.csv,legacy,5,Kafkaesque Koffka,3.2.8,0,n,0,left,left,left,left,NA,457,410332,4441,457,NA,2,legacy,1,1024,2,48000,-16,experiment,2,even,8,1109433,1106160,1107229,2207,495081,1107231,1070537,2213,490640,1111893,1108232,1111434,412546,1111434,NA,Sternberg task,105,82497,116,yes,1024
90.5982906,90.5982906,712.5299145,712.5299145,black,experiment,legacy,legacy,legacy,0,uniform,1,undefined,1,right,116,116,116,0,0,116,116,0,0,116,116,116,0,116,0,10/14/19 14:04,The main experiment item,yes,Sternbergtask.osexp,C:/Users/Breena Riley/Desktop/2019 Fall/MultQuant/lab 3.1,no,mono,no,18,no,white,no,yes,768,legacy,104,11,C:/Users/Breena Riley/Desktop/2019 Fall/MultQuant/lab 3.1/BR-subject-2.csv,legacy,9 7 4 5 8,Kafkaesque Koffka,3.2.8,0,n,0,right,left,left,right,NA,869,410332,4441,869,NA,2,legacy,5,1024,2,48000,-16,experiment,2,even,6,1115170,1106160,1112966,2207,495081,1112968,1111896,2213,490640,1118041,1113969,1117171,412546,1117171,NA,Sternberg task,106,83366,117,yes,1024
90.6779661,90.6779661,712.0338983,712.0338983,black,experiment,legacy,legacy,legacy,0,uniform,1,undefined,1,left,117,117,117,0,0,117,117,0,0,117,117,117,0,117,0,10/14/19 14:04,The main experiment item,yes,Sternbergtask.osexp,C:/Users/Breena Riley/Desktop/2019 Fall/MultQuant/lab 3.1,no,mono,no,18,no,white,no,yes,768,legacy,105,11,C:/Users/Breena Riley/Desktop/2019 Fall/MultQuant/lab 3.1/BR-subject-2.csv,legacy,6 2,Kafkaesque Koffka,3.2.8,1,y,0,left,left,left,left,NA,654,410332,4441,654,NA,2,legacy,2,1024,2,48000,-16,experiment,2,even,6,1121325,1118048,1119121,2207,495081,1119123,1111896,2213,490640,1123981,1120124,1123326,412546,1123326,NA,Sternberg task,107,84020,118,yes,1024
90.75630252,90.75630252,710.8655462,710.8655462,black,experiment,legacy,legacy,legacy,0,uniform,1,undefined,1,left,118,118,118,0,0,118,118,0,0,118,118,118,0,118,0,10/14/19 14:04,The main experiment item,yes,Sternbergtask.osexp,C:/Users/Breena Riley/Desktop/2019 Fall/MultQuant/lab 3.1,no,mono,no,18,no,white,no,yes,768,legacy,106,11,C:/Users/Breena Riley/Desktop/2019 Fall/MultQuant/lab 3.1/BR-subject-2.csv,legacy,9 1 6 7 8,Kafkaesque Koffka,3.2.8,1,y,0,left,left,left,left,NA,573,410332,4441,573,NA,2,legacy,5,1024,2,48000,-16,experiment,2,even,9,1127263,1123988,1125059,2207,495081,1125061,1111896,2213,490640,1129838,1126062,1129264,412546,1129264,NA,Sternberg task,108,84593,119,yes,1024
90.83333333,90.83333333,709.875,709.875,black,experiment,legacy,legacy,legacy,0,uniform,1,undefined,1,right,119,119,119,0,0,119,119,0,0,119,119,119,0,119,0,10/14/19 14:04,The main experiment item,yes,Sternbergtask.osexp,C:/Users/Breena Riley/Desktop/2019 Fall/MultQuant/lab 3.1,no,mono,no,18,no,white,no,yes,768,legacy,107,11,C:/Users/Breena Riley/Desktop/2019 Fall/MultQuant/lab 3.1/BR-subject-2.csv,legacy,2 8 6 3 1,Kafkaesque Koffka,3.2.8,0,n,0,right,left,left,right,NA,592,410332,4441,592,NA,2,legacy,5,1024,2,48000,-16,experiment,2,even,7,1133121,1129846,1130917,2207,495081,1130919,1111896,2213,490640,1135715,1131920,1135122,412546,1135122,NA,Sternberg task,109,85185,120,yes,1024
90.90909091,90.90909091,708.2479339,708.2479339,black,experiment,legacy,legacy,legacy,0,uniform,1,undefined,1,right,120,120,120,0,0,120,120,0,0,120,120,120,0,120,0,10/14/19 14:04,The main experiment item,yes,Sternbergtask.osexp,C:/Users/Breena Riley/Desktop/2019 Fall/MultQuant/lab 3.1,no,mono,no,18,no,white,no,yes,768,legacy,108,11,C:/Users/Breena Riley/Desktop/2019 Fall/MultQuant/lab 3.1/BR-subject-2.csv,legacy,9,Kafkaesque Koffka,3.2.8,0,n,0,right,left,left,right,NA,513,410332,4441,513,NA,2,legacy,1,1024,2,48000,-16,experiment,2,even,6,1139000,1135723,1136796,2207,495081,1136798,1111896,2213,490640,1141515,1137799,1141001,412546,1141001,NA,Sternberg task,110,85698,121,yes,1024
90.98360656,90.98360656,708.3442623,708.3442623,black,experiment,legacy,legacy,legacy,0,uniform,1,undefined,1,left,121,121,121,0,0,121,121,0,0,121,121,121,0,121,0,10/14/19 14:04,The main experiment item,yes,Sternbergtask.osexp,C:/Users/Breena Riley/Desktop/2019 Fall/MultQuant/lab 3.1,no,mono,no,18,no,white,no,yes,768,legacy,109,11,C:/Users/Breena Riley/Desktop/2019 Fall/MultQuant/lab 3.1/BR-subject-2.csv,legacy,7 8 6 3 1,Kafkaesque Koffka,3.2.8,5,y,0,left,left,left,left,NA,720,410332,4441,720,NA,2,legacy,5,1024,2,48000,-16,experiment,2,even,1,1144797,1141522,1142592,2207,495081,1142594,1111896,2213,490640,1147519,1143596,1146798,412546,1146798,NA,Sternberg task,111,86418,122,yes,1024
91.05691057,91.05691057,706.5934959,706.5934959,black,experiment,legacy,legacy,legacy,0,uniform,1,undefined,1,right,122,122,122,0,0,122,122,0,0,122,122,122,0,122,0,10/14/19 14:04,The main experiment item,yes,Sternbergtask.osexp,C:/Users/Breena Riley/Desktop/2019 Fall/MultQuant/lab 3.1,no,mono,no,18,no,white,no,yes,768,legacy,110,11,C:/Users/Breena Riley/Desktop/2019 Fall/MultQuant/lab 3.1/BR-subject-2.csv,legacy,1 3 2 6 9,Kafkaesque Koffka,3.2.8,0,n,0,right,left,left,right,NA,493,410332,4441,493,NA,2,legacy,5,1024,2,48000,-16,experiment,2,even,5,1150802,1147528,1148598,2207,495081,1148600,1111896,2213,490640,1153297,1149601,1152803,412546,1152803,NA,Sternberg task,112,86911,123,yes,1024
91.12903226,91.12903226,705.1935484,705.1935484,black,experiment,legacy,legacy,legacy,0,uniform,1,undefined,1,left,123,123,123,0,0,123,123,0,0,123,123,123,0,123,0,10/14/19 14:04,The main experiment item,yes,Sternbergtask.osexp,C:/Users/Breena Riley/Desktop/2019 Fall/MultQuant/lab 3.1,no,mono,no,18,no,white,no,yes,768,legacy,111,11,C:/Users/Breena Riley/Desktop/2019 Fall/MultQuant/lab 3.1/BR-subject-2.csv,legacy,8 9 6 1,Kafkaesque Koffka,3.2.8,2,y,0,left,left,left,left,NA,533,410332,4441,533,NA,2,legacy,4,1024,2,48000,-16,experiment,2,even,9,1156577,1153304,1154373,2207,495081,1154375,1111896,2213,490640,1159112,1155376,1158578,412546,1158578,NA,Sternberg task,113,87444,124,yes,1024
91.2,91.2,708.872,708.872,black,experiment,legacy,legacy,legacy,0,uniform,1,undefined,1,left,124,124,124,0,0,124,124,0,0,124,124,124,0,124,0,10/14/19 14:04,The main experiment item,yes,Sternbergtask.osexp,C:/Users/Breena Riley/Desktop/2019 Fall/MultQuant/lab 3.1,no,mono,no,18,no,white,no,yes,768,legacy,112,11,C:/Users/Breena Riley/Desktop/2019 Fall/MultQuant/lab 3.1/BR-subject-2.csv,legacy,6 7 9 3 1 2,Kafkaesque Koffka,3.2.8,1,y,0,left,left,left,left,NA,1165,410332,4441,1165,NA,2,legacy,6,1024,2,48000,-16,experiment,2,even,6,1162396,1159120,1160192,2207,495081,1160193,1111896,2213,490640,1165563,1161195,1164397,412546,1164397,NA,Sternberg task,114,88609,125,yes,1024
91.26984127,91.26984127,707.968254,707.968254,black,experiment,legacy,legacy,legacy,0,uniform,1,undefined,1,right,125,125,125,0,0,125,125,0,0,125,125,125,0,125,0,10/14/19 14:04,The main experiment item,yes,Sternbergtask.osexp,C:/Users/Breena Riley/Desktop/2019 Fall/MultQuant/lab 3.1,no,mono,no,18,no,white,no,yes,768,legacy,113,11,C:/Users/Breena Riley/Desktop/2019 Fall/MultQuant/lab 3.1/BR-subject-2.csv,legacy,5 9 2 3,Kafkaesque Koffka,3.2.8,0,n,0,right,left,left,right,NA,595,410332,4441,595,NA,2,legacy,4,1024,2,48000,-16,experiment,2,even,8,1168845,1165571,1166641,2207,495081,1166643,1111896,2213,490640,1171442,1167644,1170846,412546,1170846,NA,Sternberg task,115,89204,126,yes,1024
91.33858268,91.33858268,706.8897638,706.8897638,black,experiment,legacy,legacy,legacy,0,uniform,1,undefined,1,right,126,126,126,0,0,126,126,0,0,126,126,126,0,126,0,10/14/19 14:04,The main experiment item,yes,Sternbergtask.osexp,C:/Users/Breena Riley/Desktop/2019 Fall/MultQuant/lab 3.1,no,mono,no,18,no,white,no,yes,768,legacy,114,11,C:/Users/Breena Riley/Desktop/2019 Fall/MultQuant/lab 3.1/BR-subject-2.csv,legacy,4 8 1 2,Kafkaesque Koffka,3.2.8,0,n,0,right,left,left,right,NA,571,410332,4441,571,NA,2,legacy,4,1024,2,48000,-16,experiment,2,even,7,1174725,1171450,1172521,2207,495081,1172523,1111896,2213,490640,1177299,1173524,1176727,412546,1176726,NA,Sternberg task,116,89775,127,yes,1024
91.40625,91.40625,705.453125,705.453125,black,experiment,legacy,legacy,legacy,0,uniform,1,undefined,1,right,127,127,127,0,0,127,127,0,0,127,127,127,0,127,0,10/14/19 14:04,The main experiment item,yes,Sternbergtask.osexp,C:/Users/Breena Riley/Desktop/2019 Fall/MultQuant/lab 3.1,no,mono,no,18,no,white,no,yes,768,legacy,115,11,C:/Users/Breena Riley/Desktop/2019 Fall/MultQuant/lab 3.1/BR-subject-2.csv,legacy,1 5 3 2 8,Kafkaesque Koffka,3.2.8,0,n,0,right,left,left,right,NA,523,410332,4441,523,NA,2,legacy,5,1024,2,48000,-16,experiment,2,even,4,1180583,1177307,1178378,2207,495081,1178380,1111896,2213,490640,1183108,1179381,1182584,412546,1182584,NA,Sternberg task,117,90298,128,yes,1024
91.47286822,91.47286822,704.0775194,704.0775194,black,experiment,legacy,legacy,legacy,0,uniform,1,undefined,1,right,128,128,128,0,0,128,128,0,0,128,128,128,0,128,0,10/14/19 14:04,The main experiment item,yes,Sternbergtask.osexp,C:/Users/Breena Riley/Desktop/2019 Fall/MultQuant/lab 3.1,no,mono,no,18,no,white,no,yes,768,legacy,116,11,C:/Users/Breena Riley/Desktop/2019 Fall/MultQuant/lab 3.1/BR-subject-2.csv,legacy,8 4 3 5,Kafkaesque Koffka,3.2.8,0,n,0,right,left,left,right,NA,528,410332,4441,528,NA,2,legacy,4,1024,2,48000,-16,experiment,2,even,6,1186402,1183116,1184198,2207,495081,1184200,1111896,2213,490640,1188932,1185201,1188403,412546,1188403,NA,Sternberg task,118,90826,129,yes,1024
91.53846154,91.53846154,703.0307692,703.0307692,black,experiment,legacy,legacy,legacy,0,uniform,1,undefined,1,left,129,129,129,0,0,129,129,0,0,129,129,129,0,129,0,10/14/19 14:04,The main experiment item,yes,Sternbergtask.osexp,C:/Users/Breena Riley/Desktop/2019 Fall/MultQuant/lab 3.1,no,mono,no,18,no,white,no,yes,768,legacy,117,11,C:/Users/Breena Riley/Desktop/2019 Fall/MultQuant/lab 3.1/BR-subject-2.csv,legacy,2 8 5 1,Kafkaesque Koffka,3.2.8,4,y,0,left,left,left,left,NA,568,410332,4441,568,NA,2,legacy,4,1024,2,48000,-16,experiment,2,even,1,1192215,1188940,1190010,2207,495081,1190011,1111896,2213,490640,1194786,1191013,1194216,412546,1194216,NA,Sternberg task,119,91394,130,yes,1024
91.60305344,91.60305344,701.4503817,701.4503817,black,experiment,legacy,legacy,legacy,0,uniform,1,undefined,1,left,130,130,130,0,0,130,130,0,0,130,130,130,0,130,0,10/14/19 14:04,The main experiment item,yes,Sternbergtask.osexp,C:/Users/Breena Riley/Desktop/2019 Fall/MultQuant/lab 3.1,no,mono,no,18,no,white,no,yes,768,legacy,118,11,C:/Users/Breena Riley/Desktop/2019 Fall/MultQuant/lab 3.1/BR-subject-2.csv,legacy,8 9 5 7 1 6,Kafkaesque Koffka,3.2.8,4,y,0,left,left,left,left,NA,496,410332,4441,496,NA,2,legacy,6,1024,2,48000,-16,experiment,2,even,7,1198067,1194793,1195864,2207,495081,1195865,1111896,2213,490640,1200565,1196866,1200068,412546,1200068,NA,Sternberg task,120,91890,131,yes,1024
91.66666667,91.66666667,701.0454545,701.0454545,black,experiment,legacy,legacy,legacy,0,uniform,1,undefined,1,right,131,131,131,0,0,131,131,0,0,131,131,131,0,131,0,10/14/19 14:04,The main experiment item,yes,Sternbergtask.osexp,C:/Users/Breena Riley/Desktop/2019 Fall/MultQuant/lab 3.1,no,mono,no,18,no,white,no,yes,768,legacy,119,11,C:/Users/Breena Riley/Desktop/2019 Fall/MultQuant/lab 3.1/BR-subject-2.csv,legacy,5 3 8 7 2 4,Kafkaesque Koffka,3.2.8,0,n,0,right,left,left,right,NA,648,410332,4441,648,NA,2,legacy,6,1024,2,48000,-16,experiment,2,even,9,1203851,1200572,1201647,2207,495081,1201649,1111896,2213,490640,1206502,1202650,1205852,412546,1205852,NA,Sternberg task,121,92538,132,yes,1024
91.72932331,91.72932331,701.5714286,701.5714286,black,experiment,legacy,legacy,legacy,0,uniform,1,undefined,1,right,132,132,132,0,0,132,132,0,0,132,132,132,0,132,0,10/14/19 14:04,The main experiment item,yes,Sternbergtask.osexp,C:/Users/Breena Riley/Desktop/2019 Fall/MultQuant/lab 3.1,no,mono,no,18,no,white,no,yes,768,legacy,120,11,C:/Users/Breena Riley/Desktop/2019 Fall/MultQuant/lab 3.1/BR-subject-2.csv,legacy,1 7 5 2,Kafkaesque Koffka,3.2.8,0,n,0,right,left,left,right,NA,771,410332,4441,771,NA,2,legacy,4,1024,2,48000,-16,experiment,2,even,3,1209782,1206509,1207578,2207,495081,1207580,1111896,2213,490640,1212556,1208581,1211784,412546,1211783,NA,Sternberg task,122,93309,133,yes,1024
91.79104478,91.79104478,702.3880597,702.3880597,black,experiment,legacy,legacy,legacy,0,uniform,1,undefined,1,right,133,133,133,0,0,133,133,0,0,133,133,133,0,133,0,10/14/19 14:04,The main experiment item,yes,Sternbergtask.osexp,C:/Users/Breena Riley/Desktop/2019 Fall/MultQuant/lab 3.1,no,mono,no,18,no,white,no,yes,768,legacy,121,11,C:/Users/Breena Riley/Desktop/2019 Fall/MultQuant/lab 3.1/BR-subject-2.csv,legacy,1 7 5 2 9,Kafkaesque Koffka,3.2.8,0,n,0,right,left,left,right,NA,811,410332,4441,811,NA,2,legacy,5,1024,2,48000,-16,experiment,2,even,3,1215838,1212563,1213635,2207,495081,1213636,1111896,2213,490640,1218651,1214637,1217839,412546,1217839,NA,Sternberg task,123,94120,134,yes,1024
91.85185185,91.85185185,701.8074074,701.8074074,black,experiment,legacy,legacy,legacy,0,uniform,1,undefined,1,right,134,134,134,0,0,134,134,0,0,134,134,134,0,134,0,10/14/19 14:04,The main experiment item,yes,Sternbergtask.osexp,C:/Users/Breena Riley/Desktop/2019 Fall/MultQuant/lab 3.1,no,mono,no,18,no,white,no,yes,768,legacy,122,11,C:/Users/Breena Riley/Desktop/2019 Fall/MultQuant/lab 3.1/BR-subject-2.csv,legacy,8 6 3 4 7,Kafkaesque Koffka,3.2.8,0,n,0,right,left,left,right,NA,624,410332,4441,624,NA,2,legacy,5,1024,2,48000,-16,experiment,2,even,1,1221935,1218659,1219731,2207,495081,1219733,1111896,2213,490640,1224561,1220734,1223936,412546,1223936,NA,Sternberg task,124,94744,135,yes,1024
91.91176471,91.91176471,701.3529412,701.3529412,black,experiment,legacy,legacy,legacy,0,uniform,1,undefined,1,right,135,135,135,0,0,135,135,0,0,135,135,135,0,135,0,10/14/19 14:04,The main experiment item,yes,Sternbergtask.osexp,C:/Users/Breena Riley/Desktop/2019 Fall/MultQuant/lab 3.1,no,mono,no,18,no,white,no,yes,768,legacy,123,11,C:/Users/Breena Riley/Desktop/2019 Fall/MultQuant/lab 3.1/BR-subject-2.csv,legacy,1 4 9 3,Kafkaesque Koffka,3.2.8,0,n,0,right,left,left,right,NA,640,410332,4441,640,NA,2,legacy,4,1024,2,48000,-16,experiment,2,even,5,1227843,1224569,1225639,2207,495081,1225641,1111896,2213,490640,1230487,1226642,1229845,412546,1229845,NA,Sternberg task,125,95384,136,yes,1024
91.97080292,91.97080292,702.1240876,702.1240876,black,experiment,legacy,legacy,legacy,0,uniform,1,undefined,1,left,136,136,136,0,0,136,136,0,0,136,136,136,0,136,0,10/14/19 14:04,The main experiment item,yes,Sternbergtask.osexp,C:/Users/Breena Riley/Desktop/2019 Fall/MultQuant/lab 3.1,no,mono,no,18,no,white,no,yes,768,legacy,124,11,C:/Users/Breena Riley/Desktop/2019 Fall/MultQuant/lab 3.1/BR-subject-2.csv,legacy,3 9 7 6 4,Kafkaesque Koffka,3.2.8,3,y,0,left,left,left,left,NA,807,410332,4441,807,NA,2,legacy,5,1024,2,48000,-16,experiment,2,even,7,1233767,1230493,1231563,2207,495081,1231565,1111896,2213,490640,1236577,1232566,1235768,412546,1235768,NA,Sternberg task,126,96191,137,yes,1024
92.02898551,92.02898551,700.9275362,700.9275362,black,experiment,legacy,legacy,legacy,0,uniform,1,undefined,1,right,137,137,137,0,0,137,137,0,0,137,137,137,0,137,0,10/14/19 14:04,The main experiment item,yes,Sternbergtask.osexp,C:/Users/Breena Riley/Desktop/2019 Fall/MultQuant/lab 3.1,no,mono,no,18,no,white,no,yes,768,legacy,125,11,C:/Users/Breena Riley/Desktop/2019 Fall/MultQuant/lab 3.1/BR-subject-2.csv,legacy,7 4 2 8 1 9,Kafkaesque Koffka,3.2.8,0,n,0,right,left,left,right,NA,537,410332,4441,537,NA,2,legacy,6,1024,2,48000,-16,experiment,2,even,5,1239857,1236585,1237653,2207,495081,1237655,1111896,2213,490640,1242397,1238656,1241858,412546,1241858,NA,Sternberg task,127,96728,138,yes,1024