"acc","accuracy","average_response_time","avg_rt","background","block","canvas_backend","clock_backend","color_backend","correct","correct_instruction1","correct_keyboard_response","correct_response","count_ISI","count_correctFeedback","count_expSequence","count_experiment","count_experimentLoop","count_fixation","count_incorrectFeedback","count_instruction1","count_instructions2","count_keyboard_response","count_logger","count_memorySet","count_practiceLoop","count_probe","count_thankYou","datetime","description","disable_garbage_collection","experiment_file","experiment_path","font_bold","font_family","font_italic","font_size","font_underline","foreground","form_clicks","fullscreen","height","keyboard_backend","live_row","live_row_practiceLoop","logfile","mouse_backend","numberSet","opensesame_codename","opensesame_version","posInSet","present","repeat_cycle","response","response_instruction1","response_instructions2","response_keyboard_response","response_thankYou","response_time","response_time_instruction1","response_time_instructions2","response_time_keyboard_response","response_time_thankYou","round_decimals","sampler_backend","setSize","sound_buf_size","sound_channels","sound_freq","sound_sample_size","start","subject_nr","subject_parity","target","time_ISI","time_correctFeedback","time_expSequence","time_experiment","time_experimentLoop","time_fixation","time_incorrectFeedback","time_instruction1","time_instructions2","time_keyboard_response","time_logger","time_memorySet","time_practiceLoop","time_probe","time_thankYou","title","total_correct","total_response_time","total_responses","width"
"0","0","2000","2000","#3d3846","practice","legacy","legacy","legacy","0","undefined","0","right","0","0","0","0","0","0","0","0","0","0","0","0","0","0","0","Tue Oct 17 08:24:31 2023","The main experiment item","False","Sternbergtask.osexp","C:\Users\stcka\OneDrive\Sam Docs\Psychology Program\AP Textbooks\Quantitative Methods","False","mono","False","18","no","white","no","yes","768","legacy","0","0","C:/Users/stcka/OneDrive/Sam Docs/Psychology Program/AP Textbooks/Quantitative Methods/SA-subject-2.csv","legacy","3 1 9 4","Melodramatic Milgram","4.0.5","0","n","0","None","right","NA","None","NA","2000.0","6891","NA","2000","NA","2","legacy","4","1024","2","48000","-16","experiment","2","even","6","11772","NA","9569","2183","NA","9571","NA","2187","NA","13773","15773","10572","9079","13772","NA","Sternberg task","0","2000.0","1","1024"
"50","50","1599","1599","#3d3846","practice","legacy","legacy","legacy","1","undefined","1","left","1","1","1","0","0","1","1","0","0","1","1","1","0","1","0","Tue Oct 17 08:24:31 2023","The main experiment item","False","Sternbergtask.osexp","C:\Users\stcka\OneDrive\Sam Docs\Psychology Program\AP Textbooks\Quantitative Methods","False","mono","False","18","no","white","no","yes","768","legacy","1","1","C:/Users/stcka/OneDrive/Sam Docs/Psychology Program/AP Textbooks/Quantitative Methods/SA-subject-2.csv","legacy","2 9 4","Melodramatic Milgram","4.0.5","3","y","0","left","right","NA","left","NA","1198.0","6891","NA","1198","NA","2","legacy","3","1024","2","48000","-16","experiment","2","even","4","19033","NA","16830","2183","NA","16832","15801","2187","NA","21034","22233","17832","9079","21034","NA","Sternberg task","1","3198.0","2","1024"
"66","66","1506","1506","#3d3846","practice","legacy","legacy","legacy","1","undefined","1","left","2","2","2","0","0","2","2","0","0","2","2","2","0","2","0","Tue Oct 17 08:24:31 2023","The main experiment item","False","Sternbergtask.osexp","C:\Users\stcka\OneDrive\Sam Docs\Psychology Program\AP Textbooks\Quantitative Methods","False","mono","False","18","no","white","no","yes","768","legacy","2","2","C:/Users/stcka/OneDrive/Sam Docs/Psychology Program/AP Textbooks/Quantitative Methods/SA-subject-2.csv","legacy","1 5 2 9","Melodramatic Milgram","4.0.5","2","y","0","left","right","NA","left","NA","1322.0","6891","NA","1322","NA","2","legacy","4","1024","2","48000","-16","experiment","2","even","5","25464","22238","23263","2183","NA","23264","15801","2187","NA","27464","28786","24264","9079","27464","NA","Sternberg task","2","4520.0","3","1024"
"75","75","1431","1431","#3d3846","practice","legacy","legacy","legacy","1","undefined","1","right","3","3","3","0","0","3","3","0","0","3","3","3","0","3","0","Tue Oct 17 08:24:31 2023","The main experiment item","False","Sternbergtask.osexp","C:\Users\stcka\OneDrive\Sam Docs\Psychology Program\AP Textbooks\Quantitative Methods","False","mono","False","18","no","white","no","yes","768","legacy","3","3","C:/Users/stcka/OneDrive/Sam Docs/Psychology Program/AP Textbooks/Quantitative Methods/SA-subject-2.csv","legacy","4 1 5","Melodramatic Milgram","4.0.5","0","n","0","right","right","NA","right","NA","1207.0","6891","NA","1207","NA","2","legacy","3","1024","2","48000","-16","experiment","2","even","2","32019","28791","29816","2183","NA","29817","15801","2187","NA","34019","35227","30819","9079","34019","NA","Sternberg task","3","5727.0","4","1024"
"80","80","1391","1391","#3d3846","practice","legacy","legacy","legacy","1","undefined","1","right","4","4","4","0","0","4","4","0","0","4","4","4","0","4","0","Tue Oct 17 08:24:31 2023","The main experiment item","False","Sternbergtask.osexp","C:\Users\stcka\OneDrive\Sam Docs\Psychology Program\AP Textbooks\Quantitative Methods","False","mono","False","18","no","white","no","yes","768","legacy","4","4","C:/Users/stcka/OneDrive/Sam Docs/Psychology Program/AP Textbooks/Quantitative Methods/SA-subject-2.csv","legacy","2 1","Melodramatic Milgram","4.0.5","0","n","0","right","right","NA","right","NA","1230.0","6891","NA","1230","NA","2","legacy","2","1024","2","48000","-16","experiment","2","even","5","38455","35232","36254","2183","NA","36255","15801","2187","NA","40456","41686","37255","9079","40456","NA","Sternberg task","4","6957.0","5","1024"
"83","83","1333","1333","#3d3846","practice","legacy","legacy","legacy","1","undefined","1","right","5","5","5","0","0","5","5","0","0","5","5","5","0","5","0","Tue Oct 17 08:24:31 2023","The main experiment item","False","Sternbergtask.osexp","C:\Users\stcka\OneDrive\Sam Docs\Psychology Program\AP Textbooks\Quantitative Methods","False","mono","False","18","no","white","no","yes","768","legacy","5","5","C:/Users/stcka/OneDrive/Sam Docs/Psychology Program/AP Textbooks/Quantitative Methods/SA-subject-2.csv","legacy","9 6 7 4 5","Melodramatic Milgram","4.0.5","0","n","0","right","right","NA","right","NA","1045.0","6891","NA","1045","NA","2","legacy","5","1024","2","48000","-16","experiment","2","even","3","44917","41691","42716","2183","NA","42717","15801","2187","NA","46917","47962","43717","9079","46917","NA","Sternberg task","5","8002.0","6","1024"
"85","85","1313","1313","#3d3846","practice","legacy","legacy","legacy","1","undefined","1","right","6","6","6","0","0","6","6","0","0","6","6","6","0","6","0","Tue Oct 17 08:24:31 2023","The main experiment item","False","Sternbergtask.osexp","C:\Users\stcka\OneDrive\Sam Docs\Psychology Program\AP Textbooks\Quantitative Methods","False","mono","False","18","no","white","no","yes","768","legacy","6","6","C:/Users/stcka/OneDrive/Sam Docs/Psychology Program/AP Textbooks/Quantitative Methods/SA-subject-2.csv","legacy","5","Melodramatic Milgram","4.0.5","0","n","0","right","right","NA","right","NA","1195.0","6891","NA","1195","NA","2","legacy","1","1024","2","48000","-16","experiment","2","even","3","51190","47967","48989","2183","NA","48990","15801","2187","NA","53190","54385","49990","9079","53190","NA","Sternberg task","6","9197.0","7","1024"
"87","87","1332","1332","#3d3846","practice","legacy","legacy","legacy","1","undefined","1","right","7","7","7","0","0","7","7","0","0","7","7","7","0","7","0","Tue Oct 17 08:24:31 2023","The main experiment item","False","Sternbergtask.osexp","C:\Users\stcka\OneDrive\Sam Docs\Psychology Program\AP Textbooks\Quantitative Methods","False","mono","False","18","no","white","no","yes","768","legacy","7","7","C:/Users/stcka/OneDrive/Sam Docs/Psychology Program/AP Textbooks/Quantitative Methods/SA-subject-2.csv","legacy","5 7 8 4 1 2","Melodramatic Milgram","4.0.5","0","n","0","right","right","NA","right","NA","1464.0","6891","NA","1464","NA","2","legacy","6","1024","2","48000","-16","experiment","2","even","6","57619","54390","55418","2183","NA","55419","15801","2187","NA","59620","61085","56419","9079","59620","NA","Sternberg task","7","10661.0","8","1024"
"88","88","1232","1232","#3d3846","practice","legacy","legacy","legacy","1","undefined","1","left","8","8","8","0","0","8","8","0","0","8","8","8","0","8","0","Tue Oct 17 08:24:31 2023","The main experiment item","False","Sternbergtask.osexp","C:\Users\stcka\OneDrive\Sam Docs\Psychology Program\AP Textbooks\Quantitative Methods","False","mono","False","18","no","white","no","yes","768","legacy","8","8","C:/Users/stcka/OneDrive/Sam Docs/Psychology Program/AP Textbooks/Quantitative Methods/SA-subject-2.csv","legacy","6","Melodramatic Milgram","4.0.5","1","y","0","left","right","NA","left","NA","428.0","6891","NA","428","NA","2","legacy","1","1024","2","48000","-16","experiment","2","even","6","64316","61090","62112","2183","NA","62113","15801","2187","NA","66317","66746","63115","9079","66317","NA","Sternberg task","8","11089.0","9","1024"
"90","90","1227","1227","#3d3846","practice","legacy","legacy","legacy","1","undefined","1","left","9","9","9","0","0","9","9","0","0","9","9","9","0","9","0","Tue Oct 17 08:24:31 2023","The main experiment item","False","Sternbergtask.osexp","C:\Users\stcka\OneDrive\Sam Docs\Psychology Program\AP Textbooks\Quantitative Methods","False","mono","False","18","no","white","no","yes","768","legacy","9","9","C:/Users/stcka/OneDrive/Sam Docs/Psychology Program/AP Textbooks/Quantitative Methods/SA-subject-2.csv","legacy","1 7 9 8 5","Melodramatic Milgram","4.0.5","4","y","0","left","right","NA","left","NA","1181.0","6891","NA","1181","NA","2","legacy","5","1024","2","48000","-16","experiment","2","even","8","69973","66750","67772","2183","NA","67773","15801","2187","NA","71974","73156","68773","9079","71973","NA","Sternberg task","9","12270.0","10","1024"
"90","90","1195","1195","#3d3846","practice","legacy","legacy","legacy","1","undefined","1","left","10","10","10","0","0","10","10","0","0","10","10","10","0","10","0","Tue Oct 17 08:24:31 2023","The main experiment item","False","Sternbergtask.osexp","C:\Users\stcka\OneDrive\Sam Docs\Psychology Program\AP Textbooks\Quantitative Methods","False","mono","False","18","no","white","no","yes","768","legacy","10","10","C:/Users/stcka/OneDrive/Sam Docs/Psychology Program/AP Textbooks/Quantitative Methods/SA-subject-2.csv","legacy","4 8","Melodramatic Milgram","4.0.5","1","y","0","left","right","NA","left","NA","876.0","6891","NA","876","NA","2","legacy","2","1024","2","48000","-16","experiment","2","even","4","76386","73161","74184","2183","NA","74185","15801","2187","NA","78387","79264","75186","9079","78386","NA","Sternberg task","10","13146.0","11","1024"
"91","91","1186","1186","#3d3846","practice","legacy","legacy","legacy","1","undefined","1","left","11","11","11","0","0","11","11","0","0","11","11","11","0","11","0","Tue Oct 17 08:24:31 2023","The main experiment item","False","Sternbergtask.osexp","C:\Users\stcka\OneDrive\Sam Docs\Psychology Program\AP Textbooks\Quantitative Methods","False","mono","False","18","no","white","no","yes","768","legacy","11","11","C:/Users/stcka/OneDrive/Sam Docs/Psychology Program/AP Textbooks/Quantitative Methods/SA-subject-2.csv","legacy","4 3 1 7 9 8","Melodramatic Milgram","4.0.5","1","y","0","left","right","NA","left","NA","1095.0","6891","NA","1095","NA","2","legacy","6","1024","2","48000","-16","experiment","2","even","4","82493","79269","80291","2183","NA","80292","15801","2187","NA","84493","85589","81293","9079","84493","NA","Sternberg task","11","14241.0","12","1024"
"92","92","1190","1190","#3d3846","experiment","legacy","legacy","legacy","1","undefined","1","right","12","12","12","0","0","12","12","0","0","12","12","12","0","12","0","Tue Oct 17 08:24:31 2023","The main experiment item","False","Sternbergtask.osexp","C:\Users\stcka\OneDrive\Sam Docs\Psychology Program\AP Textbooks\Quantitative Methods","False","mono","False","18","no","white","no","yes","768","legacy","0","11","C:/Users/stcka/OneDrive/Sam Docs/Psychology Program/AP Textbooks/Quantitative Methods/SA-subject-2.csv","legacy","5 3 2 6 9 8","Melodramatic Milgram","4.0.5","0","n","0","right","right","right","right","NA","1238.0","6891","5727","1238","NA","2","legacy","6","1024","2","48000","-16","experiment","2","even","4","94604","85593","92401","2183","92322","92403","15801","2187","86594","96604","97842","93403","9079","96604","NA","Sternberg task","12","15479.0","13","1024"
"92","92","1181","1181","#3d3846","experiment","legacy","legacy","legacy","1","undefined","1","right","13","13","13","0","0","13","13","0","0","13","13","13","0","13","0","Tue Oct 17 08:24:31 2023","The main experiment item","False","Sternbergtask.osexp","C:\Users\stcka\OneDrive\Sam Docs\Psychology Program\AP Textbooks\Quantitative Methods","False","mono","False","18","no","white","no","yes","768","legacy","1","11","C:/Users/stcka/OneDrive/Sam Docs/Psychology Program/AP Textbooks/Quantitative Methods/SA-subject-2.csv","legacy","1 4 9 2 5","Melodramatic Milgram","4.0.5","0","n","0","right","right","right","right","NA","1058.0","6891","5727","1058","NA","2","legacy","5","1024","2","48000","-16","experiment","2","even","7","101072","97848","98871","2183","92322","98872","15801","2187","86594","103073","104133","99872","9079","103072","NA","Sternberg task","13","16537.0","14","1024"
"93","93","1133","1133","#3d3846","experiment","legacy","legacy","legacy","1","undefined","1","right","14","14","14","0","0","14","14","0","0","14","14","14","0","14","0","Tue Oct 17 08:24:31 2023","The main experiment item","False","Sternbergtask.osexp","C:\Users\stcka\OneDrive\Sam Docs\Psychology Program\AP Textbooks\Quantitative Methods","False","mono","False","18","no","white","no","yes","768","legacy","2","11","C:/Users/stcka/OneDrive/Sam Docs/Psychology Program/AP Textbooks/Quantitative Methods/SA-subject-2.csv","legacy","8 9","Melodramatic Milgram","4.0.5","0","n","0","right","right","right","right","NA","471.0","6891","5727","471","NA","2","legacy","2","1024","2","48000","-16","experiment","2","even","5","107364","104138","105163","2183","92322","105164","15801","2187","86594","109364","109836","106164","9079","109364","NA","Sternberg task","14","17008.0","15","1024"
"93","93","1123","1123","#3d3846","experiment","legacy","legacy","legacy","1","undefined","1","left","15","15","15","0","0","15","15","0","0","15","15","15","0","15","0","Tue Oct 17 08:24:31 2023","The main experiment item","False","Sternbergtask.osexp","C:\Users\stcka\OneDrive\Sam Docs\Psychology Program\AP Textbooks\Quantitative Methods","False","mono","False","18","no","white","no","yes","768","legacy","3","11","C:/Users/stcka/OneDrive/Sam Docs/Psychology Program/AP Textbooks/Quantitative Methods/SA-subject-2.csv","legacy","8 1 6","Melodramatic Milgram","4.0.5","3","y","0","left","right","right","left","NA","969.0","6891","5727","969","NA","2","legacy","3","1024","2","48000","-16","experiment","2","even","6","113069","109841","110867","2183","92322","110868","15801","2187","86594","115069","116039","111868","9079","115069","NA","Sternberg task","15","17977.0","16","1024"
"94","94","1095","1095","#3d3846","experiment","legacy","legacy","legacy","1","undefined","1","left","16","16","16","0","0","16","16","0","0","16","16","16","0","16","0","Tue Oct 17 08:24:31 2023","The main experiment item","False","Sternbergtask.osexp","C:\Users\stcka\OneDrive\Sam Docs\Psychology Program\AP Textbooks\Quantitative Methods","False","mono","False","18","no","white","no","yes","768","legacy","4","11","C:/Users/stcka/OneDrive/Sam Docs/Psychology Program/AP Textbooks/Quantitative Methods/SA-subject-2.csv","legacy","9 4 2","Melodramatic Milgram","4.0.5","1","y","0","left","right","right","left","NA","648.0","6891","5727","648","NA","2","legacy","3","1024","2","48000","-16","experiment","2","even","9","119274","116043","117072","2183","92322","117073","15801","2187","86594","121274","121922","118073","9079","121274","NA","Sternberg task","16","18625.0","17","1024"
"94","94","1075","1075","#3d3846","experiment","legacy","legacy","legacy","1","undefined","1","right","17","17","17","0","0","17","17","0","0","17","17","17","0","17","0","Tue Oct 17 08:24:31 2023","The main experiment item","False","Sternbergtask.osexp","C:\Users\stcka\OneDrive\Sam Docs\Psychology Program\AP Textbooks\Quantitative Methods","False","mono","False","18","no","white","no","yes","768","legacy","5","11","C:/Users/stcka/OneDrive/Sam Docs/Psychology Program/AP Textbooks/Quantitative Methods/SA-subject-2.csv","legacy","1 4 9 3","Melodramatic Milgram","4.0.5","0","n","0","right","right","right","right","NA","735.0","6891","5727","735","NA","2","legacy","4","1024","2","48000","-16","experiment","2","even","5","125153","121927","122952","2183","92322","122953","15801","2187","86594","127154","127889","123953","9079","127154","NA","Sternberg task","17","19360.0","18","1024"
"89","89","1065","1065","#3d3846","experiment","legacy","legacy","legacy","0","undefined","0","left","18","18","18","0","0","18","18","0","0","18","18","18","0","18","0","Tue Oct 17 08:24:31 2023","The main experiment item","False","Sternbergtask.osexp","C:\Users\stcka\OneDrive\Sam Docs\Psychology Program\AP Textbooks\Quantitative Methods","False","mono","False","18","no","white","no","yes","768","legacy","6","11","C:/Users/stcka/OneDrive/Sam Docs/Psychology Program/AP Textbooks/Quantitative Methods/SA-subject-2.csv","legacy","8 9 5 7 1 6","Melodramatic Milgram","4.0.5","4","y","0","right","right","right","right","NA","883.0","6891","5727","883","NA","2","legacy","6","1024","2","48000","-16","experiment","2","even","7","131119","127894","128916","2183","92322","128918","15801","2187","86594","133119","134004","129918","9079","133119","NA","Sternberg task","17","20243.0","19","1024"
"90","90","1053","1053","#3d3846","experiment","legacy","legacy","legacy","1","undefined","1","left","19","19","19","0","0","19","19","0","0","19","19","19","0","19","0","Tue Oct 17 08:24:31 2023","The main experiment item","False","Sternbergtask.osexp","C:\Users\stcka\OneDrive\Sam Docs\Psychology Program\AP Textbooks\Quantitative Methods","False","mono","False","18","no","white","no","yes","768","legacy","7","11","C:/Users/stcka/OneDrive/Sam Docs/Psychology Program/AP Textbooks/Quantitative Methods/SA-subject-2.csv","legacy","2 5 4 8 7","Melodramatic Milgram","4.0.5","3","y","0","left","right","right","left","NA","822.0","6891","5727","822","NA","2","legacy","5","1024","2","48000","-16","experiment","2","even","4","137239","127894","135038","2183","92322","135039","134009","2187","86594","139240","140063","136039","9079","139240","NA","Sternberg task","18","21065.0","20","1024"
"90","90","1057","1057","#3d3846","experiment","legacy","legacy","legacy","1","undefined","1","right","20","20","20","0","0","20","20","0","0","20","20","20","0","20","0","Tue Oct 17 08:24:31 2023","The main experiment item","False","Sternbergtask.osexp","C:\Users\stcka\OneDrive\Sam Docs\Psychology Program\AP Textbooks\Quantitative Methods","False","mono","False","18","no","white","no","yes","768","legacy","8","11","C:/Users/stcka/OneDrive/Sam Docs/Psychology Program/AP Textbooks/Quantitative Methods/SA-subject-2.csv","legacy","1 6 4 3 9 7","Melodramatic Milgram","4.0.5","0","n","0","right","right","right","right","NA","1148.0","6891","5727","1148","NA","2","legacy","6","1024","2","48000","-16","experiment","2","even","8","143305","140067","141099","2183","92322","141105","134009","2187","86594","145305","146454","142105","9079","145305","NA","Sternberg task","19","22213.0","21","1024"
"90","90","1037","1037","#3d3846","experiment","legacy","legacy","legacy","1","undefined","1","right","21","21","21","0","0","21","21","0","0","21","21","21","0","21","0","Tue Oct 17 08:24:31 2023","The main experiment item","False","Sternbergtask.osexp","C:\Users\stcka\OneDrive\Sam Docs\Psychology Program\AP Textbooks\Quantitative Methods","False","mono","False","18","no","white","no","yes","768","legacy","9","11","C:/Users/stcka/OneDrive/Sam Docs/Psychology Program/AP Textbooks/Quantitative Methods/SA-subject-2.csv","legacy","9","Melodramatic Milgram","4.0.5","0","n","0","right","right","right","right","NA","613.0","6891","5727","613","NA","2","legacy","1","1024","2","48000","-16","experiment","2","even","6","149685","146459","147483","2183","92322","147484","134009","2187","86594","151686","152300","148485","9079","151686","NA","Sternberg task","20","22826.0","22","1024"
"86","86","1030","1030","#3d3846","experiment","legacy","legacy","legacy","0","undefined","0","left","22","22","22","0","0","22","22","0","0","22","22","22","0","22","0","Tue Oct 17 08:24:31 2023","The main experiment item","False","Sternbergtask.osexp","C:\Users\stcka\OneDrive\Sam Docs\Psychology Program\AP Textbooks\Quantitative Methods","False","mono","False","18","no","white","no","yes","768","legacy","10","11","C:/Users/stcka/OneDrive/Sam Docs/Psychology Program/AP Textbooks/Quantitative Methods/SA-subject-2.csv","legacy","9 8 4","Melodramatic Milgram","4.0.5","1","y","0","right","right","right","right","NA","872.0","6891","5727","872","NA","2","legacy","3","1024","2","48000","-16","experiment","2","even","9","155533","152305","153332","2183","92322","153333","134009","2187","86594","157533","158406","154333","9079","157533","NA","Sternberg task","20","23698.0","23","1024"
"87","87","1023","1023","#3d3846","experiment","legacy","legacy","legacy","1","undefined","1","left","23","23","23","0","0","23","23","0","0","23","23","23","0","23","0","Tue Oct 17 08:24:31 2023","The main experiment item","False","Sternbergtask.osexp","C:\Users\stcka\OneDrive\Sam Docs\Psychology Program\AP Textbooks\Quantitative Methods","False","mono","False","18","no","white","no","yes","768","legacy","11","11","C:/Users/stcka/OneDrive/Sam Docs/Psychology Program/AP Textbooks/Quantitative Methods/SA-subject-2.csv","legacy","7 6","Melodramatic Milgram","4.0.5","2","y","0","left","right","right","left","NA","876.0","6891","5727","876","NA","2","legacy","2","1024","2","48000","-16","experiment","2","even","6","161654","152305","159451","2183","92322","159453","158411","2187","86594","163655","164532","160454","9079","163655","NA","Sternberg task","21","24574.0","24","1024"
"88","88","1016","1016","#3d3846","experiment","legacy","legacy","legacy","1","undefined","1","right","24","24","24","0","0","24","24","0","0","24","24","24","0","24","0","Tue Oct 17 08:24:31 2023","The main experiment item","False","Sternbergtask.osexp","C:\Users\stcka\OneDrive\Sam Docs\Psychology Program\AP Textbooks\Quantitative Methods","False","mono","False","18","no","white","no","yes","768","legacy","12","11","C:/Users/stcka/OneDrive/Sam Docs/Psychology Program/AP Textbooks/Quantitative Methods/SA-subject-2.csv","legacy","9 5 3 2 8 6","Melodramatic Milgram","4.0.5","0","n","0","right","right","right","right","NA","826.0","6891","5727","826","NA","2","legacy","6","1024","2","48000","-16","experiment","2","even","7","167765","164535","165563","2183","92322","165565","158411","2187","86594","169765","170591","166565","9079","169765","NA","Sternberg task","22","25400.0","25","1024"
"88","88","1002","1002","#3d3846","experiment","legacy","legacy","legacy","1","undefined","1","left","25","25","25","0","0","25","25","0","0","25","25","25","0","25","0","Tue Oct 17 08:24:31 2023","The main experiment item","False","Sternbergtask.osexp","C:\Users\stcka\OneDrive\Sam Docs\Psychology Program\AP Textbooks\Quantitative Methods","False","mono","False","18","no","white","no","yes","768","legacy","13","11","C:/Users/stcka/OneDrive/Sam Docs/Psychology Program/AP Textbooks/Quantitative Methods/SA-subject-2.csv","legacy","3 5 4 7","Melodramatic Milgram","4.0.5","1","y","0","left","right","right","left","NA","675.0","6891","5727","675","NA","2","legacy","4","1024","2","48000","-16","experiment","2","even","3","173821","170596","171619","2183","92322","171620","158411","2187","86594","175822","176497","172620","9079","175822","NA","Sternberg task","23","26075.0","26","1024"
"88","88","1004","1004","#3d3846","experiment","legacy","legacy","legacy","1","undefined","1","right","26","26","26","0","0","26","26","0","0","26","26","26","0","26","0","Tue Oct 17 08:24:31 2023","The main experiment item","False","Sternbergtask.osexp","C:\Users\stcka\OneDrive\Sam Docs\Psychology Program\AP Textbooks\Quantitative Methods","False","mono","False","18","no","white","no","yes","768","legacy","14","11","C:/Users/stcka/OneDrive/Sam Docs/Psychology Program/AP Textbooks/Quantitative Methods/SA-subject-2.csv","legacy","2 3 8 5 6 7","Melodramatic Milgram","4.0.5","0","n","0","right","right","right","right","NA","1049.0","6891","5727","1049","NA","2","legacy","6","1024","2","48000","-16","experiment","2","even","1","179728","176502","177526","2183","92322","177527","158411","2187","86594","181729","182779","178528","9079","181729","NA","Sternberg task","24","27124.0","27","1024"
"89","89","1008","1008","#3d3846","experiment","legacy","legacy","legacy","1","undefined","1","right","27","27","27","0","0","27","27","0","0","27","27","27","0","27","0","Tue Oct 17 08:24:31 2023","The main experiment item","False","Sternbergtask.osexp","C:\Users\stcka\OneDrive\Sam Docs\Psychology Program\AP Textbooks\Quantitative Methods","False","mono","False","18","no","white","no","yes","768","legacy","15","11","C:/Users/stcka/OneDrive/Sam Docs/Psychology Program/AP Textbooks/Quantitative Methods/SA-subject-2.csv","legacy","7 3 2 8","Melodramatic Milgram","4.0.5","0","n","0","right","right","right","right","NA","1115.0","6891","5727","1115","NA","2","legacy","4","1024","2","48000","-16","experiment","2","even","4","186018","182784","183814","2183","92322","183815","158411","2187","86594","188019","189135","184816","9079","188019","NA","Sternberg task","25","28239.0","28","1024"
"89","89","1006","1006","#3d3846","experiment","legacy","legacy","legacy","1","undefined","1","left","28","28","28","0","0","28","28","0","0","28","28","28","0","28","0","Tue Oct 17 08:24:31 2023","The main experiment item","False","Sternbergtask.osexp","C:\Users\stcka\OneDrive\Sam Docs\Psychology Program\AP Textbooks\Quantitative Methods","False","mono","False","18","no","white","no","yes","768","legacy","16","11","C:/Users/stcka/OneDrive/Sam Docs/Psychology Program/AP Textbooks/Quantitative Methods/SA-subject-2.csv","legacy","6 7 9 3 1 2","Melodramatic Milgram","4.0.5","1","y","0","left","right","right","left","NA","937.0","6891","5727","937","NA","2","legacy","6","1024","2","48000","-16","experiment","2","even","6","192381","189140","190177","2183","92322","190179","158411","2187","86594","194382","195320","191180","9079","194382","NA","Sternberg task","26","29176.0","29","1024"
"90","90","1014","1014","#3d3846","experiment","legacy","legacy","legacy","1","undefined","1","left","29","29","29","0","0","29","29","0","0","29","29","29","0","29","0","Tue Oct 17 08:24:31 2023","The main experiment item","False","Sternbergtask.osexp","C:\Users\stcka\OneDrive\Sam Docs\Psychology Program\AP Textbooks\Quantitative Methods","False","mono","False","18","no","white","no","yes","768","legacy","17","11","C:/Users/stcka/OneDrive/Sam Docs/Psychology Program/AP Textbooks/Quantitative Methods/SA-subject-2.csv","legacy","4 9 7 8 5 3","Melodramatic Milgram","4.0.5","4","y","0","left","right","right","left","NA","1248.0","6891","5727","1248","NA","2","legacy","6","1024","2","48000","-16","experiment","2","even","8","198564","195323","196360","2183","92322","196362","158411","2187","86594","200566","201815","197363","9079","200565","NA","Sternberg task","27","30424.0","30","1024"
"90","90","1013","1013","#3d3846","experiment","legacy","legacy","legacy","1","undefined","1","left","30","30","30","0","0","30","30","0","0","30","30","30","0","30","0","Tue Oct 17 08:24:31 2023","The main experiment item","False","Sternbergtask.osexp","C:\Users\stcka\OneDrive\Sam Docs\Psychology Program\AP Textbooks\Quantitative Methods","False","mono","False","18","no","white","no","yes","768","legacy","18","11","C:/Users/stcka/OneDrive/Sam Docs/Psychology Program/AP Textbooks/Quantitative Methods/SA-subject-2.csv","legacy","2 3 7 4","Melodramatic Milgram","4.0.5","1","y","0","left","right","right","left","NA","1006.0","6891","5727","1006","NA","2","legacy","4","1024","2","48000","-16","experiment","2","even","2","205055","201818","202852","2183","92322","202853","158411","2187","86594","207056","208062","203854","9079","207056","NA","Sternberg task","28","31430.0","31","1024"
"90","90","1008","1008","#3d3846","experiment","legacy","legacy","legacy","1","undefined","1","right","31","31","31","0","0","31","31","0","0","31","31","31","0","31","0","Tue Oct 17 08:24:31 2023","The main experiment item","False","Sternbergtask.osexp","C:\Users\stcka\OneDrive\Sam Docs\Psychology Program\AP Textbooks\Quantitative Methods","False","mono","False","18","no","white","no","yes","768","legacy","19","11","C:/Users/stcka/OneDrive/Sam Docs/Psychology Program/AP Textbooks/Quantitative Methods/SA-subject-2.csv","legacy","5 9 2 3","Melodramatic Milgram","4.0.5","0","n","0","right","right","right","right","NA","845.0","6891","5727","845","NA","2","legacy","4","1024","2","48000","-16","experiment","2","even","8","211314","208067","209109","2183","92322","209111","158411","2187","86594","213316","214161","210112","9079","213316","NA","Sternberg task","29","32275.0","32","1024"
"90","90","1017","1017","#3d3846","experiment","legacy","legacy","legacy","1","undefined","1","left","32","32","32","0","0","32","32","0","0","32","32","32","0","32","0","Tue Oct 17 08:24:31 2023","The main experiment item","False","Sternbergtask.osexp","C:\Users\stcka\OneDrive\Sam Docs\Psychology Program\AP Textbooks\Quantitative Methods","False","mono","False","18","no","white","no","yes","768","legacy","20","11","C:/Users/stcka/OneDrive/Sam Docs/Psychology Program/AP Textbooks/Quantitative Methods/SA-subject-2.csv","legacy","2 8 5 1","Melodramatic Milgram","4.0.5","4","y","0","left","right","right","left","NA","1289.0","6891","5727","1289","NA","2","legacy","4","1024","2","48000","-16","experiment","2","even","1","217403","214166","215200","2183","92322","215201","158411","2187","86594","219404","220694","216202","9079","219403","NA","Sternberg task","30","33564.0","33","1024"
"91","91","1026","1026","#3d3846","experiment","legacy","legacy","legacy","1","undefined","1","right","33","33","33","0","0","33","33","0","0","33","33","33","0","33","0","Tue Oct 17 08:24:31 2023","The main experiment item","False","Sternbergtask.osexp","C:\Users\stcka\OneDrive\Sam Docs\Psychology Program\AP Textbooks\Quantitative Methods","False","mono","False","18","no","white","no","yes","768","legacy","21","11","C:/Users/stcka/OneDrive/Sam Docs/Psychology Program/AP Textbooks/Quantitative Methods/SA-subject-2.csv","legacy","2 8 9 4 1","Melodramatic Milgram","4.0.5","0","n","0","right","right","right","right","NA","1327.0","6891","5727","1327","NA","2","legacy","5","1024","2","48000","-16","experiment","2","even","5","223937","220700","221734","2183","92322","221735","158411","2187","86594","225938","227266","222736","9079","225937","NA","Sternberg task","31","34891.0","34","1024"
"91","91","1032","1032","#3d3846","experiment","legacy","legacy","legacy","1","undefined","1","right","34","34","34","0","0","34","34","0","0","34","34","34","0","34","0","Tue Oct 17 08:24:31 2023","The main experiment item","False","Sternbergtask.osexp","C:\Users\stcka\OneDrive\Sam Docs\Psychology Program\AP Textbooks\Quantitative Methods","False","mono","False","18","no","white","no","yes","768","legacy","22","11","C:/Users/stcka/OneDrive/Sam Docs/Psychology Program/AP Textbooks/Quantitative Methods/SA-subject-2.csv","legacy","6 7 5 9","Melodramatic Milgram","4.0.5","0","n","0","right","right","right","right","NA","1256.0","6891","5727","1256","NA","2","legacy","4","1024","2","48000","-16","experiment","2","even","2","230511","227272","228308","2183","92322","228309","158411","2187","86594","232514","233771","229310","9079","232513","NA","Sternberg task","32","36147.0","35","1024"
"91","91","1024","1024","#3d3846","experiment","legacy","legacy","legacy","1","undefined","1","right","35","35","35","0","0","35","35","0","0","35","35","35","0","35","0","Tue Oct 17 08:24:31 2023","The main experiment item","False","Sternbergtask.osexp","C:\Users\stcka\OneDrive\Sam Docs\Psychology Program\AP Textbooks\Quantitative Methods","False","mono","False","18","no","white","no","yes","768","legacy","23","11","C:/Users/stcka/OneDrive/Sam Docs/Psychology Program/AP Textbooks/Quantitative Methods/SA-subject-2.csv","legacy","2 5 1 4","Melodramatic Milgram","4.0.5","0","n","0","right","right","right","right","NA","738.0","6891","5727","738","NA","2","legacy","4","1024","2","48000","-16","experiment","2","even","6","237014","233776","234811","2183","92322","234812","158411","2187","86594","239016","239756","235813","9079","239015","NA","Sternberg task","33","36885.0","36","1024"
"91","91","1015","1015","#3d3846","experiment","legacy","legacy","legacy","1","undefined","1","right","36","36","36","0","0","36","36","0","0","36","36","36","0","36","0","Tue Oct 17 08:24:31 2023","The main experiment item","False","Sternbergtask.osexp","C:\Users\stcka\OneDrive\Sam Docs\Psychology Program\AP Textbooks\Quantitative Methods","False","mono","False","18","no","white","no","yes","768","legacy","24","11","C:/Users/stcka/OneDrive/Sam Docs/Psychology Program/AP Textbooks/Quantitative Methods/SA-subject-2.csv","legacy","6 9 5","Melodramatic Milgram","4.0.5","0","n","0","right","right","right","right","NA","703.0","6891","5727","703","NA","2","legacy","3","1024","2","48000","-16","experiment","2","even","8","243004","239761","240800","2183","92322","240801","158411","2187","86594","245005","245709","241803","9079","245005","NA","Sternberg task","34","37588.0","37","1024"
"92","92","1031","1031","#3d3846","experiment","legacy","legacy","legacy","1","undefined","1","left","37","37","37","0","0","37","37","0","0","37","37","37","0","37","0","Tue Oct 17 08:24:31 2023","The main experiment item","False","Sternbergtask.osexp","C:\Users\stcka\OneDrive\Sam Docs\Psychology Program\AP Textbooks\Quantitative Methods","False","mono","False","18","no","white","no","yes","768","legacy","25","11","C:/Users/stcka/OneDrive/Sam Docs/Psychology Program/AP Textbooks/Quantitative Methods/SA-subject-2.csv","legacy","5 7 8 2 3 8","Melodramatic Milgram","4.0.5","5","y","0","left","right","right","left","NA","1608.0","6891","5727","1608","NA","2","legacy","6","1024","2","48000","-16","experiment","2","even","3","248940","245713","246737","2183","92322","246738","158411","2187","86594","250941","252549","247739","9079","250941","NA","Sternberg task","35","39196.0","38","1024"
"92","92","1025","1025","#3d3846","experiment","legacy","legacy","legacy","1","undefined","1","right","38","38","38","0","0","38","38","0","0","38","38","38","0","38","0","Tue Oct 17 08:24:31 2023","The main experiment item","False","Sternbergtask.osexp","C:\Users\stcka\OneDrive\Sam Docs\Psychology Program\AP Textbooks\Quantitative Methods","False","mono","False","18","no","white","no","yes","768","legacy","26","11","C:/Users/stcka/OneDrive/Sam Docs/Psychology Program/AP Textbooks/Quantitative Methods/SA-subject-2.csv","legacy","1 6 4","Melodramatic Milgram","4.0.5","0","n","0","right","right","right","right","NA","810.0","6891","5727","810","NA","2","legacy","3","1024","2","48000","-16","experiment","2","even","7","255801","252555","253597","2183","92322","253599","158411","2187","86594","257803","258613","254600","9079","257802","NA","Sternberg task","36","40006.0","39","1024"
"92","92","1022","1022","#3d3846","experiment","legacy","legacy","legacy","1","undefined","1","right","39","39","39","0","0","39","39","0","0","39","39","39","0","39","0","Tue Oct 17 08:24:31 2023","The main experiment item","False","Sternbergtask.osexp","C:\Users\stcka\OneDrive\Sam Docs\Psychology Program\AP Textbooks\Quantitative Methods","False","mono","False","18","no","white","no","yes","768","legacy","27","11","C:/Users/stcka/OneDrive/Sam Docs/Psychology Program/AP Textbooks/Quantitative Methods/SA-subject-2.csv","legacy","7 8 6 1","Melodramatic Milgram","4.0.5","0","n","0","right","right","right","right","NA","893.0","6891","5727","893","NA","2","legacy","4","1024","2","48000","-16","experiment","2","even","3","261857","258617","259653","2183","92322","259654","158411","2187","86594","263858","264752","260656","9079","263858","NA","Sternberg task","37","40899.0","40","1024"
"92","92","1023","1023","#3d3846","experiment","legacy","legacy","legacy","1","undefined","1","left","40","40","40","0","0","40","40","0","0","40","40","40","0","40","0","Tue Oct 17 08:24:31 2023","The main experiment item","False","Sternbergtask.osexp","C:\Users\stcka\OneDrive\Sam Docs\Psychology Program\AP Textbooks\Quantitative Methods","False","mono","False","18","no","white","no","yes","768","legacy","28","11","C:/Users/stcka/OneDrive/Sam Docs/Psychology Program/AP Textbooks/Quantitative Methods/SA-subject-2.csv","legacy","9 6 2 4 1","Melodramatic Milgram","4.0.5","4","y","0","left","right","right","left","NA","1044.0","6891","5727","1044","NA","2","legacy","5","1024","2","48000","-16","experiment","2","even","4","267998","264757","265794","2183","92322","265795","158411","2187","86594","270000","271045","266797","9079","269999","NA","Sternberg task","38","41943.0","41","1024"
"92","92","1023","1023","#3d3846","experiment","legacy","legacy","legacy","1","undefined","1","left","41","41","41","0","0","41","41","0","0","41","41","41","0","41","0","Tue Oct 17 08:24:31 2023","The main experiment item","False","Sternbergtask.osexp","C:\Users\stcka\OneDrive\Sam Docs\Psychology Program\AP Textbooks\Quantitative Methods","False","mono","False","18","no","white","no","yes","768","legacy","29","11","C:/Users/stcka/OneDrive/Sam Docs/Psychology Program/AP Textbooks/Quantitative Methods/SA-subject-2.csv","legacy","7","Melodramatic Milgram","4.0.5","1","y","0","left","right","right","left","NA","1054.0","6891","5727","1054","NA","2","legacy","1","1024","2","48000","-16","experiment","2","even","7","274288","271050","272085","2183","92322","272085","158411","2187","86594","276289","277344","273086","9079","276289","NA","Sternberg task","39","42997.0","42","1024"
"90","90","1046","1046","#3d3846","experiment","legacy","legacy","legacy","0","undefined","0","right","42","42","42","0","0","42","42","0","0","42","42","42","0","42","0","Tue Oct 17 08:24:31 2023","The main experiment item","False","Sternbergtask.osexp","C:\Users\stcka\OneDrive\Sam Docs\Psychology Program\AP Textbooks\Quantitative Methods","False","mono","False","18","no","white","no","yes","768","legacy","30","11","C:/Users/stcka/OneDrive/Sam Docs/Psychology Program/AP Textbooks/Quantitative Methods/SA-subject-2.csv","legacy","6 2 9 3 8 4","Melodramatic Milgram","4.0.5","0","n","0","None","right","right","None","NA","2000.0","6891","5727","2000","NA","2","legacy","6","1024","2","48000","-16","experiment","2","even","1","280589","277349","278386","2183","92322","278387","158411","2187","86594","282590","284590","279388","9079","282589","NA","Sternberg task","39","44997.0","43","1024"
"90","90","1040","1040","#3d3846","experiment","legacy","legacy","legacy","1","undefined","1","right","43","43","43","0","0","43","43","0","0","43","43","43","0","43","0","Tue Oct 17 08:24:31 2023","The main experiment item","False","Sternbergtask.osexp","C:\Users\stcka\OneDrive\Sam Docs\Psychology Program\AP Textbooks\Quantitative Methods","False","mono","False","18","no","white","no","yes","768","legacy","31","11","C:/Users/stcka/OneDrive/Sam Docs/Psychology Program/AP Textbooks/Quantitative Methods/SA-subject-2.csv","legacy","6 3 1 7 9 8","Melodramatic Milgram","4.0.5","0","n","0","right","right","right","right","NA","783.0","6891","5727","783","NA","2","legacy","6","1024","2","48000","-16","experiment","2","even","4","287823","277349","285619","2183","92322","285620","284594","2187","86594","289825","290609","286622","9079","289824","NA","Sternberg task","40","45780.0","44","1024"
"91","91","1046","1046","#3d3846","experiment","legacy","legacy","legacy","1","undefined","1","left","44","44","44","0","0","44","44","0","0","44","44","44","0","44","0","Tue Oct 17 08:24:31 2023","The main experiment item","False","Sternbergtask.osexp","C:\Users\stcka\OneDrive\Sam Docs\Psychology Program\AP Textbooks\Quantitative Methods","False","mono","False","18","no","white","no","yes","768","legacy","32","11","C:/Users/stcka/OneDrive/Sam Docs/Psychology Program/AP Textbooks/Quantitative Methods/SA-subject-2.csv","legacy","9 5 8 1","Melodramatic Milgram","4.0.5","2","y","0","left","right","right","left","NA","1319.0","6891","5727","1319","NA","2","legacy","4","1024","2","48000","-16","experiment","2","even","5","293852","290614","291649","2183","92322","291650","284594","2187","86594","295853","297172","292651","9079","295853","NA","Sternberg task","41","47099.0","45","1024"
"91","91","1046","1046","#3d3846","experiment","legacy","legacy","legacy","1","undefined","1","right","45","45","45","0","0","45","45","0","0","45","45","45","0","45","0","Tue Oct 17 08:24:31 2023","The main experiment item","False","Sternbergtask.osexp","C:\Users\stcka\OneDrive\Sam Docs\Psychology Program\AP Textbooks\Quantitative Methods","False","mono","False","18","no","white","no","yes","768","legacy","33","11","C:/Users/stcka/OneDrive/Sam Docs/Psychology Program/AP Textbooks/Quantitative Methods/SA-subject-2.csv","legacy","2 8 9","Melodramatic Milgram","4.0.5","0","n","0","right","right","right","right","NA","1057.0","6891","5727","1057","NA","2","legacy","3","1024","2","48000","-16","experiment","2","even","6","300418","297178","298214","2183","92322","298214","284594","2187","86594","302420","303478","299216","9079","302419","NA","Sternberg task","42","48156.0","46","1024"
"91","91","1050","1050","#3d3846","experiment","legacy","legacy","legacy","1","undefined","1","left","46","46","46","0","0","46","46","0","0","46","46","46","0","46","0","Tue Oct 17 08:24:31 2023","The main experiment item","False","Sternbergtask.osexp","C:\Users\stcka\OneDrive\Sam Docs\Psychology Program\AP Textbooks\Quantitative Methods","False","mono","False","18","no","white","no","yes","768","legacy","34","11","C:/Users/stcka/OneDrive/Sam Docs/Psychology Program/AP Textbooks/Quantitative Methods/SA-subject-2.csv","legacy","5 2 9 6 1 7","Melodramatic Milgram","4.0.5","3","y","0","left","right","right","left","NA","1223.0","6891","5727","1223","NA","2","legacy","6","1024","2","48000","-16","experiment","2","even","9","306739","303482","304536","2183","92322","304537","284594","2187","86594","308741","309965","305538","9079","308740","NA","Sternberg task","43","49379.0","47","1024"
"91","91","1058","1058","#3d3846","experiment","legacy","legacy","legacy","1","undefined","1","left","47","47","47","0","0","47","47","0","0","47","47","47","0","47","0","Tue Oct 17 08:24:31 2023","The main experiment item","False","Sternbergtask.osexp","C:\Users\stcka\OneDrive\Sam Docs\Psychology Program\AP Textbooks\Quantitative Methods","False","mono","False","18","no","white","no","yes","768","legacy","35","11","C:/Users/stcka/OneDrive/Sam Docs/Psychology Program/AP Textbooks/Quantitative Methods/SA-subject-2.csv","legacy","4 6 5 8","Melodramatic Milgram","4.0.5","1","y","0","left","right","right","left","NA","1411.0","6891","5727","1411","NA","2","legacy","4","1024","2","48000","-16","experiment","2","even","4","313206","309972","311003","2183","92322","311004","284594","2187","86594","315209","316621","312005","9079","315209","NA","Sternberg task","44","50790.0","48","1024"
"91","91","1056","1056","#3d3846","experiment","legacy","legacy","legacy","1","undefined","1","left","48","48","48","0","0","48","48","0","0","48","48","48","0","48","0","Tue Oct 17 08:24:31 2023","The main experiment item","False","Sternbergtask.osexp","C:\Users\stcka\OneDrive\Sam Docs\Psychology Program\AP Textbooks\Quantitative Methods","False","mono","False","18","no","white","no","yes","768","legacy","36","11","C:/Users/stcka/OneDrive/Sam Docs/Psychology Program/AP Textbooks/Quantitative Methods/SA-subject-2.csv","legacy","9 5 3 8 4","Melodramatic Milgram","4.0.5","1","y","0","left","right","right","left","NA","986.0","6891","5727","986","NA","2","legacy","5","1024","2","48000","-16","experiment","2","even","9","319861","316624","317658","2183","92322","317659","284594","2187","86594","321862","322849","318660","9079","321862","NA","Sternberg task","45","51776.0","49","1024"
"92","92","1060","1060","#3d3846","experiment","legacy","legacy","legacy","1","undefined","1","right","49","49","49","0","0","49","49","0","0","49","49","49","0","49","0","Tue Oct 17 08:24:31 2023","The main experiment item","False","Sternbergtask.osexp","C:\Users\stcka\OneDrive\Sam Docs\Psychology Program\AP Textbooks\Quantitative Methods","False","mono","False","18","no","white","no","yes","768","legacy","37","11","C:/Users/stcka/OneDrive/Sam Docs/Psychology Program/AP Textbooks/Quantitative Methods/SA-subject-2.csv","legacy","1 7 5 2 9","Melodramatic Milgram","4.0.5","0","n","0","right","right","right","right","NA","1267.0","6891","5727","1267","NA","2","legacy","5","1024","2","48000","-16","experiment","2","even","3","326095","322854","323891","2183","92322","323892","284594","2187","86594","328095","329364","324893","9079","328095","NA","Sternberg task","46","53043.0","50","1024"
"92","92","1065","1065","#3d3846","experiment","legacy","legacy","legacy","1","undefined","1","right","50","50","50","0","0","50","50","0","0","50","50","50","0","50","0","Tue Oct 17 08:24:31 2023","The main experiment item","False","Sternbergtask.osexp","C:\Users\stcka\OneDrive\Sam Docs\Psychology Program\AP Textbooks\Quantitative Methods","False","mono","False","18","no","white","no","yes","768","legacy","38","11","C:/Users/stcka/OneDrive/Sam Docs/Psychology Program/AP Textbooks/Quantitative Methods/SA-subject-2.csv","legacy","7 1 8 4 9 3","Melodramatic Milgram","4.0.5","0","n","0","right","right","right","right","NA","1272.0","6891","5727","1272","NA","2","legacy","6","1024","2","48000","-16","experiment","2","even","6","332606","329367","330403","2183","92322","330404","284594","2187","86594","334607","335880","331405","9079","334607","NA","Sternberg task","47","54315.0","51","1024"
"92","92","1062","1062","#3d3846","experiment","legacy","legacy","legacy","1","undefined","1","right","51","51","51","0","0","51","51","0","0","51","51","51","0","51","0","Tue Oct 17 08:24:31 2023","The main experiment item","False","Sternbergtask.osexp","C:\Users\stcka\OneDrive\Sam Docs\Psychology Program\AP Textbooks\Quantitative Methods","False","mono","False","18","no","white","no","yes","768","legacy","39","11","C:/Users/stcka/OneDrive/Sam Docs/Psychology Program/AP Textbooks/Quantitative Methods/SA-subject-2.csv","legacy","7 6 4 8 1 2","Melodramatic Milgram","4.0.5","0","n","0","right","right","right","right","NA","914.0","6891","5727","914","NA","2","legacy","6","1024","2","48000","-16","experiment","2","even","9","339123","335885","336920","2183","92322","336920","284594","2187","86594","341124","342039","337922","9079","341124","NA","Sternberg task","48","55229.0","52","1024"
"92","92","1060","1060","#3d3846","experiment","legacy","legacy","legacy","1","undefined","1","left","52","52","52","0","0","52","52","0","0","52","52","52","0","52","0","Tue Oct 17 08:24:31 2023","The main experiment item","False","Sternbergtask.osexp","C:\Users\stcka\OneDrive\Sam Docs\Psychology Program\AP Textbooks\Quantitative Methods","False","mono","False","18","no","white","no","yes","768","legacy","40","11","C:/Users/stcka/OneDrive/Sam Docs/Psychology Program/AP Textbooks/Quantitative Methods/SA-subject-2.csv","legacy","6 9 7 4 5 1","Melodramatic Milgram","4.0.5","2","y","0","left","right","right","left","NA","1003.0","6891","5727","1003","NA","2","legacy","6","1024","2","48000","-16","experiment","2","even","9","345287","342044","343084","2183","92322","343085","284594","2187","86594","347288","348292","344086","9079","347288","NA","Sternberg task","49","56232.0","53","1024"
"92","92","1058","1058","#3d3846","experiment","legacy","legacy","legacy","1","undefined","1","right","53","53","53","0","0","53","53","0","0","53","53","53","0","53","0","Tue Oct 17 08:24:31 2023","The main experiment item","False","Sternbergtask.osexp","C:\Users\stcka\OneDrive\Sam Docs\Psychology Program\AP Textbooks\Quantitative Methods","False","mono","False","18","no","white","no","yes","768","legacy","41","11","C:/Users/stcka/OneDrive/Sam Docs/Psychology Program/AP Textbooks/Quantitative Methods/SA-subject-2.csv","legacy","8 6 3 4 7","Melodramatic Milgram","4.0.5","0","n","0","right","right","right","right","NA","943.0","6891","5727","943","NA","2","legacy","5","1024","2","48000","-16","experiment","2","even","1","351543","348297","349339","2183","92322","349340","284594","2187","86594","353544","354488","350342","9079","353544","NA","Sternberg task","50","57175.0","54","1024"
"92","92","1058","1058","#3d3846","experiment","legacy","legacy","legacy","1","undefined","1","left","54","54","54","0","0","54","54","0","0","54","54","54","0","54","0","Tue Oct 17 08:24:31 2023","The main experiment item","False","Sternbergtask.osexp","C:\Users\stcka\OneDrive\Sam Docs\Psychology Program\AP Textbooks\Quantitative Methods","False","mono","False","18","no","white","no","yes","768","legacy","42","11","C:/Users/stcka/OneDrive/Sam Docs/Psychology Program/AP Textbooks/Quantitative Methods/SA-subject-2.csv","legacy","8 9 5 6 7","Melodramatic Milgram","4.0.5","1","y","0","left","right","right","left","NA","1055.0","6891","5727","1055","NA","2","legacy","5","1024","2","48000","-16","experiment","2","even","8","357729","354493","355526","2183","92322","355527","284594","2187","86594","359731","360786","356528","9079","359731","NA","Sternberg task","51","58230.0","55","1024"
"92","92","1059","1059","#3d3846","experiment","legacy","legacy","legacy","1","undefined","1","right","55","55","55","0","0","55","55","0","0","55","55","55","0","55","0","Tue Oct 17 08:24:31 2023","The main experiment item","False","Sternbergtask.osexp","C:\Users\stcka\OneDrive\Sam Docs\Psychology Program\AP Textbooks\Quantitative Methods","False","mono","False","18","no","white","no","yes","768","legacy","43","11","C:/Users/stcka/OneDrive/Sam Docs/Psychology Program/AP Textbooks/Quantitative Methods/SA-subject-2.csv","legacy","1 8 7","Melodramatic Milgram","4.0.5","0","n","0","right","right","right","right","NA","1125.0","6891","5727","1125","NA","2","legacy","3","1024","2","48000","-16","experiment","2","even","4","364028","360791","361824","2183","92322","361825","284594","2187","86594","366030","367156","362826","9079","366029","NA","Sternberg task","52","59355.0","56","1024"
"92","92","1069","1069","#3d3846","experiment","legacy","legacy","legacy","1","undefined","1","right","56","56","56","0","0","56","56","0","0","56","56","56","0","56","0","Tue Oct 17 08:24:31 2023","The main experiment item","False","Sternbergtask.osexp","C:\Users\stcka\OneDrive\Sam Docs\Psychology Program\AP Textbooks\Quantitative Methods","False","mono","False","18","no","white","no","yes","768","legacy","44","11","C:/Users/stcka/OneDrive/Sam Docs/Psychology Program/AP Textbooks/Quantitative Methods/SA-subject-2.csv","legacy","5 3 8 7 2 4","Melodramatic Milgram","4.0.5","0","n","0","right","right","right","right","NA","1586.0","6891","5727","1586","NA","2","legacy","6","1024","2","48000","-16","experiment","2","even","9","370400","367161","368197","2183","92322","368197","284594","2187","86594","372401","373988","369199","9079","372401","NA","Sternberg task","53","60941.0","57","1024"
"93","93","1083","1083","#3d3846","experiment","legacy","legacy","legacy","1","undefined","1","left","57","57","57","0","0","57","57","0","0","57","57","57","0","57","0","Tue Oct 17 08:24:31 2023","The main experiment item","False","Sternbergtask.osexp","C:\Users\stcka\OneDrive\Sam Docs\Psychology Program\AP Textbooks\Quantitative Methods","False","mono","False","18","no","white","no","yes","768","legacy","45","11","C:/Users/stcka/OneDrive/Sam Docs/Psychology Program/AP Textbooks/Quantitative Methods/SA-subject-2.csv","legacy","8 5 1 3 9","Melodramatic Milgram","4.0.5","4","y","0","left","right","right","left","NA","1898.0","6891","5727","1898","NA","2","legacy","5","1024","2","48000","-16","experiment","2","even","3","377232","373993","375029","2183","92322","375030","284594","2187","86594","379233","381131","376031","9079","379233","NA","Sternberg task","54","62839.0","58","1024"
"93","93","1079","1079","#3d3846","experiment","legacy","legacy","legacy","1","undefined","1","right","58","58","58","0","0","58","58","0","0","58","58","58","0","58","0","Tue Oct 17 08:24:31 2023","The main experiment item","False","Sternbergtask.osexp","C:\Users\stcka\OneDrive\Sam Docs\Psychology Program\AP Textbooks\Quantitative Methods","False","mono","False","18","no","white","no","yes","768","legacy","46","11","C:/Users/stcka/OneDrive/Sam Docs/Psychology Program/AP Textbooks/Quantitative Methods/SA-subject-2.csv","legacy","9 8 2 7 4","Melodramatic Milgram","4.0.5","0","n","0","right","right","right","right","NA","846.0","6891","5727","846","NA","2","legacy","5","1024","2","48000","-16","experiment","2","even","5","384383","381137","382180","2183","92322","382181","284594","2187","86594","386385","387232","383182","9079","386385","NA","Sternberg task","55","63685.0","59","1024"
"93","93","1082","1082","#3d3846","experiment","legacy","legacy","legacy","1","undefined","1","right","59","59","59","0","0","59","59","0","0","59","59","59","0","59","0","Tue Oct 17 08:24:31 2023","The main experiment item","False","Sternbergtask.osexp","C:\Users\stcka\OneDrive\Sam Docs\Psychology Program\AP Textbooks\Quantitative Methods","False","mono","False","18","no","white","no","yes","768","legacy","47","11","C:/Users/stcka/OneDrive/Sam Docs/Psychology Program/AP Textbooks/Quantitative Methods/SA-subject-2.csv","legacy","4 1","Melodramatic Milgram","4.0.5","0","n","0","right","right","right","right","NA","1277.0","6891","5727","1277","NA","2","legacy","2","1024","2","48000","-16","experiment","2","even","6","390474","387237","388271","2183","92322","388272","284594","2187","86594","392475","393753","389273","9079","392475","NA","Sternberg task","56","64962.0","60","1024"
"93","93","1082","1082","#3d3846","experiment","legacy","legacy","legacy","1","undefined","1","right","60","60","60","0","0","60","60","0","0","60","60","60","0","60","0","Tue Oct 17 08:24:31 2023","The main experiment item","False","Sternbergtask.osexp","C:\Users\stcka\OneDrive\Sam Docs\Psychology Program\AP Textbooks\Quantitative Methods","False","mono","False","18","no","white","no","yes","768","legacy","48","11","C:/Users/stcka/OneDrive/Sam Docs/Psychology Program/AP Textbooks/Quantitative Methods/SA-subject-2.csv","legacy","1 3 2 6 9","Melodramatic Milgram","4.0.5","0","n","0","right","right","right","right","NA","1053.0","6891","5727","1053","NA","2","legacy","5","1024","2","48000","-16","experiment","2","even","5","396998","393759","394795","2183","92322","394795","284594","2187","86594","398999","400053","395796","9079","398999","NA","Sternberg task","57","66015.0","61","1024"
"93","93","1082","1082","#3d3846","experiment","legacy","legacy","legacy","1","undefined","1","left","61","61","61","0","0","61","61","0","0","61","61","61","0","61","0","Tue Oct 17 08:24:31 2023","The main experiment item","False","Sternbergtask.osexp","C:\Users\stcka\OneDrive\Sam Docs\Psychology Program\AP Textbooks\Quantitative Methods","False","mono","False","18","no","white","no","yes","768","legacy","49","11","C:/Users/stcka/OneDrive/Sam Docs/Psychology Program/AP Textbooks/Quantitative Methods/SA-subject-2.csv","legacy","4 1 5","Melodramatic Milgram","4.0.5","2","y","0","left","right","right","left","NA","1091.0","6891","5727","1091","NA","2","legacy","3","1024","2","48000","-16","experiment","2","even","1","403303","400074","401101","2183","92322","401102","284594","2187","86594","405304","406396","402102","9079","405303","NA","Sternberg task","58","67106.0","62","1024"
"93","93","1090","1090","#3d3846","experiment","legacy","legacy","legacy","1","undefined","1","left","62","62","62","0","0","62","62","0","0","62","62","62","0","62","0","Tue Oct 17 08:24:31 2023","The main experiment item","False","Sternbergtask.osexp","C:\Users\stcka\OneDrive\Sam Docs\Psychology Program\AP Textbooks\Quantitative Methods","False","mono","False","18","no","white","no","yes","768","legacy","50","11","C:/Users/stcka/OneDrive/Sam Docs/Psychology Program/AP Textbooks/Quantitative Methods/SA-subject-2.csv","legacy","2 6 1 7 4","Melodramatic Milgram","4.0.5","2","y","0","left","right","right","left","NA","1581.0","6891","5727","1581","NA","2","legacy","5","1024","2","48000","-16","experiment","2","even","6","409640","406401","407437","2183","92322","407438","284594","2187","86594","411642","413224","408439","9079","411641","NA","Sternberg task","59","68687.0","63","1024"
"93","93","1086","1086","#3d3846","experiment","legacy","legacy","legacy","1","undefined","1","left","63","63","63","0","0","63","63","0","0","63","63","63","0","63","0","Tue Oct 17 08:24:31 2023","The main experiment item","False","Sternbergtask.osexp","C:\Users\stcka\OneDrive\Sam Docs\Psychology Program\AP Textbooks\Quantitative Methods","False","mono","False","18","no","white","no","yes","768","legacy","51","11","C:/Users/stcka/OneDrive/Sam Docs/Psychology Program/AP Textbooks/Quantitative Methods/SA-subject-2.csv","legacy","2 4 8 5 1 3","Melodramatic Milgram","4.0.5","1","y","0","left","right","right","left","NA","845.0","6891","5727","845","NA","2","legacy","6","1024","2","48000","-16","experiment","2","even","2","416475","413229","414272","2183","92322","414273","284594","2187","86594","418476","419322","415274","9079","418476","NA","Sternberg task","60","69532.0","64","1024"
"93","93","1086","1086","#3d3846","experiment","legacy","legacy","legacy","1","undefined","1","right","64","64","64","0","0","64","64","0","0","64","64","64","0","64","0","Tue Oct 17 08:24:31 2023","The main experiment item","False","Sternbergtask.osexp","C:\Users\stcka\OneDrive\Sam Docs\Psychology Program\AP Textbooks\Quantitative Methods","False","mono","False","18","no","white","no","yes","768","legacy","52","11","C:/Users/stcka/OneDrive/Sam Docs/Psychology Program/AP Textbooks/Quantitative Methods/SA-subject-2.csv","legacy","7 4 2 8 1 9","Melodramatic Milgram","4.0.5","0","n","0","right","right","right","right","NA","1082.0","6891","5727","1082","NA","2","legacy","6","1024","2","48000","-16","experiment","2","even","5","422566","419327","420364","2183","92322","420365","284594","2187","86594","424569","425652","421365","9079","424569","NA","Sternberg task","61","70614.0","65","1024"
"93","93","1088","1088","#3d3846","experiment","legacy","legacy","legacy","1","undefined","1","left","65","65","65","0","0","65","65","0","0","65","65","65","0","65","0","Tue Oct 17 08:24:31 2023","The main experiment item","False","Sternbergtask.osexp","C:\Users\stcka\OneDrive\Sam Docs\Psychology Program\AP Textbooks\Quantitative Methods","False","mono","False","18","no","white","no","yes","768","legacy","53","11","C:/Users/stcka/OneDrive/Sam Docs/Psychology Program/AP Textbooks/Quantitative Methods/SA-subject-2.csv","legacy","8 5 3 7 4 6","Melodramatic Milgram","4.0.5","6","y","0","left","right","right","left","NA","1210.0","6891","5727","1210","NA","2","legacy","6","1024","2","48000","-16","experiment","2","even","6","428894","425655","426691","2183","92322","426692","284594","2187","86594","430896","432106","427693","9079","430896","NA","Sternberg task","62","71824.0","66","1024"
"92","92","1101","1101","#3d3846","experiment","legacy","legacy","legacy","0","undefined","0","right","66","66","66","0","0","66","66","0","0","66","66","66","0","66","0","Tue Oct 17 08:24:31 2023","The main experiment item","False","Sternbergtask.osexp","C:\Users\stcka\OneDrive\Sam Docs\Psychology Program\AP Textbooks\Quantitative Methods","False","mono","False","18","no","white","no","yes","768","legacy","54","11","C:/Users/stcka/OneDrive/Sam Docs/Psychology Program/AP Textbooks/Quantitative Methods/SA-subject-2.csv","legacy","6 9 4 5 2","Melodramatic Milgram","4.0.5","0","n","0","None","right","right","None","NA","2000.0","6891","5727","2000","NA","2","legacy","5","1024","2","48000","-16","experiment","2","even","1","435350","432111","433147","2183","92322","433148","284594","2187","86594","437352","439352","434149","9079","437352","NA","Sternberg task","62","73824.0","67","1024"
"92","92","1100","1100","#3d3846","experiment","legacy","legacy","legacy","1","undefined","1","right","67","67","67","0","0","67","67","0","0","67","67","67","0","67","0","Tue Oct 17 08:24:31 2023","The main experiment item","False","Sternbergtask.osexp","C:\Users\stcka\OneDrive\Sam Docs\Psychology Program\AP Textbooks\Quantitative Methods","False","mono","False","18","no","white","no","yes","768","legacy","55","11","C:/Users/stcka/OneDrive/Sam Docs/Psychology Program/AP Textbooks/Quantitative Methods/SA-subject-2.csv","legacy","8 4 3 9","Melodramatic Milgram","4.0.5","0","n","0","right","right","right","right","NA","1041.0","6891","5727","1041","NA","2","legacy","4","1024","2","48000","-16","experiment","2","even","5","442595","432111","440393","2183","92322","440394","439357","2187","86594","444596","445637","441395","9079","444596","NA","Sternberg task","63","74865.0","68","1024"
"92","92","1100","1100","#3d3846","experiment","legacy","legacy","legacy","1","undefined","1","right","68","68","68","0","0","68","68","0","0","68","68","68","0","68","0","Tue Oct 17 08:24:31 2023","The main experiment item","False","Sternbergtask.osexp","C:\Users\stcka\OneDrive\Sam Docs\Psychology Program\AP Textbooks\Quantitative Methods","False","mono","False","18","no","white","no","yes","768","legacy","56","11","C:/Users/stcka/OneDrive/Sam Docs/Psychology Program/AP Textbooks/Quantitative Methods/SA-subject-2.csv","legacy","3 4 9 6 7 8","Melodramatic Milgram","4.0.5","0","n","0","right","right","right","right","NA","1055.0","6891","5727","1055","NA","2","legacy","6","1024","2","48000","-16","experiment","2","even","2","448888","445642","446685","2183","92322","446686","439357","2187","86594","450889","451945","447687","9079","450889","NA","Sternberg task","64","75920.0","69","1024"
"92","92","1101","1101","#3d3846","experiment","legacy","legacy","legacy","1","undefined","1","left","69","69","69","0","0","69","69","0","0","69","69","69","0","69","0","Tue Oct 17 08:24:31 2023","The main experiment item","False","Sternbergtask.osexp","C:\Users\stcka\OneDrive\Sam Docs\Psychology Program\AP Textbooks\Quantitative Methods","False","mono","False","18","no","white","no","yes","768","legacy","57","11","C:/Users/stcka/OneDrive/Sam Docs/Psychology Program/AP Textbooks/Quantitative Methods/SA-subject-2.csv","legacy","7 1 8 5 6 2","Melodramatic Milgram","4.0.5","2","y","0","left","right","right","left","NA","1203.0","6891","5727","1203","NA","2","legacy","6","1024","2","48000","-16","experiment","2","even","1","455193","451950","452990","2183","92322","452991","439357","2187","86594","457196","458400","453992","9079","457195","NA","Sternberg task","65","77123.0","70","1024"
"92","92","1106","1106","#3d3846","experiment","legacy","legacy","legacy","1","undefined","1","left","70","70","70","0","0","70","70","0","0","70","70","70","0","70","0","Tue Oct 17 08:24:31 2023","The main experiment item","False","Sternbergtask.osexp","C:\Users\stcka\OneDrive\Sam Docs\Psychology Program\AP Textbooks\Quantitative Methods","False","mono","False","18","no","white","no","yes","768","legacy","58","11","C:/Users/stcka/OneDrive/Sam Docs/Psychology Program/AP Textbooks/Quantitative Methods/SA-subject-2.csv","legacy","3 4 9 6 2 9","Melodramatic Milgram","4.0.5","5","y","0","left","right","right","left","NA","1409.0","6891","5727","1409","NA","2","legacy","6","1024","2","48000","-16","experiment","2","even","2","461643","458404","459440","2183","92322","459441","439357","2187","86594","463644","465054","460442","9079","463644","NA","Sternberg task","66","78532.0","71","1024"
"93","93","1105","1105","#3d3846","experiment","legacy","legacy","legacy","1","undefined","1","left","71","71","71","0","0","71","71","0","0","71","71","71","0","71","0","Tue Oct 17 08:24:31 2023","The main experiment item","False","Sternbergtask.osexp","C:\Users\stcka\OneDrive\Sam Docs\Psychology Program\AP Textbooks\Quantitative Methods","False","mono","False","18","no","white","no","yes","768","legacy","59","11","C:/Users/stcka/OneDrive/Sam Docs/Psychology Program/AP Textbooks/Quantitative Methods/SA-subject-2.csv","legacy","6 8 9 3 4 9","Melodramatic Milgram","4.0.5","5","y","0","left","right","right","left","NA","1069.0","6891","5727","1069","NA","2","legacy","6","1024","2","48000","-16","experiment","2","even","4","468285","465058","466082","2183","92322","466084","439357","2187","86594","470287","471357","467084","9079","470286","NA","Sternberg task","67","79601.0","72","1024"
"93","93","1104","1104","#3d3846","experiment","legacy","legacy","legacy","1","undefined","1","left","72","72","72","0","0","72","72","0","0","72","72","72","0","72","0","Tue Oct 17 08:24:31 2023","The main experiment item","False","Sternbergtask.osexp","C:\Users\stcka\OneDrive\Sam Docs\Psychology Program\AP Textbooks\Quantitative Methods","False","mono","False","18","no","white","no","yes","768","legacy","60","11","C:/Users/stcka/OneDrive/Sam Docs/Psychology Program/AP Textbooks/Quantitative Methods/SA-subject-2.csv","legacy","1 4 9 3 2 5","Melodramatic Milgram","4.0.5","3","y","0","left","right","right","left","NA","1041.0","6891","5727","1041","NA","2","legacy","6","1024","2","48000","-16","experiment","2","even","9","474600","471361","472396","2183","92322","472398","439357","2187","86594","476602","477644","473399","9079","476602","NA","Sternberg task","68","80642.0","73","1024"
"93","93","1100","1100","#3d3846","experiment","legacy","legacy","legacy","1","undefined","1","left","73","73","73","0","0","73","73","0","0","73","73","73","0","73","0","Tue Oct 17 08:24:31 2023","The main experiment item","False","Sternbergtask.osexp","C:\Users\stcka\OneDrive\Sam Docs\Psychology Program\AP Textbooks\Quantitative Methods","False","mono","False","18","no","white","no","yes","768","legacy","61","11","C:/Users/stcka/OneDrive/Sam Docs/Psychology Program/AP Textbooks/Quantitative Methods/SA-subject-2.csv","legacy","7 8 4 6 9 5","Melodramatic Milgram","4.0.5","4","y","0","left","right","right","left","NA","802.0","6891","5727","802","NA","2","legacy","6","1024","2","48000","-16","experiment","2","even","6","480887","477649","478684","2183","92322","478685","439357","2187","86594","482888","483691","479686","9079","482888","NA","Sternberg task","69","81444.0","74","1024"
"93","93","1091","1091","#3d3846","experiment","legacy","legacy","legacy","1","undefined","1","left","74","74","74","0","0","74","74","0","0","74","74","74","0","74","0","Tue Oct 17 08:24:31 2023","The main experiment item","False","Sternbergtask.osexp","C:\Users\stcka\OneDrive\Sam Docs\Psychology Program\AP Textbooks\Quantitative Methods","False","mono","False","18","no","white","no","yes","768","legacy","62","11","C:/Users/stcka/OneDrive/Sam Docs/Psychology Program/AP Textbooks/Quantitative Methods/SA-subject-2.csv","legacy","6 2","Melodramatic Milgram","4.0.5","1","y","0","left","right","right","left","NA","403.0","6891","5727","403","NA","2","legacy","2","1024","2","48000","-16","experiment","2","even","6","486933","483696","484730","2183","92322","484730","439357","2187","86594","488934","489337","485732","9079","488934","NA","Sternberg task","70","81847.0","75","1024"
"93","93","1084","1084","#3d3846","experiment","legacy","legacy","legacy","1","undefined","1","left","75","75","75","0","0","75","75","0","0","75","75","75","0","75","0","Tue Oct 17 08:24:31 2023","The main experiment item","False","Sternbergtask.osexp","C:\Users\stcka\OneDrive\Sam Docs\Psychology Program\AP Textbooks\Quantitative Methods","False","mono","False","18","no","white","no","yes","768","legacy","63","11","C:/Users/stcka/OneDrive/Sam Docs/Psychology Program/AP Textbooks/Quantitative Methods/SA-subject-2.csv","legacy","4 3 2 5 8","Melodramatic Milgram","4.0.5","2","y","0","left","right","right","left","NA","570.0","6891","5727","570","NA","2","legacy","5","1024","2","48000","-16","experiment","2","even","3","492587","489343","490384","2183","92322","490385","439357","2187","86594","494589","495160","491386","9079","494588","NA","Sternberg task","71","82417.0","76","1024"
"93","93","1079","1079","#3d3846","experiment","legacy","legacy","legacy","1","undefined","1","right","76","76","76","0","0","76","76","0","0","76","76","76","0","76","0","Tue Oct 17 08:24:31 2023","The main experiment item","False","Sternbergtask.osexp","C:\Users\stcka\OneDrive\Sam Docs\Psychology Program\AP Textbooks\Quantitative Methods","False","mono","False","18","no","white","no","yes","768","legacy","64","11","C:/Users/stcka/OneDrive/Sam Docs/Psychology Program/AP Textbooks/Quantitative Methods/SA-subject-2.csv","legacy","7 9","Melodramatic Milgram","4.0.5","0","n","0","right","right","right","right","NA","705.0","6891","5727","705","NA","2","legacy","2","1024","2","48000","-16","experiment","2","even","1","498410","495164","496206","2183","92322","496207","439357","2187","86594","500412","501118","497209","9079","500411","NA","Sternberg task","72","83122.0","77","1024"
"93","93","1074","1074","#3d3846","experiment","legacy","legacy","legacy","1","undefined","1","right","77","77","77","0","0","77","77","0","0","77","77","77","0","77","0","Tue Oct 17 08:24:31 2023","The main experiment item","False","Sternbergtask.osexp","C:\Users\stcka\OneDrive\Sam Docs\Psychology Program\AP Textbooks\Quantitative Methods","False","mono","False","18","no","white","no","yes","768","legacy","65","11","C:/Users/stcka/OneDrive/Sam Docs/Psychology Program/AP Textbooks/Quantitative Methods/SA-subject-2.csv","legacy","2 6 4 3 9","Melodramatic Milgram","4.0.5","0","n","0","right","right","right","right","NA","656.0","6891","5727","656","NA","2","legacy","5","1024","2","48000","-16","experiment","2","even","1","504360","501123","502158","2183","92322","502159","439357","2187","86594","506361","507019","503160","9079","506360","NA","Sternberg task","73","83778.0","78","1024"
"93","93","1068","1068","#3d3846","experiment","legacy","legacy","legacy","1","undefined","1","left","78","78","78","0","0","78","78","0","0","78","78","78","0","78","0","Tue Oct 17 08:24:31 2023","The main experiment item","False","Sternbergtask.osexp","C:\Users\stcka\OneDrive\Sam Docs\Psychology Program\AP Textbooks\Quantitative Methods","False","mono","False","18","no","white","no","yes","768","legacy","66","11","C:/Users/stcka/OneDrive/Sam Docs/Psychology Program/AP Textbooks/Quantitative Methods/SA-subject-2.csv","legacy","3 5 9 6 2 4","Melodramatic Milgram","4.0.5","1","y","0","left","right","right","left","NA","633.0","6891","5727","633","NA","2","legacy","6","1024","2","48000","-16","experiment","2","even","3","510254","507025","508051","2183","92322","508052","439357","2187","86594","512256","512890","509053","9079","512256","NA","Sternberg task","74","84411.0","79","1024"
"93","93","1071","1071","#3d3846","experiment","legacy","legacy","legacy","1","undefined","1","right","79","79","79","0","0","79","79","0","0","79","79","79","0","79","0","Tue Oct 17 08:24:31 2023","The main experiment item","False","Sternbergtask.osexp","C:\Users\stcka\OneDrive\Sam Docs\Psychology Program\AP Textbooks\Quantitative Methods","False","mono","False","18","no","white","no","yes","768","legacy","67","11","C:/Users/stcka/OneDrive/Sam Docs/Psychology Program/AP Textbooks/Quantitative Methods/SA-subject-2.csv","legacy","8 4 3 5","Melodramatic Milgram","4.0.5","0","n","0","right","right","right","right","NA","1316.0","6891","5727","1316","NA","2","legacy","4","1024","2","48000","-16","experiment","2","even","6","516130","512895","513927","2183","92322","513928","439357","2187","86594","518132","519449","514929","9079","518132","NA","Sternberg task","75","85727.0","80","1024"
"93","93","1068","1068","#3d3846","experiment","legacy","legacy","legacy","1","undefined","1","right","80","80","80","0","0","80","80","0","0","80","80","80","0","80","0","Tue Oct 17 08:24:31 2023","The main experiment item","False","Sternbergtask.osexp","C:\Users\stcka\OneDrive\Sam Docs\Psychology Program\AP Textbooks\Quantitative Methods","False","mono","False","18","no","white","no","yes","768","legacy","68","11","C:/Users/stcka/OneDrive/Sam Docs/Psychology Program/AP Textbooks/Quantitative Methods/SA-subject-2.csv","legacy","2 7 5","Melodramatic Milgram","4.0.5","0","n","0","right","right","right","right","NA","814.0","6891","5727","814","NA","2","legacy","3","1024","2","48000","-16","experiment","2","even","8","522690","519454","520486","2183","92322","520488","439357","2187","86594","524690","525506","521489","9079","524690","NA","Sternberg task","76","86541.0","81","1024"
"93","93","1062","1062","#3d3846","experiment","legacy","legacy","legacy","1","undefined","1","right","81","81","81","0","0","81","81","0","0","81","81","81","0","81","0","Tue Oct 17 08:24:31 2023","The main experiment item","False","Sternbergtask.osexp","C:\Users\stcka\OneDrive\Sam Docs\Psychology Program\AP Textbooks\Quantitative Methods","False","mono","False","18","no","white","no","yes","768","legacy","69","11","C:/Users/stcka/OneDrive/Sam Docs/Psychology Program/AP Textbooks/Quantitative Methods/SA-subject-2.csv","legacy","4 2 7 6 1 3","Melodramatic Milgram","4.0.5","0","n","0","right","right","right","right","NA","598.0","6891","5727","598","NA","2","legacy","6","1024","2","48000","-16","experiment","2","even","8","528738","525511","526535","2183","92322","526536","439357","2187","86594","530738","531337","527537","9079","530738","NA","Sternberg task","77","87139.0","82","1024"
"93","93","1056","1056","#3d3846","experiment","legacy","legacy","legacy","1","undefined","1","right","82","82","82","0","0","82","82","0","0","82","82","82","0","82","0","Tue Oct 17 08:24:31 2023","The main experiment item","False","Sternbergtask.osexp","C:\Users\stcka\OneDrive\Sam Docs\Psychology Program\AP Textbooks\Quantitative Methods","False","mono","False","18","no","white","no","yes","768","legacy","70","11","C:/Users/stcka/OneDrive/Sam Docs/Psychology Program/AP Textbooks/Quantitative Methods/SA-subject-2.csv","legacy","6 8 4","Melodramatic Milgram","4.0.5","0","n","0","right","right","right","right","NA","542.0","6891","5727","542","NA","2","legacy","3","1024","2","48000","-16","experiment","2","even","1","534580","531341","532377","2183","92322","532378","439357","2187","86594","536582","537126","533379","9079","536582","NA","Sternberg task","78","87681.0","83","1024"
"94","94","1051","1051","#3d3846","experiment","legacy","legacy","legacy","1","undefined","1","right","83","83","83","0","0","83","83","0","0","83","83","83","0","83","0","Tue Oct 17 08:24:31 2023","The main experiment item","False","Sternbergtask.osexp","C:\Users\stcka\OneDrive\Sam Docs\Psychology Program\AP Textbooks\Quantitative Methods","False","mono","False","18","no","white","no","yes","768","legacy","71","11","C:/Users/stcka/OneDrive/Sam Docs/Psychology Program/AP Textbooks/Quantitative Methods/SA-subject-2.csv","legacy","3 9 1","Melodramatic Milgram","4.0.5","0","n","0","right","right","right","right","NA","655.0","6891","5727","655","NA","2","legacy","3","1024","2","48000","-16","experiment","2","even","7","540375","537131","538171","2183","92322","538173","439357","2187","86594","542376","543032","539174","9079","542376","NA","Sternberg task","79","88336.0","84","1024"
"94","94","1052","1052","#3d3846","experiment","legacy","legacy","legacy","1","undefined","1","right","84","84","84","0","0","84","84","0","0","84","84","84","0","84","0","Tue Oct 17 08:24:31 2023","The main experiment item","False","Sternbergtask.osexp","C:\Users\stcka\OneDrive\Sam Docs\Psychology Program\AP Textbooks\Quantitative Methods","False","mono","False","18","no","white","no","yes","768","legacy","72","11","C:/Users/stcka/OneDrive/Sam Docs/Psychology Program/AP Textbooks/Quantitative Methods/SA-subject-2.csv","legacy","3 9 8 1 6 4","Melodramatic Milgram","4.0.5","0","n","0","right","right","right","right","NA","1146.0","6891","5727","1146","NA","2","legacy","6","1024","2","48000","-16","experiment","2","even","7","546276","543037","544073","2183","92322","544074","439357","2187","86594","548277","549425","545075","9079","548277","NA","Sternberg task","80","89482.0","85","1024"
"94","94","1051","1051","#3d3846","experiment","legacy","legacy","legacy","1","undefined","1","left","85","85","85","0","0","85","85","0","0","85","85","85","0","85","0","Tue Oct 17 08:24:31 2023","The main experiment item","False","Sternbergtask.osexp","C:\Users\stcka\OneDrive\Sam Docs\Psychology Program\AP Textbooks\Quantitative Methods","False","mono","False","18","no","white","no","yes","768","legacy","73","11","C:/Users/stcka/OneDrive/Sam Docs/Psychology Program/AP Textbooks/Quantitative Methods/SA-subject-2.csv","legacy","3 9 6 2","Melodramatic Milgram","4.0.5","4","y","0","left","right","right","left","NA","907.0","6891","5727","907","NA","2","legacy","4","1024","2","48000","-16","experiment","2","even","2","552682","549430","550477","2183","92322","550479","439357","2187","86594","554683","555591","551480","9079","554683","NA","Sternberg task","81","90389.0","86","1024"
"94","94","1046","1046","#3d3846","experiment","legacy","legacy","legacy","1","undefined","1","right","86","86","86","0","0","86","86","0","0","86","86","86","0","86","0","Tue Oct 17 08:24:31 2023","The main experiment item","False","Sternbergtask.osexp","C:\Users\stcka\OneDrive\Sam Docs\Psychology Program\AP Textbooks\Quantitative Methods","False","mono","False","18","no","white","no","yes","768","legacy","74","11","C:/Users/stcka/OneDrive/Sam Docs/Psychology Program/AP Textbooks/Quantitative Methods/SA-subject-2.csv","legacy","1 7 5 2","Melodramatic Milgram","4.0.5","0","n","0","right","right","right","right","NA","646.0","6891","5727","646","NA","2","legacy","4","1024","2","48000","-16","experiment","2","even","3","558835","555596","556632","2183","92322","556633","439357","2187","86594","560837","561484","557634","9079","560836","NA","Sternberg task","82","91035.0","87","1024"
"94","94","1040","1040","#3d3846","experiment","legacy","legacy","legacy","1","undefined","1","left","87","87","87","0","0","87","87","0","0","87","87","87","0","87","0","Tue Oct 17 08:24:31 2023","The main experiment item","False","Sternbergtask.osexp","C:\Users\stcka\OneDrive\Sam Docs\Psychology Program\AP Textbooks\Quantitative Methods","False","mono","False","18","no","white","no","yes","768","legacy","75","11","C:/Users/stcka/OneDrive/Sam Docs/Psychology Program/AP Textbooks/Quantitative Methods/SA-subject-2.csv","legacy","6 1 2","Melodramatic Milgram","4.0.5","3","y","0","left","right","right","left","NA","548.0","6891","5727","548","NA","2","legacy","3","1024","2","48000","-16","experiment","2","even","2","564727","561489","562523","2183","92322","562524","439357","2187","86594","566728","567278","563525","9079","566728","NA","Sternberg task","83","91583.0","88","1024"
"94","94","1041","1041","#3d3846","experiment","legacy","legacy","legacy","1","undefined","1","left","88","88","88","0","0","88","88","0","0","88","88","88","0","88","0","Tue Oct 17 08:24:31 2023","The main experiment item","False","Sternbergtask.osexp","C:\Users\stcka\OneDrive\Sam Docs\Psychology Program\AP Textbooks\Quantitative Methods","False","mono","False","18","no","white","no","yes","768","legacy","76","11","C:/Users/stcka/OneDrive/Sam Docs/Psychology Program/AP Textbooks/Quantitative Methods/SA-subject-2.csv","legacy","4 1 8 7 5","Melodramatic Milgram","4.0.5","3","y","0","left","right","right","left","NA","1077.0","6891","5727","1077","NA","2","legacy","5","1024","2","48000","-16","experiment","2","even","8","570521","567284","568318","2183","92322","568319","439357","2187","86594","572522","573600","569320","9079","572522","NA","Sternberg task","84","92660.0","89","1024"
"94","94","1035","1035","#3d3846","experiment","legacy","legacy","legacy","1","undefined","1","left","89","89","89","0","0","89","89","0","0","89","89","89","0","89","0","Tue Oct 17 08:24:31 2023","The main experiment item","False","Sternbergtask.osexp","C:\Users\stcka\OneDrive\Sam Docs\Psychology Program\AP Textbooks\Quantitative Methods","False","mono","False","18","no","white","no","yes","768","legacy","77","11","C:/Users/stcka/OneDrive/Sam Docs/Psychology Program/AP Textbooks/Quantitative Methods/SA-subject-2.csv","legacy","6 9 3 1","Melodramatic Milgram","4.0.5","4","y","0","left","right","right","left","NA","526.0","6891","5727","526","NA","2","legacy","4","1024","2","48000","-16","experiment","2","even","1","576846","573603","574643","2183","92322","574644","439357","2187","86594","578849","579376","575645","9079","578849","NA","Sternberg task","85","93186.0","90","1024"
"93","93","1034","1034","#3d3846","experiment","legacy","legacy","legacy","0","undefined","0","right","90","90","90","0","0","90","90","0","0","90","90","90","0","90","0","Tue Oct 17 08:24:31 2023","The main experiment item","False","Sternbergtask.osexp","C:\Users\stcka\OneDrive\Sam Docs\Psychology Program\AP Textbooks\Quantitative Methods","False","mono","False","18","no","white","no","yes","768","legacy","78","11","C:/Users/stcka/OneDrive/Sam Docs/Psychology Program/AP Textbooks/Quantitative Methods/SA-subject-2.csv","legacy","4 8 1 2","Melodramatic Milgram","4.0.5","0","n","0","left","right","right","left","NA","952.0","6891","5727","952","NA","2","legacy","4","1024","2","48000","-16","experiment","2","even","7","582620","579381","580418","2183","92322","580418","439357","2187","86594","584622","585575","581419","9079","584622","NA","Sternberg task","85","94138.0","91","1024"
"92","92","1036","1036","#3d3846","experiment","legacy","legacy","legacy","0","undefined","0","right","91","91","91","0","0","91","91","0","0","91","91","91","0","91","0","Tue Oct 17 08:24:31 2023","The main experiment item","False","Sternbergtask.osexp","C:\Users\stcka\OneDrive\Sam Docs\Psychology Program\AP Textbooks\Quantitative Methods","False","mono","False","18","no","white","no","yes","768","legacy","79","11","C:/Users/stcka/OneDrive/Sam Docs/Psychology Program/AP Textbooks/Quantitative Methods/SA-subject-2.csv","legacy","7 1 5 6 3","Melodramatic Milgram","4.0.5","0","n","0","left","right","right","left","NA","1204.0","6891","5727","1204","NA","2","legacy","5","1024","2","48000","-16","experiment","2","even","8","588826","579381","586622","2183","92322","586623","585580","2187","86594","590827","592032","587624","9079","590827","NA","Sternberg task","85","95342.0","92","1024"
"92","92","1030","1030","#3d3846","experiment","legacy","legacy","legacy","1","undefined","1","right","92","92","92","0","0","92","92","0","0","92","92","92","0","92","0","Tue Oct 17 08:24:31 2023","The main experiment item","False","Sternbergtask.osexp","C:\Users\stcka\OneDrive\Sam Docs\Psychology Program\AP Textbooks\Quantitative Methods","False","mono","False","18","no","white","no","yes","768","legacy","80","11","C:/Users/stcka/OneDrive/Sam Docs/Psychology Program/AP Textbooks/Quantitative Methods/SA-subject-2.csv","legacy","5 2","Melodramatic Milgram","4.0.5","0","n","0","right","right","right","right","NA","503.0","6891","5727","503","NA","2","legacy","2","1024","2","48000","-16","experiment","2","even","7","595274","579381","593071","2183","92322","593072","592035","2187","86594","597275","597779","594073","9079","597275","NA","Sternberg task","86","95845.0","93","1024"
"92","92","1031","1031","#3d3846","experiment","legacy","legacy","legacy","1","undefined","1","left","93","93","93","0","0","93","93","0","0","93","93","93","0","93","0","Tue Oct 17 08:24:31 2023","The main experiment item","False","Sternbergtask.osexp","C:\Users\stcka\OneDrive\Sam Docs\Psychology Program\AP Textbooks\Quantitative Methods","False","mono","False","18","no","white","no","yes","768","legacy","81","11","C:/Users/stcka/OneDrive/Sam Docs/Psychology Program/AP Textbooks/Quantitative Methods/SA-subject-2.csv","legacy","8 5 4 7 3 1","Melodramatic Milgram","4.0.5","2","y","0","left","right","right","left","NA","1082.0","6891","5727","1082","NA","2","legacy","6","1024","2","48000","-16","experiment","2","even","5","601020","597782","598817","2183","92322","598818","592035","2187","86594","603022","604106","599819","9079","603022","NA","Sternberg task","87","96927.0","94","1024"
"92","92","1028","1028","#3d3846","experiment","legacy","legacy","legacy","1","undefined","1","left","94","94","94","0","0","94","94","0","0","94","94","94","0","94","0","Tue Oct 17 08:24:31 2023","The main experiment item","False","Sternbergtask.osexp","C:\Users\stcka\OneDrive\Sam Docs\Psychology Program\AP Textbooks\Quantitative Methods","False","mono","False","18","no","white","no","yes","768","legacy","82","11","C:/Users/stcka/OneDrive/Sam Docs/Psychology Program/AP Textbooks/Quantitative Methods/SA-subject-2.csv","legacy","3 4","Melodramatic Milgram","4.0.5","1","y","0","left","right","right","left","NA","734.0","6891","5727","734","NA","2","legacy","2","1024","2","48000","-16","experiment","2","even","3","607360","604111","605156","2183","92322","605157","592035","2187","86594","609362","610097","606158","9079","609361","NA","Sternberg task","88","97661.0","95","1024"
"92","92","1024","1024","#3d3846","experiment","legacy","legacy","legacy","1","undefined","1","right","95","95","95","0","0","95","95","0","0","95","95","95","0","95","0","Tue Oct 17 08:24:31 2023","The main experiment item","False","Sternbergtask.osexp","C:\Users\stcka\OneDrive\Sam Docs\Psychology Program\AP Textbooks\Quantitative Methods","False","mono","False","18","no","white","no","yes","768","legacy","83","11","C:/Users/stcka/OneDrive/Sam Docs/Psychology Program/AP Textbooks/Quantitative Methods/SA-subject-2.csv","legacy","1 5 3 2 8","Melodramatic Milgram","4.0.5","0","n","0","right","right","right","right","NA","717.0","6891","5727","717","NA","2","legacy","5","1024","2","48000","-16","experiment","2","even","4","613340","610102","611138","2183","92322","611138","592035","2187","86594","615342","616060","612139","9079","615342","NA","Sternberg task","89","98378.0","96","1024"
"92","92","1020","1020","#3d3846","experiment","legacy","legacy","legacy","1","undefined","1","right","96","96","96","0","0","96","96","0","0","96","96","96","0","96","0","Tue Oct 17 08:24:31 2023","The main experiment item","False","Sternbergtask.osexp","C:\Users\stcka\OneDrive\Sam Docs\Psychology Program\AP Textbooks\Quantitative Methods","False","mono","False","18","no","white","no","yes","768","legacy","84","11","C:/Users/stcka/OneDrive/Sam Docs/Psychology Program/AP Textbooks/Quantitative Methods/SA-subject-2.csv","legacy","5 7 3","Melodramatic Milgram","4.0.5","0","n","0","right","right","right","right","NA","563.0","6891","5727","563","NA","2","legacy","3","1024","2","48000","-16","experiment","2","even","9","619304","616066","617102","2183","92322","617102","592035","2187","86594","621307","621871","618103","9079","621307","NA","Sternberg task","90","98941.0","97","1024"
"92","92","1014","1014","#3d3846","experiment","legacy","legacy","legacy","1","undefined","1","left","97","97","97","0","0","97","97","0","0","97","97","97","0","97","0","Tue Oct 17 08:24:31 2023","The main experiment item","False","Sternbergtask.osexp","C:\Users\stcka\OneDrive\Sam Docs\Psychology Program\AP Textbooks\Quantitative Methods","False","mono","False","18","no","white","no","yes","768","legacy","85","11","C:/Users/stcka/OneDrive/Sam Docs/Psychology Program/AP Textbooks/Quantitative Methods/SA-subject-2.csv","legacy","2 4 6 9","Melodramatic Milgram","4.0.5","3","y","0","left","right","right","left","NA","521.0","6891","5727","521","NA","2","legacy","4","1024","2","48000","-16","experiment","2","even","6","625117","621876","622913","2183","92322","622915","592035","2187","86594","627119","627641","623916","9079","627119","NA","Sternberg task","91","99462.0","98","1024"
"92","92","1014","1014","#3d3846","experiment","legacy","legacy","legacy","1","undefined","1","left","98","98","98","0","0","98","98","0","0","98","98","98","0","98","0","Tue Oct 17 08:24:31 2023","The main experiment item","False","Sternbergtask.osexp","C:\Users\stcka\OneDrive\Sam Docs\Psychology Program\AP Textbooks\Quantitative Methods","False","mono","False","18","no","white","no","yes","768","legacy","86","11","C:/Users/stcka/OneDrive/Sam Docs/Psychology Program/AP Textbooks/Quantitative Methods/SA-subject-2.csv","legacy","4 7 6 8 2 3","Melodramatic Milgram","4.0.5","6","y","0","left","right","right","left","NA","956.0","6891","5727","956","NA","2","legacy","6","1024","2","48000","-16","experiment","2","even","3","630893","627646","628688","2183","92322","628690","592035","2187","86594","632896","633853","629692","9079","632895","NA","Sternberg task","92","100418.0","99","1024"
"93","93","1015","1015","#3d3846","experiment","legacy","legacy","legacy","1","undefined","1","right","99","99","99","0","0","99","99","0","0","99","99","99","0","99","0","Tue Oct 17 08:24:31 2023","The main experiment item","False","Sternbergtask.osexp","C:\Users\stcka\OneDrive\Sam Docs\Psychology Program\AP Textbooks\Quantitative Methods","False","mono","False","18","no","white","no","yes","768","legacy","87","11","C:/Users/stcka/OneDrive/Sam Docs/Psychology Program/AP Textbooks/Quantitative Methods/SA-subject-2.csv","legacy","7 1","Melodramatic Milgram","4.0.5","0","n","0","right","right","right","right","NA","1112.0","6891","5727","1112","NA","2","legacy","2","1024","2","48000","-16","experiment","2","even","8","637089","633858","634885","2183","92322","634887","592035","2187","86594","639090","640203","635888","9079","639090","NA","Sternberg task","93","101530.0","100","1024"
"93","93","1012","1012","#3d3846","experiment","legacy","legacy","legacy","1","undefined","1","right","100","100","100","0","0","100","100","0","0","100","100","100","0","100","0","Tue Oct 17 08:24:31 2023","The main experiment item","False","Sternbergtask.osexp","C:\Users\stcka\OneDrive\Sam Docs\Psychology Program\AP Textbooks\Quantitative Methods","False","mono","False","18","no","white","no","yes","768","legacy","88","11","C:/Users/stcka/OneDrive/Sam Docs/Psychology Program/AP Textbooks/Quantitative Methods/SA-subject-2.csv","legacy","6 9 4 5 3 2","Melodramatic Milgram","4.0.5","0","n","0","right","right","right","right","NA","685.0","6891","5727","685","NA","2","legacy","6","1024","2","48000","-16","experiment","2","even","8","643456","640207","641254","2183","92322","641255","592035","2187","86594","645457","646143","642255","9079","645456","NA","Sternberg task","94","102215.0","101","1024"
"93","93","1008","1008","#3d3846","experiment","legacy","legacy","legacy","1","undefined","1","left","101","101","101","0","0","101","101","0","0","101","101","101","0","101","0","Tue Oct 17 08:24:31 2023","The main experiment item","False","Sternbergtask.osexp","C:\Users\stcka\OneDrive\Sam Docs\Psychology Program\AP Textbooks\Quantitative Methods","False","mono","False","18","no","white","no","yes","768","legacy","89","11","C:/Users/stcka/OneDrive/Sam Docs/Psychology Program/AP Textbooks/Quantitative Methods/SA-subject-2.csv","legacy","3 2 1 4 7","Melodramatic Milgram","4.0.5","2","y","0","left","right","right","left","NA","627.0","6891","5727","627","NA","2","legacy","5","1024","2","48000","-16","experiment","2","even","2","649379","646147","647175","2183","92322","647177","592035","2187","86594","651380","652008","648178","9079","651380","NA","Sternberg task","95","102842.0","102","1024"
"92","92","1005","1005","#3d3846","experiment","legacy","legacy","legacy","0","undefined","0","right","102","102","102","0","0","102","102","0","0","102","102","102","0","102","0","Tue Oct 17 08:24:31 2023","The main experiment item","False","Sternbergtask.osexp","C:\Users\stcka\OneDrive\Sam Docs\Psychology Program\AP Textbooks\Quantitative Methods","False","mono","False","18","no","white","no","yes","768","legacy","90","11","C:/Users/stcka/OneDrive/Sam Docs/Psychology Program/AP Textbooks/Quantitative Methods/SA-subject-2.csv","legacy","1 4 3 6 5","Melodramatic Milgram","4.0.5","0","n","0","left","right","right","left","NA","688.0","6891","5727","688","NA","2","legacy","5","1024","2","48000","-16","experiment","2","even","8","655253","652013","653049","2183","92322","653050","592035","2187","86594","657255","657945","654051","9079","657254","NA","Sternberg task","95","103530.0","103","1024"
"92","92","999","999","#3d3846","experiment","legacy","legacy","legacy","1","undefined","1","left","103","103","103","0","0","103","103","0","0","103","103","103","0","103","0","Tue Oct 17 08:24:31 2023","The main experiment item","False","Sternbergtask.osexp","C:\Users\stcka\OneDrive\Sam Docs\Psychology Program\AP Textbooks\Quantitative Methods","False","mono","False","18","no","white","no","yes","768","legacy","91","11","C:/Users/stcka/OneDrive/Sam Docs/Psychology Program/AP Textbooks/Quantitative Methods/SA-subject-2.csv","legacy","8","Melodramatic Milgram","4.0.5","1","y","0","left","right","right","left","NA","411.0","6891","5727","411","NA","2","legacy","1","1024","2","48000","-16","experiment","2","even","8","661191","652013","658987","2183","92322","658988","657950","2187","86594","663193","663605","659989","9079","663193","NA","Sternberg task","96","103941.0","104","1024"
"92","92","994","994","#3d3846","experiment","legacy","legacy","legacy","1","undefined","1","left","104","104","104","0","0","104","104","0","0","104","104","104","0","104","0","Tue Oct 17 08:24:31 2023","The main experiment item","False","Sternbergtask.osexp","C:\Users\stcka\OneDrive\Sam Docs\Psychology Program\AP Textbooks\Quantitative Methods","False","mono","False","18","no","white","no","yes","768","legacy","92","11","C:/Users/stcka/OneDrive/Sam Docs/Psychology Program/AP Textbooks/Quantitative Methods/SA-subject-2.csv","legacy","3 5 7 1","Melodramatic Milgram","4.0.5","3","y","0","left","right","right","left","NA","476.0","6891","5727","476","NA","2","legacy","4","1024","2","48000","-16","experiment","2","even","7","666849","663610","664646","2183","92322","664647","657950","2187","86594","668851","669327","665648","9079","668850","NA","Sternberg task","97","104417.0","105","1024"
"92","92","990","990","#3d3846","experiment","legacy","legacy","legacy","1","undefined","1","left","105","105","105","0","0","105","105","0","0","105","105","105","0","105","0","Tue Oct 17 08:24:31 2023","The main experiment item","False","Sternbergtask.osexp","C:\Users\stcka\OneDrive\Sam Docs\Psychology Program\AP Textbooks\Quantitative Methods","False","mono","False","18","no","white","no","yes","768","legacy","93","11","C:/Users/stcka/OneDrive/Sam Docs/Psychology Program/AP Textbooks/Quantitative Methods/SA-subject-2.csv","legacy","9 1 7 2","Melodramatic Milgram","4.0.5","2","y","0","left","right","right","left","NA","535.0","6891","5727","535","NA","2","legacy","4","1024","2","48000","-16","experiment","2","even","1","672576","669332","670373","2183","92322","670374","657950","2187","86594","674578","675117","671375","9079","674578","NA","Sternberg task","98","104952.0","106","1024"
"92","92","985","985","#3d3846","experiment","legacy","legacy","legacy","1","undefined","1","left","106","106","106","0","0","106","106","0","0","106","106","106","0","106","0","Tue Oct 17 08:24:31 2023","The main experiment item","False","Sternbergtask.osexp","C:\Users\stcka\OneDrive\Sam Docs\Psychology Program\AP Textbooks\Quantitative Methods","False","mono","False","18","no","white","no","yes","768","legacy","94","11","C:/Users/stcka/OneDrive/Sam Docs/Psychology Program/AP Textbooks/Quantitative Methods/SA-subject-2.csv","legacy","6 5","Melodramatic Milgram","4.0.5","2","y","0","left","right","right","left","NA","454.0","6891","5727","454","NA","2","legacy","2","1024","2","48000","-16","experiment","2","even","5","678368","675123","676165","2183","92322","676166","657950","2187","86594","680370","680825","677167","9079","680370","NA","Sternberg task","99","105406.0","107","1024"
"92","92","980","980","#3d3846","experiment","legacy","legacy","legacy","1","undefined","1","right","107","107","107","0","0","107","107","0","0","107","107","107","0","107","0","Tue Oct 17 08:24:31 2023","The main experiment item","False","Sternbergtask.osexp","C:\Users\stcka\OneDrive\Sam Docs\Psychology Program\AP Textbooks\Quantitative Methods","False","mono","False","18","no","white","no","yes","768","legacy","95","11","C:/Users/stcka/OneDrive/Sam Docs/Psychology Program/AP Textbooks/Quantitative Methods/SA-subject-2.csv","legacy","5","Melodramatic Milgram","4.0.5","0","n","0","right","right","right","right","NA","507.0","6891","5727","507","NA","2","legacy","1","1024","2","48000","-16","experiment","2","even","8","684069","680830","681866","2183","92322","681867","657950","2187","86594","686071","686580","682868","9079","686070","NA","Sternberg task","100","105913.0","108","1024"
"91","91","990","990","#3d3846","experiment","legacy","legacy","legacy","0","undefined","0","left","108","108","108","0","0","108","108","0","0","108","108","108","0","108","0","Tue Oct 17 08:24:31 2023","The main experiment item","False","Sternbergtask.osexp","C:\Users\stcka\OneDrive\Sam Docs\Psychology Program\AP Textbooks\Quantitative Methods","False","mono","False","18","no","white","no","yes","768","legacy","96","11","C:/Users/stcka/OneDrive/Sam Docs/Psychology Program/AP Textbooks/Quantitative Methods/SA-subject-2.csv","legacy","7 4 2 6 3 5","Melodramatic Milgram","4.0.5","6","y","0","None","right","right","None","NA","2001.0","6891","5727","2001","NA","2","legacy","6","1024","2","48000","-16","experiment","2","even","5","689825","686585","687621","2183","92322","687622","657950","2187","86594","691826","693827","688623","9079","691826","NA","Sternberg task","100","107914.0","109","1024"
"91","91","997","997","#3d3846","experiment","legacy","legacy","legacy","1","undefined","1","right","109","109","109","0","0","109","109","0","0","109","109","109","0","109","0","Tue Oct 17 08:24:31 2023","The main experiment item","False","Sternbergtask.osexp","C:\Users\stcka\OneDrive\Sam Docs\Psychology Program\AP Textbooks\Quantitative Methods","False","mono","False","18","no","white","no","yes","768","legacy","97","11","C:/Users/stcka/OneDrive/Sam Docs/Psychology Program/AP Textbooks/Quantitative Methods/SA-subject-2.csv","legacy","2 8 7 9 5 3","Melodramatic Milgram","4.0.5","0","n","0","right","right","right","right","NA","1803.0","6891","5727","1803","NA","2","legacy","6","1024","2","48000","-16","experiment","2","even","6","697058","686585","694855","2183","92322","694856","693832","2187","86594","699061","700865","695857","9079","699061","NA","Sternberg task","101","109717.0","110","1024"
