"acc","accuracy","average_response_time","avg_rt","background","block","canvas_backend","clock_backend","color_backend","correct","correct_instruction1","correct_keyboard_response","correct_response","count_ISI","count_correctFeedback","count_expSequence","count_experiment","count_experimentLoop","count_fixation","count_incorrectFeedback","count_instruction1","count_instructions2","count_keyboard_response","count_logger","count_memorySet","count_practiceLoop","count_probe","count_thankYou","datetime","description","disable_garbage_collection","experiment_file","experiment_path","font_bold","font_family","font_italic","font_size","font_underline","foreground","form_clicks","fullscreen","height","keyboard_backend","live_row","live_row_practiceLoop","logfile","mouse_backend","numberSet","opensesame_codename","opensesame_version","posInSet","present","repeat_cycle","response","response_instruction1","response_instructions2","response_keyboard_response","response_thankYou","response_time","response_time_instruction1","response_time_instructions2","response_time_keyboard_response","response_time_thankYou","round_decimals","sampler_backend","setSize","sound_buf_size","sound_channels","sound_freq","sound_sample_size","start","subject_nr","subject_parity","target","time_ISI","time_correctFeedback","time_expSequence","time_experiment","time_experimentLoop","time_fixation","time_incorrectFeedback","time_instruction1","time_instructions2","time_keyboard_response","time_logger","time_memorySet","time_practiceLoop","time_probe","time_thankYou","title","total_correct","total_response_time","total_responses","width"
"0","0","2000","2000","#000000","practice","legacy","legacy","legacy","0","undefined","0","left","0","0","0","0","0","0","0","0","0","0","0","0","0","0","0","Tue Oct 17 15:27:20 2023","The main experiment item","False","SternbergTask.osexp","C:\Users\Simone\Desktop","False","mono","False","18","no","white","no","yes","768","legacy","0","0","C:/Users/Simone/Documents/SD-subject-3.csv","legacy","4 3 1 7 9 8","Melodramatic Milgram","4.0.5","1","y","0","None","left","NA","None","NA","2000.0","11444","NA","2000","NA","2","legacy","6","1024","2","48000","-16","experiment","3","odd","4","15674","NA","13470","1725","NA","13471","NA","1732","NA","17675","19675","14472","13177","17675","NA","Sternberg Task","0","2000.0","1","1024"
"50","50","1279","1279","#000000","practice","legacy","legacy","legacy","1","undefined","1","right","1","1","1","0","0","1","1","0","0","1","1","1","0","1","0","Tue Oct 17 15:27:20 2023","The main experiment item","False","SternbergTask.osexp","C:\Users\Simone\Desktop","False","mono","False","18","no","white","no","yes","768","legacy","1","1","C:/Users/Simone/Documents/SD-subject-3.csv","legacy","3 1 9 4","Melodramatic Milgram","4.0.5","0","n","0","right","left","NA","right","NA","559.0","11444","NA","559","NA","2","legacy","4","1024","2","48000","-16","experiment","3","odd","6","22959","NA","20755","1725","NA","20756","19704","1732","NA","24960","25519","21757","13177","24960","NA","Sternberg Task","1","2559.0","2","1024"
"66","66","1013","1013","#000000","practice","legacy","legacy","legacy","1","undefined","1","left","2","2","2","0","0","2","2","0","0","2","2","2","0","2","0","Tue Oct 17 15:27:20 2023","The main experiment item","False","SternbergTask.osexp","C:\Users\Simone\Desktop","False","mono","False","18","no","white","no","yes","768","legacy","2","2","C:/Users/Simone/Documents/SD-subject-3.csv","legacy","4 8","Melodramatic Milgram","4.0.5","1","y","0","left","left","NA","left","NA","482.0","11444","NA","482","NA","2","legacy","2","1024","2","48000","-16","experiment","3","odd","4","28761","25524","26558","1725","NA","26559","19704","1732","NA","30762","31244","27560","13177","30762","NA","Sternberg Task","2","3041.0","3","1024"
"75","75","941","941","#000000","practice","legacy","legacy","legacy","1","undefined","1","right","3","3","3","0","0","3","3","0","0","3","3","3","0","3","0","Tue Oct 17 15:27:20 2023","The main experiment item","False","SternbergTask.osexp","C:\Users\Simone\Desktop","False","mono","False","18","no","white","no","yes","768","legacy","3","3","C:/Users/Simone/Documents/SD-subject-3.csv","legacy","5","Melodramatic Milgram","4.0.5","0","n","0","right","left","NA","right","NA","723.0","11444","NA","723","NA","2","legacy","1","1024","2","48000","-16","experiment","3","odd","3","34488","31248","32284","1725","NA","32285","19704","1732","NA","36490","37214","33287","13177","36489","NA","Sternberg Task","3","3764.0","4","1024"
"60","60","911","911","#000000","practice","legacy","legacy","legacy","0","undefined","0","left","4","4","4","0","0","4","4","0","0","4","4","4","0","4","0","Tue Oct 17 15:27:20 2023","The main experiment item","False","SternbergTask.osexp","C:\Users\Simone\Desktop","False","mono","False","18","no","white","no","yes","768","legacy","4","4","C:/Users/Simone/Documents/SD-subject-3.csv","legacy","1 7 9 8 5","Melodramatic Milgram","4.0.5","4","y","0","right","left","NA","right","NA","795.0","11444","NA","795","NA","2","legacy","5","1024","2","48000","-16","experiment","3","odd","8","40482","37216","38279","1725","NA","38280","19704","1732","NA","42486","43282","39281","13177","42486","NA","Sternberg Task","3","4559.0","5","1024"
"66","66","822","822","#000000","practice","legacy","legacy","legacy","1","undefined","1","left","5","5","5","0","0","5","5","0","0","5","5","5","0","5","0","Tue Oct 17 15:27:20 2023","The main experiment item","False","SternbergTask.osexp","C:\Users\Simone\Desktop","False","mono","False","18","no","white","no","yes","768","legacy","5","5","C:/Users/Simone/Documents/SD-subject-3.csv","legacy","6","Melodramatic Milgram","4.0.5","1","y","0","left","left","NA","left","NA","378.0","11444","NA","378","NA","2","legacy","1","1024","2","48000","-16","experiment","3","odd","6","46543","37216","44339","1725","NA","44341","43286","1732","NA","48544","48922","45342","13177","48544","NA","Sternberg Task","4","4937.0","6","1024"
"71","71","804","804","#000000","practice","legacy","legacy","legacy","1","undefined","1","left","6","6","6","0","0","6","6","0","0","6","6","6","0","6","0","Tue Oct 17 15:27:20 2023","The main experiment item","False","SternbergTask.osexp","C:\Users\Simone\Desktop","False","mono","False","18","no","white","no","yes","768","legacy","6","6","C:/Users/Simone/Documents/SD-subject-3.csv","legacy","2 9 4","Melodramatic Milgram","4.0.5","3","y","0","left","left","NA","left","NA","694.0","11444","NA","694","NA","2","legacy","3","1024","2","48000","-16","experiment","3","odd","4","52165","48926","49960","1725","NA","49962","43286","1732","NA","54167","54862","50964","13177","54167","NA","Sternberg Task","5","5631.0","7","1024"
"75","75","796","796","#000000","practice","legacy","legacy","legacy","1","undefined","1","right","7","7","7","0","0","7","7","0","0","7","7","7","0","7","0","Tue Oct 17 15:27:20 2023","The main experiment item","False","SternbergTask.osexp","C:\Users\Simone\Desktop","False","mono","False","18","no","white","no","yes","768","legacy","7","7","C:/Users/Simone/Documents/SD-subject-3.csv","legacy","2 1","Melodramatic Milgram","4.0.5","0","n","0","right","left","NA","right","NA","743.0","11444","NA","743","NA","2","legacy","2","1024","2","48000","-16","experiment","3","odd","5","58114","54866","55910","1725","NA","55912","43286","1732","NA","60115","60859","56913","13177","60115","NA","Sternberg Task","6","6374.0","8","1024"
"77","77","790","790","#000000","practice","legacy","legacy","legacy","1","undefined","1","right","8","8","8","0","0","8","8","0","0","8","8","8","0","8","0","Tue Oct 17 15:27:20 2023","The main experiment item","False","SternbergTask.osexp","C:\Users\Simone\Desktop","False","mono","False","18","no","white","no","yes","768","legacy","8","8","C:/Users/Simone/Documents/SD-subject-3.csv","legacy","9 6 7 4 5","Melodramatic Milgram","4.0.5","0","n","0","right","left","NA","right","NA","741.0","11444","NA","741","NA","2","legacy","5","1024","2","48000","-16","experiment","3","odd","3","64096","60863","61893","1725","NA","61894","43286","1732","NA","66097","66839","62895","13177","66097","NA","Sternberg Task","7","7115.0","9","1024"
"80","80","803","803","#000000","practice","legacy","legacy","legacy","1","undefined","1","right","9","9","9","0","0","9","9","0","0","9","9","9","0","9","0","Tue Oct 17 15:27:20 2023","The main experiment item","False","SternbergTask.osexp","C:\Users\Simone\Desktop","False","mono","False","18","no","white","no","yes","768","legacy","9","9","C:/Users/Simone/Documents/SD-subject-3.csv","legacy","5 7 8 4 1 2","Melodramatic Milgram","4.0.5","0","n","0","right","left","NA","right","NA","920.0","11444","NA","920","NA","2","legacy","6","1024","2","48000","-16","experiment","3","odd","6","70081","66843","67876","1725","NA","67878","43286","1732","NA","72082","73002","68879","13177","72082","NA","Sternberg Task","8","8035.0","10","1024"
"81","81","788","788","#000000","practice","legacy","legacy","legacy","1","undefined","1","right","10","10","10","0","0","10","10","0","0","10","10","10","0","10","0","Tue Oct 17 15:27:20 2023","The main experiment item","False","SternbergTask.osexp","C:\Users\Simone\Desktop","False","mono","False","18","no","white","no","yes","768","legacy","10","10","C:/Users/Simone/Documents/SD-subject-3.csv","legacy","4 1 5","Melodramatic Milgram","4.0.5","0","n","0","right","left","NA","right","NA","639.0","11444","NA","639","NA","2","legacy","3","1024","2","48000","-16","experiment","3","odd","2","76248","73006","74044","1725","NA","74046","43286","1732","NA","78249","78888","75047","13177","78249","NA","Sternberg Task","9","8674.0","11","1024"
"83","83","765","765","#000000","practice","legacy","legacy","legacy","1","undefined","1","left","11","11","11","0","0","11","11","0","0","11","11","11","0","11","0","Tue Oct 17 15:27:20 2023","The main experiment item","False","SternbergTask.osexp","C:\Users\Simone\Desktop","False","mono","False","18","no","white","no","yes","768","legacy","11","11","C:/Users/Simone/Documents/SD-subject-3.csv","legacy","1 5 2 9","Melodramatic Milgram","4.0.5","2","y","0","left","left","NA","left","NA","510.0","11444","NA","510","NA","2","legacy","4","1024","2","48000","-16","experiment","3","odd","5","82135","78892","79931","1725","NA","79933","43286","1732","NA","84138","84649","80934","13177","84137","NA","Sternberg Task","10","9184.0","12","1024"
"84","84","737","737","#000000","experiment","legacy","legacy","legacy","1","undefined","1","left","12","12","12","0","0","12","12","0","0","12","12","12","0","12","0","Tue Oct 17 15:27:20 2023","The main experiment item","False","SternbergTask.osexp","C:\Users\Simone\Desktop","False","mono","False","18","no","white","no","yes","768","legacy","0","11","C:/Users/Simone/Documents/SD-subject-3.csv","legacy","3 5 9 6 2 4","Melodramatic Milgram","4.0.5","1","y","0","left","left","right","left","NA","400.0","11444","1394","400","NA","2","legacy","6","1024","2","48000","-16","experiment","3","odd","3","89347","84653","87144","1725","87049","87145","43286","1732","85655","91348","91749","88146","13177","91348","NA","Sternberg Task","11","9584.0","13","1024"
"85","85","719","719","#000000","experiment","legacy","legacy","legacy","1","undefined","1","left","13","13","13","0","0","13","13","0","0","13","13","13","0","13","0","Tue Oct 17 15:27:20 2023","The main experiment item","False","SternbergTask.osexp","C:\Users\Simone\Desktop","False","mono","False","18","no","white","no","yes","768","legacy","1","11","C:/Users/Simone/Documents/SD-subject-3.csv","legacy","2 4 8 5 1 3","Melodramatic Milgram","4.0.5","1","y","0","left","left","right","left","NA","491.0","11444","1394","491","NA","2","legacy","6","1024","2","48000","-16","experiment","3","odd","2","94986","91753","92781","1725","87049","92783","43286","1732","85655","96987","97478","93785","13177","96987","NA","Sternberg Task","12","10075.0","14","1024"
"86","86","712","712","#000000","experiment","legacy","legacy","legacy","1","undefined","1","right","14","14","14","0","0","14","14","0","0","14","14","14","0","14","0","Tue Oct 17 15:27:20 2023","The main experiment item","False","SternbergTask.osexp","C:\Users\Simone\Desktop","False","mono","False","18","no","white","no","yes","768","legacy","2","11","C:/Users/Simone/Documents/SD-subject-3.csv","legacy","6 2 9 3 8 4","Melodramatic Milgram","4.0.5","0","n","0","right","left","right","right","NA","608.0","11444","1394","608","NA","2","legacy","6","1024","2","48000","-16","experiment","3","odd","1","100716","97483","98513","1725","87049","98514","43286","1732","85655","102717","103325","99515","13177","102717","NA","Sternberg Task","13","10683.0","15","1024"
"87","87","704","704","#000000","experiment","legacy","legacy","legacy","1","undefined","1","right","15","15","15","0","0","15","15","0","0","15","15","15","0","15","0","Tue Oct 17 15:27:20 2023","The main experiment item","False","SternbergTask.osexp","C:\Users\Simone\Desktop","False","mono","False","18","no","white","no","yes","768","legacy","3","11","C:/Users/Simone/Documents/SD-subject-3.csv","legacy","1 6 4 3 9 7","Melodramatic Milgram","4.0.5","0","n","0","right","left","right","right","NA","582.0","11444","1394","582","NA","2","legacy","6","1024","2","48000","-16","experiment","3","odd","8","106566","103330","104360","1725","87049","104362","43286","1732","85655","108567","109150","105364","13177","108567","NA","Sternberg Task","14","11265.0","16","1024"
"88","88","701","701","#000000","experiment","legacy","legacy","legacy","1","undefined","1","right","16","16","16","0","0","16","16","0","0","16","16","16","0","16","0","Tue Oct 17 15:27:20 2023","The main experiment item","False","SternbergTask.osexp","C:\Users\Simone\Desktop","False","mono","False","18","no","white","no","yes","768","legacy","4","11","C:/Users/Simone/Documents/SD-subject-3.csv","legacy","1 7 5 2","Melodramatic Milgram","4.0.5","0","n","0","right","left","right","right","NA","661.0","11444","1394","661","NA","2","legacy","4","1024","2","48000","-16","experiment","3","odd","3","112396","109154","110190","1725","87049","110192","43286","1732","85655","114397","115059","111195","13177","114397","NA","Sternberg Task","15","11926.0","17","1024"
"88","88","689","689","#000000","experiment","legacy","legacy","legacy","1","undefined","1","left","17","17","17","0","0","17","17","0","0","17","17","17","0","17","0","Tue Oct 17 15:27:20 2023","The main experiment item","False","SternbergTask.osexp","C:\Users\Simone\Desktop","False","mono","False","18","no","white","no","yes","768","legacy","5","11","C:/Users/Simone/Documents/SD-subject-3.csv","legacy","9 3 1 2 5","Melodramatic Milgram","4.0.5","4","y","0","left","left","right","left","NA","486.0","11444","1394","486","NA","2","legacy","5","1024","2","48000","-16","experiment","3","odd","2","118303","115064","116099","1725","87049","116100","43286","1732","85655","120304","120791","117101","13177","120304","NA","Sternberg Task","16","12412.0","18","1024"
"89","89","684","684","#000000","experiment","legacy","legacy","legacy","1","undefined","1","right","18","18","18","0","0","18","18","0","0","18","18","18","0","18","0","Tue Oct 17 15:27:20 2023","The main experiment item","False","SternbergTask.osexp","C:\Users\Simone\Desktop","False","mono","False","18","no","white","no","yes","768","legacy","6","11","C:/Users/Simone/Documents/SD-subject-3.csv","legacy","7 9 1 6","Melodramatic Milgram","4.0.5","0","n","0","right","left","right","right","NA","600.0","11444","1394","600","NA","2","legacy","4","1024","2","48000","-16","experiment","3","odd","4","124034","120794","121830","1725","87049","121831","43286","1732","85655","126036","126636","122832","13177","126036","NA","Sternberg Task","17","13012.0","19","1024"
"90","90","679","679","#000000","experiment","legacy","legacy","legacy","1","undefined","1","right","19","19","19","0","0","19","19","0","0","19","19","19","0","19","0","Tue Oct 17 15:27:20 2023","The main experiment item","False","SternbergTask.osexp","C:\Users\Simone\Desktop","False","mono","False","18","no","white","no","yes","768","legacy","7","11","C:/Users/Simone/Documents/SD-subject-3.csv","legacy","6 8","Melodramatic Milgram","4.0.5","0","n","0","right","left","right","right","NA","580.0","11444","1394","580","NA","2","legacy","2","1024","2","48000","-16","experiment","3","odd","9","129873","126640","127669","1725","87049","127670","43286","1732","85655","131874","132455","128671","13177","131874","NA","Sternberg Task","18","13592.0","20","1024"
"90","90","672","672","#000000","experiment","legacy","legacy","legacy","1","undefined","1","left","20","20","20","0","0","20","20","0","0","20","20","20","0","20","0","Tue Oct 17 15:27:20 2023","The main experiment item","False","SternbergTask.osexp","C:\Users\Simone\Desktop","False","mono","False","18","no","white","no","yes","768","legacy","8","11","C:/Users/Simone/Documents/SD-subject-3.csv","legacy","2 3 7 4","Melodramatic Milgram","4.0.5","1","y","0","left","left","right","left","NA","527.0","11444","1394","527","NA","2","legacy","4","1024","2","48000","-16","experiment","3","odd","2","135698","132459","133494","1725","87049","133496","43286","1732","85655","137700","138227","134497","13177","137700","NA","Sternberg Task","19","14119.0","21","1024"
"90","90","674","674","#000000","experiment","legacy","legacy","legacy","1","undefined","1","left","21","21","21","0","0","21","21","0","0","21","21","21","0","21","0","Tue Oct 17 15:27:20 2023","The main experiment item","False","SternbergTask.osexp","C:\Users\Simone\Desktop","False","mono","False","18","no","white","no","yes","768","legacy","9","11","C:/Users/Simone/Documents/SD-subject-3.csv","legacy","8 3","Melodramatic Milgram","4.0.5","2","y","0","left","left","right","left","NA","729.0","11444","1394","729","NA","2","legacy","2","1024","2","48000","-16","experiment","3","odd","3","141473","138232","139268","1725","87049","139269","43286","1732","85655","143474","144203","140270","13177","143474","NA","Sternberg Task","20","14848.0","22","1024"
"91","91","683","683","#000000","experiment","legacy","legacy","legacy","1","undefined","1","right","22","22","22","0","0","22","22","0","0","22","22","22","0","22","0","Tue Oct 17 15:27:20 2023","The main experiment item","False","SternbergTask.osexp","C:\Users\Simone\Desktop","False","mono","False","18","no","white","no","yes","768","legacy","10","11","C:/Users/Simone/Documents/SD-subject-3.csv","legacy","7 3 2 8","Melodramatic Milgram","4.0.5","0","n","0","right","left","right","right","NA","874.0","11444","1394","874","NA","2","legacy","4","1024","2","48000","-16","experiment","3","odd","4","147440","144207","145236","1725","87049","145237","43286","1732","85655","149441","150316","146238","13177","149441","NA","Sternberg Task","21","15722.0","23","1024"
"91","91","688","688","#000000","experiment","legacy","legacy","legacy","1","undefined","1","left","23","23","23","0","0","23","23","0","0","23","23","23","0","23","0","Tue Oct 17 15:27:20 2023","The main experiment item","False","SternbergTask.osexp","C:\Users\Simone\Desktop","False","mono","False","18","no","white","no","yes","768","legacy","11","11","C:/Users/Simone/Documents/SD-subject-3.csv","legacy","1 4 9 3 2 5","Melodramatic Milgram","4.0.5","3","y","0","left","left","right","left","NA","809.0","11444","1394","809","NA","2","legacy","6","1024","2","48000","-16","experiment","3","odd","9","153566","150320","151360","1725","87049","151362","43286","1732","85655","155568","156378","152365","13177","155568","NA","Sternberg Task","22","16531.0","24","1024"
"92","92","684","684","#000000","experiment","legacy","legacy","legacy","1","undefined","1","right","24","24","24","0","0","24","24","0","0","24","24","24","0","24","0","Tue Oct 17 15:27:20 2023","The main experiment item","False","SternbergTask.osexp","C:\Users\Simone\Desktop","False","mono","False","18","no","white","no","yes","768","legacy","12","11","C:/Users/Simone/Documents/SD-subject-3.csv","legacy","8 6 3 4 7","Melodramatic Milgram","4.0.5","0","n","0","right","left","right","right","NA","573.0","11444","1394","573","NA","2","legacy","5","1024","2","48000","-16","experiment","3","odd","1","159622","156382","157417","1725","87049","157419","43286","1732","85655","161623","162196","158420","13177","161623","NA","Sternberg Task","23","17104.0","25","1024"
"92","92","685","685","#000000","experiment","legacy","legacy","legacy","1","undefined","1","right","25","25","25","0","0","25","25","0","0","25","25","25","0","25","0","Tue Oct 17 15:27:20 2023","The main experiment item","False","SternbergTask.osexp","C:\Users\Simone\Desktop","False","mono","False","18","no","white","no","yes","768","legacy","13","11","C:/Users/Simone/Documents/SD-subject-3.csv","legacy","1 7 8 3 9","Melodramatic Milgram","4.0.5","0","n","0","right","left","right","right","NA","715.0","11444","1394","715","NA","2","legacy","5","1024","2","48000","-16","experiment","3","odd","2","165436","162200","163233","1725","87049","163234","43286","1732","85655","167438","168154","164235","13177","167438","NA","Sternberg Task","24","17819.0","26","1024"
"92","92","687","687","#000000","experiment","legacy","legacy","legacy","1","undefined","1","right","26","26","26","0","0","26","26","0","0","26","26","26","0","26","0","Tue Oct 17 15:27:20 2023","The main experiment item","False","SternbergTask.osexp","C:\Users\Simone\Desktop","False","mono","False","18","no","white","no","yes","768","legacy","14","11","C:/Users/Simone/Documents/SD-subject-3.csv","legacy","6 9 5","Melodramatic Milgram","4.0.5","0","n","0","right","left","right","right","NA","736.0","11444","1394","736","NA","2","legacy","3","1024","2","48000","-16","experiment","3","odd","8","171406","168159","169203","1725","87049","169204","43286","1732","85655","173407","174143","170205","13177","173407","NA","Sternberg Task","25","18555.0","27","1024"
"92","92","683","683","#000000","experiment","legacy","legacy","legacy","1","undefined","1","right","27","27","27","0","0","27","27","0","0","27","27","27","0","27","0","Tue Oct 17 15:27:20 2023","The main experiment item","False","SternbergTask.osexp","C:\Users\Simone\Desktop","False","mono","False","18","no","white","no","yes","768","legacy","15","11","C:/Users/Simone/Documents/SD-subject-3.csv","legacy","3 4 9 6 7 8","Melodramatic Milgram","4.0.5","0","n","0","right","left","right","right","NA","588.0","11444","1394","588","NA","2","legacy","6","1024","2","48000","-16","experiment","3","odd","2","177381","174146","175177","1725","87049","175178","43286","1732","85655","179382","179970","176180","13177","179382","NA","Sternberg Task","26","19143.0","28","1024"
"93","93","674","674","#000000","experiment","legacy","legacy","legacy","1","undefined","1","left","28","28","28","0","0","28","28","0","0","28","28","28","0","28","0","Tue Oct 17 15:27:20 2023","The main experiment item","False","SternbergTask.osexp","C:\Users\Simone\Desktop","False","mono","False","18","no","white","no","yes","768","legacy","16","11","C:/Users/Simone/Documents/SD-subject-3.csv","legacy","4","Melodramatic Milgram","4.0.5","1","y","0","left","left","right","left","NA","408.0","11444","1394","408","NA","2","legacy","1","1024","2","48000","-16","experiment","3","odd","4","183208","179974","181004","1725","87049","181006","43286","1732","85655","185209","185617","182007","13177","185209","NA","Sternberg Task","27","19551.0","29","1024"
"93","93","673","673","#000000","experiment","legacy","legacy","legacy","1","undefined","1","left","29","29","29","0","0","29","29","0","0","29","29","29","0","29","0","Tue Oct 17 15:27:20 2023","The main experiment item","False","SternbergTask.osexp","C:\Users\Simone\Desktop","False","mono","False","18","no","white","no","yes","768","legacy","17","11","C:/Users/Simone/Documents/SD-subject-3.csv","legacy","3 5 4 7","Melodramatic Milgram","4.0.5","1","y","0","left","left","right","left","NA","648.0","11444","1394","648","NA","2","legacy","4","1024","2","48000","-16","experiment","3","odd","3","188855","185621","186650","1725","87049","186652","43286","1732","85655","190856","191505","187653","13177","190856","NA","Sternberg Task","28","20199.0","30","1024"
"93","93","671","671","#000000","experiment","legacy","legacy","legacy","1","undefined","1","right","30","30","30","0","0","30","30","0","0","30","30","30","0","30","0","Tue Oct 17 15:27:20 2023","The main experiment item","False","SternbergTask.osexp","C:\Users\Simone\Desktop","False","mono","False","18","no","white","no","yes","768","legacy","18","11","C:/Users/Simone/Documents/SD-subject-3.csv","legacy","2 8 7 9 5 3","Melodramatic Milgram","4.0.5","0","n","0","right","left","right","right","NA","615.0","11444","1394","615","NA","2","legacy","6","1024","2","48000","-16","experiment","3","odd","6","194747","191509","192544","1725","87049","192545","43286","1732","85655","196749","197364","193546","13177","196749","NA","Sternberg Task","29","20814.0","31","1024"
"93","93","666","666","#000000","experiment","legacy","legacy","legacy","1","undefined","1","left","31","31","31","0","0","31","31","0","0","31","31","31","0","31","0","Tue Oct 17 15:27:20 2023","The main experiment item","False","SternbergTask.osexp","C:\Users\Simone\Desktop","False","mono","False","18","no","white","no","yes","768","legacy","19","11","C:/Users/Simone/Documents/SD-subject-3.csv","legacy","7 8 4 6 9 5","Melodramatic Milgram","4.0.5","4","y","0","left","left","right","left","NA","508.0","11444","1394","508","NA","2","legacy","6","1024","2","48000","-16","experiment","3","odd","6","200616","197367","198411","1725","87049","198413","43286","1732","85655","202617","203126","199414","13177","202617","NA","Sternberg Task","30","21322.0","32","1024"
"93","93","663","663","#000000","experiment","legacy","legacy","legacy","1","undefined","1","right","32","32","32","0","0","32","32","0","0","32","32","32","0","32","0","Tue Oct 17 15:27:20 2023","The main experiment item","False","SternbergTask.osexp","C:\Users\Simone\Desktop","False","mono","False","18","no","white","no","yes","768","legacy","20","11","C:/Users/Simone/Documents/SD-subject-3.csv","legacy","9 8 2 7 4","Melodramatic Milgram","4.0.5","0","n","0","right","left","right","right","NA","571.0","11444","1394","571","NA","2","legacy","5","1024","2","48000","-16","experiment","3","odd","5","206372","203129","204168","1725","87049","204169","43286","1732","85655","208373","208944","205170","13177","208373","NA","Sternberg Task","31","21893.0","33","1024"
"91","91","668","668","#000000","experiment","legacy","legacy","legacy","0","undefined","0","left","33","33","33","0","0","33","33","0","0","33","33","33","0","33","0","Tue Oct 17 15:27:20 2023","The main experiment item","False","SternbergTask.osexp","C:\Users\Simone\Desktop","False","mono","False","18","no","white","no","yes","768","legacy","21","11","C:/Users/Simone/Documents/SD-subject-3.csv","legacy","9 1 7 2","Melodramatic Milgram","4.0.5","2","y","0","right","left","right","right","NA","832.0","11444","1394","832","NA","2","legacy","4","1024","2","48000","-16","experiment","3","odd","1","212188","208948","209983","1725","87049","209985","43286","1732","85655","214189","215022","210986","13177","214189","NA","Sternberg Task","31","22725.0","34","1024"
"91","91","661","661","#000000","experiment","legacy","legacy","legacy","1","undefined","1","left","34","34","34","0","0","34","34","0","0","34","34","34","0","34","0","Tue Oct 17 15:27:20 2023","The main experiment item","False","SternbergTask.osexp","C:\Users\Simone\Desktop","False","mono","False","18","no","white","no","yes","768","legacy","22","11","C:/Users/Simone/Documents/SD-subject-3.csv","legacy","2 6 1 7 4","Melodramatic Milgram","4.0.5","2","y","0","left","left","right","left","NA","433.0","11444","1394","433","NA","2","legacy","5","1024","2","48000","-16","experiment","3","odd","6","218258","208948","216053","1725","87049","216055","215024","1732","85655","220260","220693","217056","13177","220259","NA","Sternberg Task","32","23158.0","35","1024"
"91","91","659","659","#000000","experiment","legacy","legacy","legacy","1","undefined","1","right","35","35","35","0","0","35","35","0","0","35","35","35","0","35","0","Tue Oct 17 15:27:20 2023","The main experiment item","False","SternbergTask.osexp","C:\Users\Simone\Desktop","False","mono","False","18","no","white","no","yes","768","legacy","23","11","C:/Users/Simone/Documents/SD-subject-3.csv","legacy","1 6 4","Melodramatic Milgram","4.0.5","0","n","0","right","left","right","right","NA","597.0","11444","1394","597","NA","2","legacy","3","1024","2","48000","-16","experiment","3","odd","7","223935","220697","221731","1725","87049","221732","215024","1732","85655","225936","226533","222734","13177","225936","NA","Sternberg Task","33","23755.0","36","1024"
"91","91","664","664","#000000","experiment","legacy","legacy","legacy","1","undefined","1","right","36","36","36","0","0","36","36","0","0","36","36","36","0","36","0","Tue Oct 17 15:27:20 2023","The main experiment item","False","SternbergTask.osexp","C:\Users\Simone\Desktop","False","mono","False","18","no","white","no","yes","768","legacy","24","11","C:/Users/Simone/Documents/SD-subject-3.csv","legacy","6 9 7 3 8 2","Melodramatic Milgram","4.0.5","0","n","0","right","left","right","right","NA","826.0","11444","1394","826","NA","2","legacy","6","1024","2","48000","-16","experiment","3","odd","5","229775","226537","227570","1725","87049","227572","215024","1732","85655","231777","232604","228574","13177","231776","NA","Sternberg Task","34","24581.0","37","1024"
"92","92","658","658","#000000","experiment","legacy","legacy","legacy","1","undefined","1","left","37","37","37","0","0","37","37","0","0","37","37","37","0","37","0","Tue Oct 17 15:27:20 2023","The main experiment item","False","SternbergTask.osexp","C:\Users\Simone\Desktop","False","mono","False","18","no","white","no","yes","768","legacy","25","11","C:/Users/Simone/Documents/SD-subject-3.csv","legacy","7 6","Melodramatic Milgram","4.0.5","2","y","0","left","left","right","left","NA","441.0","11444","1394","441","NA","2","legacy","2","1024","2","48000","-16","experiment","3","odd","6","235843","232608","233638","1725","87049","233640","215024","1732","85655","237844","238286","234641","13177","237844","NA","Sternberg Task","35","25022.0","38","1024"
"92","92","662","662","#000000","experiment","legacy","legacy","legacy","1","undefined","1","right","38","38","38","0","0","38","38","0","0","38","38","38","0","38","0","Tue Oct 17 15:27:20 2023","The main experiment item","False","SternbergTask.osexp","C:\Users\Simone\Desktop","False","mono","False","18","no","white","no","yes","768","legacy","26","11","C:/Users/Simone/Documents/SD-subject-3.csv","legacy","2 8 9 4 1","Melodramatic Milgram","4.0.5","0","n","0","right","left","right","right","NA","831.0","11444","1394","831","NA","2","legacy","5","1024","2","48000","-16","experiment","3","odd","5","241536","238290","239330","1725","87049","239332","215024","1732","85655","243537","244369","240335","13177","243537","NA","Sternberg Task","36","25853.0","39","1024"
"92","92","662","662","#000000","experiment","legacy","legacy","legacy","1","undefined","1","right","39","39","39","0","0","39","39","0","0","39","39","39","0","39","0","Tue Oct 17 15:27:20 2023","The main experiment item","False","SternbergTask.osexp","C:\Users\Simone\Desktop","False","mono","False","18","no","white","no","yes","768","legacy","27","11","C:/Users/Simone/Documents/SD-subject-3.csv","legacy","6 7 5 9","Melodramatic Milgram","4.0.5","0","n","0","right","left","right","right","NA","661.0","11444","1394","661","NA","2","legacy","4","1024","2","48000","-16","experiment","3","odd","2","247612","244380","245408","1725","87049","245410","215024","1732","85655","249613","250274","246411","13177","249613","NA","Sternberg Task","37","26514.0","40","1024"
"92","92","660","660","#000000","experiment","legacy","legacy","legacy","1","undefined","1","right","40","40","40","0","0","40","40","0","0","40","40","40","0","40","0","Tue Oct 17 15:27:20 2023","The main experiment item","False","SternbergTask.osexp","C:\Users\Simone\Desktop","False","mono","False","18","no","white","no","yes","768","legacy","28","11","C:/Users/Simone/Documents/SD-subject-3.csv","legacy","4 1","Melodramatic Milgram","4.0.5","0","n","0","right","left","right","right","NA","580.0","11444","1394","580","NA","2","legacy","2","1024","2","48000","-16","experiment","3","odd","6","253515","250279","251309","1725","87049","251311","215024","1732","85655","255516","256097","252314","13177","255516","NA","Sternberg Task","38","27094.0","41","1024"
"92","92","663","663","#000000","experiment","legacy","legacy","legacy","1","undefined","1","right","41","41","41","0","0","41","41","0","0","41","41","41","0","41","0","Tue Oct 17 15:27:20 2023","The main experiment item","False","SternbergTask.osexp","C:\Users\Simone\Desktop","False","mono","False","18","no","white","no","yes","768","legacy","29","11","C:/Users/Simone/Documents/SD-subject-3.csv","legacy","8 4 3 9","Melodramatic Milgram","4.0.5","0","n","0","right","left","right","right","NA","765.0","11444","1394","765","NA","2","legacy","4","1024","2","48000","-16","experiment","3","odd","5","259345","256101","257139","1725","87049","257141","215024","1732","85655","261347","262113","258143","13177","261347","NA","Sternberg Task","39","27859.0","42","1024"
"93","93","658","658","#000000","experiment","legacy","legacy","legacy","1","undefined","1","left","42","42","42","0","0","42","42","0","0","42","42","42","0","42","0","Tue Oct 17 15:27:20 2023","The main experiment item","False","SternbergTask.osexp","C:\Users\Simone\Desktop","False","mono","False","18","no","white","no","yes","768","legacy","30","11","C:/Users/Simone/Documents/SD-subject-3.csv","legacy","2 4 6 9","Melodramatic Milgram","4.0.5","3","y","0","left","left","right","left","NA","448.0","11444","1394","448","NA","2","legacy","4","1024","2","48000","-16","experiment","3","odd","6","265371","262122","263167","1725","87049","263169","215024","1732","85655","267372","267821","264170","13177","267372","NA","Sternberg Task","40","28307.0","43","1024"
"93","93","656","656","#000000","experiment","legacy","legacy","legacy","1","undefined","1","right","43","43","43","0","0","43","43","0","0","43","43","43","0","43","0","Tue Oct 17 15:27:20 2023","The main experiment item","False","SternbergTask.osexp","C:\Users\Simone\Desktop","False","mono","False","18","no","white","no","yes","768","legacy","31","11","C:/Users/Simone/Documents/SD-subject-3.csv","legacy","1","Melodramatic Milgram","4.0.5","0","n","0","right","left","right","right","NA","577.0","11444","1394","577","NA","2","legacy","1","1024","2","48000","-16","experiment","3","odd","7","271061","267825","268858","1725","87049","268859","215024","1732","85655","273062","273640","269860","13177","273062","NA","Sternberg Task","41","28884.0","44","1024"
"93","93","658","658","#000000","experiment","legacy","legacy","legacy","1","undefined","1","left","44","44","44","0","0","44","44","0","0","44","44","44","0","44","0","Tue Oct 17 15:27:20 2023","The main experiment item","False","SternbergTask.osexp","C:\Users\Simone\Desktop","False","mono","False","18","no","white","no","yes","768","legacy","32","11","C:/Users/Simone/Documents/SD-subject-3.csv","legacy","7 1 8 5 6 2","Melodramatic Milgram","4.0.5","2","y","0","left","left","right","left","NA","745.0","11444","1394","745","NA","2","legacy","6","1024","2","48000","-16","experiment","3","odd","1","276886","273643","274682","1725","87049","274683","215024","1732","85655","278888","279634","275684","13177","278888","NA","Sternberg Task","42","29629.0","45","1024"
"93","93","654","654","#000000","experiment","legacy","legacy","legacy","1","undefined","1","left","45","45","45","0","0","45","45","0","0","45","45","45","0","45","0","Tue Oct 17 15:27:20 2023","The main experiment item","False","SternbergTask.osexp","C:\Users\Simone\Desktop","False","mono","False","18","no","white","no","yes","768","legacy","33","11","C:/Users/Simone/Documents/SD-subject-3.csv","legacy","9 4 2","Melodramatic Milgram","4.0.5","1","y","0","left","left","right","left","NA","470.0","11444","1394","470","NA","2","legacy","3","1024","2","48000","-16","experiment","3","odd","9","282881","279638","280678","1725","87049","280679","215024","1732","85655","284883","285353","281680","13177","284883","NA","Sternberg Task","43","30099.0","46","1024"
"93","93","650","650","#000000","experiment","legacy","legacy","legacy","1","undefined","1","left","46","46","46","0","0","46","46","0","0","46","46","46","0","46","0","Tue Oct 17 15:27:20 2023","The main experiment item","False","SternbergTask.osexp","C:\Users\Simone\Desktop","False","mono","False","18","no","white","no","yes","768","legacy","34","11","C:/Users/Simone/Documents/SD-subject-3.csv","legacy","3 9 6 2","Melodramatic Milgram","4.0.5","4","y","0","left","left","right","left","NA","488.0","11444","1394","488","NA","2","legacy","4","1024","2","48000","-16","experiment","3","odd","2","288606","285356","286402","1725","87049","286404","215024","1732","85655","290607","291096","287405","13177","290607","NA","Sternberg Task","44","30587.0","47","1024"
"93","93","650","650","#000000","experiment","legacy","legacy","legacy","1","undefined","1","left","47","47","47","0","0","47","47","0","0","47","47","47","0","47","0","Tue Oct 17 15:27:20 2023","The main experiment item","False","SternbergTask.osexp","C:\Users\Simone\Desktop","False","mono","False","18","no","white","no","yes","768","legacy","35","11","C:/Users/Simone/Documents/SD-subject-3.csv","legacy","8 1 6","Melodramatic Milgram","4.0.5","3","y","0","left","left","right","left","NA","616.0","11444","1394","616","NA","2","legacy","3","1024","2","48000","-16","experiment","3","odd","6","294338","291098","292135","1725","87049","292136","215024","1732","85655","296339","296955","293137","13177","296339","NA","Sternberg Task","45","31203.0","48","1024"
"93","93","651","651","#000000","experiment","legacy","legacy","legacy","1","undefined","1","right","48","48","48","0","0","48","48","0","0","48","48","48","0","48","0","Tue Oct 17 15:27:20 2023","The main experiment item","False","SternbergTask.osexp","C:\Users\Simone\Desktop","False","mono","False","18","no","white","no","yes","768","legacy","36","11","C:/Users/Simone/Documents/SD-subject-3.csv","legacy","1 4 9 2 5","Melodramatic Milgram","4.0.5","0","n","0","right","left","right","right","NA","743.0","11444","1394","743","NA","2","legacy","5","1024","2","48000","-16","experiment","3","odd","7","300204","296960","298001","1725","87049","298002","215024","1732","85655","302205","302949","299003","13177","302205","NA","Sternberg Task","46","31946.0","49","1024"
"92","92","654","654","#000000","experiment","legacy","legacy","legacy","0","undefined","0","right","49","49","49","0","0","49","49","0","0","49","49","49","0","49","0","Tue Oct 17 15:27:20 2023","The main experiment item","False","SternbergTask.osexp","C:\Users\Simone\Desktop","False","mono","False","18","no","white","no","yes","768","legacy","37","11","C:/Users/Simone/Documents/SD-subject-3.csv","legacy","8 5 7 3 6","Melodramatic Milgram","4.0.5","0","n","0","left","left","right","left","NA","794.0","11444","1394","794","NA","2","legacy","5","1024","2","48000","-16","experiment","3","odd","9","306193","302953","303988","1725","87049","303989","215024","1732","85655","308194","308988","304990","13177","308194","NA","Sternberg Task","46","32740.0","50","1024"
"92","92","657","657","#000000","experiment","legacy","legacy","legacy","1","undefined","1","left","50","50","50","0","0","50","50","0","0","50","50","50","0","50","0","Tue Oct 17 15:27:20 2023","The main experiment item","False","SternbergTask.osexp","C:\Users\Simone\Desktop","False","mono","False","18","no","white","no","yes","768","legacy","38","11","C:/Users/Simone/Documents/SD-subject-3.csv","legacy","8 9 5 7 1 6","Melodramatic Milgram","4.0.5","4","y","0","left","left","right","left","NA","810.0","11444","1394","810","NA","2","legacy","6","1024","2","48000","-16","experiment","3","odd","7","312228","302953","310024","1725","87049","310025","308993","1732","85655","314229","315040","311026","13177","314229","NA","Sternberg Task","47","33550.0","51","1024"
"92","92","655","655","#000000","experiment","legacy","legacy","legacy","1","undefined","1","right","51","51","51","0","0","51","51","0","0","51","51","51","0","51","0","Tue Oct 17 15:27:20 2023","The main experiment item","False","SternbergTask.osexp","C:\Users\Simone\Desktop","False","mono","False","18","no","white","no","yes","768","legacy","39","11","C:/Users/Simone/Documents/SD-subject-3.csv","legacy","1 8 7","Melodramatic Milgram","4.0.5","0","n","0","right","left","right","right","NA","517.0","11444","1394","517","NA","2","legacy","3","1024","2","48000","-16","experiment","3","odd","4","318299","315044","316095","1725","87049","316097","308993","1732","85655","320301","320819","317098","13177","320301","NA","Sternberg Task","48","34067.0","52","1024"
"92","92","657","657","#000000","experiment","legacy","legacy","legacy","1","undefined","1","right","52","52","52","0","0","52","52","0","0","52","52","52","0","52","0","Tue Oct 17 15:27:20 2023","The main experiment item","False","SternbergTask.osexp","C:\Users\Simone\Desktop","False","mono","False","18","no","white","no","yes","768","legacy","40","11","C:/Users/Simone/Documents/SD-subject-3.csv","legacy","1 4 3 6 5","Melodramatic Milgram","4.0.5","0","n","0","right","left","right","right","NA","763.0","11444","1394","763","NA","2","legacy","5","1024","2","48000","-16","experiment","3","odd","8","324067","320822","321864","1725","87049","321865","308993","1732","85655","326068","326831","322866","13177","326068","NA","Sternberg Task","49","34830.0","53","1024"
"92","92","652","652","#000000","experiment","legacy","legacy","legacy","1","undefined","1","left","53","53","53","0","0","53","53","0","0","53","53","53","0","53","0","Tue Oct 17 15:27:20 2023","The main experiment item","False","SternbergTask.osexp","C:\Users\Simone\Desktop","False","mono","False","18","no","white","no","yes","768","legacy","41","11","C:/Users/Simone/Documents/SD-subject-3.csv","legacy","8","Melodramatic Milgram","4.0.5","1","y","0","left","left","right","left","NA","404.0","11444","1394","404","NA","2","legacy","1","1024","2","48000","-16","experiment","3","odd","8","330088","326834","327883","1725","87049","327885","308993","1732","85655","332089","332494","328887","13177","332089","NA","Sternberg Task","50","35234.0","54","1024"
"92","92","653","653","#000000","experiment","legacy","legacy","legacy","1","undefined","1","left","54","54","54","0","0","54","54","0","0","54","54","54","0","54","0","Tue Oct 17 15:27:20 2023","The main experiment item","False","SternbergTask.osexp","C:\Users\Simone\Desktop","False","mono","False","18","no","white","no","yes","768","legacy","42","11","C:/Users/Simone/Documents/SD-subject-3.csv","legacy","9 5 3 8 4","Melodramatic Milgram","4.0.5","1","y","0","left","left","right","left","NA","692.0","11444","1394","692","NA","2","legacy","5","1024","2","48000","-16","experiment","3","odd","9","335754","332499","333549","1725","87049","333551","308993","1732","85655","337755","338448","334552","13177","337755","NA","Sternberg Task","51","35926.0","55","1024"
"92","92","650","650","#000000","experiment","legacy","legacy","legacy","1","undefined","1","left","55","55","55","0","0","55","55","0","0","55","55","55","0","55","0","Tue Oct 17 15:27:20 2023","The main experiment item","False","SternbergTask.osexp","C:\Users\Simone\Desktop","False","mono","False","18","no","white","no","yes","768","legacy","43","11","C:/Users/Simone/Documents/SD-subject-3.csv","legacy","6 7 9 3 1 2","Melodramatic Milgram","4.0.5","1","y","0","left","left","right","left","NA","480.0","11444","1394","480","NA","2","legacy","6","1024","2","48000","-16","experiment","3","odd","6","341697","338452","339494","1725","87049","339495","308993","1732","85655","343699","344180","340496","13177","343698","NA","Sternberg Task","52","36406.0","56","1024"
"92","92","647","647","#000000","experiment","legacy","legacy","legacy","1","undefined","1","right","56","56","56","0","0","56","56","0","0","56","56","56","0","56","0","Tue Oct 17 15:27:20 2023","The main experiment item","False","SternbergTask.osexp","C:\Users\Simone\Desktop","False","mono","False","18","no","white","no","yes","768","legacy","44","11","C:/Users/Simone/Documents/SD-subject-3.csv","legacy","2 8 9","Melodramatic Milgram","4.0.5","0","n","0","right","left","right","right","NA","526.0","11444","1394","526","NA","2","legacy","3","1024","2","48000","-16","experiment","3","odd","6","347430","344184","345226","1725","87049","345227","308993","1732","85655","349432","349958","346228","13177","349431","NA","Sternberg Task","53","36932.0","57","1024"
"93","93","646","646","#000000","experiment","legacy","legacy","legacy","1","undefined","1","left","57","57","57","0","0","57","57","0","0","57","57","57","0","57","0","Tue Oct 17 15:27:20 2023","The main experiment item","False","SternbergTask.osexp","C:\Users\Simone\Desktop","False","mono","False","18","no","white","no","yes","768","legacy","45","11","C:/Users/Simone/Documents/SD-subject-3.csv","legacy","9 3 8 2 1 4","Melodramatic Milgram","4.0.5","3","y","0","left","left","right","left","NA","560.0","11444","1394","560","NA","2","legacy","6","1024","2","48000","-16","experiment","3","odd","8","353201","349963","350997","1725","87049","350999","308993","1732","85655","355203","355764","352000","13177","355203","NA","Sternberg Task","54","37492.0","58","1024"
"93","93","645","645","#000000","experiment","legacy","legacy","legacy","1","undefined","1","right","58","58","58","0","0","58","58","0","0","58","58","58","0","58","0","Tue Oct 17 15:27:20 2023","The main experiment item","False","SternbergTask.osexp","C:\Users\Simone\Desktop","False","mono","False","18","no","white","no","yes","768","legacy","46","11","C:/Users/Simone/Documents/SD-subject-3.csv","legacy","5 9 2 3","Melodramatic Milgram","4.0.5","0","n","0","right","left","right","right","NA","597.0","11444","1394","597","NA","2","legacy","4","1024","2","48000","-16","experiment","3","odd","8","359010","355768","356806","1725","87049","356807","308993","1732","85655","361011","361609","357808","13177","361011","NA","Sternberg Task","55","38089.0","59","1024"
"93","93","646","646","#000000","experiment","legacy","legacy","legacy","1","undefined","1","left","59","59","59","0","0","59","59","0","0","59","59","59","0","59","0","Tue Oct 17 15:27:20 2023","The main experiment item","False","SternbergTask.osexp","C:\Users\Simone\Desktop","False","mono","False","18","no","white","no","yes","768","legacy","47","11","C:/Users/Simone/Documents/SD-subject-3.csv","legacy","9 5 8 1","Melodramatic Milgram","4.0.5","2","y","0","left","left","right","left","NA","683.0","11444","1394","683","NA","2","legacy","4","1024","2","48000","-16","experiment","3","odd","5","364855","361613","362650","1725","87049","362652","308993","1732","85655","366856","367539","363653","13177","366856","NA","Sternberg Task","56","38772.0","60","1024"
"93","93","642","642","#000000","experiment","legacy","legacy","legacy","1","undefined","1","left","60","60","60","0","0","60","60","0","0","60","60","60","0","60","0","Tue Oct 17 15:27:20 2023","The main experiment item","False","SternbergTask.osexp","C:\Users\Simone\Desktop","False","mono","False","18","no","white","no","yes","768","legacy","48","11","C:/Users/Simone/Documents/SD-subject-3.csv","legacy","6 2","Melodramatic Milgram","4.0.5","1","y","0","left","left","right","left","NA","392.0","11444","1394","392","NA","2","legacy","2","1024","2","48000","-16","experiment","3","odd","6","370791","367544","368587","1725","87049","368588","308993","1732","85655","372792","373185","369590","13177","372792","NA","Sternberg Task","57","39164.0","61","1024"
"93","93","644","644","#000000","experiment","legacy","legacy","legacy","1","undefined","1","left","61","61","61","0","0","61","61","0","0","61","61","61","0","61","0","Tue Oct 17 15:27:20 2023","The main experiment item","False","SternbergTask.osexp","C:\Users\Simone\Desktop","False","mono","False","18","no","white","no","yes","768","legacy","49","11","C:/Users/Simone/Documents/SD-subject-3.csv","legacy","7 8 6 3 1","Melodramatic Milgram","4.0.5","5","y","0","left","left","right","left","NA","795.0","11444","1394","795","NA","2","legacy","5","1024","2","48000","-16","experiment","3","odd","1","376431","373189","374226","1725","87049","374228","308993","1732","85655","378432","379227","375229","13177","378432","NA","Sternberg Task","58","39959.0","62","1024"
"93","93","644","644","#000000","experiment","legacy","legacy","legacy","1","undefined","1","left","62","62","62","0","0","62","62","0","0","62","62","62","0","62","0","Tue Oct 17 15:27:20 2023","The main experiment item","False","SternbergTask.osexp","C:\Users\Simone\Desktop","False","mono","False","18","no","white","no","yes","768","legacy","50","11","C:/Users/Simone/Documents/SD-subject-3.csv","legacy","4 9 7 8 5 3","Melodramatic Milgram","4.0.5","4","y","0","left","left","right","left","NA","646.0","11444","1394","646","NA","2","legacy","6","1024","2","48000","-16","experiment","3","odd","8","382477","379232","380274","1725","87049","380275","308993","1732","85655","384478","385125","381276","13177","384478","NA","Sternberg Task","59","40605.0","63","1024"
"93","93","646","646","#000000","experiment","legacy","legacy","legacy","1","undefined","1","right","63","63","63","0","0","63","63","0","0","63","63","63","0","63","0","Tue Oct 17 15:27:20 2023","The main experiment item","False","SternbergTask.osexp","C:\Users\Simone\Desktop","False","mono","False","18","no","white","no","yes","768","legacy","51","11","C:/Users/Simone/Documents/SD-subject-3.csv","legacy","7 4 2 8 1 9","Melodramatic Milgram","4.0.5","0","n","0","right","left","right","right","NA","781.0","11444","1394","781","NA","2","legacy","6","1024","2","48000","-16","experiment","3","odd","5","388364","385129","386160","1725","87049","386162","308993","1732","85655","390366","391148","387163","13177","390365","NA","Sternberg Task","60","41386.0","64","1024"
"93","93","647","647","#000000","experiment","legacy","legacy","legacy","1","undefined","1","right","64","64","64","0","0","64","64","0","0","64","64","64","0","64","0","Tue Oct 17 15:27:20 2023","The main experiment item","False","SternbergTask.osexp","C:\Users\Simone\Desktop","False","mono","False","18","no","white","no","yes","768","legacy","52","11","C:/Users/Simone/Documents/SD-subject-3.csv","legacy","4 8 1 2","Melodramatic Milgram","4.0.5","0","n","0","right","left","right","right","NA","724.0","11444","1394","724","NA","2","legacy","4","1024","2","48000","-16","experiment","3","odd","7","394395","391152","392192","1725","87049","392193","308993","1732","85655","396396","397121","393194","13177","396396","NA","Sternberg Task","61","42110.0","65","1024"
"93","93","649","649","#000000","experiment","legacy","legacy","legacy","1","undefined","1","right","65","65","65","0","0","65","65","0","0","65","65","65","0","65","0","Tue Oct 17 15:27:20 2023","The main experiment item","False","SternbergTask.osexp","C:\Users\Simone\Desktop","False","mono","False","18","no","white","no","yes","768","legacy","53","11","C:/Users/Simone/Documents/SD-subject-3.csv","legacy","8 9","Melodramatic Milgram","4.0.5","0","n","0","right","left","right","right","NA","776.0","11444","1394","776","NA","2","legacy","2","1024","2","48000","-16","experiment","3","odd","5","400359","397125","398155","1725","87049","398156","308993","1732","85655","402360","403137","399158","13177","402360","NA","Sternberg Task","62","42886.0","66","1024"
"94","94","650","650","#000000","experiment","legacy","legacy","legacy","1","undefined","1","right","66","66","66","0","0","66","66","0","0","66","66","66","0","66","0","Tue Oct 17 15:27:20 2023","The main experiment item","False","SternbergTask.osexp","C:\Users\Simone\Desktop","False","mono","False","18","no","white","no","yes","768","legacy","54","11","C:/Users/Simone/Documents/SD-subject-3.csv","legacy","7 1 5 6 3","Melodramatic Milgram","4.0.5","0","n","0","right","left","right","right","NA","717.0","11444","1394","717","NA","2","legacy","5","1024","2","48000","-16","experiment","3","odd","8","406379","403141","404174","1725","87049","404176","308993","1732","85655","408382","409100","405178","13177","408381","NA","Sternberg Task","63","43603.0","67","1024"
"94","94","651","651","#000000","experiment","legacy","legacy","legacy","1","undefined","1","left","67","67","67","0","0","67","67","0","0","67","67","67","0","67","0","Tue Oct 17 15:27:20 2023","The main experiment item","False","SternbergTask.osexp","C:\Users\Simone\Desktop","False","mono","False","18","no","white","no","yes","768","legacy","55","11","C:/Users/Simone/Documents/SD-subject-3.csv","legacy","5 7 3 6 2","Melodramatic Milgram","4.0.5","5","y","0","left","left","right","left","NA","673.0","11444","1394","673","NA","2","legacy","5","1024","2","48000","-16","experiment","3","odd","2","412341","409104","410137","1725","87049","410139","308993","1732","85655","414343","415017","411140","13177","414343","NA","Sternberg Task","64","44276.0","68","1024"
"94","94","651","651","#000000","experiment","legacy","legacy","legacy","1","undefined","1","left","68","68","68","0","0","68","68","0","0","68","68","68","0","68","0","Tue Oct 17 15:27:20 2023","The main experiment item","False","SternbergTask.osexp","C:\Users\Simone\Desktop","False","mono","False","18","no","white","no","yes","768","legacy","56","11","C:/Users/Simone/Documents/SD-subject-3.csv","legacy","4 3 2 5 8","Melodramatic Milgram","4.0.5","2","y","0","left","left","right","left","NA","706.0","11444","1394","706","NA","2","legacy","5","1024","2","48000","-16","experiment","3","odd","3","418267","415021","416064","1725","87049","416065","308993","1732","85655","420269","420976","417066","13177","420269","NA","Sternberg Task","65","44982.0","69","1024"
"94","94","650","650","#000000","experiment","legacy","legacy","legacy","1","undefined","1","right","69","69","69","0","0","69","69","0","0","69","69","69","0","69","0","Tue Oct 17 15:27:20 2023","The main experiment item","False","SternbergTask.osexp","C:\Users\Simone\Desktop","False","mono","False","18","no","white","no","yes","768","legacy","57","11","C:/Users/Simone/Documents/SD-subject-3.csv","legacy","4 2 6 9","Melodramatic Milgram","4.0.5","0","n","0","right","left","right","right","NA","544.0","11444","1394","544","NA","2","legacy","4","1024","2","48000","-16","experiment","3","odd","7","424222","420980","422017","1725","87049","422018","308993","1732","85655","426223","426767","423020","13177","426223","NA","Sternberg Task","66","45526.0","70","1024"
"94","94","649","649","#000000","experiment","legacy","legacy","legacy","1","undefined","1","right","70","70","70","0","0","70","70","0","0","70","70","70","0","70","0","Tue Oct 17 15:27:20 2023","The main experiment item","False","SternbergTask.osexp","C:\Users\Simone\Desktop","False","mono","False","18","no","white","no","yes","768","legacy","58","11","C:/Users/Simone/Documents/SD-subject-3.csv","legacy","1 3 2 6 9","Melodramatic Milgram","4.0.5","0","n","0","right","left","right","right","NA","611.0","11444","1394","611","NA","2","legacy","5","1024","2","48000","-16","experiment","3","odd","5","430006","426771","427801","1725","87049","427802","308993","1732","85655","432008","432620","428805","13177","432007","NA","Sternberg Task","67","46137.0","71","1024"
"94","94","646","646","#000000","experiment","legacy","legacy","legacy","1","undefined","1","left","71","71","71","0","0","71","71","0","0","71","71","71","0","71","0","Tue Oct 17 15:27:20 2023","The main experiment item","False","SternbergTask.osexp","C:\Users\Simone\Desktop","False","mono","False","18","no","white","no","yes","768","legacy","59","11","C:/Users/Simone/Documents/SD-subject-3.csv","legacy","9 8 4","Melodramatic Milgram","4.0.5","1","y","0","left","left","right","left","NA","439.0","11444","1394","439","NA","2","legacy","3","1024","2","48000","-16","experiment","3","odd","9","435863","432624","433658","1725","87049","433660","308993","1732","85655","437864","438304","434661","13177","437864","NA","Sternberg Task","68","46576.0","72","1024"
"94","94","649","649","#000000","experiment","legacy","legacy","legacy","1","undefined","1","right","72","72","72","0","0","72","72","0","0","72","72","72","0","72","0","Tue Oct 17 15:27:20 2023","The main experiment item","False","SternbergTask.osexp","C:\Users\Simone\Desktop","False","mono","False","18","no","white","no","yes","768","legacy","60","11","C:/Users/Simone/Documents/SD-subject-3.csv","legacy","9 7 4 5 8","Melodramatic Milgram","4.0.5","0","n","0","right","left","right","right","NA","868.0","11444","1394","868","NA","2","legacy","5","1024","2","48000","-16","experiment","3","odd","6","441539","438308","439335","1725","87049","439337","308993","1732","85655","443540","444408","440338","13177","443540","NA","Sternberg Task","69","47444.0","73","1024"
"94","94","653","653","#000000","experiment","legacy","legacy","legacy","1","undefined","1","left","73","73","73","0","0","73","73","0","0","73","73","73","0","73","0","Tue Oct 17 15:27:20 2023","The main experiment item","False","SternbergTask.osexp","C:\Users\Simone\Desktop","False","mono","False","18","no","white","no","yes","768","legacy","61","11","C:/Users/Simone/Documents/SD-subject-3.csv","legacy","4 1 5","Melodramatic Milgram","4.0.5","2","y","0","left","left","right","left","NA","880.0","11444","1394","880","NA","2","legacy","3","1024","2","48000","-16","experiment","3","odd","1","447651","444413","445446","1725","87049","445447","308993","1732","85655","449652","450532","446450","13177","449652","NA","Sternberg Task","70","48324.0","74","1024"
"93","93","655","655","#000000","experiment","legacy","legacy","legacy","0","undefined","0","right","74","74","74","0","0","74","74","0","0","74","74","74","0","74","0","Tue Oct 17 15:27:20 2023","The main experiment item","False","SternbergTask.osexp","C:\Users\Simone\Desktop","False","mono","False","18","no","white","no","yes","768","legacy","62","11","C:/Users/Simone/Documents/SD-subject-3.csv","legacy","3 9 1","Melodramatic Milgram","4.0.5","0","n","0","left","left","right","left","NA","811.0","11444","1394","811","NA","2","legacy","3","1024","2","48000","-16","experiment","3","odd","7","453775","450536","451570","1725","87049","451572","308993","1732","85655","455778","456590","452574","13177","455777","NA","Sternberg Task","70","49135.0","75","1024"
"93","93","652","652","#000000","experiment","legacy","legacy","legacy","1","undefined","1","left","75","75","75","0","0","75","75","0","0","75","75","75","0","75","0","Tue Oct 17 15:27:20 2023","The main experiment item","False","SternbergTask.osexp","C:\Users\Simone\Desktop","False","mono","False","18","no","white","no","yes","768","legacy","63","11","C:/Users/Simone/Documents/SD-subject-3.csv","legacy","9 1 6 7 8","Melodramatic Milgram","4.0.5","1","y","0","left","left","right","left","NA","448.0","11444","1394","448","NA","2","legacy","5","1024","2","48000","-16","experiment","3","odd","9","459828","450536","457624","1725","87049","457625","456594","1732","85655","461830","462279","458627","13177","461829","NA","Sternberg Task","71","49583.0","76","1024"
"93","93","653","653","#000000","experiment","legacy","legacy","legacy","1","undefined","1","right","76","76","76","0","0","76","76","0","0","76","76","76","0","76","0","Tue Oct 17 15:27:20 2023","The main experiment item","False","SternbergTask.osexp","C:\Users\Simone\Desktop","False","mono","False","18","no","white","no","yes","768","legacy","64","11","C:/Users/Simone/Documents/SD-subject-3.csv","legacy","1 5 3 2 8","Melodramatic Milgram","4.0.5","0","n","0","right","left","right","right","NA","735.0","11444","1394","735","NA","2","legacy","5","1024","2","48000","-16","experiment","3","odd","4","465527","462283","463322","1725","87049","463324","456594","1732","85655","467528","468263","464326","13177","467528","NA","Sternberg Task","72","50318.0","77","1024"
"93","93","653","653","#000000","experiment","legacy","legacy","legacy","1","undefined","1","right","77","77","77","0","0","77","77","0","0","77","77","77","0","77","0","Tue Oct 17 15:27:20 2023","The main experiment item","False","SternbergTask.osexp","C:\Users\Simone\Desktop","False","mono","False","18","no","white","no","yes","768","legacy","65","11","C:/Users/Simone/Documents/SD-subject-3.csv","legacy","2 3 8 5 6 7","Melodramatic Milgram","4.0.5","0","n","0","right","left","right","right","NA","630.0","11444","1394","630","NA","2","legacy","6","1024","2","48000","-16","experiment","3","odd","1","471504","468266","469299","1725","87049","469301","456594","1732","85655","473505","474136","470302","13177","473505","NA","Sternberg Task","73","50948.0","78","1024"
"93","93","654","654","#000000","experiment","legacy","legacy","legacy","1","undefined","1","left","78","78","78","0","0","78","78","0","0","78","78","78","0","78","0","Tue Oct 17 15:27:20 2023","The main experiment item","False","SternbergTask.osexp","C:\Users\Simone\Desktop","False","mono","False","18","no","white","no","yes","768","legacy","66","11","C:/Users/Simone/Documents/SD-subject-3.csv","legacy","8 5 1 3 9","Melodramatic Milgram","4.0.5","4","y","0","left","left","right","left","NA","734.0","11444","1394","734","NA","2","legacy","5","1024","2","48000","-16","experiment","3","odd","3","477374","474140","475169","1725","87049","475171","456594","1732","85655","479376","480110","476172","13177","479375","NA","Sternberg Task","74","51682.0","79","1024"
"93","93","653","653","#000000","experiment","legacy","legacy","legacy","1","undefined","1","right","79","79","79","0","0","79","79","0","0","79","79","79","0","79","0","Tue Oct 17 15:27:20 2023","The main experiment item","False","SternbergTask.osexp","C:\Users\Simone\Desktop","False","mono","False","18","no","white","no","yes","768","legacy","67","11","C:/Users/Simone/Documents/SD-subject-3.csv","legacy","4 2 7 6 1 3","Melodramatic Milgram","4.0.5","0","n","0","right","left","right","right","NA","606.0","11444","1394","606","NA","2","legacy","6","1024","2","48000","-16","experiment","3","odd","8","483355","480114","481152","1725","87049","481153","456594","1732","85655","485357","485964","482154","13177","485357","NA","Sternberg Task","75","52288.0","80","1024"
"93","93","652","652","#000000","experiment","legacy","legacy","legacy","1","undefined","1","left","80","80","80","0","0","80","80","0","0","80","80","80","0","80","0","Tue Oct 17 15:27:20 2023","The main experiment item","False","SternbergTask.osexp","C:\Users\Simone\Desktop","False","mono","False","18","no","white","no","yes","768","legacy","68","11","C:/Users/Simone/Documents/SD-subject-3.csv","legacy","6 5","Melodramatic Milgram","4.0.5","2","y","0","left","left","right","left","NA","586.0","11444","1394","586","NA","2","legacy","2","1024","2","48000","-16","experiment","3","odd","5","489210","485968","487007","1725","87049","487008","456594","1732","85655","491211","491798","488009","13177","491211","NA","Sternberg Task","76","52874.0","81","1024"
"93","93","654","654","#000000","experiment","legacy","legacy","legacy","1","undefined","1","right","81","81","81","0","0","81","81","0","0","81","81","81","0","81","0","Tue Oct 17 15:27:20 2023","The main experiment item","False","SternbergTask.osexp","C:\Users\Simone\Desktop","False","mono","False","18","no","white","no","yes","768","legacy","69","11","C:/Users/Simone/Documents/SD-subject-3.csv","legacy","8 4 3 5","Melodramatic Milgram","4.0.5","0","n","0","right","left","right","right","NA","779.0","11444","1394","779","NA","2","legacy","4","1024","2","48000","-16","experiment","3","odd","6","495037","491800","492834","1725","87049","492835","456594","1732","85655","497039","497818","493836","13177","497038","NA","Sternberg Task","77","53653.0","82","1024"
"93","93","653","653","#000000","experiment","legacy","legacy","legacy","1","undefined","1","left","82","82","82","0","0","82","82","0","0","82","82","82","0","82","0","Tue Oct 17 15:27:20 2023","The main experiment item","False","SternbergTask.osexp","C:\Users\Simone\Desktop","False","mono","False","18","no","white","no","yes","768","legacy","70","11","C:/Users/Simone/Documents/SD-subject-3.csv","legacy","4 1 8 7 5","Melodramatic Milgram","4.0.5","3","y","0","left","left","right","left","NA","604.0","11444","1394","604","NA","2","legacy","5","1024","2","48000","-16","experiment","3","odd","8","501066","497829","498861","1725","87049","498863","456594","1732","85655","503067","503672","499864","13177","503067","NA","Sternberg Task","78","54257.0","83","1024"
"94","94","654","654","#000000","experiment","legacy","legacy","legacy","1","undefined","1","right","83","83","83","0","0","83","83","0","0","83","83","83","0","83","0","Tue Oct 17 15:27:20 2023","The main experiment item","False","SternbergTask.osexp","C:\Users\Simone\Desktop","False","mono","False","18","no","white","no","yes","768","legacy","71","11","C:/Users/Simone/Documents/SD-subject-3.csv","legacy","2 6 4 3 9","Melodramatic Milgram","4.0.5","0","n","0","right","left","right","right","NA","736.0","11444","1394","736","NA","2","legacy","5","1024","2","48000","-16","experiment","3","odd","1","506924","503676","504720","1725","87049","504721","456594","1732","85655","508925","509662","505723","13177","508925","NA","Sternberg Task","79","54993.0","84","1024"
"94","94","654","654","#000000","experiment","legacy","legacy","legacy","1","undefined","1","left","84","84","84","0","0","84","84","0","0","84","84","84","0","84","0","Tue Oct 17 15:27:20 2023","The main experiment item","False","SternbergTask.osexp","C:\Users\Simone\Desktop","False","mono","False","18","no","white","no","yes","768","legacy","72","11","C:/Users/Simone/Documents/SD-subject-3.csv","legacy","8 9 6 1","Melodramatic Milgram","4.0.5","2","y","0","left","left","right","left","NA","679.0","11444","1394","679","NA","2","legacy","4","1024","2","48000","-16","experiment","3","odd","9","512904","509666","510700","1725","87049","510702","456594","1732","85655","514906","515585","511703","13177","514906","NA","Sternberg Task","80","55672.0","85","1024"
"94","94","654","654","#000000","experiment","legacy","legacy","legacy","1","undefined","1","left","85","85","85","0","0","85","85","0","0","85","85","85","0","85","0","Tue Oct 17 15:27:20 2023","The main experiment item","False","SternbergTask.osexp","C:\Users\Simone\Desktop","False","mono","False","18","no","white","no","yes","768","legacy","73","11","C:/Users/Simone/Documents/SD-subject-3.csv","legacy","3 4 9 6 2 9","Melodramatic Milgram","4.0.5","5","y","0","left","left","right","left","NA","586.0","11444","1394","586","NA","2","legacy","6","1024","2","48000","-16","experiment","3","odd","2","518820","515589","516616","1725","87049","516618","456594","1732","85655","520822","521409","517619","13177","520821","NA","Sternberg Task","81","56258.0","86","1024"
"94","94","654","654","#000000","experiment","legacy","legacy","legacy","1","undefined","1","left","86","86","86","0","0","86","86","0","0","86","86","86","0","86","0","Tue Oct 17 15:27:20 2023","The main experiment item","False","SternbergTask.osexp","C:\Users\Simone\Desktop","False","mono","False","18","no","white","no","yes","768","legacy","74","11","C:/Users/Simone/Documents/SD-subject-3.csv","legacy","2 5 4 8 7","Melodramatic Milgram","4.0.5","3","y","0","left","left","right","left","NA","645.0","11444","1394","645","NA","2","legacy","5","1024","2","48000","-16","experiment","3","odd","4","524657","521413","522452","1725","87049","522454","456594","1732","85655","526658","527304","523456","13177","526658","NA","Sternberg Task","82","56903.0","87","1024"
"94","94","653","653","#000000","experiment","legacy","legacy","legacy","1","undefined","1","left","87","87","87","0","0","87","87","0","0","87","87","87","0","87","0","Tue Oct 17 15:27:20 2023","The main experiment item","False","SternbergTask.osexp","C:\Users\Simone\Desktop","False","mono","False","18","no","white","no","yes","768","legacy","75","11","C:/Users/Simone/Documents/SD-subject-3.csv","legacy","6 9 3 1","Melodramatic Milgram","4.0.5","4","y","0","left","left","right","left","NA","603.0","11444","1394","603","NA","2","legacy","4","1024","2","48000","-16","experiment","3","odd","1","530545","527308","528341","1725","87049","528343","456594","1732","85655","532546","533150","529344","13177","532546","NA","Sternberg Task","83","57506.0","88","1024"
"94","94","652","652","#000000","experiment","legacy","legacy","legacy","1","undefined","1","left","88","88","88","0","0","88","88","0","0","88","88","88","0","88","0","Tue Oct 17 15:27:20 2023","The main experiment item","False","SternbergTask.osexp","C:\Users\Simone\Desktop","False","mono","False","18","no","white","no","yes","768","legacy","76","11","C:/Users/Simone/Documents/SD-subject-3.csv","legacy","8 5 3 7 4 6","Melodramatic Milgram","4.0.5","6","y","0","left","left","right","left","NA","545.0","11444","1394","545","NA","2","legacy","6","1024","2","48000","-16","experiment","3","odd","6","536395","533154","534191","1725","87049","534193","456594","1732","85655","538396","538942","535194","13177","538396","NA","Sternberg Task","84","58051.0","89","1024"
"94","94","654","654","#000000","experiment","legacy","legacy","legacy","1","undefined","1","right","89","89","89","0","0","89","89","0","0","89","89","89","0","89","0","Tue Oct 17 15:27:20 2023","The main experiment item","False","SternbergTask.osexp","C:\Users\Simone\Desktop","False","mono","False","18","no","white","no","yes","768","legacy","77","11","C:/Users/Simone/Documents/SD-subject-3.csv","legacy","8 5 4 2 9 6","Melodramatic Milgram","4.0.5","0","n","0","right","left","right","right","NA","870.0","11444","1394","870","NA","2","legacy","6","1024","2","48000","-16","experiment","3","odd","3","542191","538946","539988","1725","87049","539989","456594","1732","85655","544192","545063","540990","13177","544192","NA","Sternberg Task","85","58921.0","90","1024"
"93","93","661","661","#000000","experiment","legacy","legacy","legacy","0","undefined","0","left","90","90","90","0","0","90","90","0","0","90","90","90","0","90","0","Tue Oct 17 15:27:20 2023","The main experiment item","False","SternbergTask.osexp","C:\Users\Simone\Desktop","False","mono","False","18","no","white","no","yes","768","legacy","78","11","C:/Users/Simone/Documents/SD-subject-3.csv","legacy","8 5 4 7 3 1","Melodramatic Milgram","4.0.5","2","y","0","right","left","right","right","NA","1272.0","11444","1394","1272","NA","2","legacy","6","1024","2","48000","-16","experiment","3","odd","5","548306","545067","546103","1725","87049","546104","456594","1732","85655","550307","551580","547105","13177","550307","NA","Sternberg Task","85","60193.0","91","1024"
"93","93","663","663","#000000","experiment","legacy","legacy","legacy","1","undefined","1","right","91","91","91","0","0","91","91","0","0","91","91","91","0","91","0","Tue Oct 17 15:27:20 2023","The main experiment item","False","SternbergTask.osexp","C:\Users\Simone\Desktop","False","mono","False","18","no","white","no","yes","768","legacy","79","11","C:/Users/Simone/Documents/SD-subject-3.csv","legacy","7 1 8 4 9 3","Melodramatic Milgram","4.0.5","0","n","0","right","left","right","right","NA","830.0","11444","1394","830","NA","2","legacy","6","1024","2","48000","-16","experiment","3","odd","6","554847","545067","552642","1725","87049","552644","551584","1732","85655","556848","557679","553645","13177","556848","NA","Sternberg Task","86","61023.0","92","1024"
"93","93","663","663","#000000","experiment","legacy","legacy","legacy","1","undefined","1","right","92","92","92","0","0","92","92","0","0","92","92","92","0","92","0","Tue Oct 17 15:27:20 2023","The main experiment item","False","SternbergTask.osexp","C:\Users\Simone\Desktop","False","mono","False","18","no","white","no","yes","768","legacy","80","11","C:/Users/Simone/Documents/SD-subject-3.csv","legacy","1 4 9 3","Melodramatic Milgram","4.0.5","0","n","0","right","left","right","right","NA","725.0","11444","1394","725","NA","2","legacy","4","1024","2","48000","-16","experiment","3","odd","5","560923","557683","558718","1725","87049","558720","551584","1732","85655","562925","563651","559721","13177","562925","NA","Sternberg Task","87","61748.0","93","1024"
"93","93","666","666","#000000","experiment","legacy","legacy","legacy","1","undefined","1","right","93","93","93","0","0","93","93","0","0","93","93","93","0","93","0","Tue Oct 17 15:27:20 2023","The main experiment item","False","SternbergTask.osexp","C:\Users\Simone\Desktop","False","mono","False","18","no","white","no","yes","768","legacy","81","11","C:/Users/Simone/Documents/SD-subject-3.csv","legacy","7 8 6 1","Melodramatic Milgram","4.0.5","0","n","0","right","left","right","right","NA","867.0","11444","1394","867","NA","2","legacy","4","1024","2","48000","-16","experiment","3","odd","3","566897","563655","564693","1725","87049","564695","551584","1732","85655","568898","569766","565696","13177","568898","NA","Sternberg Task","88","62615.0","94","1024"
"93","93","667","667","#000000","experiment","legacy","legacy","legacy","1","undefined","1","right","94","94","94","0","0","94","94","0","0","94","94","94","0","94","0","Tue Oct 17 15:27:20 2023","The main experiment item","False","SternbergTask.osexp","C:\Users\Simone\Desktop","False","mono","False","18","no","white","no","yes","768","legacy","82","11","C:/Users/Simone/Documents/SD-subject-3.csv","legacy","9 5 3 2 8 6","Melodramatic Milgram","4.0.5","0","n","0","right","left","right","right","NA","798.0","11444","1394","798","NA","2","legacy","6","1024","2","48000","-16","experiment","3","odd","7","573006","569770","570801","1725","87049","570803","551584","1732","85655","575007","575806","571804","13177","575007","NA","Sternberg Task","89","63413.0","95","1024"
"92","92","666","666","#000000","experiment","legacy","legacy","legacy","0","undefined","0","left","95","95","95","0","0","95","95","0","0","95","95","95","0","95","0","Tue Oct 17 15:27:20 2023","The main experiment item","False","SternbergTask.osexp","C:\Users\Simone\Desktop","False","mono","False","18","no","white","no","yes","768","legacy","83","11","C:/Users/Simone/Documents/SD-subject-3.csv","legacy","5 2 9 6 1 7","Melodramatic Milgram","4.0.5","3","y","0","right","left","right","right","NA","591.0","11444","1394","591","NA","2","legacy","6","1024","2","48000","-16","experiment","3","odd","9","579045","575810","576841","1725","87049","576843","551584","1732","85655","581047","581638","577844","13177","581047","NA","Sternberg Task","89","64004.0","96","1024"
"92","92","666","666","#000000","experiment","legacy","legacy","legacy","1","undefined","1","left","96","96","96","0","0","96","96","0","0","96","96","96","0","96","0","Tue Oct 17 15:27:20 2023","The main experiment item","False","SternbergTask.osexp","C:\Users\Simone\Desktop","False","mono","False","18","no","white","no","yes","768","legacy","84","11","C:/Users/Simone/Documents/SD-subject-3.csv","legacy","3 4","Melodramatic Milgram","4.0.5","1","y","0","left","left","right","left","NA","640.0","11444","1394","640","NA","2","legacy","2","1024","2","48000","-16","experiment","3","odd","3","584886","575810","582683","1725","87049","582684","581643","1732","85655","586888","587529","583685","13177","586888","NA","Sternberg Task","90","64644.0","97","1024"
"92","92","664","664","#000000","experiment","legacy","legacy","legacy","1","undefined","1","left","97","97","97","0","0","97","97","0","0","97","97","97","0","97","0","Tue Oct 17 15:27:20 2023","The main experiment item","False","SternbergTask.osexp","C:\Users\Simone\Desktop","False","mono","False","18","no","white","no","yes","768","legacy","85","11","C:/Users/Simone/Documents/SD-subject-3.csv","legacy","4 7 6 8 2 3","Melodramatic Milgram","4.0.5","6","y","0","left","left","right","left","NA","525.0","11444","1394","525","NA","2","legacy","6","1024","2","48000","-16","experiment","3","odd","3","590770","587533","588566","1725","87049","588567","581643","1732","85655","592771","593297","589568","13177","592771","NA","Sternberg Task","91","65169.0","98","1024"
"92","92","663","663","#000000","experiment","legacy","legacy","legacy","1","undefined","1","left","98","98","98","0","0","98","98","0","0","98","98","98","0","98","0","Tue Oct 17 15:27:20 2023","The main experiment item","False","SternbergTask.osexp","C:\Users\Simone\Desktop","False","mono","False","18","no","white","no","yes","768","legacy","86","11","C:/Users/Simone/Documents/SD-subject-3.csv","legacy","6 1 2","Melodramatic Milgram","4.0.5","3","y","0","left","left","right","left","NA","542.0","11444","1394","542","NA","2","legacy","3","1024","2","48000","-16","experiment","3","odd","2","596549","593301","594345","1725","87049","594346","581643","1732","85655","598551","599094","595348","13177","598551","NA","Sternberg Task","92","65711.0","99","1024"
"93","93","664","664","#000000","experiment","legacy","legacy","legacy","1","undefined","1","left","99","99","99","0","0","99","99","0","0","99","99","99","0","99","0","Tue Oct 17 15:27:20 2023","The main experiment item","False","SternbergTask.osexp","C:\Users\Simone\Desktop","False","mono","False","18","no","white","no","yes","768","legacy","87","11","C:/Users/Simone/Documents/SD-subject-3.csv","legacy","7 4 2 6 3 5","Melodramatic Milgram","4.0.5","6","y","0","left","left","right","left","NA","730.0","11444","1394","730","NA","2","legacy","6","1024","2","48000","-16","experiment","3","odd","5","602345","599104","600139","1725","87049","600140","581643","1732","85655","604346","605077","601142","13177","604346","NA","Sternberg Task","93","66441.0","100","1024"
"93","93","662","662","#000000","experiment","legacy","legacy","legacy","1","undefined","1","left","100","100","100","0","0","100","100","0","0","100","100","100","0","100","0","Tue Oct 17 15:27:20 2023","The main experiment item","False","SternbergTask.osexp","C:\Users\Simone\Desktop","False","mono","False","18","no","white","no","yes","768","legacy","88","11","C:/Users/Simone/Documents/SD-subject-3.csv","legacy","4 6 2 5 1","Melodramatic Milgram","4.0.5","5","y","0","left","left","right","left","NA","467.0","11444","1394","467","NA","2","legacy","5","1024","2","48000","-16","experiment","3","odd","1","608316","605081","606113","1725","87049","606114","581643","1732","85655","610317","610785","607115","13177","610317","NA","Sternberg Task","94","66908.0","101","1024"
"93","93","664","664","#000000","experiment","legacy","legacy","legacy","1","undefined","1","right","101","101","101","0","0","101","101","0","0","101","101","101","0","101","0","Tue Oct 17 15:27:20 2023","The main experiment item","False","SternbergTask.osexp","C:\Users\Simone\Desktop","False","mono","False","18","no","white","no","yes","768","legacy","89","11","C:/Users/Simone/Documents/SD-subject-3.csv","legacy","2 8 6 3 1","Melodramatic Milgram","4.0.5","0","n","0","right","left","right","right","NA","868.0","11444","1394","868","NA","2","legacy","5","1024","2","48000","-16","experiment","3","odd","7","614028","610789","611825","1725","87049","611826","581643","1732","85655","616030","616898","612827","13177","616029","NA","Sternberg Task","95","67776.0","102","1024"
"93","93","663","663","#000000","experiment","legacy","legacy","legacy","1","undefined","1","right","102","102","102","0","0","102","102","0","0","102","102","102","0","102","0","Tue Oct 17 15:27:20 2023","The main experiment item","False","SternbergTask.osexp","C:\Users\Simone\Desktop","False","mono","False","18","no","white","no","yes","768","legacy","90","11","C:/Users/Simone/Documents/SD-subject-3.csv","legacy","7 1","Melodramatic Milgram","4.0.5","0","n","0","right","left","right","right","NA","611.0","11444","1394","611","NA","2","legacy","2","1024","2","48000","-16","experiment","3","odd","8","620141","616903","617936","1725","87049","617938","581643","1732","85655","622142","622753","618939","13177","622142","NA","Sternberg Task","96","68387.0","103","1024"
"93","93","664","664","#000000","experiment","legacy","legacy","legacy","1","undefined","1","right","103","103","103","0","0","103","103","0","0","103","103","103","0","103","0","Tue Oct 17 15:27:20 2023","The main experiment item","False","SternbergTask.osexp","C:\Users\Simone\Desktop","False","mono","False","18","no","white","no","yes","768","legacy","91","11","C:/Users/Simone/Documents/SD-subject-3.csv","legacy","3 4 2","Melodramatic Milgram","4.0.5","0","n","0","right","left","right","right","NA","711.0","11444","1394","711","NA","2","legacy","3","1024","2","48000","-16","experiment","3","odd","5","626004","622764","623799","1725","87049","623800","581643","1732","85655","628005","628717","624802","13177","628005","NA","Sternberg Task","97","69098.0","104","1024"
"93","93","664","664","#000000","experiment","legacy","legacy","legacy","1","undefined","1","right","104","104","104","0","0","104","104","0","0","104","104","104","0","104","0","Tue Oct 17 15:27:20 2023","The main experiment item","False","SternbergTask.osexp","C:\Users\Simone\Desktop","False","mono","False","18","no","white","no","yes","768","legacy","92","11","C:/Users/Simone/Documents/SD-subject-3.csv","legacy","7 9","Melodramatic Milgram","4.0.5","0","n","0","right","left","right","right","NA","674.0","11444","1394","674","NA","2","legacy","2","1024","2","48000","-16","experiment","3","odd","1","631954","628721","629750","1725","87049","629751","581643","1732","85655","633956","634631","630753","13177","633956","NA","Sternberg Task","98","69772.0","105","1024"
"93","93","666","666","#000000","experiment","legacy","legacy","legacy","1","undefined","1","right","105","105","105","0","0","105","105","0","0","105","105","105","0","105","0","Tue Oct 17 15:27:20 2023","The main experiment item","False","SternbergTask.osexp","C:\Users\Simone\Desktop","False","mono","False","18","no","white","no","yes","768","legacy","93","11","C:/Users/Simone/Documents/SD-subject-3.csv","legacy","6 3 1 7 9 8","Melodramatic Milgram","4.0.5","0","n","0","right","left","right","right","NA","848.0","11444","1394","848","NA","2","legacy","6","1024","2","48000","-16","experiment","3","odd","4","637875","634635","635671","1725","87049","635673","581643","1732","85655","639876","640725","636674","13177","639876","NA","Sternberg Task","99","70620.0","106","1024"
"93","93","665","665","#000000","experiment","legacy","legacy","legacy","1","undefined","1","right","106","106","106","0","0","106","106","0","0","106","106","106","0","106","0","Tue Oct 17 15:27:20 2023","The main experiment item","False","SternbergTask.osexp","C:\Users\Simone\Desktop","False","mono","False","18","no","white","no","yes","768","legacy","94","11","C:/Users/Simone/Documents/SD-subject-3.csv","legacy","5 7 3","Melodramatic Milgram","4.0.5","0","n","0","right","left","right","right","NA","581.0","11444","1394","581","NA","2","legacy","3","1024","2","48000","-16","experiment","3","odd","9","643977","640729","641772","1725","87049","641774","581643","1732","85655","645978","646560","642776","13177","645978","NA","Sternberg Task","100","71201.0","107","1024"
"93","93","664","664","#000000","experiment","legacy","legacy","legacy","1","undefined","1","right","107","107","107","0","0","107","107","0","0","107","107","107","0","107","0","Tue Oct 17 15:27:20 2023","The main experiment item","False","SternbergTask.osexp","C:\Users\Simone\Desktop","False","mono","False","18","no","white","no","yes","768","legacy","95","11","C:/Users/Simone/Documents/SD-subject-3.csv","legacy","2 7 5","Melodramatic Milgram","4.0.5","0","n","0","right","left","right","right","NA","545.0","11444","1394","545","NA","2","legacy","3","1024","2","48000","-16","experiment","3","odd","8","649806","646564","647602","1725","87049","647604","581643","1732","85655","651808","652354","648605","13177","651808","NA","Sternberg Task","101","71746.0","108","1024"
"92","92","666","666","#000000","experiment","legacy","legacy","legacy","0","undefined","0","left","108","108","108","0","0","108","108","0","0","108","108","108","0","108","0","Tue Oct 17 15:27:20 2023","The main experiment item","False","SternbergTask.osexp","C:\Users\Simone\Desktop","False","mono","False","18","no","white","no","yes","768","legacy","96","11","C:/Users/Simone/Documents/SD-subject-3.csv","legacy","9 6 2 4 1","Melodramatic Milgram","4.0.5","4","y","0","right","left","right","right","NA","931.0","11444","1394","931","NA","2","legacy","5","1024","2","48000","-16","experiment","3","odd","4","655604","652358","653399","1725","87049","653401","581643","1732","85655","657606","658538","654403","13177","657606","NA","Sternberg Task","101","72677.0","109","1024"
"92","92","667","667","#000000","experiment","legacy","legacy","legacy","1","undefined","1","right","109","109","109","0","0","109","109","0","0","109","109","109","0","109","0","Tue Oct 17 15:27:20 2023","The main experiment item","False","SternbergTask.osexp","C:\Users\Simone\Desktop","False","mono","False","18","no","white","no","yes","768","legacy","97","11","C:/Users/Simone/Documents/SD-subject-3.csv","legacy","5 3 2 6 9 8","Melodramatic Milgram","4.0.5","0","n","0","right","left","right","right","NA","698.0","11444","1394","698","NA","2","legacy","6","1024","2","48000","-16","experiment","3","odd","4","661778","652358","659573","1725","87049","659575","658543","1732","85655","663779","664478","660576","13177","663779","NA","Sternberg Task","102","73375.0","110","1024"
"92","92","667","667","#000000","experiment","legacy","legacy","legacy","1","undefined","1","right","110","110","110","0","0","110","110","0","0","110","110","110","0","110","0","Tue Oct 17 15:27:20 2023","The main experiment item","False","SternbergTask.osexp","C:\Users\Simone\Desktop","False","mono","False","18","no","white","no","yes","768","legacy","98","11","C:/Users/Simone/Documents/SD-subject-3.csv","legacy","9","Melodramatic Milgram","4.0.5","0","n","0","right","left","right","right","NA","764.0","11444","1394","764","NA","2","legacy","1","1024","2","48000","-16","experiment","3","odd","6","667724","664489","665520","1725","87049","665521","658543","1732","85655","669726","670491","666523","13177","669726","NA","Sternberg Task","103","74139.0","111","1024"
"92","92","668","668","#000000","experiment","legacy","legacy","legacy","1","undefined","1","left","111","111","111","0","0","111","111","0","0","111","111","111","0","111","0","Tue Oct 17 15:27:20 2023","The main experiment item","False","SternbergTask.osexp","C:\Users\Simone\Desktop","False","mono","False","18","no","white","no","yes","768","legacy","99","11","C:/Users/Simone/Documents/SD-subject-3.csv","legacy","7 2 3","Melodramatic Milgram","4.0.5","3","y","0","left","left","right","left","NA","694.0","11444","1394","694","NA","2","legacy","3","1024","2","48000","-16","experiment","3","odd","3","673734","670495","671529","1725","87049","671531","658543","1732","85655","675735","676430","672532","13177","675735","NA","Sternberg Task","104","74833.0","112","1024"
"92","92","666","666","#000000","experiment","legacy","legacy","legacy","1","undefined","1","left","112","112","112","0","0","112","112","0","0","112","112","112","0","112","0","Tue Oct 17 15:27:20 2023","The main experiment item","False","SternbergTask.osexp","C:\Users\Simone\Desktop","False","mono","False","18","no","white","no","yes","768","legacy","100","11","C:/Users/Simone/Documents/SD-subject-3.csv","legacy","3 5 7 1","Melodramatic Milgram","4.0.5","3","y","0","left","left","right","left","NA","513.0","11444","1394","513","NA","2","legacy","4","1024","2","48000","-16","experiment","3","odd","7","679677","676434","677474","1725","87049","677475","658543","1732","85655","681678","682192","678476","13177","681678","NA","Sternberg Task","105","75346.0","113","1024"
"92","92","667","667","#000000","experiment","legacy","legacy","legacy","1","undefined","1","right","113","113","113","0","0","113","113","0","0","113","113","113","0","113","0","Tue Oct 17 15:27:20 2023","The main experiment item","False","SternbergTask.osexp","C:\Users\Simone\Desktop","False","mono","False","18","no","white","no","yes","768","legacy","101","11","C:/Users/Simone/Documents/SD-subject-3.csv","legacy","6 8 4","Melodramatic Milgram","4.0.5","0","n","0","right","left","right","right","NA","802.0","11444","1394","802","NA","2","legacy","3","1024","2","48000","-16","experiment","3","odd","1","685451","682196","683245","1725","87049","683247","658543","1732","85655","687452","688255","684248","13177","687452","NA","Sternberg Task","106","76148.0","114","1024"
"93","93","668","668","#000000","experiment","legacy","legacy","legacy","1","undefined","1","left","114","114","114","0","0","114","114","0","0","114","114","114","0","114","0","Tue Oct 17 15:27:20 2023","The main experiment item","False","SternbergTask.osexp","C:\Users\Simone\Desktop","False","mono","False","18","no","white","no","yes","768","legacy","102","11","C:/Users/Simone/Documents/SD-subject-3.csv","legacy","3 2 1 4 7","Melodramatic Milgram","4.0.5","2","y","0","left","left","right","left","NA","707.0","11444","1394","707","NA","2","legacy","5","1024","2","48000","-16","experiment","3","odd","2","691502","688259","689296","1725","87049","689297","658543","1732","85655","693503","694211","690299","13177","693503","NA","Sternberg Task","107","76855.0","115","1024"
"93","93","667","667","#000000","experiment","legacy","legacy","legacy","1","undefined","1","left","115","115","115","0","0","115","115","0","0","115","115","115","0","115","0","Tue Oct 17 15:27:20 2023","The main experiment item","False","SternbergTask.osexp","C:\Users\Simone\Desktop","False","mono","False","18","no","white","no","yes","768","legacy","103","11","C:/Users/Simone/Documents/SD-subject-3.csv","legacy","5 2 6","Melodramatic Milgram","4.0.5","2","y","0","left","left","right","left","NA","530.0","11444","1394","530","NA","2","legacy","3","1024","2","48000","-16","experiment","3","odd","2","697453","694215","695248","1725","87049","695250","658543","1732","85655","699454","699985","696251","13177","699454","NA","Sternberg Task","108","77385.0","116","1024"
"93","93","665","665","#000000","experiment","legacy","legacy","legacy","1","undefined","1","right","116","116","116","0","0","116","116","0","0","116","116","116","0","116","0","Tue Oct 17 15:27:20 2023","The main experiment item","False","SternbergTask.osexp","C:\Users\Simone\Desktop","False","mono","False","18","no","white","no","yes","768","legacy","104","11","C:/Users/Simone/Documents/SD-subject-3.csv","legacy","5","Melodramatic Milgram","4.0.5","0","n","0","right","left","right","right","NA","533.0","11444","1394","533","NA","2","legacy","1","1024","2","48000","-16","experiment","3","odd","8","703225","699990","701022","1725","87049","701023","658543","1732","85655","705227","705761","702024","13177","705227","NA","Sternberg Task","109","77918.0","117","1024"
"93","93","666","666","#000000","experiment","legacy","legacy","legacy","1","undefined","1","right","117","117","117","0","0","117","117","0","0","117","117","117","0","117","0","Tue Oct 17 15:27:20 2023","The main experiment item","False","SternbergTask.osexp","C:\Users\Simone\Desktop","False","mono","False","18","no","white","no","yes","768","legacy","105","11","C:/Users/Simone/Documents/SD-subject-3.csv","legacy","5 2","Melodramatic Milgram","4.0.5","0","n","0","right","left","right","right","NA","768.0","11444","1394","768","NA","2","legacy","2","1024","2","48000","-16","experiment","3","odd","7","709003","705765","706798","1725","87049","706800","658543","1732","85655","711004","711773","707801","13177","711004","NA","Sternberg Task","110","78686.0","118","1024"
"93","93","666","666","#000000","experiment","legacy","legacy","legacy","1","undefined","1","right","118","118","118","0","0","118","118","0","0","118","118","118","0","118","0","Tue Oct 17 15:27:20 2023","The main experiment item","False","SternbergTask.osexp","C:\Users\Simone\Desktop","False","mono","False","18","no","white","no","yes","768","legacy","106","11","C:/Users/Simone/Documents/SD-subject-3.csv","legacy","5 3 8 7 2 4","Melodramatic Milgram","4.0.5","0","n","0","right","left","right","right","NA","677.0","11444","1394","677","NA","2","legacy","6","1024","2","48000","-16","experiment","3","odd","9","715016","711777","712811","1725","87049","712813","658543","1732","85655","717017","717695","713814","13177","717017","NA","Sternberg Task","111","79363.0","119","1024"
"93","93","666","666","#000000","experiment","legacy","legacy","legacy","1","undefined","1","right","119","119","119","0","0","119","119","0","0","119","119","119","0","119","0","Tue Oct 17 15:27:20 2023","The main experiment item","False","SternbergTask.osexp","C:\Users\Simone\Desktop","False","mono","False","18","no","white","no","yes","768","legacy","107","11","C:/Users/Simone/Documents/SD-subject-3.csv","legacy","2 5 1 4","Melodramatic Milgram","4.0.5","0","n","0","right","left","right","right","NA","613.0","11444","1394","613","NA","2","legacy","4","1024","2","48000","-16","experiment","3","odd","6","720938","717699","718733","1725","87049","718734","658543","1732","85655","722939","723553","719736","13177","722939","NA","Sternberg Task","112","79976.0","120","1024"
"93","93","666","666","#000000","experiment","legacy","legacy","legacy","1","undefined","1","left","120","120","120","0","0","120","120","0","0","120","120","120","0","120","0","Tue Oct 17 15:27:20 2023","The main experiment item","False","SternbergTask.osexp","C:\Users\Simone\Desktop","False","mono","False","18","no","white","no","yes","768","legacy","108","11","C:/Users/Simone/Documents/SD-subject-3.csv","legacy","2 3","Melodramatic Milgram","4.0.5","1","y","0","left","left","right","left","NA","630.0","11444","1394","630","NA","2","legacy","2","1024","2","48000","-16","experiment","3","odd","2","726797","723558","724593","1725","87049","724595","658543","1732","85655","728799","729430","725596","13177","728799","NA","Sternberg Task","113","80606.0","121","1024"
"93","93","666","666","#000000","experiment","legacy","legacy","legacy","1","undefined","1","right","121","121","121","0","0","121","121","0","0","121","121","121","0","121","0","Tue Oct 17 15:27:20 2023","The main experiment item","False","SternbergTask.osexp","C:\Users\Simone\Desktop","False","mono","False","18","no","white","no","yes","768","legacy","109","11","C:/Users/Simone/Documents/SD-subject-3.csv","legacy","6 9 4 5 2","Melodramatic Milgram","4.0.5","0","n","0","right","left","right","right","NA","720.0","11444","1394","720","NA","2","legacy","5","1024","2","48000","-16","experiment","3","odd","1","732680","729434","730476","1725","87049","730478","658543","1732","85655","734681","735401","731479","13177","734681","NA","Sternberg Task","114","81326.0","122","1024"
"93","93","667","667","#000000","experiment","legacy","legacy","legacy","1","undefined","1","right","122","122","122","0","0","122","122","0","0","122","122","122","0","122","0","Tue Oct 17 15:27:20 2023","The main experiment item","False","SternbergTask.osexp","C:\Users\Simone\Desktop","False","mono","False","18","no","white","no","yes","768","legacy","110","11","C:/Users/Simone/Documents/SD-subject-3.csv","legacy","6 9 4 5 3 2","Melodramatic Milgram","4.0.5","0","n","0","right","left","right","right","NA","724.0","11444","1394","724","NA","2","legacy","6","1024","2","48000","-16","experiment","3","odd","8","738643","735405","736439","1725","87049","736440","658543","1732","85655","740644","741368","737441","13177","740644","NA","Sternberg Task","115","82050.0","123","1024"
"93","93","667","667","#000000","experiment","legacy","legacy","legacy","1","undefined","1","left","123","123","123","0","0","123","123","0","0","123","123","123","0","123","0","Tue Oct 17 15:27:20 2023","The main experiment item","False","SternbergTask.osexp","C:\Users\Simone\Desktop","False","mono","False","18","no","white","no","yes","768","legacy","111","11","C:/Users/Simone/Documents/SD-subject-3.csv","legacy","6 7 8 5","Melodramatic Milgram","4.0.5","3","y","0","left","left","right","left","NA","710.0","11444","1394","710","NA","2","legacy","4","1024","2","48000","-16","experiment","3","odd","8","744607","741372","742403","1725","87049","742405","658543","1732","85655","746610","747321","743406","13177","746609","NA","Sternberg Task","116","82760.0","124","1024"
"93","93","666","666","#000000","experiment","legacy","legacy","legacy","1","undefined","1","left","124","124","124","0","0","124","124","0","0","124","124","124","0","124","0","Tue Oct 17 15:27:20 2023","The main experiment item","False","SternbergTask.osexp","C:\Users\Simone\Desktop","False","mono","False","18","no","white","no","yes","768","legacy","112","11","C:/Users/Simone/Documents/SD-subject-3.csv","legacy","3 9 7 6 4","Melodramatic Milgram","4.0.5","3","y","0","left","left","right","left","NA","596.0","11444","1394","596","NA","2","legacy","5","1024","2","48000","-16","experiment","3","odd","7","750571","747325","748367","1725","87049","748368","658543","1732","85655","752573","753170","749369","13177","752573","NA","Sternberg Task","117","83356.0","125","1024"
"93","93","667","667","#000000","experiment","legacy","legacy","legacy","1","undefined","1","right","125","125","125","0","0","125","125","0","0","125","125","125","0","125","0","Tue Oct 17 15:27:20 2023","The main experiment item","False","SternbergTask.osexp","C:\Users\Simone\Desktop","False","mono","False","18","no","white","no","yes","768","legacy","113","11","C:/Users/Simone/Documents/SD-subject-3.csv","legacy","7 6 4 8 1 2","Melodramatic Milgram","4.0.5","0","n","0","right","left","right","right","NA","727.0","11444","1394","727","NA","2","legacy","6","1024","2","48000","-16","experiment","3","odd","9","756413","753180","754209","1725","87049","754210","658543","1732","85655","758414","759142","755211","13177","758414","NA","Sternberg Task","118","84083.0","126","1024"
"93","93","666","666","#000000","experiment","legacy","legacy","legacy","1","undefined","1","left","126","126","126","0","0","126","126","0","0","126","126","126","0","126","0","Tue Oct 17 15:27:20 2023","The main experiment item","False","SternbergTask.osexp","C:\Users\Simone\Desktop","False","mono","False","18","no","white","no","yes","768","legacy","114","11","C:/Users/Simone/Documents/SD-subject-3.csv","legacy","6 9 7 4 5 1","Melodramatic Milgram","4.0.5","2","y","0","left","left","right","left","NA","586.0","11444","1394","586","NA","2","legacy","6","1024","2","48000","-16","experiment","3","odd","9","762377","759146","760174","1725","87049","760175","658543","1732","85655","764378","764965","761176","13177","764378","NA","Sternberg Task","119","84669.0","127","1024"
