"acc","accuracy","average_response_time","avg_rt","background","block","canvas_backend","clock_backend","color_backend","compensation","coordinates","correct","correct_Instructions1","correct_KeyboardResponse","correct_response","count_CorrectFeedback","count_ExpSequence","count_ExperimentLoop","count_Fixation","count_ISI","count_IncorrectFeedback","count_Instructions1","count_Instructions2","count_KeyboardResponse","count_Logger","count_MemorySet","count_PracticeLoop","count_Probe","count_ThankYou","count_experiment","datetime","description","disable_garbage_collection","experiment_file","experiment_path","font_bold","font_family","font_italic","font_size","font_underline","foreground","form_clicks","fullscreen","height","keyboard_backend","live_row","live_row_PracticeLoop","logfile","mouse_backend","numberSet","opensesame_codename","opensesame_version","posInSet","present","repeat_cycle","response","response_Instructions1","response_Instructions2","response_KeyboardResponse","response_ThankYou","response_time","response_time_Instructions1","response_time_Instructions2","response_time_KeyboardResponse","response_time_ThankYou","round_decimals","sampler_backend","setSize","sound_buf_size","sound_channels","sound_freq","sound_sample_size","start","subject_nr","subject_parity","target","time_CorrectFeedback","time_ExpSequence","time_ExperimentLoop","time_Fixation","time_ISI","time_IncorrectFeedback","time_Instructions1","time_Instructions2","time_KeyboardResponse","time_Logger","time_MemorySet","time_PracticeLoop","time_Probe","time_ThankYou","time_experiment","title","total_correct","total_response_time","total_responses","uniform_coordinates","width"
"100","100","1608","1608","black","practice","legacy","legacy","legacy","0","uniform","1","undefined","1","left","0","0","0","0","0","0","0","0","0","0","0","0","0","0","0","Sat Oct 17 19:35:48 2020","The main experiment item","yes","SternbergTask.osexp","C:\Users\katri\OneDrive\Documents\Fall 2020\Sternberg Memory Task","no","mono","no","18","no","white","no","yes","768","legacy","0","0","C:/Users/katri/OneDrive/Documents/Fall 2020/Sternberg Memory Task/subject-1.csv","legacy","1 7 9 8 5","Lentiform Loewenfeld","3.3.3","4","y","0","left","left","NA","left","NA","1608","79356","NA","1608","NA","2","legacy","5","1024","2","48000","-16","experiment","1","odd","8","NA","81626","NA","81628","83834","NA","1928","NA","85837","87445","82630","81284","85837","NA","1920","Sternberg Task","1","1608","1","yes","1024"
"100","100","1289","1289","black","practice","legacy","legacy","legacy","0","uniform","1","undefined","1","right","1","1","0","1","1","1","0","0","1","1","1","0","1","0","0","Sat Oct 17 19:35:48 2020","The main experiment item","yes","SternbergTask.osexp","C:\Users\katri\OneDrive\Documents\Fall 2020\Sternberg Memory Task","no","mono","no","18","no","white","no","yes","768","legacy","1","1","C:/Users/katri/OneDrive/Documents/Fall 2020/Sternberg Memory Task/subject-1.csv","legacy","3 1 9 4","Lentiform Loewenfeld","3.3.3","0","n","0","right","left","NA","right","NA","970","79356","NA","970","NA","2","legacy","4","1024","2","48000","-16","experiment","1","odd","6","87537","88653","NA","88654","90860","NA","1928","NA","92862","93832","89657","81284","92861","NA","1920","Sternberg Task","2","2578","2","yes","1024"
"100","100","1256","1256","black","practice","legacy","legacy","legacy","0","uniform","1","undefined","1","right","2","2","0","2","2","2","0","0","2","2","2","0","2","0","0","Sat Oct 17 19:35:48 2020","The main experiment item","yes","SternbergTask.osexp","C:\Users\katri\OneDrive\Documents\Fall 2020\Sternberg Memory Task","no","mono","no","18","no","white","no","yes","768","legacy","2","2","C:/Users/katri/OneDrive/Documents/Fall 2020/Sternberg Memory Task/subject-1.csv","legacy","5 7 8 4 1 2","Lentiform Loewenfeld","3.3.3","0","n","0","right","left","NA","right","NA","1190","79356","NA","1190","NA","2","legacy","6","1024","2","48000","-16","experiment","1","odd","6","93841","94942","NA","94944","97154","NA","1928","NA","99156","100346","95949","81284","99156","NA","1920","Sternberg Task","3","3768","3","yes","1024"
"100","100","1147.5","1147.5","black","practice","legacy","legacy","legacy","0","uniform","1","undefined","1","left","3","3","0","3","3","3","0","0","3","3","3","0","3","0","0","Sat Oct 17 19:35:48 2020","The main experiment item","yes","SternbergTask.osexp","C:\Users\katri\OneDrive\Documents\Fall 2020\Sternberg Memory Task","no","mono","no","18","no","white","no","yes","768","legacy","3","3","C:/Users/katri/OneDrive/Documents/Fall 2020/Sternberg Memory Task/subject-1.csv","legacy","4 3 1 7 9 8","Lentiform Loewenfeld","3.3.3","1","y","0","left","left","NA","left","NA","822","79356","NA","822","NA","2","legacy","6","1024","2","48000","-16","experiment","1","odd","4","100372","101469","NA","101471","103681","NA","1928","NA","105683","106506","102475","81284","105683","NA","1920","Sternberg Task","4","4590","4","yes","1024"
"100","100","1053","1053","black","practice","legacy","legacy","legacy","0","uniform","1","undefined","1","right","4","4","0","4","4","4","0","0","4","4","4","0","4","0","0","Sat Oct 17 19:35:48 2020","The main experiment item","yes","SternbergTask.osexp","C:\Users\katri\OneDrive\Documents\Fall 2020\Sternberg Memory Task","no","mono","no","18","no","white","no","yes","768","legacy","4","4","C:/Users/katri/OneDrive/Documents/Fall 2020/Sternberg Memory Task/subject-1.csv","legacy","2 1","Lentiform Loewenfeld","3.3.3","0","n","0","right","left","NA","right","NA","675","79356","NA","675","NA","2","legacy","2","1024","2","48000","-16","experiment","1","odd","5","106531","107627","NA","107629","109839","NA","1928","NA","111844","112519","108633","81284","111844","NA","1920","Sternberg Task","5","5265","5","yes","1024"
"100","100","976.6666666666666","976.6666666666666","black","practice","legacy","legacy","legacy","0","uniform","1","undefined","1","left","5","5","0","5","5","5","0","0","5","5","5","0","5","0","0","Sat Oct 17 19:35:48 2020","The main experiment item","yes","SternbergTask.osexp","C:\Users\katri\OneDrive\Documents\Fall 2020\Sternberg Memory Task","no","mono","no","18","no","white","no","yes","768","legacy","5","5","C:/Users/katri/OneDrive/Documents/Fall 2020/Sternberg Memory Task/subject-1.csv","legacy","6","Lentiform Loewenfeld","3.3.3","1","y","0","left","left","NA","left","NA","595","79356","NA","595","NA","2","legacy","1","1024","2","48000","-16","experiment","1","odd","6","112544","113652","NA","113653","115859","NA","1928","NA","117861","118456","114655","81284","117861","NA","1920","Sternberg Task","6","5860","6","yes","1024"
"100","100","955","955","black","practice","legacy","legacy","legacy","0","uniform","1","undefined","1","left","6","6","0","6","6","6","0","0","6","6","6","0","6","0","0","Sat Oct 17 19:35:48 2020","The main experiment item","yes","SternbergTask.osexp","C:\Users\katri\OneDrive\Documents\Fall 2020\Sternberg Memory Task","no","mono","no","18","no","white","no","yes","768","legacy","6","6","C:/Users/katri/OneDrive/Documents/Fall 2020/Sternberg Memory Task/subject-1.csv","legacy","4 8","Lentiform Loewenfeld","3.3.3","1","y","0","left","left","NA","left","NA","825","79356","NA","825","NA","2","legacy","2","1024","2","48000","-16","experiment","1","odd","4","118463","119559","NA","119561","121770","NA","1928","NA","123774","124600","120565","81284","123774","NA","1920","Sternberg Task","7","6685","7","yes","1024"
"100","100","925.375","925.375","black","practice","legacy","legacy","legacy","0","uniform","1","undefined","1","right","7","7","0","7","7","7","0","0","7","7","7","0","7","0","0","Sat Oct 17 19:35:48 2020","The main experiment item","yes","SternbergTask.osexp","C:\Users\katri\OneDrive\Documents\Fall 2020\Sternberg Memory Task","no","mono","no","18","no","white","no","yes","768","legacy","7","7","C:/Users/katri/OneDrive/Documents/Fall 2020/Sternberg Memory Task/subject-1.csv","legacy","5","Lentiform Loewenfeld","3.3.3","0","n","0","right","left","NA","right","NA","718","79356","NA","718","NA","2","legacy","1","1024","2","48000","-16","experiment","1","odd","3","124606","125703","NA","125705","127914","NA","1928","NA","129916","130634","126710","81284","129916","NA","1920","Sternberg Task","8","7403","8","yes","1024"
"100","100","890.3333333333334","890.3333333333334","black","practice","legacy","legacy","legacy","0","uniform","1","undefined","1","left","8","8","0","8","8","8","0","0","8","8","8","0","8","0","0","Sat Oct 17 19:35:48 2020","The main experiment item","yes","SternbergTask.osexp","C:\Users\katri\OneDrive\Documents\Fall 2020\Sternberg Memory Task","no","mono","no","18","no","white","no","yes","768","legacy","8","8","C:/Users/katri/OneDrive/Documents/Fall 2020/Sternberg Memory Task/subject-1.csv","legacy","1 5 2 9","Lentiform Loewenfeld","3.3.3","2","y","0","left","left","NA","left","NA","610","79356","NA","610","NA","2","legacy","4","1024","2","48000","-16","experiment","1","odd","5","130643","131750","NA","131752","133961","NA","1928","NA","135966","136576","132756","81284","135965","NA","1920","Sternberg Task","9","8013","9","yes","1024"
"100","100","870.7","870.7","black","practice","legacy","legacy","legacy","0","uniform","1","undefined","1","right","9","9","0","9","9","9","0","0","9","9","9","0","9","0","0","Sat Oct 17 19:35:48 2020","The main experiment item","yes","SternbergTask.osexp","C:\Users\katri\OneDrive\Documents\Fall 2020\Sternberg Memory Task","no","mono","no","18","no","white","no","yes","768","legacy","9","9","C:/Users/katri/OneDrive/Documents/Fall 2020/Sternberg Memory Task/subject-1.csv","legacy","9 6 7 4 5","Lentiform Loewenfeld","3.3.3","0","n","0","right","left","NA","right","NA","694","79356","NA","694","NA","2","legacy","5","1024","2","48000","-16","experiment","1","odd","3","136585","137685","NA","137687","139894","NA","1928","NA","141896","142591","138690","81284","141896","NA","1920","Sternberg Task","10","8707","10","yes","1024"
"100","100","866.3636363636364","866.3636363636364","black","practice","legacy","legacy","legacy","0","uniform","1","undefined","1","left","10","10","0","10","10","10","0","0","10","10","10","0","10","0","0","Sat Oct 17 19:35:48 2020","The main experiment item","yes","SternbergTask.osexp","C:\Users\katri\OneDrive\Documents\Fall 2020\Sternberg Memory Task","no","mono","no","18","no","white","no","yes","768","legacy","10","10","C:/Users/katri/OneDrive/Documents/Fall 2020/Sternberg Memory Task/subject-1.csv","legacy","2 9 4","Lentiform Loewenfeld","3.3.3","3","y","0","left","left","NA","left","NA","823","79356","NA","823","NA","2","legacy","3","1024","2","48000","-16","experiment","1","odd","4","142616","143710","NA","143712","145915","NA","1928","NA","147917","148740","144714","81284","147917","NA","1920","Sternberg Task","11","9530","11","yes","1024"
"100","100","843.5833333333334","843.5833333333334","black","practice","legacy","legacy","legacy","0","uniform","1","undefined","1","right","11","11","0","11","11","11","0","0","11","11","11","0","11","0","0","Sat Oct 17 19:35:48 2020","The main experiment item","yes","SternbergTask.osexp","C:\Users\katri\OneDrive\Documents\Fall 2020\Sternberg Memory Task","no","mono","no","18","no","white","no","yes","768","legacy","11","11","C:/Users/katri/OneDrive/Documents/Fall 2020/Sternberg Memory Task/subject-1.csv","legacy","4 1 5","Lentiform Loewenfeld","3.3.3","0","n","0","right","left","NA","right","NA","593","79356","NA","593","NA","2","legacy","3","1024","2","48000","-16","experiment","1","odd","2","148748","149855","NA","149856","152063","NA","1928","NA","154068","154661","150858","81284","154067","NA","1920","Sternberg Task","12","10123","12","yes","1024"
"100","100","838.3076923076923","838.3076923076923","black","experiment","legacy","legacy","legacy","0","uniform","1","undefined","1","right","12","12","0","12","12","12","0","0","12","12","12","0","12","0","0","Sat Oct 17 19:35:48 2020","The main experiment item","yes","SternbergTask.osexp","C:\Users\katri\OneDrive\Documents\Fall 2020\Sternberg Memory Task","no","mono","no","18","no","white","no","yes","768","legacy","0","11","C:/Users/katri/OneDrive/Documents/Fall 2020/Sternberg Memory Task/subject-1.csv","legacy","8 5 4 2 9 6","Lentiform Loewenfeld","3.3.3","0","n","0","right","left","right","right","NA","775","79356","25603","775","NA","2","legacy","6","1024","2","48000","-16","experiment","1","odd","3","154686","181406","181340","181408","183614","NA","1928","155736","185616","186391","182410","81284","185616","NA","1920","Sternberg Task","13","10898","13","yes","1024"
"100","100","820","820","black","experiment","legacy","legacy","legacy","0","uniform","1","undefined","1","left","13","13","0","13","13","13","0","0","13","13","13","0","13","0","0","Sat Oct 17 19:35:48 2020","The main experiment item","yes","SternbergTask.osexp","C:\Users\katri\OneDrive\Documents\Fall 2020\Sternberg Memory Task","no","mono","no","18","no","white","no","yes","768","legacy","1","11","C:/Users/katri/OneDrive/Documents/Fall 2020/Sternberg Memory Task/subject-1.csv","legacy","9 6 2 4 1","Lentiform Loewenfeld","3.3.3","4","y","0","left","left","right","left","NA","582","79356","25603","582","NA","2","legacy","5","1024","2","48000","-16","experiment","1","odd","4","186417","187524","181340","187526","189732","NA","1928","155736","191735","192317","188528","81284","191735","NA","1920","Sternberg Task","14","11480","14","yes","1024"
"100","100","819.1333333333333","819.1333333333333","black","experiment","legacy","legacy","legacy","0","uniform","1","undefined","1","right","14","14","0","14","14","14","0","0","14","14","14","0","14","0","0","Sat Oct 17 19:35:48 2020","The main experiment item","yes","SternbergTask.osexp","C:\Users\katri\OneDrive\Documents\Fall 2020\Sternberg Memory Task","no","mono","no","18","no","white","no","yes","768","legacy","2","11","C:/Users/katri/OneDrive/Documents/Fall 2020/Sternberg Memory Task/subject-1.csv","legacy","2 8 9 4 1","Lentiform Loewenfeld","3.3.3","0","n","0","right","left","right","right","NA","807","79356","25603","807","NA","2","legacy","5","1024","2","48000","-16","experiment","1","odd","5","192342","193436","181340","193437","195646","NA","1928","155736","197650","198457","194442","81284","197650","NA","1920","Sternberg Task","15","12287","15","yes","1024"
"100","100","814.5","814.5","black","experiment","legacy","legacy","legacy","0","uniform","1","undefined","1","left","15","15","0","15","15","15","0","0","15","15","15","0","15","0","0","Sat Oct 17 19:35:48 2020","The main experiment item","yes","SternbergTask.osexp","C:\Users\katri\OneDrive\Documents\Fall 2020\Sternberg Memory Task","no","mono","no","18","no","white","no","yes","768","legacy","3","11","C:/Users/katri/OneDrive/Documents/Fall 2020/Sternberg Memory Task/subject-1.csv","legacy","7 8 6 3 1","Lentiform Loewenfeld","3.3.3","5","y","0","left","left","right","left","NA","745","79356","25603","745","NA","2","legacy","5","1024","2","48000","-16","experiment","1","odd","1","198464","199554","181340","199556","201761","NA","1928","155736","203763","204508","200558","81284","203763","NA","1920","Sternberg Task","16","13032","16","yes","1024"
"100","100","805.5294117647059","805.5294117647059","black","experiment","legacy","legacy","legacy","0","uniform","1","undefined","1","right","16","16","0","16","16","16","0","0","16","16","16","0","16","0","0","Sat Oct 17 19:35:48 2020","The main experiment item","yes","SternbergTask.osexp","C:\Users\katri\OneDrive\Documents\Fall 2020\Sternberg Memory Task","no","mono","no","18","no","white","no","yes","768","legacy","4","11","C:/Users/katri/OneDrive/Documents/Fall 2020/Sternberg Memory Task/subject-1.csv","legacy","8 5 7 3 6","Lentiform Loewenfeld","3.3.3","0","n","0","right","left","right","right","NA","662","79356","25603","662","NA","2","legacy","5","1024","2","48000","-16","experiment","1","odd","9","204535","205643","181340","205645","207850","NA","1928","155736","209855","210517","206647","81284","209854","NA","1920","Sternberg Task","17","13694","17","yes","1024"
"100","100","796.3333333333334","796.3333333333334","black","experiment","legacy","legacy","legacy","0","uniform","1","undefined","1","left","17","17","0","17","17","17","0","0","17","17","17","0","17","0","0","Sat Oct 17 19:35:48 2020","The main experiment item","yes","SternbergTask.osexp","C:\Users\katri\OneDrive\Documents\Fall 2020\Sternberg Memory Task","no","mono","no","18","no","white","no","yes","768","legacy","5","11","C:/Users/katri/OneDrive/Documents/Fall 2020/Sternberg Memory Task/subject-1.csv","legacy","6 7 8 5","Lentiform Loewenfeld","3.3.3","3","y","0","left","left","right","left","NA","640","79356","25603","640","NA","2","legacy","4","1024","2","48000","-16","experiment","1","odd","8","210524","211621","181340","211622","213834","NA","1928","155736","215839","216480","212627","81284","215838","NA","1920","Sternberg Task","18","14334","18","yes","1024"
"100","100","784.421052631579","784.421052631579","black","experiment","legacy","legacy","legacy","0","uniform","1","undefined","1","right","18","18","0","18","18","18","0","0","18","18","18","0","18","0","0","Sat Oct 17 19:35:48 2020","The main experiment item","yes","SternbergTask.osexp","C:\Users\katri\OneDrive\Documents\Fall 2020\Sternberg Memory Task","no","mono","no","18","no","white","no","yes","768","legacy","6","11","C:/Users/katri/OneDrive/Documents/Fall 2020/Sternberg Memory Task/subject-1.csv","legacy","7 8 6 1","Lentiform Loewenfeld","3.3.3","0","n","0","right","left","right","right","NA","570","79356","25603","570","NA","2","legacy","4","1024","2","48000","-16","experiment","1","odd","3","216487","217584","181340","217586","219791","NA","1928","155736","221796","222366","218587","81284","221795","NA","1920","Sternberg Task","19","14904","19","yes","1024"
"95","95","831.45","831.45","black","experiment","legacy","legacy","legacy","0","uniform","0","undefined","0","left","19","19","0","19","19","19","0","0","19","19","19","0","19","0","0","Sat Oct 17 19:35:48 2020","The main experiment item","yes","SternbergTask.osexp","C:\Users\katri\OneDrive\Documents\Fall 2020\Sternberg Memory Task","no","mono","no","18","no","white","no","yes","768","legacy","7","11","C:/Users/katri/OneDrive/Documents/Fall 2020/Sternberg Memory Task/subject-1.csv","legacy","5 7 8 2 3 8","Lentiform Loewenfeld","3.3.3","5","y","0","right","left","right","right","NA","1725","79356","25603","1725","NA","2","legacy","6","1024","2","48000","-16","experiment","1","odd","3","222373","223462","181340","223463","225671","NA","1928","155736","227673","229398","224467","81284","227673","NA","1920","Sternberg Task","19","16629","20","yes","1024"
"95.23809523809524","95.23809523809524","817.952380952381","817.952380952381","black","experiment","legacy","legacy","legacy","0","uniform","1","undefined","1","left","20","20","0","20","20","20","0","0","20","20","20","0","20","0","0","Sat Oct 17 19:35:48 2020","The main experiment item","yes","SternbergTask.osexp","C:\Users\katri\OneDrive\Documents\Fall 2020\Sternberg Memory Task","no","mono","no","18","no","white","no","yes","768","legacy","8","11","C:/Users/katri/OneDrive/Documents/Fall 2020/Sternberg Memory Task/subject-1.csv","legacy","7","Lentiform Loewenfeld","3.3.3","1","y","0","left","left","right","left","NA","548","79356","25603","548","NA","2","legacy","1","1024","2","48000","-16","experiment","1","odd","7","222373","230530","181340","230531","232737","229424","1928","155736","234742","235291","231533","81284","234742","NA","1920","Sternberg Task","20","17177","21","yes","1024"
"95.45454545454545","95.45454545454545","809.5909090909091","809.5909090909091","black","experiment","legacy","legacy","legacy","0","uniform","1","undefined","1","right","21","21","0","21","21","21","0","0","21","21","21","0","21","0","0","Sat Oct 17 19:35:48 2020","The main experiment item","yes","SternbergTask.osexp","C:\Users\katri\OneDrive\Documents\Fall 2020\Sternberg Memory Task","no","mono","no","18","no","white","no","yes","768","legacy","9","11","C:/Users/katri/OneDrive/Documents/Fall 2020/Sternberg Memory Task/subject-1.csv","legacy","1 8 7","Lentiform Loewenfeld","3.3.3","0","n","0","right","left","right","right","NA","634","79356","25603","634","NA","2","legacy","3","1024","2","48000","-16","experiment","1","odd","4","235317","236417","181340","236419","238626","229424","1928","155736","240632","241266","237422","81284","240632","NA","1920","Sternberg Task","21","17811","22","yes","1024"
"95.65217391304348","95.65217391304348","806.1739130434783","806.1739130434783","black","experiment","legacy","legacy","legacy","0","uniform","1","undefined","1","left","22","22","0","22","22","22","0","0","22","22","22","0","22","0","0","Sat Oct 17 19:35:48 2020","The main experiment item","yes","SternbergTask.osexp","C:\Users\katri\OneDrive\Documents\Fall 2020\Sternberg Memory Task","no","mono","no","18","no","white","no","yes","768","legacy","10","11","C:/Users/katri/OneDrive/Documents/Fall 2020/Sternberg Memory Task/subject-1.csv","legacy","4 1 5","Lentiform Loewenfeld","3.3.3","2","y","0","left","left","right","left","NA","731","79356","25603","731","NA","2","legacy","3","1024","2","48000","-16","experiment","1","odd","1","241291","242386","181340","242388","244597","229424","1928","155736","246599","247331","243392","81284","246599","NA","1920","Sternberg Task","22","18542","23","yes","1024"
"95.83333333333333","95.83333333333333","811.625","811.625","black","experiment","legacy","legacy","legacy","0","uniform","1","undefined","1","left","23","23","0","23","23","23","0","0","23","23","23","0","23","0","0","Sat Oct 17 19:35:48 2020","The main experiment item","yes","SternbergTask.osexp","C:\Users\katri\OneDrive\Documents\Fall 2020\Sternberg Memory Task","no","mono","no","18","no","white","no","yes","768","legacy","11","11","C:/Users/katri/OneDrive/Documents/Fall 2020/Sternberg Memory Task/subject-1.csv","legacy","4 6 2 5 1","Lentiform Loewenfeld","3.3.3","5","y","0","left","left","right","left","NA","937","79356","25603","937","NA","2","legacy","5","1024","2","48000","-16","experiment","1","odd","1","247339","248446","181340","248447","250653","229424","1928","155736","252656","253593","249449","81284","252656","NA","1920","Sternberg Task","23","19479","24","yes","1024"
"96","96","803.88","803.88","black","experiment","legacy","legacy","legacy","0","uniform","1","undefined","1","left","24","24","0","24","24","24","0","0","24","24","24","0","24","0","0","Sat Oct 17 19:35:48 2020","The main experiment item","yes","SternbergTask.osexp","C:\Users\katri\OneDrive\Documents\Fall 2020\Sternberg Memory Task","no","mono","no","18","no","white","no","yes","768","legacy","12","11","C:/Users/katri/OneDrive/Documents/Fall 2020/Sternberg Memory Task/subject-1.csv","legacy","6 7 9 3 1 2","Lentiform Loewenfeld","3.3.3","1","y","0","left","left","right","left","NA","618","79356","25603","618","NA","2","legacy","6","1024","2","48000","-16","experiment","1","odd","6","253601","254713","181340","254713","256919","229424","1928","155736","258921","259540","255715","81284","258920","NA","1920","Sternberg Task","24","20097","25","yes","1024"
"96.15384615384616","96.15384615384616","799","799","black","experiment","legacy","legacy","legacy","0","uniform","1","undefined","1","right","25","25","0","25","25","25","0","0","25","25","25","0","25","0","0","Sat Oct 17 19:35:48 2020","The main experiment item","yes","SternbergTask.osexp","C:\Users\katri\OneDrive\Documents\Fall 2020\Sternberg Memory Task","no","mono","no","18","no","white","no","yes","768","legacy","13","11","C:/Users/katri/OneDrive/Documents/Fall 2020/Sternberg Memory Task/subject-1.csv","legacy","9","Lentiform Loewenfeld","3.3.3","0","n","0","right","left","right","right","NA","677","79356","25603","677","NA","2","legacy","1","1024","2","48000","-16","experiment","1","odd","6","259547","260635","181340","260637","262843","229424","1928","155736","264847","265524","261639","81284","264847","NA","1920","Sternberg Task","25","20774","26","yes","1024"
"96.29629629629629","96.29629629629629","795.4074074074074","795.4074074074074","black","experiment","legacy","legacy","legacy","0","uniform","1","undefined","1","left","26","26","0","26","26","26","0","0","26","26","26","0","26","0","0","Sat Oct 17 19:35:48 2020","The main experiment item","yes","SternbergTask.osexp","C:\Users\katri\OneDrive\Documents\Fall 2020\Sternberg Memory Task","no","mono","no","18","no","white","no","yes","768","legacy","14","11","C:/Users/katri/OneDrive/Documents/Fall 2020/Sternberg Memory Task/subject-1.csv","legacy","6 9 7 4 5 1","Lentiform Loewenfeld","3.3.3","2","y","0","left","left","right","left","NA","702","79356","25603","702","NA","2","legacy","6","1024","2","48000","-16","experiment","1","odd","9","265550","266655","181340","266657","268864","229424","1928","155736","270866","271568","267659","81284","270866","NA","1920","Sternberg Task","26","21476","27","yes","1024"
"96.42857142857143","96.42857142857143","791.6428571428571","791.6428571428571","black","experiment","legacy","legacy","legacy","0","uniform","1","undefined","1","right","27","27","0","27","27","27","0","0","27","27","27","0","27","0","0","Sat Oct 17 19:35:48 2020","The main experiment item","yes","SternbergTask.osexp","C:\Users\katri\OneDrive\Documents\Fall 2020\Sternberg Memory Task","no","mono","no","18","no","white","no","yes","768","legacy","15","11","C:/Users/katri/OneDrive/Documents/Fall 2020/Sternberg Memory Task/subject-1.csv","legacy","1 3 2 6 9","Lentiform Loewenfeld","3.3.3","0","n","0","right","left","right","right","NA","690","79356","25603","690","NA","2","legacy","5","1024","2","48000","-16","experiment","1","odd","5","271594","272707","181340","272709","274915","229424","1928","155736","276917","277607","273711","81284","276917","NA","1920","Sternberg Task","27","22166","28","yes","1024"
"96.55172413793103","96.55172413793103","792.6551724137931","792.6551724137931","black","experiment","legacy","legacy","legacy","0","uniform","1","undefined","1","right","28","28","0","28","28","28","0","0","28","28","28","0","28","0","0","Sat Oct 17 19:35:48 2020","The main experiment item","yes","SternbergTask.osexp","C:\Users\katri\OneDrive\Documents\Fall 2020\Sternberg Memory Task","no","mono","no","18","no","white","no","yes","768","legacy","16","11","C:/Users/katri/OneDrive/Documents/Fall 2020/Sternberg Memory Task/subject-1.csv","legacy","3 9 8 1 6 4","Lentiform Loewenfeld","3.3.3","0","n","0","right","left","right","right","NA","821","79356","25603","821","NA","2","legacy","6","1024","2","48000","-16","experiment","1","odd","7","277632","278744","181340","278746","280952","229424","1928","155736","282955","283776","279748","81284","282955","NA","1920","Sternberg Task","28","22987","29","yes","1024"
"96.66666666666667","96.66666666666667","788.1333333333333","788.1333333333333","black","experiment","legacy","legacy","legacy","0","uniform","1","undefined","1","right","29","29","0","29","29","29","0","0","29","29","29","0","29","0","0","Sat Oct 17 19:35:48 2020","The main experiment item","yes","SternbergTask.osexp","C:\Users\katri\OneDrive\Documents\Fall 2020\Sternberg Memory Task","no","mono","no","18","no","white","no","yes","768","legacy","17","11","C:/Users/katri/OneDrive/Documents/Fall 2020/Sternberg Memory Task/subject-1.csv","legacy","8 4 3 5","Lentiform Loewenfeld","3.3.3","0","n","0","right","left","right","right","NA","657","79356","25603","657","NA","2","legacy","4","1024","2","48000","-16","experiment","1","odd","6","283785","284891","181340","284893","287102","229424","1928","155736","289104","289761","285897","81284","289104","NA","1920","Sternberg Task","29","23644","30","yes","1024"
"96.7741935483871","96.7741935483871","786.6774193548387","786.6774193548387","black","experiment","legacy","legacy","legacy","0","uniform","1","undefined","1","right","30","30","0","30","30","30","0","0","30","30","30","0","30","0","0","Sat Oct 17 19:35:48 2020","The main experiment item","yes","SternbergTask.osexp","C:\Users\katri\OneDrive\Documents\Fall 2020\Sternberg Memory Task","no","mono","no","18","no","white","no","yes","768","legacy","18","11","C:/Users/katri/OneDrive/Documents/Fall 2020/Sternberg Memory Task/subject-1.csv","legacy","9 5 3 2 8 6","Lentiform Loewenfeld","3.3.3","0","n","0","right","left","right","right","NA","743","79356","25603","743","NA","2","legacy","6","1024","2","48000","-16","experiment","1","odd","7","289786","290888","181340","290890","293095","229424","1928","155736","295097","295840","291892","81284","295097","NA","1920","Sternberg Task","30","24387","31","yes","1024"
"96.875","96.875","788.53125","788.53125","black","experiment","legacy","legacy","legacy","0","uniform","1","undefined","1","right","31","31","0","31","31","31","0","0","31","31","31","0","31","0","0","Sat Oct 17 19:35:48 2020","The main experiment item","yes","SternbergTask.osexp","C:\Users\katri\OneDrive\Documents\Fall 2020\Sternberg Memory Task","no","mono","no","18","no","white","no","yes","768","legacy","19","11","C:/Users/katri/OneDrive/Documents/Fall 2020/Sternberg Memory Task/subject-1.csv","legacy","3 9 1","Lentiform Loewenfeld","3.3.3","0","n","0","right","left","right","right","NA","846","79356","25603","846","NA","2","legacy","3","1024","2","48000","-16","experiment","1","odd","7","295868","296968","181340","296970","299176","229424","1928","155736","301178","302024","297972","81284","301178","NA","1920","Sternberg Task","31","25233","32","yes","1024"
"96.96969696969697","96.96969696969697","784.939393939394","784.939393939394","black","experiment","legacy","legacy","legacy","0","uniform","1","undefined","1","left","32","32","0","32","32","32","0","0","32","32","32","0","32","0","0","Sat Oct 17 19:35:48 2020","The main experiment item","yes","SternbergTask.osexp","C:\Users\katri\OneDrive\Documents\Fall 2020\Sternberg Memory Task","no","mono","no","18","no","white","no","yes","768","legacy","20","11","C:/Users/katri/OneDrive/Documents/Fall 2020/Sternberg Memory Task/subject-1.csv","legacy","6 8 9 3 4 9","Lentiform Loewenfeld","3.3.3","5","y","0","left","left","right","left","NA","670","79356","25603","670","NA","2","legacy","6","1024","2","48000","-16","experiment","1","odd","4","302049","303149","181340","303152","305361","229424","1928","155736","307365","308035","304156","81284","307365","NA","1920","Sternberg Task","32","25903","33","yes","1024"
"97.05882352941177","97.05882352941177","779.6176470588235","779.6176470588235","black","experiment","legacy","legacy","legacy","0","uniform","1","undefined","1","left","33","33","0","33","33","33","0","0","33","33","33","0","33","0","0","Sat Oct 17 19:35:48 2020","The main experiment item","yes","SternbergTask.osexp","C:\Users\katri\OneDrive\Documents\Fall 2020\Sternberg Memory Task","no","mono","no","18","no","white","no","yes","768","legacy","21","11","C:/Users/katri/OneDrive/Documents/Fall 2020/Sternberg Memory Task/subject-1.csv","legacy","9 1 7 2","Lentiform Loewenfeld","3.3.3","2","y","0","left","left","right","left","NA","604","79356","25603","604","NA","2","legacy","4","1024","2","48000","-16","experiment","1","odd","1","308042","309138","181340","309140","311346","229424","1928","155736","313351","313956","310142","81284","313351","NA","1920","Sternberg Task","33","26507","34","yes","1024"
"97.14285714285714","97.14285714285714","778.9714285714285","778.9714285714285","black","experiment","legacy","legacy","legacy","0","uniform","1","undefined","1","left","34","34","0","34","34","34","0","0","34","34","34","0","34","0","0","Sat Oct 17 19:35:48 2020","The main experiment item","yes","SternbergTask.osexp","C:\Users\katri\OneDrive\Documents\Fall 2020\Sternberg Memory Task","no","mono","no","18","no","white","no","yes","768","legacy","22","11","C:/Users/katri/OneDrive/Documents/Fall 2020/Sternberg Memory Task/subject-1.csv","legacy","7 6","Lentiform Loewenfeld","3.3.3","2","y","0","left","left","right","left","NA","757","79356","25603","757","NA","2","legacy","2","1024","2","48000","-16","experiment","1","odd","6","313963","315078","181340","315079","317284","229424","1928","155736","319286","320044","316083","81284","319286","NA","1920","Sternberg Task","34","27264","35","yes","1024"
"97.22222222222223","97.22222222222223","775.9166666666666","775.9166666666666","black","experiment","legacy","legacy","legacy","0","uniform","1","undefined","1","left","35","35","0","35","35","35","0","0","35","35","35","0","35","0","0","Sat Oct 17 19:35:48 2020","The main experiment item","yes","SternbergTask.osexp","C:\Users\katri\OneDrive\Documents\Fall 2020\Sternberg Memory Task","no","mono","no","18","no","white","no","yes","768","legacy","23","11","C:/Users/katri/OneDrive/Documents/Fall 2020/Sternberg Memory Task/subject-1.csv","legacy","8","Lentiform Loewenfeld","3.3.3","1","y","0","left","left","right","left","NA","669","79356","25603","669","NA","2","legacy","1","1024","2","48000","-16","experiment","1","odd","8","320069","321167","181340","321169","323378","229424","1928","155736","325381","326051","322174","81284","325381","NA","1920","Sternberg Task","35","27933","36","yes","1024"
"97.29729729729729","97.29729729729729","774.6756756756756","774.6756756756756","black","experiment","legacy","legacy","legacy","0","uniform","1","undefined","1","right","36","36","0","36","36","36","0","0","36","36","36","0","36","0","0","Sat Oct 17 19:35:48 2020","The main experiment item","yes","SternbergTask.osexp","C:\Users\katri\OneDrive\Documents\Fall 2020\Sternberg Memory Task","no","mono","no","18","no","white","no","yes","768","legacy","24","11","C:/Users/katri/OneDrive/Documents/Fall 2020/Sternberg Memory Task/subject-1.csv","legacy","6 8 4","Lentiform Loewenfeld","3.3.3","0","n","0","right","left","right","right","NA","730","79356","25603","730","NA","2","legacy","3","1024","2","48000","-16","experiment","1","odd","1","326060","327154","181340","327156","329362","229424","1928","155736","331365","332095","328158","81284","331365","NA","1920","Sternberg Task","36","28663","37","yes","1024"
"97.36842105263158","97.36842105263158","771.0263157894736","771.0263157894736","black","experiment","legacy","legacy","legacy","0","uniform","1","undefined","1","left","37","37","0","37","37","37","0","0","37","37","37","0","37","0","0","Sat Oct 17 19:35:48 2020","The main experiment item","yes","SternbergTask.osexp","C:\Users\katri\OneDrive\Documents\Fall 2020\Sternberg Memory Task","no","mono","no","18","no","white","no","yes","768","legacy","25","11","C:/Users/katri/OneDrive/Documents/Fall 2020/Sternberg Memory Task/subject-1.csv","legacy","8 9 6 1","Lentiform Loewenfeld","3.3.3","2","y","0","left","left","right","left","NA","636","79356","25603","636","NA","2","legacy","4","1024","2","48000","-16","experiment","1","odd","9","332102","333208","181340","333210","335418","229424","1928","155736","337423","338059","334215","81284","337423","NA","1920","Sternberg Task","37","29299","38","yes","1024"
"97.43589743589743","97.43589743589743","764.2820512820513","764.2820512820513","black","experiment","legacy","legacy","legacy","0","uniform","1","undefined","1","left","38","38","0","38","38","38","0","0","38","38","38","0","38","0","0","Sat Oct 17 19:35:48 2020","The main experiment item","yes","SternbergTask.osexp","C:\Users\katri\OneDrive\Documents\Fall 2020\Sternberg Memory Task","no","mono","no","18","no","white","no","yes","768","legacy","26","11","C:/Users/katri/OneDrive/Documents/Fall 2020/Sternberg Memory Task/subject-1.csv","legacy","4 6 5 8","Lentiform Loewenfeld","3.3.3","1","y","0","left","left","right","left","NA","508","79356","25603","508","NA","2","legacy","4","1024","2","48000","-16","experiment","1","odd","4","338084","339178","181340","339180","341386","229424","1928","155736","343388","343897","340182","81284","343388","NA","1920","Sternberg Task","38","29807","39","yes","1024"
"97.5","97.5","765.625","765.625","black","experiment","legacy","legacy","legacy","0","uniform","1","undefined","1","right","39","39","0","39","39","39","0","0","39","39","39","0","39","0","0","Sat Oct 17 19:35:48 2020","The main experiment item","yes","SternbergTask.osexp","C:\Users\katri\OneDrive\Documents\Fall 2020\Sternberg Memory Task","no","mono","no","18","no","white","no","yes","768","legacy","27","11","C:/Users/katri/OneDrive/Documents/Fall 2020/Sternberg Memory Task/subject-1.csv","legacy","4 2 6 9","Lentiform Loewenfeld","3.3.3","0","n","0","right","left","right","right","NA","818","79356","25603","818","NA","2","legacy","4","1024","2","48000","-16","experiment","1","odd","7","343904","345015","181340","345017","347226","229424","1928","155736","349228","350047","346021","81284","349228","NA","1920","Sternberg Task","39","30625","40","yes","1024"
"97.5609756097561","97.5609756097561","763.560975609756","763.560975609756","black","experiment","legacy","legacy","legacy","0","uniform","1","undefined","1","right","40","40","0","40","40","40","0","0","40","40","40","0","40","0","0","Sat Oct 17 19:35:48 2020","The main experiment item","yes","SternbergTask.osexp","C:\Users\katri\OneDrive\Documents\Fall 2020\Sternberg Memory Task","no","mono","no","18","no","white","no","yes","768","legacy","28","11","C:/Users/katri/OneDrive/Documents/Fall 2020/Sternberg Memory Task/subject-1.csv","legacy","5","Lentiform Loewenfeld","3.3.3","0","n","0","right","left","right","right","NA","681","79356","25603","681","NA","2","legacy","1","1024","2","48000","-16","experiment","1","odd","8","350070","351177","181340","351178","353384","229424","1928","155736","355389","356071","352180","81284","355388","NA","1920","Sternberg Task","40","31306","41","yes","1024"
"97.61904761904762","97.61904761904762","762.7857142857143","762.7857142857143","black","experiment","legacy","legacy","legacy","0","uniform","1","undefined","1","left","41","41","0","41","41","41","0","0","41","41","41","0","41","0","0","Sat Oct 17 19:35:48 2020","The main experiment item","yes","SternbergTask.osexp","C:\Users\katri\OneDrive\Documents\Fall 2020\Sternberg Memory Task","no","mono","no","18","no","white","no","yes","768","legacy","29","11","C:/Users/katri/OneDrive/Documents/Fall 2020/Sternberg Memory Task/subject-1.csv","legacy","7 8 4 6 9 5","Lentiform Loewenfeld","3.3.3","4","y","0","left","left","right","left","NA","731","79356","25603","731","NA","2","legacy","6","1024","2","48000","-16","experiment","1","odd","6","356124","357200","181340","357202","359410","229424","1928","155736","361411","362142","358205","81284","361411","NA","1920","Sternberg Task","41","32037","42","yes","1024"
"97.67441860465117","97.67441860465117","759.8604651162791","759.8604651162791","black","experiment","legacy","legacy","legacy","0","uniform","1","undefined","1","left","42","42","0","42","42","42","0","0","42","42","42","0","42","0","0","Sat Oct 17 19:35:48 2020","The main experiment item","yes","SternbergTask.osexp","C:\Users\katri\OneDrive\Documents\Fall 2020\Sternberg Memory Task","no","mono","no","18","no","white","no","yes","768","legacy","30","11","C:/Users/katri/OneDrive/Documents/Fall 2020/Sternberg Memory Task/subject-1.csv","legacy","8 3","Lentiform Loewenfeld","3.3.3","2","y","0","left","left","right","left","NA","637","79356","25603","637","NA","2","legacy","2","1024","2","48000","-16","experiment","1","odd","3","362167","363260","181340","363261","365470","229424","1928","155736","367472","368110","364266","81284","367472","NA","1920","Sternberg Task","42","32674","43","yes","1024"
"97.72727272727273","97.72727272727273","757.75","757.75","black","experiment","legacy","legacy","legacy","0","uniform","1","undefined","1","left","43","43","0","43","43","43","0","0","43","43","43","0","43","0","0","Sat Oct 17 19:35:48 2020","The main experiment item","yes","SternbergTask.osexp","C:\Users\katri\OneDrive\Documents\Fall 2020\Sternberg Memory Task","no","mono","no","18","no","white","no","yes","768","legacy","31","11","C:/Users/katri/OneDrive/Documents/Fall 2020/Sternberg Memory Task/subject-1.csv","legacy","3 4","Lentiform Loewenfeld","3.3.3","1","y","0","left","left","right","left","NA","667","79356","25603","667","NA","2","legacy","2","1024","2","48000","-16","experiment","1","odd","3","368117","369213","181340","369215","371424","229424","1928","155736","373426","374093","370219","81284","373426","NA","1920","Sternberg Task","43","33341","44","yes","1024"
"97.77777777777777","97.77777777777777","758.2222222222222","758.2222222222222","black","experiment","legacy","legacy","legacy","0","uniform","1","undefined","1","left","44","44","0","44","44","44","0","0","44","44","44","0","44","0","0","Sat Oct 17 19:35:48 2020","The main experiment item","yes","SternbergTask.osexp","C:\Users\katri\OneDrive\Documents\Fall 2020\Sternberg Memory Task","no","mono","no","18","no","white","no","yes","768","legacy","32","11","C:/Users/katri/OneDrive/Documents/Fall 2020/Sternberg Memory Task/subject-1.csv","legacy","8 1 6","Lentiform Loewenfeld","3.3.3","3","y","0","left","left","right","left","NA","779","79356","25603","779","NA","2","legacy","3","1024","2","48000","-16","experiment","1","odd","6","374101","375208","181340","375209","377418","229424","1928","155736","379422","380201","376213","81284","379422","NA","1920","Sternberg Task","44","34120","45","yes","1024"
"97.82608695652173","97.82608695652173","755.2608695652174","755.2608695652174","black","experiment","legacy","legacy","legacy","0","uniform","1","undefined","1","right","45","45","0","45","45","45","0","0","45","45","45","0","45","0","0","Sat Oct 17 19:35:48 2020","The main experiment item","yes","SternbergTask.osexp","C:\Users\katri\OneDrive\Documents\Fall 2020\Sternberg Memory Task","no","mono","no","18","no","white","no","yes","768","legacy","33","11","C:/Users/katri/OneDrive/Documents/Fall 2020/Sternberg Memory Task/subject-1.csv","legacy","5 2","Lentiform Loewenfeld","3.3.3","0","n","0","right","left","right","right","NA","622","79356","25603","622","NA","2","legacy","2","1024","2","48000","-16","experiment","1","odd","7","380229","381334","181340","381335","383544","229424","1928","155736","385548","386171","382340","81284","385548","NA","1920","Sternberg Task","45","34742","46","yes","1024"
"97.87234042553192","97.87234042553192","756.531914893617","756.531914893617","black","experiment","legacy","legacy","legacy","0","uniform","1","undefined","1","right","46","46","0","46","46","46","0","0","46","46","46","0","46","0","0","Sat Oct 17 19:35:48 2020","The main experiment item","yes","SternbergTask.osexp","C:\Users\katri\OneDrive\Documents\Fall 2020\Sternberg Memory Task","no","mono","no","18","no","white","no","yes","768","legacy","34","11","C:/Users/katri/OneDrive/Documents/Fall 2020/Sternberg Memory Task/subject-1.csv","legacy","6 9 7 3 8 2","Lentiform Loewenfeld","3.3.3","0","n","0","right","left","right","right","NA","815","79356","25603","815","NA","2","legacy","6","1024","2","48000","-16","experiment","1","odd","5","386197","387291","181340","387293","389502","229424","1928","155736","391504","392319","388297","81284","391504","NA","1920","Sternberg Task","46","35557","47","yes","1024"
"97.91666666666667","97.91666666666667","754.8333333333334","754.8333333333334","black","experiment","legacy","legacy","legacy","0","uniform","1","undefined","1","left","47","47","0","47","47","47","0","0","47","47","47","0","47","0","0","Sat Oct 17 19:35:48 2020","The main experiment item","yes","SternbergTask.osexp","C:\Users\katri\OneDrive\Documents\Fall 2020\Sternberg Memory Task","no","mono","no","18","no","white","no","yes","768","legacy","35","11","C:/Users/katri/OneDrive/Documents/Fall 2020/Sternberg Memory Task/subject-1.csv","legacy","5 7 3 6 2","Lentiform Loewenfeld","3.3.3","5","y","0","left","left","right","left","NA","675","79356","25603","675","NA","2","legacy","5","1024","2","48000","-16","experiment","1","odd","2","392344","393453","181340","393455","395661","229424","1928","155736","397663","398339","394457","81284","397663","NA","1920","Sternberg Task","47","36232","48","yes","1024"
"97.95918367346938","97.95918367346938","751.9183673469388","751.9183673469388","black","experiment","legacy","legacy","legacy","0","uniform","1","undefined","1","left","48","48","0","48","48","48","0","0","48","48","48","0","48","0","0","Sat Oct 17 19:35:48 2020","The main experiment item","yes","SternbergTask.osexp","C:\Users\katri\OneDrive\Documents\Fall 2020\Sternberg Memory Task","no","mono","no","18","no","white","no","yes","768","legacy","36","11","C:/Users/katri/OneDrive/Documents/Fall 2020/Sternberg Memory Task/subject-1.csv","legacy","8 9 5 7 1 6","Lentiform Loewenfeld","3.3.3","4","y","0","left","left","right","left","NA","612","79356","25603","612","NA","2","legacy","6","1024","2","48000","-16","experiment","1","odd","7","398366","399459","181340","399461","401668","229424","1928","155736","403673","404286","400463","81284","403673","NA","1920","Sternberg Task","48","36844","49","yes","1024"
"98","98","751.52","751.52","black","experiment","legacy","legacy","legacy","0","uniform","1","undefined","1","left","49","49","0","49","49","49","0","0","49","49","49","0","49","0","0","Sat Oct 17 19:35:48 2020","The main experiment item","yes","SternbergTask.osexp","C:\Users\katri\OneDrive\Documents\Fall 2020\Sternberg Memory Task","no","mono","no","18","no","white","no","yes","768","legacy","37","11","C:/Users/katri/OneDrive/Documents/Fall 2020/Sternberg Memory Task/subject-1.csv","legacy","3 9 7 6 4","Lentiform Loewenfeld","3.3.3","3","y","0","left","left","right","left","NA","732","79356","25603","732","NA","2","legacy","5","1024","2","48000","-16","experiment","1","odd","7","404294","405393","181340","405395","407605","229424","1928","155736","409608","410341","406399","81284","409608","NA","1920","Sternberg Task","49","37576","50","yes","1024"
"98.03921568627452","98.03921568627452","751.6078431372549","751.6078431372549","black","experiment","legacy","legacy","legacy","0","uniform","1","undefined","1","left","50","50","0","50","50","50","0","0","50","50","50","0","50","0","0","Sat Oct 17 19:35:48 2020","The main experiment item","yes","SternbergTask.osexp","C:\Users\katri\OneDrive\Documents\Fall 2020\Sternberg Memory Task","no","mono","no","18","no","white","no","yes","768","legacy","38","11","C:/Users/katri/OneDrive/Documents/Fall 2020/Sternberg Memory Task/subject-1.csv","legacy","8 5 3 7 4 6","Lentiform Loewenfeld","3.3.3","6","y","0","left","left","right","left","NA","756","79356","25603","756","NA","2","legacy","6","1024","2","48000","-16","experiment","1","odd","6","410366","411479","181340","411480","413686","229424","1928","155736","415691","416447","412482","81284","415691","NA","1920","Sternberg Task","50","38332","51","yes","1024"
"98.07692307692308","98.07692307692308","747.7692307692307","747.7692307692307","black","experiment","legacy","legacy","legacy","0","uniform","1","undefined","1","right","51","51","0","51","51","51","0","0","51","51","51","0","51","0","0","Sat Oct 17 19:35:48 2020","The main experiment item","yes","SternbergTask.osexp","C:\Users\katri\OneDrive\Documents\Fall 2020\Sternberg Memory Task","no","mono","no","18","no","white","no","yes","768","legacy","39","11","C:/Users/katri/OneDrive/Documents/Fall 2020/Sternberg Memory Task/subject-1.csv","legacy","1 7 8 3 9","Lentiform Loewenfeld","3.3.3","0","n","0","right","left","right","right","NA","552","79356","25603","552","NA","2","legacy","5","1024","2","48000","-16","experiment","1","odd","2","416473","417579","181340","417581","419788","229424","1928","155736","421790","422342","418584","81284","421789","NA","1920","Sternberg Task","51","38884","52","yes","1024"
"98.11320754716981","98.11320754716981","746.3207547169811","746.3207547169811","black","experiment","legacy","legacy","legacy","0","uniform","1","undefined","1","right","52","52","0","52","52","52","0","0","52","52","52","0","52","0","0","Sat Oct 17 19:35:48 2020","The main experiment item","yes","SternbergTask.osexp","C:\Users\katri\OneDrive\Documents\Fall 2020\Sternberg Memory Task","no","mono","no","18","no","white","no","yes","768","legacy","40","11","C:/Users/katri/OneDrive/Documents/Fall 2020/Sternberg Memory Task/subject-1.csv","legacy","6 3 1 7 9 8","Lentiform Loewenfeld","3.3.3","0","n","0","right","left","right","right","NA","671","79356","25603","671","NA","2","legacy","6","1024","2","48000","-16","experiment","1","odd","4","422351","423455","181340","423457","425666","229424","1928","155736","427670","428341","424462","81284","427670","NA","1920","Sternberg Task","52","39555","53","yes","1024"
"98.14814814814815","98.14814814814815","745.7962962962963","745.7962962962963","black","experiment","legacy","legacy","legacy","0","uniform","1","undefined","1","left","53","53","0","53","53","53","0","0","53","53","53","0","53","0","0","Sat Oct 17 19:35:48 2020","The main experiment item","yes","SternbergTask.osexp","C:\Users\katri\OneDrive\Documents\Fall 2020\Sternberg Memory Task","no","mono","no","18","no","white","no","yes","768","legacy","41","11","C:/Users/katri/OneDrive/Documents/Fall 2020/Sternberg Memory Task/subject-1.csv","legacy","8 7 3","Lentiform Loewenfeld","3.3.3","1","y","0","left","left","right","left","NA","718","79356","25603","718","NA","2","legacy","3","1024","2","48000","-16","experiment","1","odd","8","428367","429474","181340","429476","431684","229424","1928","155736","433690","434409","430479","81284","433690","NA","1920","Sternberg Task","53","40273","54","yes","1024"
"98.18181818181819","98.18181818181819","742.2363636363636","742.2363636363636","black","experiment","legacy","legacy","legacy","0","uniform","1","undefined","1","right","54","54","0","54","54","54","0","0","54","54","54","0","54","0","0","Sat Oct 17 19:35:48 2020","The main experiment item","yes","SternbergTask.osexp","C:\Users\katri\OneDrive\Documents\Fall 2020\Sternberg Memory Task","no","mono","no","18","no","white","no","yes","768","legacy","42","11","C:/Users/katri/OneDrive/Documents/Fall 2020/Sternberg Memory Task/subject-1.csv","legacy","8 9","Lentiform Loewenfeld","3.3.3","0","n","0","right","left","right","right","NA","550","79356","25603","550","NA","2","legacy","2","1024","2","48000","-16","experiment","1","odd","5","434420","435526","181340","435528","437737","229424","1928","155736","439741","440291","436533","81284","439741","NA","1920","Sternberg Task","54","40823","55","yes","1024"
"98.21428571428571","98.21428571428571","737.4285714285714","737.4285714285714","black","experiment","legacy","legacy","legacy","0","uniform","1","undefined","1","left","55","55","0","55","55","55","0","0","55","55","55","0","55","0","0","Sat Oct 17 19:35:48 2020","The main experiment item","yes","SternbergTask.osexp","C:\Users\katri\OneDrive\Documents\Fall 2020\Sternberg Memory Task","no","mono","no","18","no","white","no","yes","768","legacy","43","11","C:/Users/katri/OneDrive/Documents/Fall 2020/Sternberg Memory Task/subject-1.csv","legacy","3 5 9 6 2 4","Lentiform Loewenfeld","3.3.3","1","y","0","left","left","right","left","NA","473","79356","25603","473","NA","2","legacy","6","1024","2","48000","-16","experiment","1","odd","3","440300","441399","181340","441401","443607","229424","1928","155736","445612","446085","442403","81284","445612","NA","1920","Sternberg Task","55","41296","56","yes","1024"
"98.24561403508773","98.24561403508773","734.4736842105264","734.4736842105264","black","experiment","legacy","legacy","legacy","0","uniform","1","undefined","1","left","56","56","0","56","56","56","0","0","56","56","56","0","56","0","0","Sat Oct 17 19:35:48 2020","The main experiment item","yes","SternbergTask.osexp","C:\Users\katri\OneDrive\Documents\Fall 2020\Sternberg Memory Task","no","mono","no","18","no","white","no","yes","768","legacy","44","11","C:/Users/katri/OneDrive/Documents/Fall 2020/Sternberg Memory Task/subject-1.csv","legacy","8 5 1 3 9","Lentiform Loewenfeld","3.3.3","4","y","0","left","left","right","left","NA","569","79356","25603","569","NA","2","legacy","5","1024","2","48000","-16","experiment","1","odd","3","446091","447183","181340","447184","449390","229424","1928","155736","451391","451961","448186","81284","451391","NA","1920","Sternberg Task","56","41865","57","yes","1024"
"98.27586206896552","98.27586206896552","733.3793103448276","733.3793103448276","black","experiment","legacy","legacy","legacy","0","uniform","1","undefined","1","right","57","57","0","57","57","57","0","0","57","57","57","0","57","0","0","Sat Oct 17 19:35:48 2020","The main experiment item","yes","SternbergTask.osexp","C:\Users\katri\OneDrive\Documents\Fall 2020\Sternberg Memory Task","no","mono","no","18","no","white","no","yes","768","legacy","45","11","C:/Users/katri/OneDrive/Documents/Fall 2020/Sternberg Memory Task/subject-1.csv","legacy","4 8 1 2","Lentiform Loewenfeld","3.3.3","0","n","0","right","left","right","right","NA","671","79356","25603","671","NA","2","legacy","4","1024","2","48000","-16","experiment","1","odd","7","451985","453095","181340","453096","455303","229424","1928","155736","457305","457976","454098","81284","457305","NA","1920","Sternberg Task","57","42536","58","yes","1024"
"98.30508474576271","98.30508474576271","731.1355932203389","731.1355932203389","black","experiment","legacy","legacy","legacy","0","uniform","1","undefined","1","left","58","58","0","58","58","58","0","0","58","58","58","0","58","0","0","Sat Oct 17 19:35:48 2020","The main experiment item","yes","SternbergTask.osexp","C:\Users\katri\OneDrive\Documents\Fall 2020\Sternberg Memory Task","no","mono","no","18","no","white","no","yes","768","legacy","46","11","C:/Users/katri/OneDrive/Documents/Fall 2020/Sternberg Memory Task/subject-1.csv","legacy","6 1 2","Lentiform Loewenfeld","3.3.3","3","y","0","left","left","right","left","NA","601","79356","25603","601","NA","2","legacy","3","1024","2","48000","-16","experiment","1","odd","2","457984","459088","181340","459091","461300","229424","1928","155736","463305","463907","460095","81284","463304","NA","1920","Sternberg Task","58","43137","59","yes","1024"
"98.33333333333333","98.33333333333333","729","729","black","experiment","legacy","legacy","legacy","0","uniform","1","undefined","1","right","59","59","0","59","59","59","0","0","59","59","59","0","59","0","0","Sat Oct 17 19:35:48 2020","The main experiment item","yes","SternbergTask.osexp","C:\Users\katri\OneDrive\Documents\Fall 2020\Sternberg Memory Task","no","mono","no","18","no","white","no","yes","768","legacy","47","11","C:/Users/katri/OneDrive/Documents/Fall 2020/Sternberg Memory Task/subject-1.csv","legacy","1","Lentiform Loewenfeld","3.3.3","0","n","0","right","left","right","right","NA","603","79356","25603","603","NA","2","legacy","1","1024","2","48000","-16","experiment","1","odd","7","463932","465033","181340","465035","467242","229424","1928","155736","469244","469847","466037","81284","469244","NA","1920","Sternberg Task","59","43740","60","yes","1024"
"98.36065573770492","98.36065573770492","728.672131147541","728.672131147541","black","experiment","legacy","legacy","legacy","0","uniform","1","undefined","1","right","60","60","0","60","60","60","0","0","60","60","60","0","60","0","0","Sat Oct 17 19:35:48 2020","The main experiment item","yes","SternbergTask.osexp","C:\Users\katri\OneDrive\Documents\Fall 2020\Sternberg Memory Task","no","mono","no","18","no","white","no","yes","768","legacy","48","11","C:/Users/katri/OneDrive/Documents/Fall 2020/Sternberg Memory Task/subject-1.csv","legacy","1 4 9 2 5","Lentiform Loewenfeld","3.3.3","0","n","0","right","left","right","right","NA","709","79356","25603","709","NA","2","legacy","5","1024","2","48000","-16","experiment","1","odd","7","469857","470967","181340","470968","473175","229424","1928","155736","475177","475887","471971","81284","475177","NA","1920","Sternberg Task","60","44449","61","yes","1024"
"98.38709677419355","98.38709677419355","728.2096774193549","728.2096774193549","black","experiment","legacy","legacy","legacy","0","uniform","1","undefined","1","right","61","61","0","61","61","61","0","0","61","61","61","0","61","0","0","Sat Oct 17 19:35:48 2020","The main experiment item","yes","SternbergTask.osexp","C:\Users\katri\OneDrive\Documents\Fall 2020\Sternberg Memory Task","no","mono","no","18","no","white","no","yes","768","legacy","49","11","C:/Users/katri/OneDrive/Documents/Fall 2020/Sternberg Memory Task/subject-1.csv","legacy","2 6 4 3 9","Lentiform Loewenfeld","3.3.3","0","n","0","right","left","right","right","NA","700","79356","25603","700","NA","2","legacy","5","1024","2","48000","-16","experiment","1","odd","1","475912","477013","181340","477014","479223","229424","1928","155736","481228","481928","478018","81284","481228","NA","1920","Sternberg Task","61","45149","62","yes","1024"
"98.41269841269842","98.41269841269842","730.1904761904761","730.1904761904761","black","experiment","legacy","legacy","legacy","0","uniform","1","undefined","1","left","62","62","0","62","62","62","0","0","62","62","62","0","62","0","0","Sat Oct 17 19:35:48 2020","The main experiment item","yes","SternbergTask.osexp","C:\Users\katri\OneDrive\Documents\Fall 2020\Sternberg Memory Task","no","mono","no","18","no","white","no","yes","768","legacy","50","11","C:/Users/katri/OneDrive/Documents/Fall 2020/Sternberg Memory Task/subject-1.csv","legacy","9 5 8 1","Lentiform Loewenfeld","3.3.3","2","y","0","left","left","right","left","NA","853","79356","25603","853","NA","2","legacy","4","1024","2","48000","-16","experiment","1","odd","5","481953","483051","181340","483052","485258","229424","1928","155736","487259","488113","484054","81284","487259","NA","1920","Sternberg Task","62","46002","63","yes","1024"
"98.4375","98.4375","730.640625","730.640625","black","experiment","legacy","legacy","legacy","0","uniform","1","undefined","1","right","63","63","0","63","63","63","0","0","63","63","63","0","63","0","0","Sat Oct 17 19:35:48 2020","The main experiment item","yes","SternbergTask.osexp","C:\Users\katri\OneDrive\Documents\Fall 2020\Sternberg Memory Task","no","mono","no","18","no","white","no","yes","768","legacy","51","11","C:/Users/katri/OneDrive/Documents/Fall 2020/Sternberg Memory Task/subject-1.csv","legacy","7 6 4 8 1 2","Lentiform Loewenfeld","3.3.3","0","n","0","right","left","right","right","NA","759","79356","25603","759","NA","2","legacy","6","1024","2","48000","-16","experiment","1","odd","9","488121","489215","181340","489217","491424","229424","1928","155736","493428","494187","490219","81284","493428","NA","1920","Sternberg Task","63","46761","64","yes","1024"
"98.46153846153847","98.46153846153847","730.7846153846153","730.7846153846153","black","experiment","legacy","legacy","legacy","0","uniform","1","undefined","1","right","64","64","0","64","64","64","0","0","64","64","64","0","64","0","0","Sat Oct 17 19:35:48 2020","The main experiment item","yes","SternbergTask.osexp","C:\Users\katri\OneDrive\Documents\Fall 2020\Sternberg Memory Task","no","mono","no","18","no","white","no","yes","768","legacy","52","11","C:/Users/katri/OneDrive/Documents/Fall 2020/Sternberg Memory Task/subject-1.csv","legacy","1 7 5 2","Lentiform Loewenfeld","3.3.3","0","n","0","right","left","right","right","NA","740","79356","25603","740","NA","2","legacy","4","1024","2","48000","-16","experiment","1","odd","3","494212","495320","181340","495322","497532","229424","1928","155736","499537","500277","496327","81284","499537","NA","1920","Sternberg Task","64","47501","65","yes","1024"
"98.48484848484848","98.48484848484848","732.4848484848485","732.4848484848485","black","experiment","legacy","legacy","legacy","0","uniform","1","undefined","1","left","65","65","0","65","65","65","0","0","65","65","65","0","65","0","0","Sat Oct 17 19:35:48 2020","The main experiment item","yes","SternbergTask.osexp","C:\Users\katri\OneDrive\Documents\Fall 2020\Sternberg Memory Task","no","mono","no","18","no","white","no","yes","768","legacy","53","11","C:/Users/katri/OneDrive/Documents/Fall 2020/Sternberg Memory Task/subject-1.csv","legacy","3 9 6 2","Lentiform Loewenfeld","3.3.3","4","y","0","left","left","right","left","NA","843","79356","25603","843","NA","2","legacy","4","1024","2","48000","-16","experiment","1","odd","2","500285","501383","181340","501385","503594","229424","1928","155736","505597","506440","502389","81284","505597","NA","1920","Sternberg Task","65","48344","66","yes","1024"
"98.50746268656717","98.50746268656717","732.6119402985074","732.6119402985074","black","experiment","legacy","legacy","legacy","0","uniform","1","undefined","1","right","66","66","0","66","66","66","0","0","66","66","66","0","66","0","0","Sat Oct 17 19:35:48 2020","The main experiment item","yes","SternbergTask.osexp","C:\Users\katri\OneDrive\Documents\Fall 2020\Sternberg Memory Task","no","mono","no","18","no","white","no","yes","768","legacy","54","11","C:/Users/katri/OneDrive/Documents/Fall 2020/Sternberg Memory Task/subject-1.csv","legacy","9 8 2 7 4","Lentiform Loewenfeld","3.3.3","0","n","0","right","left","right","right","NA","741","79356","25603","741","NA","2","legacy","5","1024","2","48000","-16","experiment","1","odd","5","506449","507558","181340","507559","509767","229424","1928","155736","511768","512509","508563","81284","511768","NA","1920","Sternberg Task","66","49085","67","yes","1024"
"98.52941176470588","98.52941176470588","731.6176470588235","731.6176470588235","black","experiment","legacy","legacy","legacy","0","uniform","1","undefined","1","right","67","67","0","67","67","67","0","0","67","67","67","0","67","0","0","Sat Oct 17 19:35:48 2020","The main experiment item","yes","SternbergTask.osexp","C:\Users\katri\OneDrive\Documents\Fall 2020\Sternberg Memory Task","no","mono","no","18","no","white","no","yes","768","legacy","55","11","C:/Users/katri/OneDrive/Documents/Fall 2020/Sternberg Memory Task/subject-1.csv","legacy","5 3 8 7 2 4","Lentiform Loewenfeld","3.3.3","0","n","0","right","left","right","right","NA","665","79356","25603","665","NA","2","legacy","6","1024","2","48000","-16","experiment","1","odd","9","512535","513629","181340","513631","515839","229424","1928","155736","517844","518510","514635","81284","517844","NA","1920","Sternberg Task","67","49750","68","yes","1024"
"98.55072463768116","98.55072463768116","730.695652173913","730.695652173913","black","experiment","legacy","legacy","legacy","0","uniform","1","undefined","1","left","68","68","0","68","68","68","0","0","68","68","68","0","68","0","0","Sat Oct 17 19:35:48 2020","The main experiment item","yes","SternbergTask.osexp","C:\Users\katri\OneDrive\Documents\Fall 2020\Sternberg Memory Task","no","mono","no","18","no","white","no","yes","768","legacy","56","11","C:/Users/katri/OneDrive/Documents/Fall 2020/Sternberg Memory Task/subject-1.csv","legacy","4 9 7 8 5 3","Lentiform Loewenfeld","3.3.3","4","y","0","left","left","right","left","NA","668","79356","25603","668","NA","2","legacy","6","1024","2","48000","-16","experiment","1","odd","8","518514","519614","181340","519616","521821","229424","1928","155736","523827","524495","520618","81284","523827","NA","1920","Sternberg Task","68","50418","69","yes","1024"
"98.57142857142857","98.57142857142857","732","732","black","experiment","legacy","legacy","legacy","0","uniform","1","undefined","1","left","69","69","0","69","69","69","0","0","69","69","69","0","69","0","0","Sat Oct 17 19:35:48 2020","The main experiment item","yes","SternbergTask.osexp","C:\Users\katri\OneDrive\Documents\Fall 2020\Sternberg Memory Task","no","mono","no","18","no","white","no","yes","768","legacy","57","11","C:/Users/katri/OneDrive/Documents/Fall 2020/Sternberg Memory Task/subject-1.csv","legacy","7 4 2 6 3 5","Lentiform Loewenfeld","3.3.3","6","y","0","left","left","right","left","NA","822","79356","25603","822","NA","2","legacy","6","1024","2","48000","-16","experiment","1","odd","5","524521","525615","181340","525617","527826","229424","1928","155736","529828","530651","526622","81284","529828","NA","1920","Sternberg Task","69","51240","70","yes","1024"
"98.59154929577464","98.59154929577464","733.1830985915493","733.1830985915493","black","experiment","legacy","legacy","legacy","0","uniform","1","undefined","1","right","70","70","0","70","70","70","0","0","70","70","70","0","70","0","0","Sat Oct 17 19:35:48 2020","The main experiment item","yes","SternbergTask.osexp","C:\Users\katri\OneDrive\Documents\Fall 2020\Sternberg Memory Task","no","mono","no","18","no","white","no","yes","768","legacy","58","11","C:/Users/katri/OneDrive/Documents/Fall 2020/Sternberg Memory Task/subject-1.csv","legacy","2 8 7 9 5 3","Lentiform Loewenfeld","3.3.3","0","n","0","right","left","right","right","NA","816","79356","25603","816","NA","2","legacy","6","1024","2","48000","-16","experiment","1","odd","6","530658","531765","181340","531767","533975","229424","1928","155736","535979","536796","532771","81284","535979","NA","1920","Sternberg Task","70","52056","71","yes","1024"
"98.61111111111111","98.61111111111111","732.625","732.625","black","experiment","legacy","legacy","legacy","0","uniform","1","undefined","1","left","71","71","0","71","71","71","0","0","71","71","71","0","71","0","0","Sat Oct 17 19:35:48 2020","The main experiment item","yes","SternbergTask.osexp","C:\Users\katri\OneDrive\Documents\Fall 2020\Sternberg Memory Task","no","mono","no","18","no","white","no","yes","768","legacy","59","11","C:/Users/katri/OneDrive/Documents/Fall 2020/Sternberg Memory Task/subject-1.csv","legacy","4","Lentiform Loewenfeld","3.3.3","1","y","0","left","left","right","left","NA","693","79356","25603","693","NA","2","legacy","1","1024","2","48000","-16","experiment","1","odd","4","536804","537914","181340","537915","540125","229424","1928","155736","542130","542823","538920","81284","542130","NA","1920","Sternberg Task","71","52749","72","yes","1024"
"98.63013698630137","98.63013698630137","731.945205479452","731.945205479452","black","experiment","legacy","legacy","legacy","0","uniform","1","undefined","1","left","72","72","0","72","72","72","0","0","72","72","72","0","72","0","0","Sat Oct 17 19:35:48 2020","The main experiment item","yes","SternbergTask.osexp","C:\Users\katri\OneDrive\Documents\Fall 2020\Sternberg Memory Task","no","mono","no","18","no","white","no","yes","768","legacy","60","11","C:/Users/katri/OneDrive/Documents/Fall 2020/Sternberg Memory Task/subject-1.csv","legacy","2 6 1 7 4","Lentiform Loewenfeld","3.3.3","2","y","0","left","left","right","left","NA","683","79356","25603","683","NA","2","legacy","5","1024","2","48000","-16","experiment","1","odd","6","542876","543968","181340","543970","546176","229424","1928","155736","548179","548863","544972","81284","548179","NA","1920","Sternberg Task","72","53432","73","yes","1024"
"98.64864864864865","98.64864864864865","730.8108108108108","730.8108108108108","black","experiment","legacy","legacy","legacy","0","uniform","1","undefined","1","left","73","73","0","73","73","73","0","0","73","73","73","0","73","0","0","Sat Oct 17 19:35:48 2020","The main experiment item","yes","SternbergTask.osexp","C:\Users\katri\OneDrive\Documents\Fall 2020\Sternberg Memory Task","no","mono","no","18","no","white","no","yes","768","legacy","61","11","C:/Users/katri/OneDrive/Documents/Fall 2020/Sternberg Memory Task/subject-1.csv","legacy","9 3 1 2 5","Lentiform Loewenfeld","3.3.3","4","y","0","left","left","right","left","NA","648","79356","25603","648","NA","2","legacy","5","1024","2","48000","-16","experiment","1","odd","2","548888","549987","181340","549989","552196","229424","1928","155736","554201","554850","550990","81284","554201","NA","1920","Sternberg Task","73","54080","74","yes","1024"
"98.66666666666667","98.66666666666667","730.0933333333334","730.0933333333334","black","experiment","legacy","legacy","legacy","0","uniform","1","undefined","1","left","74","74","0","74","74","74","0","0","74","74","74","0","74","0","0","Sat Oct 17 19:35:48 2020","The main experiment item","yes","SternbergTask.osexp","C:\Users\katri\OneDrive\Documents\Fall 2020\Sternberg Memory Task","no","mono","no","18","no","white","no","yes","768","legacy","62","11","C:/Users/katri/OneDrive/Documents/Fall 2020/Sternberg Memory Task/subject-1.csv","legacy","9 3 8 2 1 4","Lentiform Loewenfeld","3.3.3","3","y","0","left","left","right","left","NA","677","79356","25603","677","NA","2","legacy","6","1024","2","48000","-16","experiment","1","odd","8","554853","555952","181340","555954","558165","229424","1928","155736","560167","560844","556959","81284","560167","NA","1920","Sternberg Task","74","54757","75","yes","1024"
"98.6842105263158","98.6842105263158","731.828947368421","731.828947368421","black","experiment","legacy","legacy","legacy","0","uniform","1","undefined","1","right","75","75","0","75","75","75","0","0","75","75","75","0","75","0","0","Sat Oct 17 19:35:48 2020","The main experiment item","yes","SternbergTask.osexp","C:\Users\katri\OneDrive\Documents\Fall 2020\Sternberg Memory Task","no","mono","no","18","no","white","no","yes","768","legacy","63","11","C:/Users/katri/OneDrive/Documents/Fall 2020/Sternberg Memory Task/subject-1.csv","legacy","1 4 3 6 5","Lentiform Loewenfeld","3.3.3","0","n","0","right","left","right","right","NA","862","79356","25603","862","NA","2","legacy","5","1024","2","48000","-16","experiment","1","odd","8","560853","561950","181340","561952","564161","229424","1928","155736","566163","567025","562956","81284","566163","NA","1920","Sternberg Task","75","55619","76","yes","1024"
"98.7012987012987","98.7012987012987","730.9350649350649","730.9350649350649","black","experiment","legacy","legacy","legacy","0","uniform","1","undefined","1","left","76","76","0","76","76","76","0","0","76","76","76","0","76","0","0","Sat Oct 17 19:35:48 2020","The main experiment item","yes","SternbergTask.osexp","C:\Users\katri\OneDrive\Documents\Fall 2020\Sternberg Memory Task","no","mono","no","18","no","white","no","yes","768","legacy","64","11","C:/Users/katri/OneDrive/Documents/Fall 2020/Sternberg Memory Task/subject-1.csv","legacy","3 5 4 7","Lentiform Loewenfeld","3.3.3","1","y","0","left","left","right","left","NA","663","79356","25603","663","NA","2","legacy","4","1024","2","48000","-16","experiment","1","odd","3","567052","568160","181340","568162","570372","229424","1928","155736","572376","573040","569166","81284","572376","NA","1920","Sternberg Task","76","56282","77","yes","1024"
"98.71794871794872","98.71794871794872","730.6923076923077","730.6923076923077","black","experiment","legacy","legacy","legacy","0","uniform","1","undefined","1","left","77","77","0","77","77","77","0","0","77","77","77","0","77","0","0","Sat Oct 17 19:35:48 2020","The main experiment item","yes","SternbergTask.osexp","C:\Users\katri\OneDrive\Documents\Fall 2020\Sternberg Memory Task","no","mono","no","18","no","white","no","yes","768","legacy","65","11","C:/Users/katri/OneDrive/Documents/Fall 2020/Sternberg Memory Task/subject-1.csv","legacy","2 8 5 1","Lentiform Loewenfeld","3.3.3","4","y","0","left","left","right","left","NA","712","79356","25603","712","NA","2","legacy","4","1024","2","48000","-16","experiment","1","odd","1","573048","574127","181340","574128","576336","229424","1928","155736","578341","579053","575132","81284","578340","NA","1920","Sternberg Task","77","56994","78","yes","1024"
"98.73417721518987","98.73417721518987","741.8227848101266","741.8227848101266","black","experiment","legacy","legacy","legacy","0","uniform","1","undefined","1","right","78","78","0","78","78","78","0","0","78","78","78","0","78","0","0","Sat Oct 17 19:35:48 2020","The main experiment item","yes","SternbergTask.osexp","C:\Users\katri\OneDrive\Documents\Fall 2020\Sternberg Memory Task","no","mono","no","18","no","white","no","yes","768","legacy","66","11","C:/Users/katri/OneDrive/Documents/Fall 2020/Sternberg Memory Task/subject-1.csv","legacy","1 5 3 2 8","Lentiform Loewenfeld","3.3.3","0","n","0","right","left","right","right","NA","1610","79356","25603","1610","NA","2","legacy","5","1024","2","48000","-16","experiment","1","odd","4","579077","580178","181340","580180","582388","229424","1928","155736","584392","586003","581184","81284","584392","NA","1920","Sternberg Task","78","58604","79","yes","1024"
"97.5","97.5","742.7375","742.7375","black","experiment","legacy","legacy","legacy","0","uniform","0","undefined","0","right","79","79","0","79","79","79","0","0","79","79","79","0","79","0","0","Sat Oct 17 19:35:48 2020","The main experiment item","yes","SternbergTask.osexp","C:\Users\katri\OneDrive\Documents\Fall 2020\Sternberg Memory Task","no","mono","no","18","no","white","no","yes","768","legacy","67","11","C:/Users/katri/OneDrive/Documents/Fall 2020/Sternberg Memory Task/subject-1.csv","legacy","6 2 9 3 8 4","Lentiform Loewenfeld","3.3.3","0","n","0","left","left","right","left","NA","815","79356","25603","815","NA","2","legacy","6","1024","2","48000","-16","experiment","1","odd","1","586028","587133","181340","587134","589343","229424","1928","155736","591345","592161","588139","81284","591345","NA","1920","Sternberg Task","78","59419","80","yes","1024"
"96.29629629629629","96.29629629629629","746.2098765432099","746.2098765432099","black","experiment","legacy","legacy","legacy","0","uniform","0","undefined","0","left","80","80","0","80","80","80","0","0","80","80","80","0","80","0","0","Sat Oct 17 19:35:48 2020","The main experiment item","yes","SternbergTask.osexp","C:\Users\katri\OneDrive\Documents\Fall 2020\Sternberg Memory Task","no","mono","no","18","no","white","no","yes","768","legacy","68","11","C:/Users/katri/OneDrive/Documents/Fall 2020/Sternberg Memory Task/subject-1.csv","legacy","7 1 8 5 6 2","Lentiform Loewenfeld","3.3.3","2","y","0","right","left","right","right","NA","1024","79356","25603","1024","NA","2","legacy","6","1024","2","48000","-16","experiment","1","odd","1","586028","593299","181340","593300","595507","592186","1928","155736","597509","598534","594302","81284","597509","NA","1920","Sternberg Task","78","60443","81","yes","1024"
"96.34146341463415","96.34146341463415","745.4878048780488","745.4878048780488","black","experiment","legacy","legacy","legacy","0","uniform","1","undefined","1","right","81","81","0","81","81","81","0","0","81","81","81","0","81","0","0","Sat Oct 17 19:35:48 2020","The main experiment item","yes","SternbergTask.osexp","C:\Users\katri\OneDrive\Documents\Fall 2020\Sternberg Memory Task","no","mono","no","18","no","white","no","yes","768","legacy","69","11","C:/Users/katri/OneDrive/Documents/Fall 2020/Sternberg Memory Task/subject-1.csv","legacy","1 6 4","Lentiform Loewenfeld","3.3.3","0","n","0","right","left","right","right","NA","687","79356","25603","687","NA","2","legacy","3","1024","2","48000","-16","experiment","1","odd","7","586028","599668","181340","599670","601881","598559","1928","155736","603883","604571","600675","81284","603883","NA","1920","Sternberg Task","79","61130","82","yes","1024"
"96.3855421686747","96.3855421686747","748.8795180722891","748.8795180722891","black","experiment","legacy","legacy","legacy","0","uniform","1","undefined","1","right","82","82","0","82","82","82","0","0","82","82","82","0","82","0","0","Sat Oct 17 19:35:48 2020","The main experiment item","yes","SternbergTask.osexp","C:\Users\katri\OneDrive\Documents\Fall 2020\Sternberg Memory Task","no","mono","no","18","no","white","no","yes","768","legacy","70","11","C:/Users/katri/OneDrive/Documents/Fall 2020/Sternberg Memory Task/subject-1.csv","legacy","8 2 1 4 5 9","Lentiform Loewenfeld","3.3.3","0","n","0","right","left","right","right","NA","1027","79356","25603","1027","NA","2","legacy","6","1024","2","48000","-16","experiment","1","odd","7","604597","605695","181340","605697","607904","598559","1928","155736","609906","610933","606699","81284","609906","NA","1920","Sternberg Task","80","62157","83","yes","1024"
"96.42857142857143","96.42857142857143","749.8809523809524","749.8809523809524","black","experiment","legacy","legacy","legacy","0","uniform","1","undefined","1","left","83","83","0","83","83","83","0","0","83","83","83","0","83","0","0","Sat Oct 17 19:35:48 2020","The main experiment item","yes","SternbergTask.osexp","C:\Users\katri\OneDrive\Documents\Fall 2020\Sternberg Memory Task","no","mono","no","18","no","white","no","yes","768","legacy","71","11","C:/Users/katri/OneDrive/Documents/Fall 2020/Sternberg Memory Task/subject-1.csv","legacy","6 5","Lentiform Loewenfeld","3.3.3","2","y","0","left","left","right","left","NA","833","79356","25603","833","NA","2","legacy","2","1024","2","48000","-16","experiment","1","odd","5","610942","612035","181340","612037","614244","598559","1928","155736","616246","617080","613039","81284","616246","NA","1920","Sternberg Task","81","62990","84","yes","1024"
"96.47058823529412","96.47058823529412","748.6588235294117","748.6588235294117","black","experiment","legacy","legacy","legacy","0","uniform","1","undefined","1","left","84","84","0","84","84","84","0","0","84","84","84","0","84","0","0","Sat Oct 17 19:35:48 2020","The main experiment item","yes","SternbergTask.osexp","C:\Users\katri\OneDrive\Documents\Fall 2020\Sternberg Memory Task","no","mono","no","18","no","white","no","yes","768","legacy","72","11","C:/Users/katri/OneDrive/Documents/Fall 2020/Sternberg Memory Task/subject-1.csv","legacy","8 5 4 7 3 1","Lentiform Loewenfeld","3.3.3","2","y","0","left","left","right","left","NA","646","79356","25603","646","NA","2","legacy","6","1024","2","48000","-16","experiment","1","odd","5","617105","618209","181340","618211","620420","598559","1928","155736","622421","623067","619216","81284","622421","NA","1920","Sternberg Task","82","63636","85","yes","1024"
"96.51162790697674","96.51162790697674","748.3372093023256","748.3372093023256","black","experiment","legacy","legacy","legacy","0","uniform","1","undefined","1","right","85","85","0","85","85","85","0","0","85","85","85","0","85","0","0","Sat Oct 17 19:35:48 2020","The main experiment item","yes","SternbergTask.osexp","C:\Users\katri\OneDrive\Documents\Fall 2020\Sternberg Memory Task","no","mono","no","18","no","white","no","yes","768","legacy","73","11","C:/Users/katri/OneDrive/Documents/Fall 2020/Sternberg Memory Task/subject-1.csv","legacy","6 9 5","Lentiform Loewenfeld","3.3.3","0","n","0","right","left","right","right","NA","721","79356","25603","721","NA","2","legacy","3","1024","2","48000","-16","experiment","1","odd","8","623071","624179","181340","624181","626387","598559","1928","155736","628392","629114","625183","81284","628391","NA","1920","Sternberg Task","83","64357","86","yes","1024"
"96.55172413793103","96.55172413793103","746.9655172413793","746.9655172413793","black","experiment","legacy","legacy","legacy","0","uniform","1","undefined","1","left","86","86","0","86","86","86","0","0","86","86","86","0","86","0","0","Sat Oct 17 19:35:48 2020","The main experiment item","yes","SternbergTask.osexp","C:\Users\katri\OneDrive\Documents\Fall 2020\Sternberg Memory Task","no","mono","no","18","no","white","no","yes","768","legacy","74","11","C:/Users/katri/OneDrive/Documents/Fall 2020/Sternberg Memory Task/subject-1.csv","legacy","2 4 8 5 1 3","Lentiform Loewenfeld","3.3.3","1","y","0","left","left","right","left","NA","629","79356","25603","629","NA","2","legacy","6","1024","2","48000","-16","experiment","1","odd","2","629141","630218","181340","630220","632426","598559","1928","155736","634431","635061","631222","81284","634431","NA","1920","Sternberg Task","84","64986","87","yes","1024"
"96.5909090909091","96.5909090909091","748.3409090909091","748.3409090909091","black","experiment","legacy","legacy","legacy","0","uniform","1","undefined","1","right","87","87","0","87","87","87","0","0","87","87","87","0","87","0","0","Sat Oct 17 19:35:48 2020","The main experiment item","yes","SternbergTask.osexp","C:\Users\katri\OneDrive\Documents\Fall 2020\Sternberg Memory Task","no","mono","no","18","no","white","no","yes","768","legacy","75","11","C:/Users/katri/OneDrive/Documents/Fall 2020/Sternberg Memory Task/subject-1.csv","legacy","7 9","Lentiform Loewenfeld","3.3.3","0","n","0","right","left","right","right","NA","868","79356","25603","868","NA","2","legacy","2","1024","2","48000","-16","experiment","1","odd","1","635064","636170","181340","636172","638381","598559","1928","155736","640383","641252","637176","81284","640383","NA","1920","Sternberg Task","85","65854","88","yes","1024"
"96.62921348314607","96.62921348314607","747.4943820224719","747.4943820224719","black","experiment","legacy","legacy","legacy","0","uniform","1","undefined","1","left","88","88","0","88","88","88","0","0","88","88","88","0","88","0","0","Sat Oct 17 19:35:48 2020","The main experiment item","yes","SternbergTask.osexp","C:\Users\katri\OneDrive\Documents\Fall 2020\Sternberg Memory Task","no","mono","no","18","no","white","no","yes","768","legacy","76","11","C:/Users/katri/OneDrive/Documents/Fall 2020/Sternberg Memory Task/subject-1.csv","legacy","9 8 4","Lentiform Loewenfeld","3.3.3","1","y","0","left","left","right","left","NA","673","79356","25603","673","NA","2","legacy","3","1024","2","48000","-16","experiment","1","odd","9","641279","642391","181340","642392","644602","598559","1928","155736","646607","647281","643397","81284","646606","NA","1920","Sternberg Task","86","66527","89","yes","1024"
"96.66666666666667","96.66666666666667","747.1888888888889","747.1888888888889","black","experiment","legacy","legacy","legacy","0","uniform","1","undefined","1","right","89","89","0","89","89","89","0","0","89","89","89","0","89","0","0","Sat Oct 17 19:35:48 2020","The main experiment item","yes","SternbergTask.osexp","C:\Users\katri\OneDrive\Documents\Fall 2020\Sternberg Memory Task","no","mono","no","18","no","white","no","yes","768","legacy","77","11","C:/Users/katri/OneDrive/Documents/Fall 2020/Sternberg Memory Task/subject-1.csv","legacy","2 8 6 3 1","Lentiform Loewenfeld","3.3.3","0","n","0","right","left","right","right","NA","720","79356","25603","720","NA","2","legacy","5","1024","2","48000","-16","experiment","1","odd","7","647307","648411","181340","648412","650618","598559","1928","155736","652621","653342","649414","81284","652621","NA","1920","Sternberg Task","87","67247","90","yes","1024"
"96.7032967032967","96.7032967032967","745.6593406593406","745.6593406593406","black","experiment","legacy","legacy","legacy","0","uniform","1","undefined","1","left","90","90","0","90","90","90","0","0","90","90","90","0","90","0","0","Sat Oct 17 19:35:48 2020","The main experiment item","yes","SternbergTask.osexp","C:\Users\katri\OneDrive\Documents\Fall 2020\Sternberg Memory Task","no","mono","no","18","no","white","no","yes","768","legacy","78","11","C:/Users/katri/OneDrive/Documents/Fall 2020/Sternberg Memory Task/subject-1.csv","legacy","4 1 8 7 5","Lentiform Loewenfeld","3.3.3","3","y","0","left","left","right","left","NA","608","79356","25603","608","NA","2","legacy","5","1024","2","48000","-16","experiment","1","odd","8","653396","654504","181340","654506","656717","598559","1928","155736","658720","659329","655511","81284","658720","NA","1920","Sternberg Task","88","67855","91","yes","1024"
"96.73913043478261","96.73913043478261","745.3695652173913","745.3695652173913","black","experiment","legacy","legacy","legacy","0","uniform","1","undefined","1","right","91","91","0","91","91","91","0","0","91","91","91","0","91","0","0","Sat Oct 17 19:35:48 2020","The main experiment item","yes","SternbergTask.osexp","C:\Users\katri\OneDrive\Documents\Fall 2020\Sternberg Memory Task","no","mono","no","18","no","white","no","yes","768","legacy","79","11","C:/Users/katri/OneDrive/Documents/Fall 2020/Sternberg Memory Task/subject-1.csv","legacy","3 4 2","Lentiform Loewenfeld","3.3.3","0","n","0","right","left","right","right","NA","719","79356","25603","719","NA","2","legacy","3","1024","2","48000","-16","experiment","1","odd","5","659354","660458","181340","660458","662664","598559","1928","155736","664666","665385","661460","81284","664666","NA","1920","Sternberg Task","89","68574","92","yes","1024"
"96.7741935483871","96.7741935483871","744.3010752688172","744.3010752688172","black","experiment","legacy","legacy","legacy","0","uniform","1","undefined","1","left","92","92","0","92","92","92","0","0","92","92","92","0","92","0","0","Sat Oct 17 19:35:48 2020","The main experiment item","yes","SternbergTask.osexp","C:\Users\katri\OneDrive\Documents\Fall 2020\Sternberg Memory Task","no","mono","no","18","no","white","no","yes","768","legacy","80","11","C:/Users/katri/OneDrive/Documents/Fall 2020/Sternberg Memory Task/subject-1.csv","legacy","7 2 3","Lentiform Loewenfeld","3.3.3","3","y","0","left","left","right","left","NA","646","79356","25603","646","NA","2","legacy","3","1024","2","48000","-16","experiment","1","odd","3","665393","666491","181340","666492","668701","598559","1928","155736","670706","671352","667497","81284","670705","NA","1920","Sternberg Task","90","69220","93","yes","1024"
"96.80851063829788","96.80851063829788","746.2340425531914","746.2340425531914","black","experiment","legacy","legacy","legacy","0","uniform","1","undefined","1","right","93","93","0","93","93","93","0","0","93","93","93","0","93","0","0","Sat Oct 17 19:35:48 2020","The main experiment item","yes","SternbergTask.osexp","C:\Users\katri\OneDrive\Documents\Fall 2020\Sternberg Memory Task","no","mono","no","18","no","white","no","yes","768","legacy","81","11","C:/Users/katri/OneDrive/Documents/Fall 2020/Sternberg Memory Task/subject-1.csv","legacy","2 3 8 5 6 7","Lentiform Loewenfeld","3.3.3","0","n","0","right","left","right","right","NA","926","79356","25603","926","NA","2","legacy","6","1024","2","48000","-16","experiment","1","odd","1","671377","672488","181340","672490","674698","598559","1928","155736","676702","677629","673494","81284","676702","NA","1920","Sternberg Task","91","70146","94","yes","1024"
"96.84210526315789","96.84210526315789","746.7473684210527","746.7473684210527","black","experiment","legacy","legacy","legacy","0","uniform","1","undefined","1","right","94","94","0","94","94","94","0","0","94","94","94","0","94","0","0","Sat Oct 17 19:35:48 2020","The main experiment item","yes","SternbergTask.osexp","C:\Users\katri\OneDrive\Documents\Fall 2020\Sternberg Memory Task","no","mono","no","18","no","white","no","yes","768","legacy","82","11","C:/Users/katri/OneDrive/Documents/Fall 2020/Sternberg Memory Task/subject-1.csv","legacy","5 3 2 6 9 8","Lentiform Loewenfeld","3.3.3","0","n","0","right","left","right","right","NA","795","79356","25603","795","NA","2","legacy","6","1024","2","48000","-16","experiment","1","odd","4","677653","678764","181340","678766","680973","598559","1928","155736","682975","683770","679768","81284","682975","NA","1920","Sternberg Task","92","70941","95","yes","1024"
"96.875","96.875","747.6979166666666","747.6979166666666","black","experiment","legacy","legacy","legacy","0","uniform","1","undefined","1","right","95","95","0","95","95","95","0","0","95","95","95","0","95","0","0","Sat Oct 17 19:35:48 2020","The main experiment item","yes","SternbergTask.osexp","C:\Users\katri\OneDrive\Documents\Fall 2020\Sternberg Memory Task","no","mono","no","18","no","white","no","yes","768","legacy","83","11","C:/Users/katri/OneDrive/Documents/Fall 2020/Sternberg Memory Task/subject-1.csv","legacy","7 1 5 6 3","Lentiform Loewenfeld","3.3.3","0","n","0","right","left","right","right","NA","838","79356","25603","838","NA","2","legacy","5","1024","2","48000","-16","experiment","1","odd","8","683795","684894","181340","684895","687104","598559","1928","155736","689109","689948","685900","81284","689108","NA","1920","Sternberg Task","93","71779","96","yes","1024"
"96.90721649484536","96.90721649484536","747.0618556701031","747.0618556701031","black","experiment","legacy","legacy","legacy","0","uniform","1","undefined","1","right","96","96","0","96","96","96","0","0","96","96","96","0","96","0","0","Sat Oct 17 19:35:48 2020","The main experiment item","yes","SternbergTask.osexp","C:\Users\katri\OneDrive\Documents\Fall 2020\Sternberg Memory Task","no","mono","no","18","no","white","no","yes","768","legacy","84","11","C:/Users/katri/OneDrive/Documents/Fall 2020/Sternberg Memory Task/subject-1.csv","legacy","6 7 5 9","Lentiform Loewenfeld","3.3.3","0","n","0","right","left","right","right","NA","686","79356","25603","686","NA","2","legacy","4","1024","2","48000","-16","experiment","1","odd","2","689957","691068","181340","691071","693281","598559","1928","155736","695285","695972","692075","81284","695285","NA","1920","Sternberg Task","94","72465","97","yes","1024"
"96.93877551020408","96.93877551020408","745.469387755102","745.469387755102","black","experiment","legacy","legacy","legacy","0","uniform","1","undefined","1","left","97","97","0","97","97","97","0","0","97","97","97","0","97","0","0","Sat Oct 17 19:35:48 2020","The main experiment item","yes","SternbergTask.osexp","C:\Users\katri\OneDrive\Documents\Fall 2020\Sternberg Memory Task","no","mono","no","18","no","white","no","yes","768","legacy","85","11","C:/Users/katri/OneDrive/Documents/Fall 2020/Sternberg Memory Task/subject-1.csv","legacy","2 5 4 8 7","Lentiform Loewenfeld","3.3.3","3","y","0","left","left","right","left","NA","591","79356","25603","591","NA","2","legacy","5","1024","2","48000","-16","experiment","1","odd","4","695981","697086","181340","697088","699296","598559","1928","155736","701299","701890","698092","81284","701299","NA","1920","Sternberg Task","95","73056","98","yes","1024"
"96.96969696969697","96.96969696969697","745.8282828282828","745.8282828282828","black","experiment","legacy","legacy","legacy","0","uniform","1","undefined","1","right","98","98","0","98","98","98","0","0","98","98","98","0","98","0","0","Sat Oct 17 19:35:48 2020","The main experiment item","yes","SternbergTask.osexp","C:\Users\katri\OneDrive\Documents\Fall 2020\Sternberg Memory Task","no","mono","no","18","no","white","no","yes","768","legacy","86","11","C:/Users/katri/OneDrive/Documents/Fall 2020/Sternberg Memory Task/subject-1.csv","legacy","1 7 5 2 9","Lentiform Loewenfeld","3.3.3","0","n","0","right","left","right","right","NA","781","79356","25603","781","NA","2","legacy","5","1024","2","48000","-16","experiment","1","odd","3","701899","703002","181340","703003","705213","598559","1928","155736","707218","708000","704008","81284","707217","NA","1920","Sternberg Task","96","73837","99","yes","1024"
"97","97","744.3","744.3","black","experiment","legacy","legacy","legacy","0","uniform","1","undefined","1","right","99","99","0","99","99","99","0","0","99","99","99","0","99","0","0","Sat Oct 17 19:35:48 2020","The main experiment item","yes","SternbergTask.osexp","C:\Users\katri\OneDrive\Documents\Fall 2020\Sternberg Memory Task","no","mono","no","18","no","white","no","yes","768","legacy","87","11","C:/Users/katri/OneDrive/Documents/Fall 2020/Sternberg Memory Task/subject-1.csv","legacy","4 1","Lentiform Loewenfeld","3.3.3","0","n","0","right","left","right","right","NA","593","79356","25603","593","NA","2","legacy","2","1024","2","48000","-16","experiment","1","odd","6","708007","709101","181340","709103","711309","598559","1928","155736","713311","713905","710105","81284","713311","NA","1920","Sternberg Task","97","74430","100","yes","1024"
"97.02970297029702","97.02970297029702","744.4356435643564","744.4356435643564","black","experiment","legacy","legacy","legacy","0","uniform","1","undefined","1","right","100","100","0","100","100","100","0","0","100","100","100","0","100","0","0","Sat Oct 17 19:35:48 2020","The main experiment item","yes","SternbergTask.osexp","C:\Users\katri\OneDrive\Documents\Fall 2020\Sternberg Memory Task","no","mono","no","18","no","white","no","yes","768","legacy","88","11","C:/Users/katri/OneDrive/Documents/Fall 2020/Sternberg Memory Task/subject-1.csv","legacy","7 1","Lentiform Loewenfeld","3.3.3","0","n","0","right","left","right","right","NA","758","79356","25603","758","NA","2","legacy","2","1024","2","48000","-16","experiment","1","odd","8","713930","715023","181340","715024","717232","598559","1928","155736","719234","719993","716028","81284","719234","NA","1920","Sternberg Task","98","75188","101","yes","1024"
"96.07843137254902","96.07843137254902","745.7647058823529","745.7647058823529","black","experiment","legacy","legacy","legacy","0","uniform","0","undefined","0","right","101","101","0","101","101","101","0","0","101","101","101","0","101","0","0","Sat Oct 17 19:35:48 2020","The main experiment item","yes","SternbergTask.osexp","C:\Users\katri\OneDrive\Documents\Fall 2020\Sternberg Memory Task","no","mono","no","18","no","white","no","yes","768","legacy","89","11","C:/Users/katri/OneDrive/Documents/Fall 2020/Sternberg Memory Task/subject-1.csv","legacy","4 2 7 6 1 3","Lentiform Loewenfeld","3.3.3","0","n","0","left","left","right","left","NA","880","79356","25603","880","NA","2","legacy","6","1024","2","48000","-16","experiment","1","odd","8","720020","721131","181340","721132","723338","598559","1928","155736","725343","726223","722134","81284","725343","NA","1920","Sternberg Task","98","76068","102","yes","1024"
"96.11650485436893","96.11650485436893","745.1941747572815","745.1941747572815","black","experiment","legacy","legacy","legacy","0","uniform","1","undefined","1","right","102","102","0","102","102","102","0","0","102","102","102","0","102","0","0","Sat Oct 17 19:35:48 2020","The main experiment item","yes","SternbergTask.osexp","C:\Users\katri\OneDrive\Documents\Fall 2020\Sternberg Memory Task","no","mono","no","18","no","white","no","yes","768","legacy","90","11","C:/Users/katri/OneDrive/Documents/Fall 2020/Sternberg Memory Task/subject-1.csv","legacy","5 7 3","Lentiform Loewenfeld","3.3.3","0","n","0","right","left","right","right","NA","687","79356","25603","687","NA","2","legacy","3","1024","2","48000","-16","experiment","1","odd","9","720020","727329","181340","727331","729537","726233","1928","155736","731543","732231","728333","81284","731543","NA","1920","Sternberg Task","99","76755","103","yes","1024"
"96.15384615384616","96.15384615384616","749.7884615384615","749.7884615384615","black","experiment","legacy","legacy","legacy","0","uniform","1","undefined","1","left","103","103","0","103","103","103","0","0","103","103","103","0","103","0","0","Sat Oct 17 19:35:48 2020","The main experiment item","yes","SternbergTask.osexp","C:\Users\katri\OneDrive\Documents\Fall 2020\Sternberg Memory Task","no","mono","no","18","no","white","no","yes","768","legacy","91","11","C:/Users/katri/OneDrive/Documents/Fall 2020/Sternberg Memory Task/subject-1.csv","legacy","9 1 6 7 8","Lentiform Loewenfeld","3.3.3","1","y","0","left","left","right","left","NA","1223","79356","25603","1223","NA","2","legacy","5","1024","2","48000","-16","experiment","1","odd","9","732257","733367","181340","733369","735578","726233","1928","155736","737582","738806","734373","81284","737582","NA","1920","Sternberg Task","100","77978","104","yes","1024"
"96.19047619047619","96.19047619047619","748.6952380952381","748.6952380952381","black","experiment","legacy","legacy","legacy","0","uniform","1","undefined","1","left","104","104","0","104","104","104","0","0","104","104","104","0","104","0","0","Sat Oct 17 19:35:48 2020","The main experiment item","yes","SternbergTask.osexp","C:\Users\katri\OneDrive\Documents\Fall 2020\Sternberg Memory Task","no","mono","no","18","no","white","no","yes","768","legacy","92","11","C:/Users/katri/OneDrive/Documents/Fall 2020/Sternberg Memory Task/subject-1.csv","legacy","2 4 6 9","Lentiform Loewenfeld","3.3.3","3","y","0","left","left","right","left","NA","635","79356","25603","635","NA","2","legacy","4","1024","2","48000","-16","experiment","1","odd","6","738830","739935","181340","739937","742144","726233","1928","155736","744148","744784","740939","81284","744148","NA","1920","Sternberg Task","101","78613","105","yes","1024"
"96.22641509433963","96.22641509433963","747.2358490566038","747.2358490566038","black","experiment","legacy","legacy","legacy","0","uniform","1","undefined","1","right","105","105","0","105","105","105","0","0","105","105","105","0","105","0","0","Sat Oct 17 19:35:48 2020","The main experiment item","yes","SternbergTask.osexp","C:\Users\katri\OneDrive\Documents\Fall 2020\Sternberg Memory Task","no","mono","no","18","no","white","no","yes","768","legacy","93","11","C:/Users/katri/OneDrive/Documents/Fall 2020/Sternberg Memory Task/subject-1.csv","legacy","7 4 2 8 1 9","Lentiform Loewenfeld","3.3.3","0","n","0","right","left","right","right","NA","594","79356","25603","594","NA","2","legacy","6","1024","2","48000","-16","experiment","1","odd","5","744809","745922","181340","745923","748131","726233","1928","155736","750133","750727","746927","81284","750133","NA","1920","Sternberg Task","102","79207","106","yes","1024"
"96.26168224299066","96.26168224299066","746.5327102803739","746.5327102803739","black","experiment","legacy","legacy","legacy","0","uniform","1","undefined","1","right","106","106","0","106","106","106","0","0","106","106","106","0","106","0","0","Sat Oct 17 19:35:48 2020","The main experiment item","yes","SternbergTask.osexp","C:\Users\katri\OneDrive\Documents\Fall 2020\Sternberg Memory Task","no","mono","no","18","no","white","no","yes","768","legacy","94","11","C:/Users/katri/OneDrive/Documents/Fall 2020/Sternberg Memory Task/subject-1.csv","legacy","8 4 3 9","Lentiform Loewenfeld","3.3.3","0","n","0","right","left","right","right","NA","672","79356","25603","672","NA","2","legacy","4","1024","2","48000","-16","experiment","1","odd","5","750730","751826","181340","751829","754035","726233","1928","155736","756036","756709","752831","81284","756036","NA","1920","Sternberg Task","103","79879","107","yes","1024"
"96.29629629629629","96.29629629629629","747.4074074074074","747.4074074074074","black","experiment","legacy","legacy","legacy","0","uniform","1","undefined","1","right","107","107","0","107","107","107","0","0","107","107","107","0","107","0","0","Sat Oct 17 19:35:48 2020","The main experiment item","yes","SternbergTask.osexp","C:\Users\katri\OneDrive\Documents\Fall 2020\Sternberg Memory Task","no","mono","no","18","no","white","no","yes","768","legacy","95","11","C:/Users/katri/OneDrive/Documents/Fall 2020/Sternberg Memory Task/subject-1.csv","legacy","7 3 2 8","Lentiform Loewenfeld","3.3.3","0","n","0","right","left","right","right","NA","841","79356","25603","841","NA","2","legacy","4","1024","2","48000","-16","experiment","1","odd","4","756734","757826","181340","757828","760034","726233","1928","155736","762036","762878","758830","81284","762036","NA","1920","Sternberg Task","104","80720","108","yes","1024"
"96.3302752293578","96.3302752293578","747.4770642201835","747.4770642201835","black","experiment","legacy","legacy","legacy","0","uniform","1","undefined","1","right","108","108","0","108","108","108","0","0","108","108","108","0","108","0","0","Sat Oct 17 19:35:48 2020","The main experiment item","yes","SternbergTask.osexp","C:\Users\katri\OneDrive\Documents\Fall 2020\Sternberg Memory Task","no","mono","no","18","no","white","no","yes","768","legacy","96","11","C:/Users/katri/OneDrive/Documents/Fall 2020/Sternberg Memory Task/subject-1.csv","legacy","6 9 4 5 2","Lentiform Loewenfeld","3.3.3","0","n","0","right","left","right","right","NA","755","79356","25603","755","NA","2","legacy","5","1024","2","48000","-16","experiment","1","odd","1","762905","764017","181340","764019","766225","726233","1928","155736","768228","768983","765021","81284","768228","NA","1920","Sternberg Task","105","81475","109","yes","1024"
