"acc","accuracy","average_response_time","avg_rt","background","block","canvas_backend","clock_backend","color_backend","correct","correct_instruction1","correct_keyboard_response","correct_response","count_ISI","count_correctFeedback","count_expSequence","count_experiment","count_experimentLoop","count_fixation","count_incorrectFeedback","count_instruction1","count_instructions2","count_keyboard_response","count_logger","count_memorySet","count_practiceLoop","count_probe","count_thankYou","datetime","description","disable_garbage_collection","experiment_file","experiment_path","font_bold","font_family","font_italic","font_size","font_underline","foreground","form_clicks","fullscreen","height","keyboard_backend","live_row","live_row_practiceLoop","logfile","mouse_backend","numberSet","opensesame_codename","opensesame_version","posInSet","present","repeat_cycle","response","response_instruction1","response_instructions2","response_keyboard_response","response_thankYou","response_time","response_time_instruction1","response_time_instructions2","response_time_keyboard_response","response_time_thankYou","round_decimals","sampler_backend","setSize","sound_buf_size","sound_channels","sound_freq","sound_sample_size","start","subject_nr","subject_parity","target","time_ISI","time_correctFeedback","time_expSequence","time_experiment","time_experimentLoop","time_fixation","time_incorrectFeedback","time_instruction1","time_instructions2","time_keyboard_response","time_logger","time_memorySet","time_practiceLoop","time_probe","time_thankYou","title","total_correct","total_response_time","total_responses","width"
"100","100","1047","1047","#3d3846","practice","legacy","legacy","legacy","1","undefined","1","right","0","0","0","0","0","0","0","0","0","0","0","0","0","0","0","Thu Oct 12 09:41:02 2023","The main experiment item","False","Sternbergtask.osexp","C:/Users/stcka/OneDrive/Sam Docs/Psychology Program/AP Textbooks/Quantitative Methods","False","mono","False","18","no","white","no","yes","768","legacy","0","0","C:/Users/stcka/OneDrive/Sam Docs/Psychology Program/AP Textbooks/Quantitative Methods/SA-subject-1.csv","legacy","9 6 7 4 5","Melodramatic Milgram","4.0.5","0","n","0","right","left","NA","right","NA","1047.0","1339","NA","1047","NA","2","legacy","5","1024","2","48000","-16","experiment","1","odd","3","6058","NA","3856","2116","NA","3857","NA","2118","NA","8059","9106","4857","3458","8059","NA","Sternberg task","1","1047.0","1","1024"
"100","100","1089","1089","#3d3846","practice","legacy","legacy","legacy","1","undefined","1","right","1","1","1","0","0","1","1","0","0","1","1","1","0","1","0","Thu Oct 12 09:41:02 2023","The main experiment item","False","Sternbergtask.osexp","C:/Users/stcka/OneDrive/Sam Docs/Psychology Program/AP Textbooks/Quantitative Methods","False","mono","False","18","no","white","no","yes","768","legacy","1","1","C:/Users/stcka/OneDrive/Sam Docs/Psychology Program/AP Textbooks/Quantitative Methods/SA-subject-1.csv","legacy","3 1 9 4","Melodramatic Milgram","4.0.5","0","n","0","right","left","NA","right","NA","1131.0","1339","NA","1131","NA","2","legacy","4","1024","2","48000","-16","experiment","1","odd","6","12354","9131","10152","2116","NA","10153","NA","2118","NA","14354","15485","11153","3458","14354","NA","Sternberg task","2","2178.0","2","1024"
"100","100","913","913","#3d3846","practice","legacy","legacy","legacy","1","undefined","1","left","2","2","2","0","0","2","2","0","0","2","2","2","0","2","0","Thu Oct 12 09:41:02 2023","The main experiment item","False","Sternbergtask.osexp","C:/Users/stcka/OneDrive/Sam Docs/Psychology Program/AP Textbooks/Quantitative Methods","False","mono","False","18","no","white","no","yes","768","legacy","2","2","C:/Users/stcka/OneDrive/Sam Docs/Psychology Program/AP Textbooks/Quantitative Methods/SA-subject-1.csv","legacy","4 8","Melodramatic Milgram","4.0.5","1","y","0","left","left","NA","left","NA","563.0","1339","NA","563","NA","2","legacy","2","1024","2","48000","-16","experiment","1","odd","4","18717","15490","16515","2116","NA","16516","NA","2118","NA","20717","21281","17517","3458","20717","NA","Sternberg task","3","2741.0","3","1024"
"100","100","942","942","#3d3846","practice","legacy","legacy","legacy","1","undefined","1","right","3","3","3","0","0","3","3","0","0","3","3","3","0","3","0","Thu Oct 12 09:41:02 2023","The main experiment item","False","Sternbergtask.osexp","C:/Users/stcka/OneDrive/Sam Docs/Psychology Program/AP Textbooks/Quantitative Methods","False","mono","False","18","no","white","no","yes","768","legacy","3","3","C:/Users/stcka/OneDrive/Sam Docs/Psychology Program/AP Textbooks/Quantitative Methods/SA-subject-1.csv","legacy","2 1","Melodramatic Milgram","4.0.5","0","n","0","right","left","NA","right","NA","1027.0","1339","NA","1027","NA","2","legacy","2","1024","2","48000","-16","experiment","1","odd","5","24518","21291","22314","2116","NA","22316","NA","2118","NA","26519","27547","23317","3458","26519","NA","Sternberg task","4","3768.0","4","1024"
"100","100","957","957","#3d3846","practice","legacy","legacy","legacy","1","undefined","1","left","4","4","4","0","0","4","4","0","0","4","4","4","0","4","0","Thu Oct 12 09:41:02 2023","The main experiment item","False","Sternbergtask.osexp","C:/Users/stcka/OneDrive/Sam Docs/Psychology Program/AP Textbooks/Quantitative Methods","False","mono","False","18","no","white","no","yes","768","legacy","4","4","C:/Users/stcka/OneDrive/Sam Docs/Psychology Program/AP Textbooks/Quantitative Methods/SA-subject-1.csv","legacy","1 7 9 8 5","Melodramatic Milgram","4.0.5","4","y","0","left","left","NA","left","NA","1019.0","1339","NA","1019","NA","2","legacy","5","1024","2","48000","-16","experiment","1","odd","8","30777","27552","28574","2116","NA","28575","NA","2118","NA","32777","33797","29576","3458","32777","NA","Sternberg task","5","4787.0","5","1024"
"100","100","926","926","#3d3846","practice","legacy","legacy","legacy","1","undefined","1","right","5","5","5","0","0","5","5","0","0","5","5","5","0","5","0","Thu Oct 12 09:41:02 2023","The main experiment item","False","Sternbergtask.osexp","C:/Users/stcka/OneDrive/Sam Docs/Psychology Program/AP Textbooks/Quantitative Methods","False","mono","False","18","no","white","no","yes","768","legacy","5","5","C:/Users/stcka/OneDrive/Sam Docs/Psychology Program/AP Textbooks/Quantitative Methods/SA-subject-1.csv","legacy","5","Melodramatic Milgram","4.0.5","0","n","0","right","left","NA","right","NA","769.0","1339","NA","769","NA","2","legacy","1","1024","2","48000","-16","experiment","1","odd","3","37026","33803","34825","2116","NA","34825","NA","2118","NA","39026","39796","35826","3458","39026","NA","Sternberg task","6","5556.0","6","1024"
"100","100","901","901","#3d3846","practice","legacy","legacy","legacy","1","undefined","1","right","6","6","6","0","0","6","6","0","0","6","6","6","0","6","0","Thu Oct 12 09:41:02 2023","The main experiment item","False","Sternbergtask.osexp","C:/Users/stcka/OneDrive/Sam Docs/Psychology Program/AP Textbooks/Quantitative Methods","False","mono","False","18","no","white","no","yes","768","legacy","6","6","C:/Users/stcka/OneDrive/Sam Docs/Psychology Program/AP Textbooks/Quantitative Methods/SA-subject-1.csv","legacy","4 1 5","Melodramatic Milgram","4.0.5","0","n","0","right","left","NA","right","NA","754.0","1339","NA","754","NA","2","legacy","3","1024","2","48000","-16","experiment","1","odd","2","43025","39801","40824","2116","NA","40825","NA","2118","NA","45025","45780","41825","3458","45025","NA","Sternberg task","7","6310.0","7","1024"
"100","100","884","884","#3d3846","practice","legacy","legacy","legacy","1","undefined","1","left","7","7","7","0","0","7","7","0","0","7","7","7","0","7","0","Thu Oct 12 09:41:02 2023","The main experiment item","False","Sternbergtask.osexp","C:/Users/stcka/OneDrive/Sam Docs/Psychology Program/AP Textbooks/Quantitative Methods","False","mono","False","18","no","white","no","yes","768","legacy","7","7","C:/Users/stcka/OneDrive/Sam Docs/Psychology Program/AP Textbooks/Quantitative Methods/SA-subject-1.csv","legacy","6","Melodramatic Milgram","4.0.5","1","y","0","left","left","NA","left","NA","768.0","1339","NA","768","NA","2","legacy","1","1024","2","48000","-16","experiment","1","odd","6","49017","45785","46814","2116","NA","46815","NA","2118","NA","51017","51786","47816","3458","51017","NA","Sternberg task","8","7078.0","8","1024"
"100","100","963","963","#3d3846","practice","legacy","legacy","legacy","1","undefined","1","right","8","8","8","0","0","8","8","0","0","8","8","8","0","8","0","Thu Oct 12 09:41:02 2023","The main experiment item","False","Sternbergtask.osexp","C:/Users/stcka/OneDrive/Sam Docs/Psychology Program/AP Textbooks/Quantitative Methods","False","mono","False","18","no","white","no","yes","768","legacy","8","8","C:/Users/stcka/OneDrive/Sam Docs/Psychology Program/AP Textbooks/Quantitative Methods/SA-subject-1.csv","legacy","5 7 8 4 1 2","Melodramatic Milgram","4.0.5","0","n","0","right","left","NA","right","NA","1592.0","1339","NA","1592","NA","2","legacy","6","1024","2","48000","-16","experiment","1","odd","6","55019","51792","52816","2116","NA","52818","NA","2118","NA","57020","58613","53818","3458","57020","NA","Sternberg task","9","8670.0","9","1024"
"100","100","988","988","#3d3846","practice","legacy","legacy","legacy","1","undefined","1","left","9","9","9","0","0","9","9","0","0","9","9","9","0","9","0","Thu Oct 12 09:41:02 2023","The main experiment item","False","Sternbergtask.osexp","C:/Users/stcka/OneDrive/Sam Docs/Psychology Program/AP Textbooks/Quantitative Methods","False","mono","False","18","no","white","no","yes","768","legacy","9","9","C:/Users/stcka/OneDrive/Sam Docs/Psychology Program/AP Textbooks/Quantitative Methods/SA-subject-1.csv","legacy","4 3 1 7 9 8","Melodramatic Milgram","4.0.5","1","y","0","left","left","NA","left","NA","1210.0","1339","NA","1210","NA","2","legacy","6","1024","2","48000","-16","experiment","1","odd","4","61844","58617","59642","2116","NA","59643","NA","2118","NA","63844","65055","60644","3458","63844","NA","Sternberg task","10","9880.0","10","1024"
"100","100","995","995","#3d3846","practice","legacy","legacy","legacy","1","undefined","1","left","10","10","10","0","0","10","10","0","0","10","10","10","0","10","0","Thu Oct 12 09:41:02 2023","The main experiment item","False","Sternbergtask.osexp","C:/Users/stcka/OneDrive/Sam Docs/Psychology Program/AP Textbooks/Quantitative Methods","False","mono","False","18","no","white","no","yes","768","legacy","10","10","C:/Users/stcka/OneDrive/Sam Docs/Psychology Program/AP Textbooks/Quantitative Methods/SA-subject-1.csv","legacy","2 9 4","Melodramatic Milgram","4.0.5","3","y","0","left","left","NA","left","NA","1073.0","1339","NA","1073","NA","2","legacy","3","1024","2","48000","-16","experiment","1","odd","4","68282","65058","66079","2116","NA","66079","NA","2118","NA","70283","71357","67081","3458","70283","NA","Sternberg task","11","10953.0","11","1024"
"100","100","1000","1000","#3d3846","practice","legacy","legacy","legacy","1","undefined","1","left","11","11","11","0","0","11","11","0","0","11","11","11","0","11","0","Thu Oct 12 09:41:02 2023","The main experiment item","False","Sternbergtask.osexp","C:/Users/stcka/OneDrive/Sam Docs/Psychology Program/AP Textbooks/Quantitative Methods","False","mono","False","18","no","white","no","yes","768","legacy","11","11","C:/Users/stcka/OneDrive/Sam Docs/Psychology Program/AP Textbooks/Quantitative Methods/SA-subject-1.csv","legacy","1 5 2 9","Melodramatic Milgram","4.0.5","2","y","0","left","left","NA","left","NA","1048.0","1339","NA","1048","NA","2","legacy","4","1024","2","48000","-16","experiment","1","odd","5","74589","71362","72387","2116","NA","72388","NA","2118","NA","76589","77637","73388","3458","76589","NA","Sternberg task","12","12001.0","12","1024"
"100","100","992","992","#3d3846","experiment","legacy","legacy","legacy","1","undefined","1","right","12","12","12","0","0","12","12","0","0","12","12","12","0","12","0","Thu Oct 12 09:41:02 2023","The main experiment item","False","Sternbergtask.osexp","C:/Users/stcka/OneDrive/Sam Docs/Psychology Program/AP Textbooks/Quantitative Methods","False","mono","False","18","no","white","no","yes","768","legacy","0","11","C:/Users/stcka/OneDrive/Sam Docs/Psychology Program/AP Textbooks/Quantitative Methods/SA-subject-1.csv","legacy","8 6 3 4 7","Melodramatic Milgram","4.0.5","0","n","0","right","left","left","right","NA","902.0","1339","2657","902","NA","2","legacy","5","1024","2","48000","-16","experiment","1","odd","1","83583","77643","81380","2116","81301","81380","NA","2118","78644","85584","86487","82381","3458","85583","NA","Sternberg task","13","12903.0","13","1024"
"100","100","973","973","#3d3846","experiment","legacy","legacy","legacy","1","undefined","1","right","13","13","13","0","0","13","13","0","0","13","13","13","0","13","0","Thu Oct 12 09:41:02 2023","The main experiment item","False","Sternbergtask.osexp","C:/Users/stcka/OneDrive/Sam Docs/Psychology Program/AP Textbooks/Quantitative Methods","False","mono","False","18","no","white","no","yes","768","legacy","1","11","C:/Users/stcka/OneDrive/Sam Docs/Psychology Program/AP Textbooks/Quantitative Methods/SA-subject-1.csv","legacy","7 9","Melodramatic Milgram","4.0.5","0","n","0","right","left","left","right","NA","726.0","1339","2657","726","NA","2","legacy","2","1024","2","48000","-16","experiment","1","odd","1","89718","86492","87516","2116","81301","87518","NA","2118","78644","91719","92445","88518","3458","91718","NA","Sternberg task","14","13629.0","14","1024"
"100","100","945","945","#3d3846","experiment","legacy","legacy","legacy","1","undefined","1","left","14","14","14","0","0","14","14","0","0","14","14","14","0","14","0","Thu Oct 12 09:41:02 2023","The main experiment item","False","Sternbergtask.osexp","C:/Users/stcka/OneDrive/Sam Docs/Psychology Program/AP Textbooks/Quantitative Methods","False","mono","False","18","no","white","no","yes","768","legacy","2","11","C:/Users/stcka/OneDrive/Sam Docs/Psychology Program/AP Textbooks/Quantitative Methods/SA-subject-1.csv","legacy","8 1 6","Melodramatic Milgram","4.0.5","3","y","0","left","left","left","left","NA","556.0","1339","2657","556","NA","2","legacy","3","1024","2","48000","-16","experiment","1","odd","6","95674","92450","93471","2116","81301","93472","NA","2118","78644","97674","98230","94472","3458","97674","NA","Sternberg task","15","14185.0","15","1024"
"100","100","936","936","#3d3846","experiment","legacy","legacy","legacy","1","undefined","1","right","15","15","15","0","0","15","15","0","0","15","15","15","0","15","0","Thu Oct 12 09:41:02 2023","The main experiment item","False","Sternbergtask.osexp","C:/Users/stcka/OneDrive/Sam Docs/Psychology Program/AP Textbooks/Quantitative Methods","False","mono","False","18","no","white","no","yes","768","legacy","3","11","C:/Users/stcka/OneDrive/Sam Docs/Psychology Program/AP Textbooks/Quantitative Methods/SA-subject-1.csv","legacy","5 9 2 3","Melodramatic Milgram","4.0.5","0","n","0","right","left","left","right","NA","800.0","1339","2657","800","NA","2","legacy","4","1024","2","48000","-16","experiment","1","odd","8","101464","98241","99264","2116","81301","99264","NA","2118","78644","103464","104264","100264","3458","103464","NA","Sternberg task","16","14985.0","16","1024"
"100","100","953","953","#3d3846","experiment","legacy","legacy","legacy","1","undefined","1","right","16","16","16","0","0","16","16","0","0","16","16","16","0","16","0","Thu Oct 12 09:41:02 2023","The main experiment item","False","Sternbergtask.osexp","C:/Users/stcka/OneDrive/Sam Docs/Psychology Program/AP Textbooks/Quantitative Methods","False","mono","False","18","no","white","no","yes","768","legacy","4","11","C:/Users/stcka/OneDrive/Sam Docs/Psychology Program/AP Textbooks/Quantitative Methods/SA-subject-1.csv","legacy","1 6 4","Melodramatic Milgram","4.0.5","0","n","0","right","left","left","right","NA","1227.0","1339","2657","1227","NA","2","legacy","3","1024","2","48000","-16","experiment","1","odd","7","107496","104269","105294","2116","81301","105294","NA","2118","78644","109497","110726","106296","3458","109496","NA","Sternberg task","17","16212.0","17","1024"
"100","100","948","948","#3d3846","experiment","legacy","legacy","legacy","1","undefined","1","right","17","17","17","0","0","17","17","0","0","17","17","17","0","17","0","Thu Oct 12 09:41:02 2023","The main experiment item","False","Sternbergtask.osexp","C:/Users/stcka/OneDrive/Sam Docs/Psychology Program/AP Textbooks/Quantitative Methods","False","mono","False","18","no","white","no","yes","768","legacy","5","11","C:/Users/stcka/OneDrive/Sam Docs/Psychology Program/AP Textbooks/Quantitative Methods/SA-subject-1.csv","legacy","6 9 4 5 3 2","Melodramatic Milgram","4.0.5","0","n","0","right","left","left","right","NA","866.0","1339","2657","866","NA","2","legacy","6","1024","2","48000","-16","experiment","1","odd","8","113956","110731","111754","2116","81301","111755","NA","2118","78644","115957","116824","112755","3458","115957","NA","Sternberg task","18","17078.0","18","1024"
"100","100","966","966","#3d3846","experiment","legacy","legacy","legacy","1","undefined","1","right","18","18","18","0","0","18","18","0","0","18","18","18","0","18","0","Thu Oct 12 09:41:02 2023","The main experiment item","False","Sternbergtask.osexp","C:/Users/stcka/OneDrive/Sam Docs/Psychology Program/AP Textbooks/Quantitative Methods","False","mono","False","18","no","white","no","yes","768","legacy","6","11","C:/Users/stcka/OneDrive/Sam Docs/Psychology Program/AP Textbooks/Quantitative Methods/SA-subject-1.csv","legacy","9 7 4 5 8","Melodramatic Milgram","4.0.5","0","n","0","right","left","left","right","NA","1278.0","1339","2657","1278","NA","2","legacy","5","1024","2","48000","-16","experiment","1","odd","6","120053","116828","117850","2116","81301","117851","NA","2118","78644","122054","123333","118852","3458","122053","NA","Sternberg task","19","18356.0","19","1024"
"100","100","960","960","#3d3846","experiment","legacy","legacy","legacy","1","undefined","1","left","19","19","19","0","0","19","19","0","0","19","19","19","0","19","0","Thu Oct 12 09:41:02 2023","The main experiment item","False","Sternbergtask.osexp","C:/Users/stcka/OneDrive/Sam Docs/Psychology Program/AP Textbooks/Quantitative Methods","False","mono","False","18","no","white","no","yes","768","legacy","7","11","C:/Users/stcka/OneDrive/Sam Docs/Psychology Program/AP Textbooks/Quantitative Methods/SA-subject-1.csv","legacy","4 1 5","Melodramatic Milgram","4.0.5","2","y","0","left","left","left","left","NA","846.0","1339","2657","846","NA","2","legacy","3","1024","2","48000","-16","experiment","1","odd","1","126564","123338","124361","2116","81301","124363","NA","2118","78644","128565","129412","125364","3458","128564","NA","Sternberg task","20","19202.0","20","1024"
"100","100","971","971","#3d3846","experiment","legacy","legacy","legacy","1","undefined","1","right","20","20","20","0","0","20","20","0","0","20","20","20","0","20","0","Thu Oct 12 09:41:02 2023","The main experiment item","False","Sternbergtask.osexp","C:/Users/stcka/OneDrive/Sam Docs/Psychology Program/AP Textbooks/Quantitative Methods","False","mono","False","18","no","white","no","yes","768","legacy","8","11","C:/Users/stcka/OneDrive/Sam Docs/Psychology Program/AP Textbooks/Quantitative Methods/SA-subject-1.csv","legacy","3 9 8 1 6 4","Melodramatic Milgram","4.0.5","0","n","0","right","left","left","right","NA","1196.0","1339","2657","1196","NA","2","legacy","6","1024","2","48000","-16","experiment","1","odd","7","132639","129417","130437","2116","81301","130438","NA","2118","78644","134639","135836","131438","3458","134639","NA","Sternberg task","21","20398.0","21","1024"
"100","100","971","971","#3d3846","experiment","legacy","legacy","legacy","1","undefined","1","left","21","21","21","0","0","21","21","0","0","21","21","21","0","21","0","Thu Oct 12 09:41:02 2023","The main experiment item","False","Sternbergtask.osexp","C:/Users/stcka/OneDrive/Sam Docs/Psychology Program/AP Textbooks/Quantitative Methods","False","mono","False","18","no","white","no","yes","768","legacy","9","11","C:/Users/stcka/OneDrive/Sam Docs/Psychology Program/AP Textbooks/Quantitative Methods/SA-subject-1.csv","legacy","9 1 6 7 8","Melodramatic Milgram","4.0.5","1","y","0","left","left","left","left","NA","976.0","1339","2657","976","NA","2","legacy","5","1024","2","48000","-16","experiment","1","odd","9","139065","135841","136863","2116","81301","136864","NA","2118","78644","141065","142041","137865","3458","141065","NA","Sternberg task","22","21374.0","22","1024"
"100","100","962","962","#3d3846","experiment","legacy","legacy","legacy","1","undefined","1","left","22","22","22","0","0","22","22","0","0","22","22","22","0","22","0","Thu Oct 12 09:41:02 2023","The main experiment item","False","Sternbergtask.osexp","C:/Users/stcka/OneDrive/Sam Docs/Psychology Program/AP Textbooks/Quantitative Methods","False","mono","False","18","no","white","no","yes","768","legacy","10","11","C:/Users/stcka/OneDrive/Sam Docs/Psychology Program/AP Textbooks/Quantitative Methods/SA-subject-1.csv","legacy","3 5 4 7","Melodramatic Milgram","4.0.5","1","y","0","left","left","left","left","NA","761.0","1339","2657","761","NA","2","legacy","4","1024","2","48000","-16","experiment","1","odd","3","145274","142046","143072","2116","81301","143074","NA","2118","78644","147275","148037","144074","3458","147275","NA","Sternberg task","23","22135.0","23","1024"
"100","100","955","955","#3d3846","experiment","legacy","legacy","legacy","1","undefined","1","right","23","23","23","0","0","23","23","0","0","23","23","23","0","23","0","Thu Oct 12 09:41:02 2023","The main experiment item","False","Sternbergtask.osexp","C:/Users/stcka/OneDrive/Sam Docs/Psychology Program/AP Textbooks/Quantitative Methods","False","mono","False","18","no","white","no","yes","768","legacy","11","11","C:/Users/stcka/OneDrive/Sam Docs/Psychology Program/AP Textbooks/Quantitative Methods/SA-subject-1.csv","legacy","4 1","Melodramatic Milgram","4.0.5","0","n","0","right","left","left","right","NA","785.0","1339","2657","785","NA","2","legacy","2","1024","2","48000","-16","experiment","1","odd","6","151272","148042","149070","2116","81301","149071","NA","2118","78644","153273","154059","150071","3458","153273","NA","Sternberg task","24","22920.0","24","1024"
"100","100","946","946","#3d3846","experiment","legacy","legacy","legacy","1","undefined","1","right","24","24","24","0","0","24","24","0","0","24","24","24","0","24","0","Thu Oct 12 09:41:02 2023","The main experiment item","False","Sternbergtask.osexp","C:/Users/stcka/OneDrive/Sam Docs/Psychology Program/AP Textbooks/Quantitative Methods","False","mono","False","18","no","white","no","yes","768","legacy","12","11","C:/Users/stcka/OneDrive/Sam Docs/Psychology Program/AP Textbooks/Quantitative Methods/SA-subject-1.csv","legacy","8 9","Melodramatic Milgram","4.0.5","0","n","0","right","left","left","right","NA","734.0","1339","2657","734","NA","2","legacy","2","1024","2","48000","-16","experiment","1","odd","5","157288","154064","155085","2116","81301","155086","NA","2118","78644","159288","160022","156087","3458","159288","NA","Sternberg task","25","23654.0","25","1024"
"100","100","946","946","#3d3846","experiment","legacy","legacy","legacy","1","undefined","1","right","25","25","25","0","0","25","25","0","0","25","25","25","0","25","0","Thu Oct 12 09:41:02 2023","The main experiment item","False","Sternbergtask.osexp","C:/Users/stcka/OneDrive/Sam Docs/Psychology Program/AP Textbooks/Quantitative Methods","False","mono","False","18","no","white","no","yes","768","legacy","13","11","C:/Users/stcka/OneDrive/Sam Docs/Psychology Program/AP Textbooks/Quantitative Methods/SA-subject-1.csv","legacy","8 5 7 3 6","Melodramatic Milgram","4.0.5","0","n","0","right","left","left","right","NA","966.0","1339","2657","966","NA","2","legacy","5","1024","2","48000","-16","experiment","1","odd","9","163255","160027","161052","2116","81301","161053","NA","2118","78644","165255","166221","162054","3458","165255","NA","Sternberg task","26","24620.0","26","1024"
"100","100","943","943","#3d3846","experiment","legacy","legacy","legacy","1","undefined","1","left","26","26","26","0","0","26","26","0","0","26","26","26","0","26","0","Thu Oct 12 09:41:02 2023","The main experiment item","False","Sternbergtask.osexp","C:/Users/stcka/OneDrive/Sam Docs/Psychology Program/AP Textbooks/Quantitative Methods","False","mono","False","18","no","white","no","yes","768","legacy","14","11","C:/Users/stcka/OneDrive/Sam Docs/Psychology Program/AP Textbooks/Quantitative Methods/SA-subject-1.csv","legacy","9 8 4","Melodramatic Milgram","4.0.5","1","y","0","left","left","left","left","NA","859.0","1339","2657","859","NA","2","legacy","3","1024","2","48000","-16","experiment","1","odd","9","169449","166226","167246","2116","81301","167247","NA","2118","78644","171449","172309","168248","3458","171449","NA","Sternberg task","27","25479.0","27","1024"
"100","100","945","945","#3d3846","experiment","legacy","legacy","legacy","1","undefined","1","left","27","27","27","0","0","27","27","0","0","27","27","27","0","27","0","Thu Oct 12 09:41:02 2023","The main experiment item","False","Sternbergtask.osexp","C:/Users/stcka/OneDrive/Sam Docs/Psychology Program/AP Textbooks/Quantitative Methods","False","mono","False","18","no","white","no","yes","768","legacy","15","11","C:/Users/stcka/OneDrive/Sam Docs/Psychology Program/AP Textbooks/Quantitative Methods/SA-subject-1.csv","legacy","8 3","Melodramatic Milgram","4.0.5","2","y","0","left","left","left","left","NA","987.0","1339","2657","987","NA","2","legacy","2","1024","2","48000","-16","experiment","1","odd","3","175537","172314","173336","2116","81301","173336","NA","2118","78644","177538","178526","174337","3458","177538","NA","Sternberg task","28","26466.0","28","1024"
"100","100","955","955","#3d3846","experiment","legacy","legacy","legacy","1","undefined","1","right","28","28","28","0","0","28","28","0","0","28","28","28","0","28","0","Thu Oct 12 09:41:02 2023","The main experiment item","False","Sternbergtask.osexp","C:/Users/stcka/OneDrive/Sam Docs/Psychology Program/AP Textbooks/Quantitative Methods","False","mono","False","18","no","white","no","yes","768","legacy","16","11","C:/Users/stcka/OneDrive/Sam Docs/Psychology Program/AP Textbooks/Quantitative Methods/SA-subject-1.csv","legacy","9 8 2 7 4","Melodramatic Milgram","4.0.5","0","n","0","right","left","left","right","NA","1242.0","1339","2657","1242","NA","2","legacy","5","1024","2","48000","-16","experiment","1","odd","5","181760","178531","179559","2116","81301","179560","NA","2118","78644","183761","185004","180560","3458","183761","NA","Sternberg task","29","27708.0","29","1024"
"100","100","953","953","#3d3846","experiment","legacy","legacy","legacy","1","undefined","1","left","29","29","29","0","0","29","29","0","0","29","29","29","0","29","0","Thu Oct 12 09:41:02 2023","The main experiment item","False","Sternbergtask.osexp","C:/Users/stcka/OneDrive/Sam Docs/Psychology Program/AP Textbooks/Quantitative Methods","False","mono","False","18","no","white","no","yes","768","legacy","17","11","C:/Users/stcka/OneDrive/Sam Docs/Psychology Program/AP Textbooks/Quantitative Methods/SA-subject-1.csv","legacy","2 5 4 8 7","Melodramatic Milgram","4.0.5","3","y","0","left","left","left","left","NA","900.0","1339","2657","900","NA","2","legacy","5","1024","2","48000","-16","experiment","1","odd","4","188233","185008","186030","2116","81301","186031","NA","2118","78644","190234","191134","187032","3458","190234","NA","Sternberg task","30","28608.0","30","1024"
"100","100","952","952","#3d3846","experiment","legacy","legacy","legacy","1","undefined","1","right","30","30","30","0","0","30","30","0","0","30","30","30","0","30","0","Thu Oct 12 09:41:02 2023","The main experiment item","False","Sternbergtask.osexp","C:/Users/stcka/OneDrive/Sam Docs/Psychology Program/AP Textbooks/Quantitative Methods","False","mono","False","18","no","white","no","yes","768","legacy","18","11","C:/Users/stcka/OneDrive/Sam Docs/Psychology Program/AP Textbooks/Quantitative Methods/SA-subject-1.csv","legacy","7 6 4 8 1 2","Melodramatic Milgram","4.0.5","0","n","0","right","left","left","right","NA","908.0","1339","2657","908","NA","2","legacy","6","1024","2","48000","-16","experiment","1","odd","9","194367","191140","192163","2116","81301","192165","NA","2118","78644","196367","197275","193166","3458","196367","NA","Sternberg task","31","29516.0","31","1024"
"100","100","957","957","#3d3846","experiment","legacy","legacy","legacy","1","undefined","1","left","31","31","31","0","0","31","31","0","0","31","31","31","0","31","0","Thu Oct 12 09:41:02 2023","The main experiment item","False","Sternbergtask.osexp","C:/Users/stcka/OneDrive/Sam Docs/Psychology Program/AP Textbooks/Quantitative Methods","False","mono","False","18","no","white","no","yes","768","legacy","19","11","C:/Users/stcka/OneDrive/Sam Docs/Psychology Program/AP Textbooks/Quantitative Methods/SA-subject-1.csv","legacy","9 1 7 2","Melodramatic Milgram","4.0.5","2","y","0","left","left","left","left","NA","1132.0","1339","2657","1132","NA","2","legacy","4","1024","2","48000","-16","experiment","1","odd","1","200515","197281","198312","2116","81301","198313","NA","2118","78644","202515","203647","199314","3458","202515","NA","Sternberg task","32","30648.0","32","1024"
"100","100","960","960","#3d3846","experiment","legacy","legacy","legacy","1","undefined","1","left","32","32","32","0","0","32","32","0","0","32","32","32","0","32","0","Thu Oct 12 09:41:02 2023","The main experiment item","False","Sternbergtask.osexp","C:/Users/stcka/OneDrive/Sam Docs/Psychology Program/AP Textbooks/Quantitative Methods","False","mono","False","18","no","white","no","yes","768","legacy","20","11","C:/Users/stcka/OneDrive/Sam Docs/Psychology Program/AP Textbooks/Quantitative Methods/SA-subject-1.csv","legacy","5 7 3 6 2","Melodramatic Milgram","4.0.5","5","y","0","left","left","left","left","NA","1046.0","1339","2657","1046","NA","2","legacy","5","1024","2","48000","-16","experiment","1","odd","2","206880","203652","204677","2116","81301","204678","NA","2118","78644","208881","209928","205679","3458","208880","NA","Sternberg task","33","31694.0","33","1024"
"100","100","955","955","#3d3846","experiment","legacy","legacy","legacy","1","undefined","1","right","33","33","33","0","0","33","33","0","0","33","33","33","0","33","0","Thu Oct 12 09:41:02 2023","The main experiment item","False","Sternbergtask.osexp","C:/Users/stcka/OneDrive/Sam Docs/Psychology Program/AP Textbooks/Quantitative Methods","False","mono","False","18","no","white","no","yes","768","legacy","21","11","C:/Users/stcka/OneDrive/Sam Docs/Psychology Program/AP Textbooks/Quantitative Methods/SA-subject-1.csv","legacy","5","Melodramatic Milgram","4.0.5","0","n","0","right","left","left","right","NA","790.0","1339","2657","790","NA","2","legacy","1","1024","2","48000","-16","experiment","1","odd","8","213156","209932","210954","2116","81301","210955","NA","2118","78644","215156","215947","211955","3458","215156","NA","Sternberg task","34","32484.0","34","1024"
"97","97","985","985","#3d3846","experiment","legacy","legacy","legacy","0","undefined","0","right","34","34","34","0","0","34","34","0","0","34","34","34","0","34","0","Thu Oct 12 09:41:02 2023","The main experiment item","False","Sternbergtask.osexp","C:/Users/stcka/OneDrive/Sam Docs/Psychology Program/AP Textbooks/Quantitative Methods","False","mono","False","18","no","white","no","yes","768","legacy","22","11","C:/Users/stcka/OneDrive/Sam Docs/Psychology Program/AP Textbooks/Quantitative Methods/SA-subject-1.csv","legacy","1 7 8 3 9","Melodramatic Milgram","4.0.5","0","n","0","None","left","left","None","NA","2000.0","1339","2657","2000","NA","2","legacy","5","1024","2","48000","-16","experiment","1","odd","2","219180","215953","216977","2116","81301","216978","NA","2118","78644","221180","223180","217978","3458","221180","NA","Sternberg task","34","34484.0","35","1024"
"97","97","983","983","#3d3846","experiment","legacy","legacy","legacy","1","undefined","1","right","35","35","35","0","0","35","35","0","0","35","35","35","0","35","0","Thu Oct 12 09:41:02 2023","The main experiment item","False","Sternbergtask.osexp","C:/Users/stcka/OneDrive/Sam Docs/Psychology Program/AP Textbooks/Quantitative Methods","False","mono","False","18","no","white","no","yes","768","legacy","23","11","C:/Users/stcka/OneDrive/Sam Docs/Psychology Program/AP Textbooks/Quantitative Methods/SA-subject-1.csv","legacy","8 4 3 9","Melodramatic Milgram","4.0.5","0","n","0","right","left","left","right","NA","915.0","1339","2657","915","NA","2","legacy","4","1024","2","48000","-16","experiment","1","odd","5","226411","215953","224209","2116","81301","224210","223185","2118","78644","228411","229327","225210","3458","228411","NA","Sternberg task","35","35399.0","36","1024"
"97","97","1006","1006","#3d3846","experiment","legacy","legacy","legacy","1","undefined","1","right","36","36","36","0","0","36","36","0","0","36","36","36","0","36","0","Thu Oct 12 09:41:02 2023","The main experiment item","False","Sternbergtask.osexp","C:/Users/stcka/OneDrive/Sam Docs/Psychology Program/AP Textbooks/Quantitative Methods","False","mono","False","18","no","white","no","yes","768","legacy","24","11","C:/Users/stcka/OneDrive/Sam Docs/Psychology Program/AP Textbooks/Quantitative Methods/SA-subject-1.csv","legacy","4 2 6 9","Melodramatic Milgram","4.0.5","0","n","0","right","left","left","right","NA","1854.0","1339","2657","1854","NA","2","legacy","4","1024","2","48000","-16","experiment","1","odd","7","232554","229331","230353","2116","81301","230354","223185","2118","78644","234555","236410","231354","3458","234555","NA","Sternberg task","36","37253.0","37","1024"
"94","94","1032","1032","#3d3846","experiment","legacy","legacy","legacy","0","undefined","0","left","37","37","37","0","0","37","37","0","0","37","37","37","0","37","0","Thu Oct 12 09:41:02 2023","The main experiment item","False","Sternbergtask.osexp","C:/Users/stcka/OneDrive/Sam Docs/Psychology Program/AP Textbooks/Quantitative Methods","False","mono","False","18","no","white","no","yes","768","legacy","25","11","C:/Users/stcka/OneDrive/Sam Docs/Psychology Program/AP Textbooks/Quantitative Methods/SA-subject-1.csv","legacy","3 5 9 6 2 4","Melodramatic Milgram","4.0.5","1","y","0","None","left","left","None","NA","2000.0","1339","2657","2000","NA","2","legacy","6","1024","2","48000","-16","experiment","1","odd","3","239643","236415","237442","2116","81301","237443","223185","2118","78644","241643","243643","238443","3458","241643","NA","Sternberg task","36","39253.0","38","1024"
"94","94","1040","1040","#3d3846","experiment","legacy","legacy","legacy","1","undefined","1","left","38","38","38","0","0","38","38","0","0","38","38","38","0","38","0","Thu Oct 12 09:41:02 2023","The main experiment item","False","Sternbergtask.osexp","C:/Users/stcka/OneDrive/Sam Docs/Psychology Program/AP Textbooks/Quantitative Methods","False","mono","False","18","no","white","no","yes","768","legacy","26","11","C:/Users/stcka/OneDrive/Sam Docs/Psychology Program/AP Textbooks/Quantitative Methods/SA-subject-1.csv","legacy","9 3 1 2 5","Melodramatic Milgram","4.0.5","4","y","0","left","left","left","left","NA","1341.0","1339","2657","1341","NA","2","legacy","5","1024","2","48000","-16","experiment","1","odd","2","246876","236415","244674","2116","81301","244675","243648","2118","78644","248876","250218","245675","3458","248876","NA","Sternberg task","37","40594.0","39","1024"
"95","95","1035","1035","#3d3846","experiment","legacy","legacy","legacy","1","undefined","1","left","39","39","39","0","0","39","39","0","0","39","39","39","0","39","0","Thu Oct 12 09:41:02 2023","The main experiment item","False","Sternbergtask.osexp","C:/Users/stcka/OneDrive/Sam Docs/Psychology Program/AP Textbooks/Quantitative Methods","False","mono","False","18","no","white","no","yes","768","legacy","27","11","C:/Users/stcka/OneDrive/Sam Docs/Psychology Program/AP Textbooks/Quantitative Methods/SA-subject-1.csv","legacy","6 7 9 3 1 2","Melodramatic Milgram","4.0.5","1","y","0","left","left","left","left","NA","843.0","1339","2657","843","NA","2","legacy","6","1024","2","48000","-16","experiment","1","odd","6","253450","250223","251247","2116","81301","251248","243648","2118","78644","255451","256295","252248","3458","255451","NA","Sternberg task","38","41437.0","40","1024"
"95","95","1029","1029","#3d3846","experiment","legacy","legacy","legacy","1","undefined","1","right","40","40","40","0","0","40","40","0","0","40","40","40","0","40","0","Thu Oct 12 09:41:02 2023","The main experiment item","False","Sternbergtask.osexp","C:/Users/stcka/OneDrive/Sam Docs/Psychology Program/AP Textbooks/Quantitative Methods","False","mono","False","18","no","white","no","yes","768","legacy","28","11","C:/Users/stcka/OneDrive/Sam Docs/Psychology Program/AP Textbooks/Quantitative Methods/SA-subject-1.csv","legacy","7 1","Melodramatic Milgram","4.0.5","0","n","0","right","left","left","right","NA","768.0","1339","2657","768","NA","2","legacy","2","1024","2","48000","-16","experiment","1","odd","8","259526","256301","257324","2116","81301","257325","243648","2118","78644","261526","262295","258325","3458","261526","NA","Sternberg task","39","42205.0","41","1024"
"95","95","1027","1027","#3d3846","experiment","legacy","legacy","legacy","1","undefined","1","left","41","41","41","0","0","41","41","0","0","41","41","41","0","41","0","Thu Oct 12 09:41:02 2023","The main experiment item","False","Sternbergtask.osexp","C:/Users/stcka/OneDrive/Sam Docs/Psychology Program/AP Textbooks/Quantitative Methods","False","mono","False","18","no","white","no","yes","768","legacy","29","11","C:/Users/stcka/OneDrive/Sam Docs/Psychology Program/AP Textbooks/Quantitative Methods/SA-subject-1.csv","legacy","8 5 3 7 4 6","Melodramatic Milgram","4.0.5","6","y","0","left","left","left","left","NA","946.0","1339","2657","946","NA","2","legacy","6","1024","2","48000","-16","experiment","1","odd","6","265526","262300","263322","2116","81301","263324","243648","2118","78644","267527","268474","264325","3458","267526","NA","Sternberg task","40","43151.0","42","1024"
"95","95","1031","1031","#3d3846","experiment","legacy","legacy","legacy","1","undefined","1","right","42","42","42","0","0","42","42","0","0","42","42","42","0","42","0","Thu Oct 12 09:41:02 2023","The main experiment item","False","Sternbergtask.osexp","C:/Users/stcka/OneDrive/Sam Docs/Psychology Program/AP Textbooks/Quantitative Methods","False","mono","False","18","no","white","no","yes","768","legacy","30","11","C:/Users/stcka/OneDrive/Sam Docs/Psychology Program/AP Textbooks/Quantitative Methods/SA-subject-1.csv","legacy","3 4 9 6 7 8","Melodramatic Milgram","4.0.5","0","n","0","right","left","left","right","NA","1185.0","1339","2657","1185","NA","2","legacy","6","1024","2","48000","-16","experiment","1","odd","2","271703","268477","269501","2116","81301","269502","243648","2118","78644","273704","274890","270502","3458","273704","NA","Sternberg task","41","44336.0","43","1024"
"95","95","1017","1017","#3d3846","experiment","legacy","legacy","legacy","1","undefined","1","left","43","43","43","0","0","43","43","0","0","43","43","43","0","43","0","Thu Oct 12 09:41:02 2023","The main experiment item","False","Sternbergtask.osexp","C:/Users/stcka/OneDrive/Sam Docs/Psychology Program/AP Textbooks/Quantitative Methods","False","mono","False","18","no","white","no","yes","768","legacy","31","11","C:/Users/stcka/OneDrive/Sam Docs/Psychology Program/AP Textbooks/Quantitative Methods/SA-subject-1.csv","legacy","6 2","Melodramatic Milgram","4.0.5","1","y","0","left","left","left","left","NA","435.0","1339","2657","435","NA","2","legacy","2","1024","2","48000","-16","experiment","1","odd","6","278117","274894","275915","2116","81301","275915","243648","2118","78644","280117","280553","276915","3458","280117","NA","Sternberg task","42","44771.0","44","1024"
"95","95","1015","1015","#3d3846","experiment","legacy","legacy","legacy","1","undefined","1","right","44","44","44","0","0","44","44","0","0","44","44","44","0","44","0","Thu Oct 12 09:41:02 2023","The main experiment item","False","Sternbergtask.osexp","C:/Users/stcka/OneDrive/Sam Docs/Psychology Program/AP Textbooks/Quantitative Methods","False","mono","False","18","no","white","no","yes","768","legacy","32","11","C:/Users/stcka/OneDrive/Sam Docs/Psychology Program/AP Textbooks/Quantitative Methods/SA-subject-1.csv","legacy","4 2 7 6 1 3","Melodramatic Milgram","4.0.5","0","n","0","right","left","left","right","NA","940.0","1339","2657","940","NA","2","legacy","6","1024","2","48000","-16","experiment","1","odd","8","283784","280559","281581","2116","81301","281582","243648","2118","78644","285784","286725","282583","3458","285784","NA","Sternberg task","43","45711.0","45","1024"
"95","95","1009","1009","#3d3846","experiment","legacy","legacy","legacy","1","undefined","1","left","45","45","45","0","0","45","45","0","0","45","45","45","0","45","0","Thu Oct 12 09:41:02 2023","The main experiment item","False","Sternbergtask.osexp","C:/Users/stcka/OneDrive/Sam Docs/Psychology Program/AP Textbooks/Quantitative Methods","False","mono","False","18","no","white","no","yes","768","legacy","33","11","C:/Users/stcka/OneDrive/Sam Docs/Psychology Program/AP Textbooks/Quantitative Methods/SA-subject-1.csv","legacy","2 3 7 4","Melodramatic Milgram","4.0.5","1","y","0","left","left","left","left","NA","733.0","1339","2657","733","NA","2","legacy","4","1024","2","48000","-16","experiment","1","odd","2","289955","286731","287753","2116","81301","287755","243648","2118","78644","291955","292689","288755","3458","291955","NA","Sternberg task","44","46444.0","46","1024"
"95","95","1003","1003","#3d3846","experiment","legacy","legacy","legacy","1","undefined","1","left","46","46","46","0","0","46","46","0","0","46","46","46","0","46","0","Thu Oct 12 09:41:02 2023","The main experiment item","False","Sternbergtask.osexp","C:/Users/stcka/OneDrive/Sam Docs/Psychology Program/AP Textbooks/Quantitative Methods","False","mono","False","18","no","white","no","yes","768","legacy","34","11","C:/Users/stcka/OneDrive/Sam Docs/Psychology Program/AP Textbooks/Quantitative Methods/SA-subject-1.csv","legacy","8 7 3","Melodramatic Milgram","4.0.5","1","y","0","left","left","left","left","NA","715.0","1339","2657","715","NA","2","legacy","3","1024","2","48000","-16","experiment","1","odd","8","295929","292695","293728","2116","81301","293729","243648","2118","78644","297929","298645","294729","3458","297929","NA","Sternberg task","45","47159.0","47","1024"
"95","95","998","998","#3d3846","experiment","legacy","legacy","legacy","1","undefined","1","left","47","47","47","0","0","47","47","0","0","47","47","47","0","47","0","Thu Oct 12 09:41:02 2023","The main experiment item","False","Sternbergtask.osexp","C:/Users/stcka/OneDrive/Sam Docs/Psychology Program/AP Textbooks/Quantitative Methods","False","mono","False","18","no","white","no","yes","768","legacy","35","11","C:/Users/stcka/OneDrive/Sam Docs/Psychology Program/AP Textbooks/Quantitative Methods/SA-subject-1.csv","legacy","9 4 2","Melodramatic Milgram","4.0.5","1","y","0","left","left","left","left","NA","769.0","1339","2657","769","NA","2","legacy","3","1024","2","48000","-16","experiment","1","odd","9","301876","298650","299676","2116","81301","299676","243648","2118","78644","303877","304646","300676","3458","303877","NA","Sternberg task","46","47928.0","48","1024"
"95","95","987","987","#3d3846","experiment","legacy","legacy","legacy","1","undefined","1","left","48","48","48","0","0","48","48","0","0","48","48","48","0","48","0","Thu Oct 12 09:41:02 2023","The main experiment item","False","Sternbergtask.osexp","C:/Users/stcka/OneDrive/Sam Docs/Psychology Program/AP Textbooks/Quantitative Methods","False","mono","False","18","no","white","no","yes","768","legacy","36","11","C:/Users/stcka/OneDrive/Sam Docs/Psychology Program/AP Textbooks/Quantitative Methods/SA-subject-1.csv","legacy","8","Melodramatic Milgram","4.0.5","1","y","0","left","left","left","left","NA","463.0","1339","2657","463","NA","2","legacy","1","1024","2","48000","-16","experiment","1","odd","8","307877","304651","305674","2116","81301","305675","243648","2118","78644","309877","310341","306676","3458","309877","NA","Sternberg task","47","48391.0","49","1024"
"96","96","987","987","#3d3846","experiment","legacy","legacy","legacy","1","undefined","1","left","49","49","49","0","0","49","49","0","0","49","49","49","0","49","0","Thu Oct 12 09:41:02 2023","The main experiment item","False","Sternbergtask.osexp","C:/Users/stcka/OneDrive/Sam Docs/Psychology Program/AP Textbooks/Quantitative Methods","False","mono","False","18","no","white","no","yes","768","legacy","37","11","C:/Users/stcka/OneDrive/Sam Docs/Psychology Program/AP Textbooks/Quantitative Methods/SA-subject-1.csv","legacy","8 5 4 7 3 1","Melodramatic Milgram","4.0.5","2","y","0","left","left","left","left","NA","1002.0","1339","2657","1002","NA","2","legacy","6","1024","2","48000","-16","experiment","1","odd","5","313572","310346","311369","2116","81301","311371","243648","2118","78644","315573","316575","312372","3458","315573","NA","Sternberg task","48","49393.0","50","1024"
"96","96","987","987","#3d3846","experiment","legacy","legacy","legacy","1","undefined","1","left","50","50","50","0","0","50","50","0","0","50","50","50","0","50","0","Thu Oct 12 09:41:02 2023","The main experiment item","False","Sternbergtask.osexp","C:/Users/stcka/OneDrive/Sam Docs/Psychology Program/AP Textbooks/Quantitative Methods","False","mono","False","18","no","white","no","yes","768","legacy","38","11","C:/Users/stcka/OneDrive/Sam Docs/Psychology Program/AP Textbooks/Quantitative Methods/SA-subject-1.csv","legacy","8 9 5 7 1 6","Melodramatic Milgram","4.0.5","4","y","0","left","left","left","left","NA","992.0","1339","2657","992","NA","2","legacy","6","1024","2","48000","-16","experiment","1","odd","7","319805","316580","317603","2116","81301","317604","243648","2118","78644","321806","322798","318604","3458","321806","NA","Sternberg task","49","50385.0","51","1024"
"96","96","983","983","#3d3846","experiment","legacy","legacy","legacy","1","undefined","1","left","51","51","51","0","0","51","51","0","0","51","51","51","0","51","0","Thu Oct 12 09:41:02 2023","The main experiment item","False","Sternbergtask.osexp","C:/Users/stcka/OneDrive/Sam Docs/Psychology Program/AP Textbooks/Quantitative Methods","False","mono","False","18","no","white","no","yes","768","legacy","39","11","C:/Users/stcka/OneDrive/Sam Docs/Psychology Program/AP Textbooks/Quantitative Methods/SA-subject-1.csv","legacy","7 8 6 3 1","Melodramatic Milgram","4.0.5","5","y","0","left","left","left","left","NA","744.0","1339","2657","744","NA","2","legacy","5","1024","2","48000","-16","experiment","1","odd","1","326028","322804","323826","2116","81301","323827","243648","2118","78644","328029","328775","324828","3458","328029","NA","Sternberg task","50","51129.0","52","1024"
"96","96","988","988","#3d3846","experiment","legacy","legacy","legacy","1","undefined","1","left","52","52","52","0","0","52","52","0","0","52","52","52","0","52","0","Thu Oct 12 09:41:02 2023","The main experiment item","False","Sternbergtask.osexp","C:/Users/stcka/OneDrive/Sam Docs/Psychology Program/AP Textbooks/Quantitative Methods","False","mono","False","18","no","white","no","yes","768","legacy","40","11","C:/Users/stcka/OneDrive/Sam Docs/Psychology Program/AP Textbooks/Quantitative Methods/SA-subject-1.csv","legacy","5 2 9 6 1 7","Melodramatic Milgram","4.0.5","3","y","0","left","left","left","left","NA","1238.0","1339","2657","1238","NA","2","legacy","6","1024","2","48000","-16","experiment","1","odd","9","332005","328780","329803","2116","81301","329804","243648","2118","78644","334005","335244","330805","3458","334005","NA","Sternberg task","51","52367.0","53","1024"
"96","96","986","986","#3d3846","experiment","legacy","legacy","legacy","1","undefined","1","left","53","53","53","0","0","53","53","0","0","53","53","53","0","53","0","Thu Oct 12 09:41:02 2023","The main experiment item","False","Sternbergtask.osexp","C:/Users/stcka/OneDrive/Sam Docs/Psychology Program/AP Textbooks/Quantitative Methods","False","mono","False","18","no","white","no","yes","768","legacy","41","11","C:/Users/stcka/OneDrive/Sam Docs/Psychology Program/AP Textbooks/Quantitative Methods/SA-subject-1.csv","legacy","4 3 2 5 8","Melodramatic Milgram","4.0.5","2","y","0","left","left","left","left","NA","903.0","1339","2657","903","NA","2","legacy","5","1024","2","48000","-16","experiment","1","odd","3","338479","335248","336277","2116","81301","336278","243648","2118","78644","340479","341383","337278","3458","340479","NA","Sternberg task","52","53270.0","54","1024"
"94","94","1004","1004","#3d3846","experiment","legacy","legacy","legacy","0","undefined","0","right","54","54","54","0","0","54","54","0","0","54","54","54","0","54","0","Thu Oct 12 09:41:02 2023","The main experiment item","False","Sternbergtask.osexp","C:/Users/stcka/OneDrive/Sam Docs/Psychology Program/AP Textbooks/Quantitative Methods","False","mono","False","18","no","white","no","yes","768","legacy","42","11","C:/Users/stcka/OneDrive/Sam Docs/Psychology Program/AP Textbooks/Quantitative Methods/SA-subject-1.csv","legacy","3 9 1","Melodramatic Milgram","4.0.5","0","n","0","None","left","left","None","NA","2000.0","1339","2657","2000","NA","2","legacy","3","1024","2","48000","-16","experiment","1","odd","7","344615","341387","342412","2116","81301","342413","243648","2118","78644","346616","348616","343414","3458","346616","NA","Sternberg task","52","55270.0","55","1024"
"94","94","1009","1009","#3d3846","experiment","legacy","legacy","legacy","1","undefined","1","right","55","55","55","0","0","55","55","0","0","55","55","55","0","55","0","Thu Oct 12 09:41:02 2023","The main experiment item","False","Sternbergtask.osexp","C:/Users/stcka/OneDrive/Sam Docs/Psychology Program/AP Textbooks/Quantitative Methods","False","mono","False","18","no","white","no","yes","768","legacy","43","11","C:/Users/stcka/OneDrive/Sam Docs/Psychology Program/AP Textbooks/Quantitative Methods/SA-subject-1.csv","legacy","2 6 4 3 9","Melodramatic Milgram","4.0.5","0","n","0","right","left","left","right","NA","1288.0","1339","2657","1288","NA","2","legacy","5","1024","2","48000","-16","experiment","1","odd","1","351847","341387","349644","2116","81301","349645","348621","2118","78644","353847","355136","350645","3458","353847","NA","Sternberg task","53","56558.0","56","1024"
"94","94","1000","1000","#3d3846","experiment","legacy","legacy","legacy","1","undefined","1","left","56","56","56","0","0","56","56","0","0","56","56","56","0","56","0","Thu Oct 12 09:41:02 2023","The main experiment item","False","Sternbergtask.osexp","C:/Users/stcka/OneDrive/Sam Docs/Psychology Program/AP Textbooks/Quantitative Methods","False","mono","False","18","no","white","no","yes","768","legacy","44","11","C:/Users/stcka/OneDrive/Sam Docs/Psychology Program/AP Textbooks/Quantitative Methods/SA-subject-1.csv","legacy","3 4","Melodramatic Milgram","4.0.5","1","y","0","left","left","left","left","NA","474.0","1339","2657","474","NA","2","legacy","2","1024","2","48000","-16","experiment","1","odd","3","358374","355141","356172","2116","81301","356174","348621","2118","78644","360375","360849","357174","3458","360375","NA","Sternberg task","54","57032.0","57","1024"
"94","94","996","996","#3d3846","experiment","legacy","legacy","legacy","1","undefined","1","right","57","57","57","0","0","57","57","0","0","57","57","57","0","57","0","Thu Oct 12 09:41:02 2023","The main experiment item","False","Sternbergtask.osexp","C:/Users/stcka/OneDrive/Sam Docs/Psychology Program/AP Textbooks/Quantitative Methods","False","mono","False","18","no","white","no","yes","768","legacy","45","11","C:/Users/stcka/OneDrive/Sam Docs/Psychology Program/AP Textbooks/Quantitative Methods/SA-subject-1.csv","legacy","7 9 1 6","Melodramatic Milgram","4.0.5","0","n","0","right","left","left","right","NA","787.0","1339","2657","787","NA","2","legacy","4","1024","2","48000","-16","experiment","1","odd","4","364079","360854","361877","2116","81301","361878","348621","2118","78644","366080","366868","362879","3458","366079","NA","Sternberg task","55","57819.0","58","1024"
"94","94","993","993","#3d3846","experiment","legacy","legacy","legacy","1","undefined","1","left","58","58","58","0","0","58","58","0","0","58","58","58","0","58","0","Thu Oct 12 09:41:02 2023","The main experiment item","False","Sternbergtask.osexp","C:/Users/stcka/OneDrive/Sam Docs/Psychology Program/AP Textbooks/Quantitative Methods","False","mono","False","18","no","white","no","yes","768","legacy","46","11","C:/Users/stcka/OneDrive/Sam Docs/Psychology Program/AP Textbooks/Quantitative Methods/SA-subject-1.csv","legacy","7 2 3","Melodramatic Milgram","4.0.5","3","y","0","left","left","left","left","NA","813.0","1339","2657","813","NA","2","legacy","3","1024","2","48000","-16","experiment","1","odd","3","370103","366873","367900","2116","81301","367901","348621","2118","78644","372103","372917","368902","3458","372103","NA","Sternberg task","56","58632.0","59","1024"
"95","95","994","994","#3d3846","experiment","legacy","legacy","legacy","1","undefined","1","right","59","59","59","0","0","59","59","0","0","59","59","59","0","59","0","Thu Oct 12 09:41:02 2023","The main experiment item","False","Sternbergtask.osexp","C:/Users/stcka/OneDrive/Sam Docs/Psychology Program/AP Textbooks/Quantitative Methods","False","mono","False","18","no","white","no","yes","768","legacy","47","11","C:/Users/stcka/OneDrive/Sam Docs/Psychology Program/AP Textbooks/Quantitative Methods/SA-subject-1.csv","legacy","5 3 8 7 2 4","Melodramatic Milgram","4.0.5","0","n","0","right","left","left","right","NA","1048.0","1339","2657","1048","NA","2","legacy","6","1024","2","48000","-16","experiment","1","odd","9","376152","372922","373949","2116","81301","373950","348621","2118","78644","378153","379202","374950","3458","378153","NA","Sternberg task","57","59680.0","60","1024"
"95","95","995","995","#3d3846","experiment","legacy","legacy","legacy","1","undefined","1","right","60","60","60","0","0","60","60","0","0","60","60","60","0","60","0","Thu Oct 12 09:41:02 2023","The main experiment item","False","Sternbergtask.osexp","C:/Users/stcka/OneDrive/Sam Docs/Psychology Program/AP Textbooks/Quantitative Methods","False","mono","False","18","no","white","no","yes","768","legacy","48","11","C:/Users/stcka/OneDrive/Sam Docs/Psychology Program/AP Textbooks/Quantitative Methods/SA-subject-1.csv","legacy","1","Melodramatic Milgram","4.0.5","0","n","0","right","left","left","right","NA","1032.0","1339","2657","1032","NA","2","legacy","1","1024","2","48000","-16","experiment","1","odd","7","382428","379207","380227","2116","81301","380228","348621","2118","78644","384429","385462","381228","3458","384429","NA","Sternberg task","58","60712.0","61","1024"
"95","95","993","993","#3d3846","experiment","legacy","legacy","legacy","1","undefined","1","left","61","61","61","0","0","61","61","0","0","61","61","61","0","61","0","Thu Oct 12 09:41:02 2023","The main experiment item","False","Sternbergtask.osexp","C:/Users/stcka/OneDrive/Sam Docs/Psychology Program/AP Textbooks/Quantitative Methods","False","mono","False","18","no","white","no","yes","768","legacy","49","11","C:/Users/stcka/OneDrive/Sam Docs/Psychology Program/AP Textbooks/Quantitative Methods/SA-subject-1.csv","legacy","4 7 6 8 2 3","Melodramatic Milgram","4.0.5","6","y","0","left","left","left","left","NA","867.0","1339","2657","867","NA","2","legacy","6","1024","2","48000","-16","experiment","1","odd","3","388696","385467","386494","2116","81301","386495","348621","2118","78644","390697","391565","387495","3458","390697","NA","Sternberg task","59","61579.0","62","1024"
"95","95","993","993","#3d3846","experiment","legacy","legacy","legacy","1","undefined","1","right","62","62","62","0","0","62","62","0","0","62","62","62","0","62","0","Thu Oct 12 09:41:02 2023","The main experiment item","False","Sternbergtask.osexp","C:/Users/stcka/OneDrive/Sam Docs/Psychology Program/AP Textbooks/Quantitative Methods","False","mono","False","18","no","white","no","yes","768","legacy","50","11","C:/Users/stcka/OneDrive/Sam Docs/Psychology Program/AP Textbooks/Quantitative Methods/SA-subject-1.csv","legacy","8 2 1 4 5 9","Melodramatic Milgram","4.0.5","0","n","0","right","left","left","right","NA","989.0","1339","2657","989","NA","2","legacy","6","1024","2","48000","-16","experiment","1","odd","7","394795","391570","392592","2116","81301","392593","348621","2118","78644","396796","397786","393593","3458","396796","NA","Sternberg task","60","62568.0","63","1024"
"95","95","993","993","#3d3846","experiment","legacy","legacy","legacy","1","undefined","1","right","63","63","63","0","0","63","63","0","0","63","63","63","0","63","0","Thu Oct 12 09:41:02 2023","The main experiment item","False","Sternbergtask.osexp","C:/Users/stcka/OneDrive/Sam Docs/Psychology Program/AP Textbooks/Quantitative Methods","False","mono","False","18","no","white","no","yes","768","legacy","51","11","C:/Users/stcka/OneDrive/Sam Docs/Psychology Program/AP Textbooks/Quantitative Methods/SA-subject-1.csv","legacy","6 7 5 9","Melodramatic Milgram","4.0.5","0","n","0","right","left","left","right","NA","1029.0","1339","2657","1029","NA","2","legacy","4","1024","2","48000","-16","experiment","1","odd","2","401014","397790","398811","2116","81301","398812","348621","2118","78644","403014","404044","399813","3458","403014","NA","Sternberg task","61","63597.0","64","1024"
"95","95","990","990","#3d3846","experiment","legacy","legacy","legacy","1","undefined","1","right","64","64","64","0","0","64","64","0","0","64","64","64","0","64","0","Thu Oct 12 09:41:02 2023","The main experiment item","False","Sternbergtask.osexp","C:/Users/stcka/OneDrive/Sam Docs/Psychology Program/AP Textbooks/Quantitative Methods","False","mono","False","18","no","white","no","yes","768","legacy","52","11","C:/Users/stcka/OneDrive/Sam Docs/Psychology Program/AP Textbooks/Quantitative Methods/SA-subject-1.csv","legacy","2 3 8 5 6 7","Melodramatic Milgram","4.0.5","0","n","0","right","left","left","right","NA","764.0","1339","2657","764","NA","2","legacy","6","1024","2","48000","-16","experiment","1","odd","1","407274","404050","405072","2116","81301","405073","348621","2118","78644","409274","410038","406073","3458","409274","NA","Sternberg task","62","64361.0","65","1024"
"95","95","989","989","#3d3846","experiment","legacy","legacy","legacy","1","undefined","1","right","65","65","65","0","0","65","65","0","0","65","65","65","0","65","0","Thu Oct 12 09:41:02 2023","The main experiment item","False","Sternbergtask.osexp","C:/Users/stcka/OneDrive/Sam Docs/Psychology Program/AP Textbooks/Quantitative Methods","False","mono","False","18","no","white","no","yes","768","legacy","53","11","C:/Users/stcka/OneDrive/Sam Docs/Psychology Program/AP Textbooks/Quantitative Methods/SA-subject-1.csv","legacy","5 3 2 6 9 8","Melodramatic Milgram","4.0.5","0","n","0","right","left","left","right","NA","978.0","1339","2657","978","NA","2","legacy","6","1024","2","48000","-16","experiment","1","odd","4","413272","410043","411068","2116","81301","411070","348621","2118","78644","415273","416252","412071","3458","415273","NA","Sternberg task","63","65339.0","66","1024"
"95","95","1002","1002","#3d3846","experiment","legacy","legacy","legacy","1","undefined","1","left","66","66","66","0","0","66","66","0","0","66","66","66","0","66","0","Thu Oct 12 09:41:02 2023","The main experiment item","False","Sternbergtask.osexp","C:/Users/stcka/OneDrive/Sam Docs/Psychology Program/AP Textbooks/Quantitative Methods","False","mono","False","18","no","white","no","yes","768","legacy","54","11","C:/Users/stcka/OneDrive/Sam Docs/Psychology Program/AP Textbooks/Quantitative Methods/SA-subject-1.csv","legacy","7 4 2 6 3 5","Melodramatic Milgram","4.0.5","6","y","0","left","left","left","left","NA","1841.0","1339","2657","1841","NA","2","legacy","6","1024","2","48000","-16","experiment","1","odd","5","419486","416258","417284","2116","81301","417285","348621","2118","78644","421487","423329","418285","3458","421487","NA","Sternberg task","64","67180.0","67","1024"
"95","95","999","999","#3d3846","experiment","legacy","legacy","legacy","1","undefined","1","left","67","67","67","0","0","67","67","0","0","67","67","67","0","67","0","Thu Oct 12 09:41:02 2023","The main experiment item","False","Sternbergtask.osexp","C:/Users/stcka/OneDrive/Sam Docs/Psychology Program/AP Textbooks/Quantitative Methods","False","mono","False","18","no","white","no","yes","768","legacy","55","11","C:/Users/stcka/OneDrive/Sam Docs/Psychology Program/AP Textbooks/Quantitative Methods/SA-subject-1.csv","legacy","4","Melodramatic Milgram","4.0.5","1","y","0","left","left","left","left","NA","778.0","1339","2657","778","NA","2","legacy","1","1024","2","48000","-16","experiment","1","odd","4","426560","423333","424357","2116","81301","424358","348621","2118","78644","428561","429340","425359","3458","428561","NA","Sternberg task","65","67958.0","68","1024"
"95","95","998","998","#3d3846","experiment","legacy","legacy","legacy","1","undefined","1","left","68","68","68","0","0","68","68","0","0","68","68","68","0","68","0","Thu Oct 12 09:41:02 2023","The main experiment item","False","Sternbergtask.osexp","C:/Users/stcka/OneDrive/Sam Docs/Psychology Program/AP Textbooks/Quantitative Methods","False","mono","False","18","no","white","no","yes","768","legacy","56","11","C:/Users/stcka/OneDrive/Sam Docs/Psychology Program/AP Textbooks/Quantitative Methods/SA-subject-1.csv","legacy","3 9 6 2","Melodramatic Milgram","4.0.5","4","y","0","left","left","left","left","NA","939.0","1339","2657","939","NA","2","legacy","4","1024","2","48000","-16","experiment","1","odd","2","432576","429345","430373","2116","81301","430374","348621","2118","78644","434577","435517","431375","3458","434576","NA","Sternberg task","66","68897.0","69","1024"
"95","95","1000","1000","#3d3846","experiment","legacy","legacy","legacy","1","undefined","1","left","69","69","69","0","0","69","69","0","0","69","69","69","0","69","0","Thu Oct 12 09:41:02 2023","The main experiment item","False","Sternbergtask.osexp","C:/Users/stcka/OneDrive/Sam Docs/Psychology Program/AP Textbooks/Quantitative Methods","False","mono","False","18","no","white","no","yes","768","legacy","57","11","C:/Users/stcka/OneDrive/Sam Docs/Psychology Program/AP Textbooks/Quantitative Methods/SA-subject-1.csv","legacy","9 3 8 2 1 4","Melodramatic Milgram","4.0.5","3","y","0","left","left","left","left","NA","1116.0","1339","2657","1116","NA","2","legacy","6","1024","2","48000","-16","experiment","1","odd","8","438744","435523","436543","2116","81301","436544","348621","2118","78644","440744","441861","437544","3458","440744","NA","Sternberg task","67","70013.0","70","1024"
"95","95","998","998","#3d3846","experiment","legacy","legacy","legacy","1","undefined","1","left","70","70","70","0","0","70","70","0","0","70","70","70","0","70","0","Thu Oct 12 09:41:02 2023","The main experiment item","False","Sternbergtask.osexp","C:/Users/stcka/OneDrive/Sam Docs/Psychology Program/AP Textbooks/Quantitative Methods","False","mono","False","18","no","white","no","yes","768","legacy","58","11","C:/Users/stcka/OneDrive/Sam Docs/Psychology Program/AP Textbooks/Quantitative Methods/SA-subject-1.csv","legacy","6 8 9 3 4 9","Melodramatic Milgram","4.0.5","5","y","0","left","left","left","left","NA","870.0","1339","2657","870","NA","2","legacy","6","1024","2","48000","-16","experiment","1","odd","4","445095","441866","442892","2116","81301","442893","348621","2118","78644","447095","447967","443894","3458","447095","NA","Sternberg task","68","70883.0","71","1024"
"95","95","997","997","#3d3846","experiment","legacy","legacy","legacy","1","undefined","1","right","71","71","71","0","0","71","71","0","0","71","71","71","0","71","0","Thu Oct 12 09:41:02 2023","The main experiment item","False","Sternbergtask.osexp","C:/Users/stcka/OneDrive/Sam Docs/Psychology Program/AP Textbooks/Quantitative Methods","False","mono","False","18","no","white","no","yes","768","legacy","59","11","C:/Users/stcka/OneDrive/Sam Docs/Psychology Program/AP Textbooks/Quantitative Methods/SA-subject-1.csv","legacy","3 4 2","Melodramatic Milgram","4.0.5","0","n","0","right","left","left","right","NA","928.0","1339","2657","928","NA","2","legacy","3","1024","2","48000","-16","experiment","1","odd","5","451202","447972","448998","2116","81301","448999","348621","2118","78644","453203","454132","450001","3458","453203","NA","Sternberg task","69","71811.0","72","1024"
"95","95","995","995","#3d3846","experiment","legacy","legacy","legacy","1","undefined","1","left","72","72","72","0","0","72","72","0","0","72","72","72","0","72","0","Thu Oct 12 09:41:02 2023","The main experiment item","False","Sternbergtask.osexp","C:/Users/stcka/OneDrive/Sam Docs/Psychology Program/AP Textbooks/Quantitative Methods","False","mono","False","18","no","white","no","yes","768","legacy","60","11","C:/Users/stcka/OneDrive/Sam Docs/Psychology Program/AP Textbooks/Quantitative Methods/SA-subject-1.csv","legacy","6 1 2","Melodramatic Milgram","4.0.5","3","y","0","left","left","left","left","NA","839.0","1339","2657","839","NA","2","legacy","3","1024","2","48000","-16","experiment","1","odd","2","457364","454137","455161","2116","81301","455162","348621","2118","78644","459365","460205","456162","3458","459364","NA","Sternberg task","70","72650.0","73","1024"
"95","95","996","996","#3d3846","experiment","legacy","legacy","legacy","1","undefined","1","right","73","73","73","0","0","73","73","0","0","73","73","73","0","73","0","Thu Oct 12 09:41:02 2023","The main experiment item","False","Sternbergtask.osexp","C:/Users/stcka/OneDrive/Sam Docs/Psychology Program/AP Textbooks/Quantitative Methods","False","mono","False","18","no","white","no","yes","768","legacy","61","11","C:/Users/stcka/OneDrive/Sam Docs/Psychology Program/AP Textbooks/Quantitative Methods/SA-subject-1.csv","legacy","6 9 7 3 8 2","Melodramatic Milgram","4.0.5","0","n","0","right","left","left","right","NA","1121.0","1339","2657","1121","NA","2","legacy","6","1024","2","48000","-16","experiment","1","odd","5","463436","460210","461233","2116","81301","461234","348621","2118","78644","465436","466558","462234","3458","465436","NA","Sternberg task","71","73771.0","74","1024"
"96","96","996","996","#3d3846","experiment","legacy","legacy","legacy","1","undefined","1","left","74","74","74","0","0","74","74","0","0","74","74","74","0","74","0","Thu Oct 12 09:41:02 2023","The main experiment item","False","Sternbergtask.osexp","C:/Users/stcka/OneDrive/Sam Docs/Psychology Program/AP Textbooks/Quantitative Methods","False","mono","False","18","no","white","no","yes","768","legacy","62","11","C:/Users/stcka/OneDrive/Sam Docs/Psychology Program/AP Textbooks/Quantitative Methods/SA-subject-1.csv","legacy","8 9 6 1","Melodramatic Milgram","4.0.5","2","y","0","left","left","left","left","NA","965.0","1339","2657","965","NA","2","legacy","4","1024","2","48000","-16","experiment","1","odd","9","469788","466563","467584","2116","81301","467586","348621","2118","78644","471789","472755","468587","3458","471788","NA","Sternberg task","72","74736.0","75","1024"
"96","96","995","995","#3d3846","experiment","legacy","legacy","legacy","1","undefined","1","right","75","75","75","0","0","75","75","0","0","75","75","75","0","75","0","Thu Oct 12 09:41:02 2023","The main experiment item","False","Sternbergtask.osexp","C:/Users/stcka/OneDrive/Sam Docs/Psychology Program/AP Textbooks/Quantitative Methods","False","mono","False","18","no","white","no","yes","768","legacy","63","11","C:/Users/stcka/OneDrive/Sam Docs/Psychology Program/AP Textbooks/Quantitative Methods/SA-subject-1.csv","legacy","1 8 7","Melodramatic Milgram","4.0.5","0","n","0","right","left","left","right","NA","899.0","1339","2657","899","NA","2","legacy","3","1024","2","48000","-16","experiment","1","odd","4","475984","472762","473783","2116","81301","473784","348621","2118","78644","477985","478885","474784","3458","477985","NA","Sternberg task","73","75635.0","76","1024"
"96","96","993","993","#3d3846","experiment","legacy","legacy","legacy","1","undefined","1","left","76","76","76","0","0","76","76","0","0","76","76","76","0","76","0","Thu Oct 12 09:41:02 2023","The main experiment item","False","Sternbergtask.osexp","C:/Users/stcka/OneDrive/Sam Docs/Psychology Program/AP Textbooks/Quantitative Methods","False","mono","False","18","no","white","no","yes","768","legacy","64","11","C:/Users/stcka/OneDrive/Sam Docs/Psychology Program/AP Textbooks/Quantitative Methods/SA-subject-1.csv","legacy","4 6 2 5 1","Melodramatic Milgram","4.0.5","5","y","0","left","left","left","left","NA","833.0","1339","2657","833","NA","2","legacy","5","1024","2","48000","-16","experiment","1","odd","1","482122","478891","479920","2116","81301","479921","348621","2118","78644","484123","484957","480922","3458","484123","NA","Sternberg task","74","76468.0","77","1024"
"96","96","989","989","#3d3846","experiment","legacy","legacy","legacy","1","undefined","1","left","77","77","77","0","0","77","77","0","0","77","77","77","0","77","0","Thu Oct 12 09:41:02 2023","The main experiment item","False","Sternbergtask.osexp","C:/Users/stcka/OneDrive/Sam Docs/Psychology Program/AP Textbooks/Quantitative Methods","False","mono","False","18","no","white","no","yes","768","legacy","65","11","C:/Users/stcka/OneDrive/Sam Docs/Psychology Program/AP Textbooks/Quantitative Methods/SA-subject-1.csv","legacy","7 1 8 5 6 2","Melodramatic Milgram","4.0.5","2","y","0","left","left","left","left","NA","726.0","1339","2657","726","NA","2","legacy","6","1024","2","48000","-16","experiment","1","odd","1","488190","484962","485987","2116","81301","485988","348621","2118","78644","490191","490918","486988","3458","490191","NA","Sternberg task","75","77194.0","78","1024"
"96","96","989","989","#3d3846","experiment","legacy","legacy","legacy","1","undefined","1","left","78","78","78","0","0","78","78","0","0","78","78","78","0","78","0","Thu Oct 12 09:41:02 2023","The main experiment item","False","Sternbergtask.osexp","C:/Users/stcka/OneDrive/Sam Docs/Psychology Program/AP Textbooks/Quantitative Methods","False","mono","False","18","no","white","no","yes","768","legacy","66","11","C:/Users/stcka/OneDrive/Sam Docs/Psychology Program/AP Textbooks/Quantitative Methods/SA-subject-1.csv","legacy","8 5 1 3 9","Melodramatic Milgram","4.0.5","4","y","0","left","left","left","left","NA","956.0","1339","2657","956","NA","2","legacy","5","1024","2","48000","-16","experiment","1","odd","3","494147","490923","491945","2116","81301","491946","348621","2118","78644","496148","497105","492946","3458","496147","NA","Sternberg task","76","78150.0","79","1024"
"96","96","992","992","#3d3846","experiment","legacy","legacy","legacy","1","undefined","1","left","79","79","79","0","0","79","79","0","0","79","79","79","0","79","0","Thu Oct 12 09:41:02 2023","The main experiment item","False","Sternbergtask.osexp","C:/Users/stcka/OneDrive/Sam Docs/Psychology Program/AP Textbooks/Quantitative Methods","False","mono","False","18","no","white","no","yes","768","legacy","67","11","C:/Users/stcka/OneDrive/Sam Docs/Psychology Program/AP Textbooks/Quantitative Methods/SA-subject-1.csv","legacy","2 6 1 7 4","Melodramatic Milgram","4.0.5","2","y","0","left","left","left","left","NA","1231.0","1339","2657","1231","NA","2","legacy","5","1024","2","48000","-16","experiment","1","odd","6","500337","497110","498133","2116","81301","498135","348621","2118","78644","502338","503570","499136","3458","502337","NA","Sternberg task","77","79381.0","80","1024"
"96","96","990","990","#3d3846","experiment","legacy","legacy","legacy","1","undefined","1","right","80","80","80","0","0","80","80","0","0","80","80","80","0","80","0","Thu Oct 12 09:41:02 2023","The main experiment item","False","Sternbergtask.osexp","C:/Users/stcka/OneDrive/Sam Docs/Psychology Program/AP Textbooks/Quantitative Methods","False","mono","False","18","no","white","no","yes","768","legacy","68","11","C:/Users/stcka/OneDrive/Sam Docs/Psychology Program/AP Textbooks/Quantitative Methods/SA-subject-1.csv","legacy","8 4 3 5","Melodramatic Milgram","4.0.5","0","n","0","right","left","left","right","NA","824.0","1339","2657","824","NA","2","legacy","4","1024","2","48000","-16","experiment","1","odd","6","506801","503574","504597","2116","81301","504599","348621","2118","78644","508802","509626","505600","3458","508801","NA","Sternberg task","78","80205.0","81","1024"
"96","96","990","990","#3d3846","experiment","legacy","legacy","legacy","1","undefined","1","right","81","81","81","0","0","81","81","0","0","81","81","81","0","81","0","Thu Oct 12 09:41:02 2023","The main experiment item","False","Sternbergtask.osexp","C:/Users/stcka/OneDrive/Sam Docs/Psychology Program/AP Textbooks/Quantitative Methods","False","mono","False","18","no","white","no","yes","768","legacy","69","11","C:/Users/stcka/OneDrive/Sam Docs/Psychology Program/AP Textbooks/Quantitative Methods/SA-subject-1.csv","legacy","7 3 2 8","Melodramatic Milgram","4.0.5","0","n","0","right","left","left","right","NA","1029.0","1339","2657","1029","NA","2","legacy","4","1024","2","48000","-16","experiment","1","odd","4","512854","509632","510652","2116","81301","510653","348621","2118","78644","514854","515884","511653","3458","514854","NA","Sternberg task","79","81234.0","82","1024"
"96","96","989","989","#3d3846","experiment","legacy","legacy","legacy","1","undefined","1","left","82","82","82","0","0","82","82","0","0","82","82","82","0","82","0","Thu Oct 12 09:41:02 2023","The main experiment item","False","Sternbergtask.osexp","C:/Users/stcka/OneDrive/Sam Docs/Psychology Program/AP Textbooks/Quantitative Methods","False","mono","False","18","no","white","no","yes","768","legacy","70","11","C:/Users/stcka/OneDrive/Sam Docs/Psychology Program/AP Textbooks/Quantitative Methods/SA-subject-1.csv","legacy","6 9 7 4 5 1","Melodramatic Milgram","4.0.5","2","y","0","left","left","left","left","NA","885.0","1339","2657","885","NA","2","legacy","6","1024","2","48000","-16","experiment","1","odd","9","519112","515888","516909","2116","81301","516910","348621","2118","78644","521113","521998","517911","3458","521113","NA","Sternberg task","80","82119.0","83","1024"
"96","96","989","989","#3d3846","experiment","legacy","legacy","legacy","1","undefined","1","right","83","83","83","0","0","83","83","0","0","83","83","83","0","83","0","Thu Oct 12 09:41:02 2023","The main experiment item","False","Sternbergtask.osexp","C:/Users/stcka/OneDrive/Sam Docs/Psychology Program/AP Textbooks/Quantitative Methods","False","mono","False","18","no","white","no","yes","768","legacy","71","11","C:/Users/stcka/OneDrive/Sam Docs/Psychology Program/AP Textbooks/Quantitative Methods/SA-subject-1.csv","legacy","7 1 5 6 3","Melodramatic Milgram","4.0.5","0","n","0","right","left","left","right","NA","965.0","1339","2657","965","NA","2","legacy","5","1024","2","48000","-16","experiment","1","odd","8","525239","522003","523035","2116","81301","523037","348621","2118","78644","527239","528205","524038","3458","527239","NA","Sternberg task","81","83084.0","84","1024"
"96","96","988","988","#3d3846","experiment","legacy","legacy","legacy","1","undefined","1","right","84","84","84","0","0","84","84","0","0","84","84","84","0","84","0","Thu Oct 12 09:41:02 2023","The main experiment item","False","Sternbergtask.osexp","C:/Users/stcka/OneDrive/Sam Docs/Psychology Program/AP Textbooks/Quantitative Methods","False","mono","False","18","no","white","no","yes","768","legacy","72","11","C:/Users/stcka/OneDrive/Sam Docs/Psychology Program/AP Textbooks/Quantitative Methods/SA-subject-1.csv","legacy","6 9 4 5 2","Melodramatic Milgram","4.0.5","0","n","0","right","left","left","right","NA","911.0","1339","2657","911","NA","2","legacy","5","1024","2","48000","-16","experiment","1","odd","1","531435","528210","529233","2116","81301","529234","348621","2118","78644","533435","534347","530234","3458","533435","NA","Sternberg task","82","83995.0","85","1024"
"96","96","990","990","#3d3846","experiment","legacy","legacy","legacy","1","undefined","1","left","85","85","85","0","0","85","85","0","0","85","85","85","0","85","0","Thu Oct 12 09:41:02 2023","The main experiment item","False","Sternbergtask.osexp","C:/Users/stcka/OneDrive/Sam Docs/Psychology Program/AP Textbooks/Quantitative Methods","False","mono","False","18","no","white","no","yes","768","legacy","73","11","C:/Users/stcka/OneDrive/Sam Docs/Psychology Program/AP Textbooks/Quantitative Methods/SA-subject-1.csv","legacy","5 7 8 2 3 8","Melodramatic Milgram","4.0.5","5","y","0","left","left","left","left","NA","1172.0","1339","2657","1172","NA","2","legacy","6","1024","2","48000","-16","experiment","1","odd","3","537580","534352","535378","2116","81301","535379","348621","2118","78644","539580","540753","536379","3458","539580","NA","Sternberg task","83","85167.0","86","1024"
"96","96","988","988","#3d3846","experiment","legacy","legacy","legacy","1","undefined","1","left","86","86","86","0","0","86","86","0","0","86","86","86","0","86","0","Thu Oct 12 09:41:02 2023","The main experiment item","False","Sternbergtask.osexp","C:/Users/stcka/OneDrive/Sam Docs/Psychology Program/AP Textbooks/Quantitative Methods","False","mono","False","18","no","white","no","yes","768","legacy","74","11","C:/Users/stcka/OneDrive/Sam Docs/Psychology Program/AP Textbooks/Quantitative Methods/SA-subject-1.csv","legacy","3 9 7 6 4","Melodramatic Milgram","4.0.5","3","y","0","left","left","left","left","NA","871.0","1339","2657","871","NA","2","legacy","5","1024","2","48000","-16","experiment","1","odd","7","543983","540758","541780","2116","81301","541780","348621","2118","78644","545983","546855","542782","3458","545983","NA","Sternberg task","84","86038.0","87","1024"
"96","96","991","991","#3d3846","experiment","legacy","legacy","legacy","1","undefined","1","right","87","87","87","0","0","87","87","0","0","87","87","87","0","87","0","Thu Oct 12 09:41:02 2023","The main experiment item","False","Sternbergtask.osexp","C:/Users/stcka/OneDrive/Sam Docs/Psychology Program/AP Textbooks/Quantitative Methods","False","mono","False","18","no","white","no","yes","768","legacy","75","11","C:/Users/stcka/OneDrive/Sam Docs/Psychology Program/AP Textbooks/Quantitative Methods/SA-subject-1.csv","legacy","6 9 5","Melodramatic Milgram","4.0.5","0","n","0","right","left","left","right","NA","1231.0","1339","2657","1231","NA","2","legacy","3","1024","2","48000","-16","experiment","1","odd","8","550087","546860","547884","2116","81301","547885","348621","2118","78644","552087","553319","548886","3458","552087","NA","Sternberg task","85","87269.0","88","1024"
"96","96","990","990","#3d3846","experiment","legacy","legacy","legacy","1","undefined","1","right","88","88","88","0","0","88","88","0","0","88","88","88","0","88","0","Thu Oct 12 09:41:02 2023","The main experiment item","False","Sternbergtask.osexp","C:/Users/stcka/OneDrive/Sam Docs/Psychology Program/AP Textbooks/Quantitative Methods","False","mono","False","18","no","white","no","yes","768","legacy","76","11","C:/Users/stcka/OneDrive/Sam Docs/Psychology Program/AP Textbooks/Quantitative Methods/SA-subject-1.csv","legacy","8 5 4 2 9 6","Melodramatic Milgram","4.0.5","0","n","0","right","left","left","right","NA","852.0","1339","2657","852","NA","2","legacy","6","1024","2","48000","-16","experiment","1","odd","3","556548","553323","554346","2116","81301","554348","348621","2118","78644","558548","559401","555348","3458","558548","NA","Sternberg task","86","88121.0","89","1024"
"96","96","994","994","#3d3846","experiment","legacy","legacy","legacy","1","undefined","1","right","89","89","89","0","0","89","89","0","0","89","89","89","0","89","0","Thu Oct 12 09:41:02 2023","The main experiment item","False","Sternbergtask.osexp","C:/Users/stcka/OneDrive/Sam Docs/Psychology Program/AP Textbooks/Quantitative Methods","False","mono","False","18","no","white","no","yes","768","legacy","77","11","C:/Users/stcka/OneDrive/Sam Docs/Psychology Program/AP Textbooks/Quantitative Methods/SA-subject-1.csv","legacy","1 7 5 2 9","Melodramatic Milgram","4.0.5","0","n","0","right","left","left","right","NA","1344.0","1339","2657","1344","NA","2","legacy","5","1024","2","48000","-16","experiment","1","odd","3","562630","559406","560427","2116","81301","560428","348621","2118","78644","564630","565974","561429","3458","564630","NA","Sternberg task","87","89465.0","90","1024"
"96","96","992","992","#3d3846","experiment","legacy","legacy","legacy","1","undefined","1","right","90","90","90","0","0","90","90","0","0","90","90","90","0","90","0","Thu Oct 12 09:41:02 2023","The main experiment item","False","Sternbergtask.osexp","C:/Users/stcka/OneDrive/Sam Docs/Psychology Program/AP Textbooks/Quantitative Methods","False","mono","False","18","no","white","no","yes","768","legacy","78","11","C:/Users/stcka/OneDrive/Sam Docs/Psychology Program/AP Textbooks/Quantitative Methods/SA-subject-1.csv","legacy","2 8 9 4 1","Melodramatic Milgram","4.0.5","0","n","0","right","left","left","right","NA","809.0","1339","2657","809","NA","2","legacy","5","1024","2","48000","-16","experiment","1","odd","5","569206","565979","567003","2116","81301","567005","348621","2118","78644","571207","572017","568005","3458","571206","NA","Sternberg task","88","90274.0","91","1024"
"96","96","993","993","#3d3846","experiment","legacy","legacy","legacy","1","undefined","1","left","91","91","91","0","0","91","91","0","0","91","91","91","0","91","0","Thu Oct 12 09:41:02 2023","The main experiment item","False","Sternbergtask.osexp","C:/Users/stcka/OneDrive/Sam Docs/Psychology Program/AP Textbooks/Quantitative Methods","False","mono","False","18","no","white","no","yes","768","legacy","79","11","C:/Users/stcka/OneDrive/Sam Docs/Psychology Program/AP Textbooks/Quantitative Methods/SA-subject-1.csv","legacy","4 1 8 7 5","Melodramatic Milgram","4.0.5","3","y","0","left","left","left","left","NA","1144.0","1339","2657","1144","NA","2","legacy","5","1024","2","48000","-16","experiment","1","odd","8","575262","572022","573059","2116","81301","573061","348621","2118","78644","577263","578408","574062","3458","577263","NA","Sternberg task","89","91418.0","92","1024"
"96","96","991","991","#3d3846","experiment","legacy","legacy","legacy","1","undefined","1","right","92","92","92","0","0","92","92","0","0","92","92","92","0","92","0","Thu Oct 12 09:41:02 2023","The main experiment item","False","Sternbergtask.osexp","C:/Users/stcka/OneDrive/Sam Docs/Psychology Program/AP Textbooks/Quantitative Methods","False","mono","False","18","no","white","no","yes","768","legacy","80","11","C:/Users/stcka/OneDrive/Sam Docs/Psychology Program/AP Textbooks/Quantitative Methods/SA-subject-1.csv","legacy","6 8","Melodramatic Milgram","4.0.5","0","n","0","right","left","left","right","NA","798.0","1339","2657","798","NA","2","legacy","2","1024","2","48000","-16","experiment","1","odd","9","581637","578413","579435","2116","81301","579436","348621","2118","78644","583638","584436","580436","3458","583638","NA","Sternberg task","90","92216.0","93","1024"
"96","96","989","989","#3d3846","experiment","legacy","legacy","legacy","1","undefined","1","right","93","93","93","0","0","93","93","0","0","93","93","93","0","93","0","Thu Oct 12 09:41:02 2023","The main experiment item","False","Sternbergtask.osexp","C:/Users/stcka/OneDrive/Sam Docs/Psychology Program/AP Textbooks/Quantitative Methods","False","mono","False","18","no","white","no","yes","768","legacy","81","11","C:/Users/stcka/OneDrive/Sam Docs/Psychology Program/AP Textbooks/Quantitative Methods/SA-subject-1.csv","legacy","5 2","Melodramatic Milgram","4.0.5","0","n","0","right","left","left","right","NA","758.0","1339","2657","758","NA","2","legacy","2","1024","2","48000","-16","experiment","1","odd","7","587669","584441","585466","2116","81301","585467","348621","2118","78644","589669","590429","586468","3458","589669","NA","Sternberg task","91","92974.0","94","1024"
"95","95","999","999","#3d3846","experiment","legacy","legacy","legacy","0","undefined","0","right","94","94","94","0","0","94","94","0","0","94","94","94","0","94","0","Thu Oct 12 09:41:02 2023","The main experiment item","False","Sternbergtask.osexp","C:/Users/stcka/OneDrive/Sam Docs/Psychology Program/AP Textbooks/Quantitative Methods","False","mono","False","18","no","white","no","yes","768","legacy","82","11","C:/Users/stcka/OneDrive/Sam Docs/Psychology Program/AP Textbooks/Quantitative Methods/SA-subject-1.csv","legacy","4 8 1 2","Melodramatic Milgram","4.0.5","0","n","0","None","left","left","None","NA","2000.0","1339","2657","2000","NA","2","legacy","4","1024","2","48000","-16","experiment","1","odd","7","593657","590434","591454","2116","81301","591456","348621","2118","78644","595658","597658","592456","3458","595658","NA","Sternberg task","91","94974.0","95","1024"
"95","95","1002","1002","#3d3846","experiment","legacy","legacy","legacy","1","undefined","1","left","95","95","95","0","0","95","95","0","0","95","95","95","0","95","0","Thu Oct 12 09:41:02 2023","The main experiment item","False","Sternbergtask.osexp","C:/Users/stcka/OneDrive/Sam Docs/Psychology Program/AP Textbooks/Quantitative Methods","False","mono","False","18","no","white","no","yes","768","legacy","83","11","C:/Users/stcka/OneDrive/Sam Docs/Psychology Program/AP Textbooks/Quantitative Methods/SA-subject-1.csv","legacy","7 8 4 6 9 5","Melodramatic Milgram","4.0.5","4","y","0","left","left","left","left","NA","1272.0","1339","2657","1272","NA","2","legacy","6","1024","2","48000","-16","experiment","1","odd","6","600890","590434","598686","2116","81301","598688","597663","2118","78644","602891","604164","599689","3458","602890","NA","Sternberg task","92","96246.0","96","1024"
"95","95","1002","1002","#3d3846","experiment","legacy","legacy","legacy","1","undefined","1","right","96","96","96","0","0","96","96","0","0","96","96","96","0","96","0","Thu Oct 12 09:41:02 2023","The main experiment item","False","Sternbergtask.osexp","C:/Users/stcka/OneDrive/Sam Docs/Psychology Program/AP Textbooks/Quantitative Methods","False","mono","False","18","no","white","no","yes","768","legacy","84","11","C:/Users/stcka/OneDrive/Sam Docs/Psychology Program/AP Textbooks/Quantitative Methods/SA-subject-1.csv","legacy","6 2 9 3 8 4","Melodramatic Milgram","4.0.5","0","n","0","right","left","left","right","NA","1008.0","1339","2657","1008","NA","2","legacy","6","1024","2","48000","-16","experiment","1","odd","1","607392","604169","605189","2116","81301","605191","597663","2118","78644","609392","610400","606191","3458","609392","NA","Sternberg task","93","97254.0","97","1024"
"95","95","1001","1001","#3d3846","experiment","legacy","legacy","legacy","1","undefined","1","left","97","97","97","0","0","97","97","0","0","97","97","97","0","97","0","Thu Oct 12 09:41:02 2023","The main experiment item","False","Sternbergtask.osexp","C:/Users/stcka/OneDrive/Sam Docs/Psychology Program/AP Textbooks/Quantitative Methods","False","mono","False","18","no","white","no","yes","768","legacy","85","11","C:/Users/stcka/OneDrive/Sam Docs/Psychology Program/AP Textbooks/Quantitative Methods/SA-subject-1.csv","legacy","5 2 6","Melodramatic Milgram","4.0.5","2","y","0","left","left","left","left","NA","862.0","1339","2657","862","NA","2","legacy","3","1024","2","48000","-16","experiment","1","odd","2","613627","610405","611425","2116","81301","611426","597663","2118","78644","615627","616490","612427","3458","615627","NA","Sternberg task","94","98116.0","98","1024"
"95","95","998","998","#3d3846","experiment","legacy","legacy","legacy","1","undefined","1","right","98","98","98","0","0","98","98","0","0","98","98","98","0","98","0","Thu Oct 12 09:41:02 2023","The main experiment item","False","Sternbergtask.osexp","C:/Users/stcka/OneDrive/Sam Docs/Psychology Program/AP Textbooks/Quantitative Methods","False","mono","False","18","no","white","no","yes","768","legacy","86","11","C:/Users/stcka/OneDrive/Sam Docs/Psychology Program/AP Textbooks/Quantitative Methods/SA-subject-1.csv","legacy","2 7 5","Melodramatic Milgram","4.0.5","0","n","0","right","left","left","right","NA","751.0","1339","2657","751","NA","2","legacy","3","1024","2","48000","-16","experiment","1","odd","8","619726","616494","617524","2116","81301","617525","597663","2118","78644","621726","622478","618525","3458","621726","NA","Sternberg task","95","98867.0","99","1024"
"96","96","1005","1005","#3d3846","experiment","legacy","legacy","legacy","1","undefined","1","right","99","99","99","0","0","99","99","0","0","99","99","99","0","99","0","Thu Oct 12 09:41:02 2023","The main experiment item","False","Sternbergtask.osexp","C:/Users/stcka/OneDrive/Sam Docs/Psychology Program/AP Textbooks/Quantitative Methods","False","mono","False","18","no","white","no","yes","768","legacy","87","11","C:/Users/stcka/OneDrive/Sam Docs/Psychology Program/AP Textbooks/Quantitative Methods/SA-subject-1.csv","legacy","2 8 7 9 5 3","Melodramatic Milgram","4.0.5","0","n","0","right","left","left","right","NA","1671.0","1339","2657","1671","NA","2","legacy","6","1024","2","48000","-16","experiment","1","odd","6","625706","622483","623505","2116","81301","623506","597663","2118","78644","627706","629378","624506","3458","627706","NA","Sternberg task","96","100538.0","100","1024"
"96","96","1006","1006","#3d3846","experiment","legacy","legacy","legacy","1","undefined","1","left","100","100","100","0","0","100","100","0","0","100","100","100","0","100","0","Thu Oct 12 09:41:02 2023","The main experiment item","False","Sternbergtask.osexp","C:/Users/stcka/OneDrive/Sam Docs/Psychology Program/AP Textbooks/Quantitative Methods","False","mono","False","18","no","white","no","yes","768","legacy","88","11","C:/Users/stcka/OneDrive/Sam Docs/Psychology Program/AP Textbooks/Quantitative Methods/SA-subject-1.csv","legacy","2 4 6 9","Melodramatic Milgram","4.0.5","3","y","0","left","left","left","left","NA","1154.0","1339","2657","1154","NA","2","legacy","4","1024","2","48000","-16","experiment","1","odd","6","632609","629384","630407","2116","81301","630408","597663","2118","78644","634610","635765","631408","3458","634610","NA","Sternberg task","97","101692.0","101","1024"
"96","96","1005","1005","#3d3846","experiment","legacy","legacy","legacy","1","undefined","1","left","101","101","101","0","0","101","101","0","0","101","101","101","0","101","0","Thu Oct 12 09:41:02 2023","The main experiment item","False","Sternbergtask.osexp","C:/Users/stcka/OneDrive/Sam Docs/Psychology Program/AP Textbooks/Quantitative Methods","False","mono","False","18","no","white","no","yes","768","legacy","89","11","C:/Users/stcka/OneDrive/Sam Docs/Psychology Program/AP Textbooks/Quantitative Methods/SA-subject-1.csv","legacy","7 6","Melodramatic Milgram","4.0.5","2","y","0","left","left","left","left","NA","856.0","1339","2657","856","NA","2","legacy","2","1024","2","48000","-16","experiment","1","odd","6","638993","635770","636791","2116","81301","636792","597663","2118","78644","640995","641851","637793","3458","640995","NA","Sternberg task","98","102548.0","102","1024"
"96","96","1006","1006","#3d3846","experiment","legacy","legacy","legacy","1","undefined","1","left","102","102","102","0","0","102","102","0","0","102","102","102","0","102","0","Thu Oct 12 09:41:02 2023","The main experiment item","False","Sternbergtask.osexp","C:/Users/stcka/OneDrive/Sam Docs/Psychology Program/AP Textbooks/Quantitative Methods","False","mono","False","18","no","white","no","yes","768","legacy","90","11","C:/Users/stcka/OneDrive/Sam Docs/Psychology Program/AP Textbooks/Quantitative Methods/SA-subject-1.csv","legacy","4 6 5 8","Melodramatic Milgram","4.0.5","1","y","0","left","left","left","left","NA","1171.0","1339","2657","1171","NA","2","legacy","4","1024","2","48000","-16","experiment","1","odd","4","645084","641857","642880","2116","81301","642881","597663","2118","78644","647084","648256","643883","3458","647084","NA","Sternberg task","99","103719.0","103","1024"
"96","96","1005","1005","#3d3846","experiment","legacy","legacy","legacy","1","undefined","1","right","103","103","103","0","0","103","103","0","0","103","103","103","0","103","0","Thu Oct 12 09:41:02 2023","The main experiment item","False","Sternbergtask.osexp","C:/Users/stcka/OneDrive/Sam Docs/Psychology Program/AP Textbooks/Quantitative Methods","False","mono","False","18","no","white","no","yes","768","legacy","91","11","C:/Users/stcka/OneDrive/Sam Docs/Psychology Program/AP Textbooks/Quantitative Methods/SA-subject-1.csv","legacy","1 7 5 2","Melodramatic Milgram","4.0.5","0","n","0","right","left","left","right","NA","884.0","1339","2657","884","NA","2","legacy","4","1024","2","48000","-16","experiment","1","odd","3","651486","648261","649283","2116","81301","649284","597663","2118","78644","653486","654371","650285","3458","653486","NA","Sternberg task","100","104603.0","104","1024"
"96","96","1005","1005","#3d3846","experiment","legacy","legacy","legacy","1","undefined","1","left","104","104","104","0","0","104","104","0","0","104","104","104","0","104","0","Thu Oct 12 09:41:02 2023","The main experiment item","False","Sternbergtask.osexp","C:/Users/stcka/OneDrive/Sam Docs/Psychology Program/AP Textbooks/Quantitative Methods","False","mono","False","18","no","white","no","yes","768","legacy","92","11","C:/Users/stcka/OneDrive/Sam Docs/Psychology Program/AP Textbooks/Quantitative Methods/SA-subject-1.csv","legacy","2 4 8 5 1 3","Melodramatic Milgram","4.0.5","1","y","0","left","left","left","left","NA","995.0","1339","2657","995","NA","2","legacy","6","1024","2","48000","-16","experiment","1","odd","2","657602","654376","655399","2116","81301","655401","597663","2118","78644","659603","660599","656401","3458","659603","NA","Sternberg task","101","105598.0","105","1024"
"96","96","1005","1005","#3d3846","experiment","legacy","legacy","legacy","1","undefined","1","right","105","105","105","0","0","105","105","0","0","105","105","105","0","105","0","Thu Oct 12 09:41:02 2023","The main experiment item","False","Sternbergtask.osexp","C:/Users/stcka/OneDrive/Sam Docs/Psychology Program/AP Textbooks/Quantitative Methods","False","mono","False","18","no","white","no","yes","768","legacy","93","11","C:/Users/stcka/OneDrive/Sam Docs/Psychology Program/AP Textbooks/Quantitative Methods/SA-subject-1.csv","legacy","1 4 3 6 5","Melodramatic Milgram","4.0.5","0","n","0","right","left","left","right","NA","969.0","1339","2657","969","NA","2","legacy","5","1024","2","48000","-16","experiment","1","odd","8","663835","660606","661632","2116","81301","661633","597663","2118","78644","665835","666804","662634","3458","665835","NA","Sternberg task","102","106567.0","106","1024"
"96","96","1004","1004","#3d3846","experiment","legacy","legacy","legacy","1","undefined","1","left","106","106","106","0","0","106","106","0","0","106","106","106","0","106","0","Thu Oct 12 09:41:02 2023","The main experiment item","False","Sternbergtask.osexp","C:/Users/stcka/OneDrive/Sam Docs/Psychology Program/AP Textbooks/Quantitative Methods","False","mono","False","18","no","white","no","yes","768","legacy","94","11","C:/Users/stcka/OneDrive/Sam Docs/Psychology Program/AP Textbooks/Quantitative Methods/SA-subject-1.csv","legacy","3 2 1 4 7","Melodramatic Milgram","4.0.5","2","y","0","left","left","left","left","NA","891.0","1339","2657","891","NA","2","legacy","5","1024","2","48000","-16","experiment","1","odd","2","670040","666809","667836","2116","81301","667838","597663","2118","78644","672040","672932","668839","3458","672040","NA","Sternberg task","103","107458.0","107","1024"
"96","96","1005","1005","#3d3846","experiment","legacy","legacy","legacy","1","undefined","1","left","107","107","107","0","0","107","107","0","0","107","107","107","0","107","0","Thu Oct 12 09:41:02 2023","The main experiment item","False","Sternbergtask.osexp","C:/Users/stcka/OneDrive/Sam Docs/Psychology Program/AP Textbooks/Quantitative Methods","False","mono","False","18","no","white","no","yes","768","legacy","95","11","C:/Users/stcka/OneDrive/Sam Docs/Psychology Program/AP Textbooks/Quantitative Methods/SA-subject-1.csv","legacy","6 7 8 5","Melodramatic Milgram","4.0.5","3","y","0","left","left","left","left","NA","1104.0","1339","2657","1104","NA","2","legacy","4","1024","2","48000","-16","experiment","1","odd","8","676160","672937","673959","2116","81301","673960","597663","2118","78644","678161","679266","674960","3458","678161","NA","Sternberg task","104","108562.0","108","1024"
"96","96","1008","1008","#3d3846","experiment","legacy","legacy","legacy","1","undefined","1","right","108","108","108","0","0","108","108","0","0","108","108","108","0","108","0","Thu Oct 12 09:41:02 2023","The main experiment item","False","Sternbergtask.osexp","C:/Users/stcka/OneDrive/Sam Docs/Psychology Program/AP Textbooks/Quantitative Methods","False","mono","False","18","no","white","no","yes","768","legacy","96","11","C:/Users/stcka/OneDrive/Sam Docs/Psychology Program/AP Textbooks/Quantitative Methods/SA-subject-1.csv","legacy","7 8 6 1","Melodramatic Milgram","4.0.5","0","n","0","right","left","left","right","NA","1311.0","1339","2657","1311","NA","2","legacy","4","1024","2","48000","-16","experiment","1","odd","3","682497","679271","680295","2116","81301","680296","597663","2118","78644","684497","685809","681296","3458","684497","NA","Sternberg task","105","109873.0","109","1024"
"96","96","1010","1010","#3d3846","experiment","legacy","legacy","legacy","1","undefined","1","left","109","109","109","0","0","109","109","0","0","109","109","109","0","109","0","Thu Oct 12 09:41:02 2023","The main experiment item","False","Sternbergtask.osexp","C:/Users/stcka/OneDrive/Sam Docs/Psychology Program/AP Textbooks/Quantitative Methods","False","mono","False","18","no","white","no","yes","768","legacy","97","11","C:/Users/stcka/OneDrive/Sam Docs/Psychology Program/AP Textbooks/Quantitative Methods/SA-subject-1.csv","legacy","4 9 7 8 5 3","Melodramatic Milgram","4.0.5","4","y","0","left","left","left","left","NA","1334.0","1339","2657","1334","NA","2","legacy","6","1024","2","48000","-16","experiment","1","odd","8","689039","685814","686837","2116","81301","686838","597663","2118","78644","691039","692374","687838","3458","691039","NA","Sternberg task","106","111207.0","110","1024"
