"acc","accuracy","average_response_time","avg_rt","background","block","canvas_backend","clock_backend","color_backend","compensation","coordinates","correct","correct_instruction1","correct_keyboard_response","correct_response","count_correctfeedback","count_expSequence","count_experementloop","count_experiment","count_fixation","count_getting_started","count_incorrectfeedback","count_instruction1","count_instructions2_2","count_isi","count_keyboard_response","count_logger","count_memorySet","count_practiceloop","count_probe","count_thankyou","count_welcome","datetime","description","disable_garbage_collection","experiment_file","experiment_path","font_bold","font_family","font_italic","font_size","font_underline","foreground","form_clicks","fullscreen","height","keyboard_backend","live_row","live_row_practiceloop","logfile","mouse_backend","numberSet","opensesame_codename","opensesame_version","posInSet","present","repeat_cycle","response","response_instruction1","response_instructions2_2","response_keyboard_response","response_thankyou","response_time","response_time_instruction1","response_time_instructions2_2","response_time_keyboard_response","response_time_thankyou","response_time_welcome","response_welcome","round_decimals","sampler_backend","setSize","sound_buf_size","sound_channels","sound_freq","sound_sample_size","start","subject_nr","subject_parity","target","time_correctfeedback","time_expSequence","time_experementloop","time_experiment","time_fixation","time_getting_started","time_incorrectfeedback","time_instruction1","time_instructions2_2","time_isi","time_keyboard_response","time_logger","time_memorySet","time_practiceloop","time_probe","time_thankyou","time_welcome","title","total_correct","total_response_time","total_responses","uniform_coordinates","width"
"100","100","578.806200007","578.806200007","black","practice","psycho","psycho","psycho","0","uniform","1","undefined","1","right","0","0","0","0","0","NA","0","0","0","0","0","0","0","0","0","0","NA","10/24/21 23:13:32","","yes","SternbergTask.osexp","C:\Users\mmcel\OneDrive\GRAD SCHOOL\fall 2021\Advanced Quant","no","mono","no","18","no","white","no","yes","768","psycho","0","0","C:/Users/mmcel/OneDrive/GRAD SCHOOL/fall 2021/Advanced Quant/sternberg/MM-subject-4.csv","psycho","5","Lentiform Loewenfeld","3.3.9","0","n","0","right","left","NA","right","NA","578.806200007","7996.19719997","NA","578.806200007","NA","NA","NA","2","legacy","1","1024","2","48000","-16","experiment","4","even","3","NA","33929.8216","NA","17669.9112","33968.0422","NA","NA","18305.2969","NA","36174.6222","38178.354","38757.7321","34971.4556","26302.6336","38178.1779","NA","NA","Sternberg Task","1","578.806200007","1","yes","1024"
"100","100","474.843100004","474.843100004","black","practice","psycho","psycho","psycho","0","uniform","1","undefined","1","left","1","1","0","0","1","NA","1","0","0","1","1","1","1","0","1","0","NA","10/24/21 23:13:32","","yes","SternbergTask.osexp","C:\Users\mmcel\OneDrive\GRAD SCHOOL\fall 2021\Advanced Quant","no","mono","no","18","no","white","no","yes","768","psycho","1","1","C:/Users/mmcel/OneDrive/GRAD SCHOOL/fall 2021/Advanced Quant/sternberg/MM-subject-4.csv","psycho","4 3 1 7 9 8","Lentiform Loewenfeld","3.3.9","1","y","0","left","left","NA","left","NA","370.880000002","7996.19719997","NA","370.880000002","NA","NA","NA","2","legacy","6","1024","2","48000","-16","experiment","4","even","4","39038.5681","40124.5275","NA","17669.9112","40128.1243","NA","NA","18305.2969","NA","42335.0959","44338.5713","44710.0453","41131.9022","26302.6336","44338.39","NA","NA","Sternberg Task","2","949.686200009","2","yes","1024"
"100","100","446.733699995","446.733699995","black","practice","psycho","psycho","psycho","0","uniform","1","undefined","1","left","2","2","0","0","2","NA","2","0","0","2","2","2","2","0","2","0","NA","10/24/21 23:13:32","","yes","SternbergTask.osexp","C:\Users\mmcel\OneDrive\GRAD SCHOOL\fall 2021\Advanced Quant","no","mono","no","18","no","white","no","yes","768","psycho","2","2","C:/Users/mmcel/OneDrive/GRAD SCHOOL/fall 2021/Advanced Quant/sternberg/MM-subject-4.csv","psycho","4 8","Lentiform Loewenfeld","3.3.9","1","y","0","left","left","NA","left","NA","390.514899977","7996.19719997","NA","390.514899977","NA","NA","NA","2","legacy","2","1024","2","48000","-16","experiment","4","even","4","44769.3435","45850.2195","NA","17669.9112","45853.8113","NA","NA","18305.2969","NA","48060.3923","50063.7134","50454.8045","46857.2086","26302.6336","50063.5302","NA","NA","Sternberg Task","3","1340.20109999","3","yes","1024"
"100","100","464.431849992","464.431849992","black","practice","psycho","psycho","psycho","0","uniform","1","undefined","1","left","3","3","0","0","3","NA","3","0","0","3","3","3","3","0","3","0","NA","10/24/21 23:13:32","","yes","SternbergTask.osexp","C:\Users\mmcel\OneDrive\GRAD SCHOOL\fall 2021\Advanced Quant","no","mono","no","18","no","white","no","yes","768","psycho","3","3","C:/Users/mmcel/OneDrive/GRAD SCHOOL/fall 2021/Advanced Quant/sternberg/MM-subject-4.csv","psycho","1 7 9 8 5","Lentiform Loewenfeld","3.3.9","4","y","0","left","left","NA","left","NA","517.526299984","7996.19719997","NA","517.526299984","NA","NA","NA","2","legacy","5","1024","2","48000","-16","experiment","4","even","8","50528.0337","51614.2955","NA","17669.9112","51618.032","NA","NA","18305.2969","NA","53825.7334","55829.038","56347.1011","52622.2325","26302.6336","55828.8798","NA","NA","Sternberg Task","4","1857.72739997","4","yes","1024"
"100","100","453.078359994","453.078359994","black","practice","psycho","psycho","psycho","0","uniform","1","undefined","1","right","4","4","0","0","4","NA","4","0","0","4","4","4","4","0","4","0","NA","10/24/21 23:13:32","","yes","SternbergTask.osexp","C:\Users\mmcel\OneDrive\GRAD SCHOOL\fall 2021\Advanced Quant","no","mono","no","18","no","white","no","yes","768","psycho","4","4","C:/Users/mmcel/OneDrive/GRAD SCHOOL/fall 2021/Advanced Quant/sternberg/MM-subject-4.csv","psycho","3 1 9 4","Lentiform Loewenfeld","3.3.9","0","n","0","right","left","NA","right","NA","407.664400002","7996.19719997","NA","407.664400002","NA","NA","NA","2","legacy","4","1024","2","48000","-16","experiment","4","even","6","56450.0316","57543.6516","NA","17669.9112","57547.0306","NA","NA","18305.2969","NA","59754.7622","61758.9582","62167.3007","58551.1581","26302.6336","61758.7927","NA","NA","Sternberg Task","5","2265.39179997","5","yes","1024"
"100","100","455.073449994","455.073449994","black","practice","psycho","psycho","psycho","0","uniform","1","undefined","1","left","5","5","0","0","5","NA","5","0","0","5","5","5","5","0","5","0","NA","10/24/21 23:13:32","","yes","SternbergTask.osexp","C:\Users\mmcel\OneDrive\GRAD SCHOOL\fall 2021\Advanced Quant","no","mono","no","18","no","white","no","yes","768","psycho","5","5","C:/Users/mmcel/OneDrive/GRAD SCHOOL/fall 2021/Advanced Quant/sternberg/MM-subject-4.csv","psycho","1 5 2 9","Lentiform Loewenfeld","3.3.9","2","y","0","left","left","NA","left","NA","465.048899991","7996.19719997","NA","465.048899991","NA","NA","NA","2","legacy","4","1024","2","48000","-16","experiment","4","even","5","62235.7136","63321.4616","NA","17669.9112","63325.3828","NA","NA","18305.2969","NA","65531.4886","67535.1964","68000.7704","64329.041","26302.6336","67535.0156","NA","NA","Sternberg Task","6","2730.44069996","6","yes","1024"
"100","100","451.545099994","451.545099994","black","practice","psycho","psycho","psycho","0","uniform","1","undefined","1","left","6","6","0","0","6","NA","6","0","0","6","6","6","6","0","6","0","NA","10/24/21 23:13:32","","yes","SternbergTask.osexp","C:\Users\mmcel\OneDrive\GRAD SCHOOL\fall 2021\Advanced Quant","no","mono","no","18","no","white","no","yes","768","psycho","6","6","C:/Users/mmcel/OneDrive/GRAD SCHOOL/fall 2021/Advanced Quant/sternberg/MM-subject-4.csv","psycho","6","Lentiform Loewenfeld","3.3.9","1","y","0","left","left","NA","left","NA","430.374999996","7996.19719997","NA","430.374999996","NA","NA","NA","2","legacy","1","1024","2","48000","-16","experiment","4","even","6","68049.565","69146.2649","NA","17669.9112","69149.7122","NA","NA","18305.2969","NA","71355.954","73359.6425","73790.5542","70153.0878","26302.6336","73359.4927","NA","NA","Sternberg Task","7","3160.81569996","7","yes","1024"
"100","100","479.938212498","479.938212498","black","practice","psycho","psycho","psycho","0","uniform","1","undefined","1","right","7","7","0","0","7","NA","7","0","0","7","7","7","7","0","7","0","NA","10/24/21 23:13:32","","yes","SternbergTask.osexp","C:\Users\mmcel\OneDrive\GRAD SCHOOL\fall 2021\Advanced Quant","no","mono","no","18","no","white","no","yes","768","psycho","7","7","C:/Users/mmcel/OneDrive/GRAD SCHOOL/fall 2021/Advanced Quant/sternberg/MM-subject-4.csv","psycho","4 1 5","Lentiform Loewenfeld","3.3.9","0","n","0","right","left","NA","right","NA","678.69000003","7996.19719997","NA","678.69000003","NA","NA","NA","2","legacy","3","1024","2","48000","-16","experiment","4","even","2","73840.1502","74932.8273","NA","17669.9112","74936.1406","NA","NA","18305.2969","NA","77142.5605","79146.3953","79825.6061","75939.7154","26302.6336","79146.2114","NA","NA","Sternberg Task","8","3839.50569999","8","yes","1024"
"100","100","480.072400002","480.072400002","black","practice","psycho","psycho","psycho","0","uniform","1","undefined","1","left","8","8","0","0","8","NA","8","0","0","8","8","8","8","0","8","0","NA","10/24/21 23:13:32","","yes","SternbergTask.osexp","C:\Users\mmcel\OneDrive\GRAD SCHOOL\fall 2021\Advanced Quant","no","mono","no","18","no","white","no","yes","768","psycho","8","8","C:/Users/mmcel/OneDrive/GRAD SCHOOL/fall 2021/Advanced Quant/sternberg/MM-subject-4.csv","psycho","2 9 4","Lentiform Loewenfeld","3.3.9","3","y","0","left","left","NA","left","NA","481.145900034","7996.19719997","NA","481.145900034","NA","NA","NA","2","legacy","3","1024","2","48000","-16","experiment","4","even","4","79859.0356","80940.9725","NA","17669.9112","80944.3076","NA","NA","18305.2969","NA","83150.2699","85153.7121","85635.449","81947.4094","26302.6336","85153.5414","NA","NA","Sternberg Task","9","4320.65160002","9","yes","1024"
"100","100","487.366320001","487.366320001","black","practice","psycho","psycho","psycho","0","uniform","1","undefined","1","right","9","9","0","0","9","NA","9","0","0","9","9","9","9","0","9","0","NA","10/24/21 23:13:32","","yes","SternbergTask.osexp","C:\Users\mmcel\OneDrive\GRAD SCHOOL\fall 2021\Advanced Quant","no","mono","no","18","no","white","no","yes","768","psycho","9","9","C:/Users/mmcel/OneDrive/GRAD SCHOOL/fall 2021/Advanced Quant/sternberg/MM-subject-4.csv","psycho","2 1","Lentiform Loewenfeld","3.3.9","0","n","0","right","left","NA","right","NA","553.011599986","7996.19719997","NA","553.011599986","NA","NA","NA","2","legacy","2","1024","2","48000","-16","experiment","4","even","5","85728.1529","86810.6949","NA","17669.9112","86814.1007","NA","NA","18305.2969","NA","89021.1315","91024.8392","91578.4052","87817.6138","26302.6336","91024.6846","NA","NA","Sternberg Task","10","4873.66320001","10","yes","1024"
"100","100","495.523190909","495.523190909","black","practice","psycho","psycho","psycho","0","uniform","1","undefined","1","right","10","10","0","0","10","NA","10","0","0","10","10","10","10","0","10","0","NA","10/24/21 23:13:32","","yes","SternbergTask.osexp","C:\Users\mmcel\OneDrive\GRAD SCHOOL\fall 2021\Advanced Quant","no","mono","no","18","no","white","no","yes","768","psycho","10","10","C:/Users/mmcel/OneDrive/GRAD SCHOOL/fall 2021/Advanced Quant/sternberg/MM-subject-4.csv","psycho","9 6 7 4 5","Lentiform Loewenfeld","3.3.9","0","n","0","right","left","NA","right","NA","577.091899992","7996.19719997","NA","577.091899992","NA","NA","NA","2","legacy","5","1024","2","48000","-16","experiment","4","even","3","91644.8281","92727.6824","NA","17669.9112","92731.3479","NA","NA","18305.2969","NA","94937.3087","96940.5234","97518.2978","93734.251","26302.6336","96940.3323","NA","NA","Sternberg Task","11","5450.7551","11","yes","1024"
"100","100","510.34194167","510.34194167","black","practice","psycho","psycho","psycho","0","uniform","1","undefined","1","right","11","11","0","0","11","NA","11","0","0","11","11","11","11","0","11","0","NA","10/24/21 23:13:32","","yes","SternbergTask.osexp","C:\Users\mmcel\OneDrive\GRAD SCHOOL\fall 2021\Advanced Quant","no","mono","no","18","no","white","no","yes","768","psycho","11","11","C:/Users/mmcel/OneDrive/GRAD SCHOOL/fall 2021/Advanced Quant/sternberg/MM-subject-4.csv","psycho","5 7 8 4 1 2","Lentiform Loewenfeld","3.3.9","0","n","0","right","left","NA","right","NA","673.348200042","7996.19719997","NA","673.348200042","NA","NA","NA","2","legacy","6","1024","2","48000","-16","experiment","4","even","6","97560.6255","98641.3441","NA","17669.9112","98644.809","NA","NA","18305.2969","NA","100852.9724","102856.6841","103530.6437","99649.2478","26302.6336","102856.4889","NA","NA","Sternberg Task","12","6124.10330004","12","yes","1024"
"92.3076923077","92.3076923077","514.824715389","514.824715389","black","experiment","psycho","psycho","psycho","0","uniform","0","undefined","0","right","12","12","0","0","12","NA","12","0","0","12","12","12","12","0","12","0","NA","10/24/21 23:13:32","","yes","SternbergTask.osexp","C:\Users\mmcel\OneDrive\GRAD SCHOOL\fall 2021\Advanced Quant","no","mono","no","18","no","white","no","yes","768","psycho","0","11","C:/Users/mmcel/OneDrive/GRAD SCHOOL/fall 2021/Advanced Quant/sternberg/MM-subject-4.csv","psycho","1 5 3 2 8","Lentiform Loewenfeld","3.3.9","0","n","0","left","left","right","left","NA","568.618000019","7996.19719997","8955.31379996","568.618000019","NA","NA","NA","2","legacy","5","1024","2","48000","-16","experiment","4","even","4","103614.2293","113691.9882","113605.4285","17669.9112","113695.5267","NA","NA","18305.2969","104649.4978","115902.111","117905.7553","118474.9639","114698.4627","26302.6336","117905.5639","NA","NA","Sternberg Task","12","6692.72130006","13","yes","1024"
"92.8571428571","92.8571428571","515.72331429","515.72331429","black","experiment","psycho","psycho","psycho","0","uniform","1","undefined","1","left","13","13","0","0","13","NA","13","0","0","13","13","13","13","0","13","0","NA","10/24/21 23:13:32","","yes","SternbergTask.osexp","C:\Users\mmcel\OneDrive\GRAD SCHOOL\fall 2021\Advanced Quant","no","mono","no","18","no","white","no","yes","768","psycho","1","11","C:/Users/mmcel/OneDrive/GRAD SCHOOL/fall 2021/Advanced Quant/sternberg/MM-subject-4.csv","psycho","2 5 4 8 7","Lentiform Loewenfeld","3.3.9","3","y","0","left","left","right","left","NA","527.405100001","7996.19719997","8955.31379996","527.405100001","NA","NA","NA","2","legacy","5","1024","2","48000","-16","experiment","4","even","4","103614.2293","119601.3663","113605.4285","17669.9112","119605.0012","NA","118517.1882","18305.2969","104649.4978","121811.5014","123815.1262","124343.3565","120608.7107","26302.6336","123814.9516","NA","NA","Sternberg Task","13","7220.12640006","14","yes","1024"
"93.3333333333","93.3333333333","506.783286668","506.783286668","black","experiment","psycho","psycho","psycho","0","uniform","1","undefined","1","left","14","14","0","0","14","NA","14","0","0","14","14","14","14","0","14","0","NA","10/24/21 23:13:32","","yes","SternbergTask.osexp","C:\Users\mmcel\OneDrive\GRAD SCHOOL\fall 2021\Advanced Quant","no","mono","no","18","no","white","no","yes","768","psycho","2","11","C:/Users/mmcel/OneDrive/GRAD SCHOOL/fall 2021/Advanced Quant/sternberg/MM-subject-4.csv","psycho","4","Lentiform Loewenfeld","3.3.9","1","y","0","left","left","right","left","NA","381.622899964","7996.19719997","8955.31379996","381.622899964","NA","NA","NA","2","legacy","1","1024","2","48000","-16","experiment","4","even","4","124383.2245","125466.7465","113605.4285","17669.9112","125470.6421","NA","118517.1882","18305.2969","104649.4978","127677.7404","129681.5486","130063.8149","126473.7011","26302.6336","129681.3645","NA","NA","Sternberg Task","14","7601.74930003","15","yes","1024"
"93.75","93.75","517.4223875","517.4223875","black","experiment","psycho","psycho","psycho","0","uniform","1","undefined","1","left","15","15","0","0","15","NA","15","0","0","15","15","15","15","0","15","0","NA","10/24/21 23:13:32","","yes","SternbergTask.osexp","C:\Users\mmcel\OneDrive\GRAD SCHOOL\fall 2021\Advanced Quant","no","mono","no","18","no","white","no","yes","768","psycho","3","11","C:/Users/mmcel/OneDrive/GRAD SCHOOL/fall 2021/Advanced Quant/sternberg/MM-subject-4.csv","psycho","3 9 6 2","Lentiform Loewenfeld","3.3.9","4","y","0","left","left","right","left","NA","677.008899976","7996.19719997","8955.31379996","677.008899976","NA","NA","NA","2","legacy","4","1024","2","48000","-16","experiment","4","even","2","130106.8854","131193.3291","113605.4285","17669.9112","131196.7746","NA","118517.1882","18305.2969","104649.4978","133404.7793","135408.3237","136085.9432","132200.9165","26302.6336","135408.1478","NA","NA","Sternberg Task","15","8278.7582","16","yes","1024"
"88.2352941176","88.2352941176","523.102370591","523.102370591","black","experiment","psycho","psycho","psycho","0","uniform","0","undefined","0","left","16","16","0","0","16","NA","16","0","0","16","16","16","16","0","16","0","NA","10/24/21 23:13:32","","yes","SternbergTask.osexp","C:\Users\mmcel\OneDrive\GRAD SCHOOL\fall 2021\Advanced Quant","no","mono","no","18","no","white","no","yes","768","psycho","4","11","C:/Users/mmcel/OneDrive/GRAD SCHOOL/fall 2021/Advanced Quant/sternberg/MM-subject-4.csv","psycho","7 8 4 6 9 5","Lentiform Loewenfeld","3.3.9","4","y","0","right","left","right","right","NA","613.98210004","7996.19719997","8955.31379996","613.98210004","NA","NA","NA","2","legacy","6","1024","2","48000","-16","experiment","4","even","6","136361.367","137451.4081","113605.4285","17669.9112","137454.6217","NA","118517.1882","18305.2969","104649.4978","139660.5145","141663.901","142278.5622","138457.5275","26302.6336","141663.7211","NA","NA","Sternberg Task","15","8892.74030004","17","yes","1024"
"88.8888888889","88.8888888889","527.196783333","527.196783333","black","experiment","psycho","psycho","psycho","0","uniform","1","undefined","1","left","17","17","0","0","17","NA","17","0","0","17","17","17","17","0","17","0","NA","10/24/21 23:13:32","","yes","SternbergTask.osexp","C:\Users\mmcel\OneDrive\GRAD SCHOOL\fall 2021\Advanced Quant","no","mono","no","18","no","white","no","yes","768","psycho","5","11","C:/Users/mmcel/OneDrive/GRAD SCHOOL/fall 2021/Advanced Quant/sternberg/MM-subject-4.csv","psycho","6 7 8 5","Lentiform Loewenfeld","3.3.9","3","y","0","left","left","right","left","NA","596.801799955","7996.19719997","8955.31379996","596.801799955","NA","NA","NA","2","legacy","4","1024","2","48000","-16","experiment","4","even","8","136361.367","143437.5076","113605.4285","17669.9112","143440.9236","NA","142351.0454","18305.2969","104649.4978","145647.3975","147650.927","148248.418","144444.6301","26302.6336","147650.7547","NA","NA","Sternberg Task","16","9489.5421","18","yes","1024"
"89.4736842105","89.4736842105","535.504131578","535.504131578","black","experiment","psycho","psycho","psycho","0","uniform","1","undefined","1","left","18","18","0","0","18","NA","18","0","0","18","18","18","18","0","18","0","NA","10/24/21 23:13:32","","yes","SternbergTask.osexp","C:\Users\mmcel\OneDrive\GRAD SCHOOL\fall 2021\Advanced Quant","no","mono","no","18","no","white","no","yes","768","psycho","6","11","C:/Users/mmcel/OneDrive/GRAD SCHOOL/fall 2021/Advanced Quant/sternberg/MM-subject-4.csv","psycho","8 9 6 1","Lentiform Loewenfeld","3.3.9","2","y","0","left","left","right","left","NA","685.036399984","7996.19719997","8955.31379996","685.036399984","NA","NA","NA","2","legacy","4","1024","2","48000","-16","experiment","4","even","9","148284.5466","149367.2521","113605.4285","17669.9112","149370.9265","NA","142351.0454","18305.2969","104649.4978","151576.6511","153580.1016","154265.7482","150374.4843","26302.6336","153579.9021","NA","NA","Sternberg Task","17","10174.5785","19","yes","1024"
"90","90","530.894019999","530.894019999","black","experiment","psycho","psycho","psycho","0","uniform","1","undefined","1","left","19","19","0","0","19","NA","19","0","0","19","19","19","19","0","19","0","NA","10/24/21 23:13:32","","yes","SternbergTask.osexp","C:\Users\mmcel\OneDrive\GRAD SCHOOL\fall 2021\Advanced Quant","no","mono","no","18","no","white","no","yes","768","psycho","7","11","C:/Users/mmcel/OneDrive/GRAD SCHOOL/fall 2021/Advanced Quant/sternberg/MM-subject-4.csv","psycho","2 3","Lentiform Loewenfeld","3.3.9","1","y","0","left","left","right","left","NA","443.301899999","7996.19719997","8955.31379996","443.301899999","NA","NA","NA","2","legacy","2","1024","2","48000","-16","experiment","4","even","2","154296.7947","155378.3549","113605.4285","17669.9112","155381.7154","NA","142351.0454","18305.2969","104649.4978","157588.1505","159592.1893","160036.2045","156385.052","26302.6336","159592.0256","NA","NA","Sternberg Task","18","10617.8804","20","yes","1024"
"90.4761904762","90.4761904762","529.48075238","529.48075238","black","experiment","psycho","psycho","psycho","0","uniform","1","undefined","1","right","20","20","0","0","20","NA","20","0","0","20","20","20","20","0","20","0","NA","10/24/21 23:13:32","","yes","SternbergTask.osexp","C:\Users\mmcel\OneDrive\GRAD SCHOOL\fall 2021\Advanced Quant","no","mono","no","18","no","white","no","yes","768","psycho","8","11","C:/Users/mmcel/OneDrive/GRAD SCHOOL/fall 2021/Advanced Quant/sternberg/MM-subject-4.csv","psycho","8 4 3 5","Lentiform Loewenfeld","3.3.9","0","n","0","right","left","right","right","NA","501.2154","7996.19719997","8955.31379996","501.2154","NA","NA","NA","2","legacy","4","1024","2","48000","-16","experiment","4","even","6","160063.0073","161147.7084","113605.4285","17669.9112","161151.0965","NA","142351.0454","18305.2969","104649.4978","163358.3357","165362.75","165864.7087","162155.2363","26302.6336","165362.5606","NA","NA","Sternberg Task","19","11119.0958","21","yes","1024"
"90.9090909091","90.9090909091","524.542063636","524.542063636","black","experiment","psycho","psycho","psycho","0","uniform","1","undefined","1","left","21","21","0","0","21","NA","21","0","0","21","21","21","21","0","21","0","NA","10/24/21 23:13:32","","yes","SternbergTask.osexp","C:\Users\mmcel\OneDrive\GRAD SCHOOL\fall 2021\Advanced Quant","no","mono","no","18","no","white","no","yes","768","psycho","9","11","C:/Users/mmcel/OneDrive/GRAD SCHOOL/fall 2021/Advanced Quant/sternberg/MM-subject-4.csv","psycho","2 3 7 4","Lentiform Loewenfeld","3.3.9","1","y","0","left","left","right","left","NA","420.829600014","7996.19719997","8955.31379996","420.829600014","NA","NA","NA","2","legacy","4","1024","2","48000","-16","experiment","4","even","2","166074.8407","167161.0897","113605.4285","17669.9112","167164.3927","NA","142351.0454","18305.2969","104649.4978","169371.6796","171375.3973","171796.9668","168168.0205","26302.6336","171375.2119","NA","NA","Sternberg Task","20","11539.9254","22","yes","1024"
"91.3043478261","91.3043478261","521.270552174","521.270552174","black","experiment","psycho","psycho","psycho","0","uniform","1","undefined","1","left","22","22","0","0","22","NA","22","0","0","22","22","22","22","0","22","0","NA","10/24/21 23:13:32","","yes","SternbergTask.osexp","C:\Users\mmcel\OneDrive\GRAD SCHOOL\fall 2021\Advanced Quant","no","mono","no","18","no","white","no","yes","768","psycho","10","11","C:/Users/mmcel/OneDrive/GRAD SCHOOL/fall 2021/Advanced Quant/sternberg/MM-subject-4.csv","psycho","8 3","Lentiform Loewenfeld","3.3.9","2","y","0","left","left","right","left","NA","449.297300016","7996.19719997","8955.31379996","449.297300016","NA","NA","NA","2","legacy","2","1024","2","48000","-16","experiment","4","even","3","171818.9433","172901.3717","113605.4285","17669.9112","172905.0398","NA","142351.0454","18305.2969","104649.4978","175110.613","177114.4157","177564.343","173908.0507","26302.6336","177114.1908","NA","NA","Sternberg Task","21","11989.2227","23","yes","1024"
"91.6666666667","91.6666666667","522.190020834","522.190020834","black","experiment","psycho","psycho","psycho","0","uniform","1","undefined","1","right","23","23","0","0","23","NA","23","0","0","23","23","23","23","0","23","0","NA","10/24/21 23:13:32","","yes","SternbergTask.osexp","C:\Users\mmcel\OneDrive\GRAD SCHOOL\fall 2021\Advanced Quant","no","mono","no","18","no","white","no","yes","768","psycho","11","11","C:/Users/mmcel/OneDrive/GRAD SCHOOL/fall 2021/Advanced Quant/sternberg/MM-subject-4.csv","psycho","5 3 8 7 2 4","Lentiform Loewenfeld","3.3.9","0","n","0","right","left","right","right","NA","543.337800016","7996.19719997","8955.31379996","543.337800016","NA","NA","NA","2","legacy","6","1024","2","48000","-16","experiment","4","even","9","177597.9113","178680.7922","113605.4285","17669.9112","178684.2955","NA","142351.0454","18305.2969","104649.4978","180891.3026","182895.0385","183439.1845","179687.6689","26302.6336","182894.8608","NA","NA","Sternberg Task","22","12532.5605","24","yes","1024"
"92","92","522.485440001","522.485440001","black","experiment","psycho","psycho","psycho","0","uniform","1","undefined","1","left","24","24","0","0","24","NA","24","0","0","24","24","24","24","0","24","0","NA","10/24/21 23:13:32","","yes","SternbergTask.osexp","C:\Users\mmcel\OneDrive\GRAD SCHOOL\fall 2021\Advanced Quant","no","mono","no","18","no","white","no","yes","768","psycho","12","11","C:/Users/mmcel/OneDrive/GRAD SCHOOL/fall 2021/Advanced Quant/sternberg/MM-subject-4.csv","psycho","8 9 5 7 1 6","Lentiform Loewenfeld","3.3.9","4","y","0","left","left","right","left","NA","529.575499997","7996.19719997","8955.31379996","529.575499997","NA","NA","NA","2","legacy","6","1024","2","48000","-16","experiment","4","even","7","183487.8055","184571.1213","113605.4285","17669.9112","184574.8314","NA","142351.0454","18305.2969","104649.4978","186781.1356","188784.4598","189314.6715","185577.8482","26302.6336","188784.2772","NA","NA","Sternberg Task","23","13062.136","25","yes","1024"
"92.3076923077","92.3076923077","522.347188461","522.347188461","black","experiment","psycho","psycho","psycho","0","uniform","1","undefined","1","left","25","25","0","0","25","NA","25","0","0","25","25","25","25","0","25","0","NA","10/24/21 23:13:32","","yes","SternbergTask.osexp","C:\Users\mmcel\OneDrive\GRAD SCHOOL\fall 2021\Advanced Quant","no","mono","no","18","no","white","no","yes","768","psycho","13","11","C:/Users/mmcel/OneDrive/GRAD SCHOOL/fall 2021/Advanced Quant/sternberg/MM-subject-4.csv","psycho","9 4 2","Lentiform Loewenfeld","3.3.9","1","y","0","left","left","right","left","NA","518.890899955","7996.19719997","8955.31379996","518.890899955","NA","NA","NA","2","legacy","3","1024","2","48000","-16","experiment","4","even","9","189556.7846","190636.9065","113605.4285","17669.9112","190640.3825","NA","142351.0454","18305.2969","104649.4978","192847.9578","194851.5219","195371.0871","191644.6265","26302.6336","194851.3632","NA","NA","Sternberg Task","24","13581.0269","26","yes","1024"
"92.5925925926","92.5925925926","523.997566667","523.997566667","black","experiment","psycho","psycho","psycho","0","uniform","1","undefined","1","right","26","26","0","0","26","NA","26","0","0","26","26","26","26","0","26","0","NA","10/24/21 23:13:32","","yes","SternbergTask.osexp","C:\Users\mmcel\OneDrive\GRAD SCHOOL\fall 2021\Advanced Quant","no","mono","no","18","no","white","no","yes","768","psycho","14","11","C:/Users/mmcel/OneDrive/GRAD SCHOOL/fall 2021/Advanced Quant/sternberg/MM-subject-4.csv","psycho","7 1 5 6 3","Lentiform Loewenfeld","3.3.9","0","n","0","right","left","right","right","NA","566.907400033","7996.19719997","8955.31379996","566.907400033","NA","NA","NA","2","legacy","5","1024","2","48000","-16","experiment","4","even","8","195398.763","196479.9252","113605.4285","17669.9112","196483.5725","NA","142351.0454","18305.2969","104649.4978","198690.5443","200694.9837","201262.6246","197486.8655","26302.6336","200694.8312","NA","NA","Sternberg Task","25","14147.9343","27","yes","1024"
"92.8571428571","92.8571428571","531.199725","531.199725","black","experiment","psycho","psycho","psycho","0","uniform","1","undefined","1","left","27","27","0","0","27","NA","27","0","0","27","27","27","27","0","27","0","NA","10/24/21 23:13:32","","yes","SternbergTask.osexp","C:\Users\mmcel\OneDrive\GRAD SCHOOL\fall 2021\Advanced Quant","no","mono","no","18","no","white","no","yes","768","psycho","15","11","C:/Users/mmcel/OneDrive/GRAD SCHOOL/fall 2021/Advanced Quant/sternberg/MM-subject-4.csv","psycho","5 7 3 6 2","Lentiform Loewenfeld","3.3.9","5","y","0","left","left","right","left","NA","725.657999981","7996.19719997","8955.31379996","725.657999981","NA","NA","NA","2","legacy","5","1024","2","48000","-16","experiment","4","even","2","201310.0766","202393.4889","113605.4285","17669.9112","202396.7505","NA","142351.0454","18305.2969","104649.4978","204603.7878","206608.3105","207334.7158","203400.6613","26302.6336","206608.1499","NA","NA","Sternberg Task","26","14873.5923","28","yes","1024"
"93.1034482759","93.1034482759","530.783099999","530.783099999","black","experiment","psycho","psycho","psycho","0","uniform","1","undefined","1","left","28","28","0","0","28","NA","28","0","0","28","28","28","28","0","28","0","NA","10/24/21 23:13:32","","yes","SternbergTask.osexp","C:\Users\mmcel\OneDrive\GRAD SCHOOL\fall 2021\Advanced Quant","no","mono","no","18","no","white","no","yes","768","psycho","16","11","C:/Users/mmcel/OneDrive/GRAD SCHOOL/fall 2021/Advanced Quant/sternberg/MM-subject-4.csv","psycho","8 5 1 3 9","Lentiform Loewenfeld","3.3.9","4","y","0","left","left","right","left","NA","519.117599993","7996.19719997","8955.31379996","519.117599993","NA","NA","NA","2","legacy","5","1024","2","48000","-16","experiment","4","even","3","207369.538","208448.6768","113605.4285","17669.9112","208452.2862","NA","142351.0454","18305.2969","104649.4978","210659.2071","212662.7451","213182.5581","209455.6463","26302.6336","212662.575","NA","NA","Sternberg Task","27","15392.7099","29","yes","1024"
"93.3333333333","93.3333333333","532.346763332","532.346763332","black","experiment","psycho","psycho","psycho","0","uniform","1","undefined","1","right","29","29","0","0","29","NA","29","0","0","29","29","29","29","0","29","0","NA","10/24/21 23:13:32","","yes","SternbergTask.osexp","C:\Users\mmcel\OneDrive\GRAD SCHOOL\fall 2021\Advanced Quant","no","mono","no","18","no","white","no","yes","768","psycho","17","11","C:/Users/mmcel/OneDrive/GRAD SCHOOL/fall 2021/Advanced Quant/sternberg/MM-subject-4.csv","psycho","5 9 2 3","Lentiform Loewenfeld","3.3.9","0","n","0","right","left","right","right","NA","577.69299997","7996.19719997","8955.31379996","577.69299997","NA","NA","NA","2","legacy","4","1024","2","48000","-16","experiment","4","even","8","213233.4212","214318.5987","113605.4285","17669.9112","214322.1559","NA","142351.0454","18305.2969","104649.4978","216528.6164","218532.201","219110.6189","215325.2456","26302.6336","218532.0218","NA","NA","Sternberg Task","28","15970.4029","30","yes","1024"
"93.5483870968","93.5483870968","536.318725805","536.318725805","black","experiment","psycho","psycho","psycho","0","uniform","1","undefined","1","right","30","30","0","0","30","NA","30","0","0","30","30","30","30","0","30","0","NA","10/24/21 23:13:32","","yes","SternbergTask.osexp","C:\Users\mmcel\OneDrive\GRAD SCHOOL\fall 2021\Advanced Quant","no","mono","no","18","no","white","no","yes","768","psycho","18","11","C:/Users/mmcel/OneDrive/GRAD SCHOOL/fall 2021/Advanced Quant/sternberg/MM-subject-4.csv","psycho","2 8 6 3 1","Lentiform Loewenfeld","3.3.9","0","n","0","right","left","right","right","NA","655.477599998","7996.19719997","8955.31379996","655.477599998","NA","NA","NA","2","legacy","5","1024","2","48000","-16","experiment","4","even","7","219154.2711","220239.949","113605.4285","17669.9112","220243.4943","NA","142351.0454","18305.2969","104649.4978","222450.1082","224453.5054","225109.768","221246.7551","26302.6336","224453.34","NA","NA","Sternberg Task","29","16625.8805","31","yes","1024"
"93.75","93.75","541.1108875","541.1108875","black","experiment","psycho","psycho","psycho","0","uniform","1","undefined","1","left","31","31","0","0","31","NA","31","0","0","31","31","31","31","0","31","0","NA","10/24/21 23:13:32","","yes","SternbergTask.osexp","C:\Users\mmcel\OneDrive\GRAD SCHOOL\fall 2021\Advanced Quant","no","mono","no","18","no","white","no","yes","768","psycho","19","11","C:/Users/mmcel/OneDrive/GRAD SCHOOL/fall 2021/Advanced Quant/sternberg/MM-subject-4.csv","psycho","4 6 2 5 1","Lentiform Loewenfeld","3.3.9","5","y","0","left","left","right","left","NA","689.667900035","7996.19719997","8955.31379996","689.667900035","NA","NA","NA","2","legacy","5","1024","2","48000","-16","experiment","4","even","1","225166.3209","226248.6614","113605.4285","17669.9112","226252.2383","NA","142351.0454","18305.2969","104649.4978","228458.2571","230461.7866","231152.252","227255.4131","26302.6336","230461.616","NA","NA","Sternberg Task","30","17315.5484","32","yes","1024"
"93.9393939394","93.9393939394","538.8065","538.8065","black","experiment","psycho","psycho","psycho","0","uniform","1","undefined","1","left","32","32","0","0","32","NA","32","0","0","32","32","32","32","0","32","0","NA","10/24/21 23:13:32","","yes","SternbergTask.osexp","C:\Users\mmcel\OneDrive\GRAD SCHOOL\fall 2021\Advanced Quant","no","mono","no","18","no","white","no","yes","768","psycho","20","11","C:/Users/mmcel/OneDrive/GRAD SCHOOL/fall 2021/Advanced Quant/sternberg/MM-subject-4.csv","psycho","4 9 7 8 5 3","Lentiform Loewenfeld","3.3.9","4","y","0","left","left","right","left","NA","465.066100005","7996.19719997","8955.31379996","465.066100005","NA","NA","NA","2","legacy","6","1024","2","48000","-16","experiment","4","even","8","231207.986","232295.5841","113605.4285","17669.9112","232299.2142","NA","142351.0454","18305.2969","104649.4978","234505.8307","236508.8007","236974.609","233302.3287","26302.6336","236508.644","NA","NA","Sternberg Task","31","17780.6145","33","yes","1024"
"91.1764705882","91.1764705882","538.650511764","538.650511764","black","experiment","psycho","psycho","psycho","0","uniform","0","undefined","0","left","33","33","0","0","33","NA","33","0","0","33","33","33","33","0","33","0","NA","10/24/21 23:13:32","","yes","SternbergTask.osexp","C:\Users\mmcel\OneDrive\GRAD SCHOOL\fall 2021\Advanced Quant","no","mono","no","18","no","white","no","yes","768","psycho","21","11","C:/Users/mmcel/OneDrive/GRAD SCHOOL/fall 2021/Advanced Quant/sternberg/MM-subject-4.csv","psycho","6 7 9 3 1 2","Lentiform Loewenfeld","3.3.9","1","y","0","right","left","right","right","NA","533.502899983","7996.19719997","8955.31379996","533.502899983","NA","NA","NA","2","legacy","6","1024","2","48000","-16","experiment","4","even","6","237015.7523","238097.1908","113605.4285","17669.9112","238100.5476","NA","142351.0454","18305.2969","104649.4978","240307.7702","242310.6772","242844.9823","239104.2462","26302.6336","242310.5183","NA","NA","Sternberg Task","31","18314.1174","34","yes","1024"
"91.4285714286","91.4285714286","533.425691428","533.425691428","black","experiment","psycho","psycho","psycho","0","uniform","1","undefined","1","left","34","34","0","0","34","NA","34","0","0","34","34","34","34","0","34","0","NA","10/24/21 23:13:32","","yes","SternbergTask.osexp","C:\Users\mmcel\OneDrive\GRAD SCHOOL\fall 2021\Advanced Quant","no","mono","no","18","no","white","no","yes","768","psycho","22","11","C:/Users/mmcel/OneDrive/GRAD SCHOOL/fall 2021/Advanced Quant/sternberg/MM-subject-4.csv","psycho","7","Lentiform Loewenfeld","3.3.9","1","y","0","left","left","right","left","NA","355.781799997","7996.19719997","8955.31379996","355.781799997","NA","NA","NA","2","legacy","1","1024","2","48000","-16","experiment","4","even","7","237015.7523","243987.6496","113605.4285","17669.9112","243990.9829","NA","242908.0629","18305.2969","104649.4978","246198.0909","248201.7092","248558.2397","244994.1768","26302.6336","248201.5232","NA","NA","Sternberg Task","32","18669.8992","35","yes","1024"
"91.6666666667","91.6666666667","534.615266666","534.615266666","black","experiment","psycho","psycho","psycho","0","uniform","1","undefined","1","right","35","35","0","0","35","NA","35","0","0","35","35","35","35","0","35","0","NA","10/24/21 23:13:32","","yes","SternbergTask.osexp","C:\Users\mmcel\OneDrive\GRAD SCHOOL\fall 2021\Advanced Quant","no","mono","no","18","no","white","no","yes","768","psycho","23","11","C:/Users/mmcel/OneDrive/GRAD SCHOOL/fall 2021/Advanced Quant/sternberg/MM-subject-4.csv","psycho","7 4 2 8 1 9","Lentiform Loewenfeld","3.3.9","0","n","0","right","left","right","right","NA","576.250399987","7996.19719997","8955.31379996","576.250399987","NA","NA","NA","2","legacy","6","1024","2","48000","-16","experiment","4","even","5","248648.0351","249726.3038","113605.4285","17669.9112","249729.7709","NA","242908.0629","18305.2969","104649.4978","251936.3517","253939.6339","254516.6302","250733.3776","26302.6336","253939.47","NA","NA","Sternberg Task","33","19246.1496","36","yes","1024"
"91.8918918919","91.8918918919","534.151832432","534.151832432","black","experiment","psycho","psycho","psycho","0","uniform","1","undefined","1","right","36","36","0","0","36","NA","36","0","0","36","36","36","36","0","36","0","NA","10/24/21 23:13:32","","yes","SternbergTask.osexp","C:\Users\mmcel\OneDrive\GRAD SCHOOL\fall 2021\Advanced Quant","no","mono","no","18","no","white","no","yes","768","psycho","24","11","C:/Users/mmcel/OneDrive/GRAD SCHOOL/fall 2021/Advanced Quant/sternberg/MM-subject-4.csv","psycho","1 7 8 3 9","Lentiform Loewenfeld","3.3.9","0","n","0","right","left","right","right","NA","517.468200007","7996.19719997","8955.31379996","517.468200007","NA","NA","NA","2","legacy","5","1024","2","48000","-16","experiment","4","even","2","254545.0816","255625.7638","113605.4285","17669.9112","255629.1929","NA","242908.0629","18305.2969","104649.4978","257835.4252","259839.0409","260357.2618","256632.3752","26302.6336","259838.874","NA","NA","Sternberg Task","34","19763.6178","37","yes","1024"
"89.4736842105","89.4736842105","538.268739472","538.268739472","black","experiment","psycho","psycho","psycho","0","uniform","0","undefined","0","left","37","37","0","0","37","NA","37","0","0","37","37","37","37","0","37","0","NA","10/24/21 23:13:32","","yes","SternbergTask.osexp","C:\Users\mmcel\OneDrive\GRAD SCHOOL\fall 2021\Advanced Quant","no","mono","no","18","no","white","no","yes","768","psycho","25","11","C:/Users/mmcel/OneDrive/GRAD SCHOOL/fall 2021/Advanced Quant/sternberg/MM-subject-4.csv","psycho","4 7 6 8 2 3","Lentiform Loewenfeld","3.3.9","6","y","0","right","left","right","right","NA","690.594299987","7996.19719997","8955.31379996","690.594299987","NA","NA","NA","2","legacy","6","1024","2","48000","-16","experiment","4","even","3","260390.1506","261469.7791","113605.4285","17669.9112","261473.362","NA","242908.0629","18305.2969","104649.4978","263679.6879","265683.3011","266374.8126","262477.245","26302.6336","265683.1213","NA","NA","Sternberg Task","34","20454.2121","38","yes","1024"
"89.7435897436","89.7435897436","538.436825639","538.436825639","black","experiment","psycho","psycho","psycho","0","uniform","1","undefined","1","right","38","38","0","0","38","NA","38","0","0","38","38","38","38","0","38","0","NA","10/24/21 23:13:32","","yes","SternbergTask.osexp","C:\Users\mmcel\OneDrive\GRAD SCHOOL\fall 2021\Advanced Quant","no","mono","no","18","no","white","no","yes","768","psycho","26","11","C:/Users/mmcel/OneDrive/GRAD SCHOOL/fall 2021/Advanced Quant/sternberg/MM-subject-4.csv","psycho","1 3 2 6 9","Lentiform Loewenfeld","3.3.9","0","n","0","right","left","right","right","NA","544.824099983","7996.19719997","8955.31379996","544.824099983","NA","NA","NA","2","legacy","5","1024","2","48000","-16","experiment","4","even","5","260390.1506","267469.5125","113605.4285","17669.9112","267472.9647","NA","266390.0004","18305.2969","104649.4978","269678.2045","271681.0601","272226.9949","268475.8052","26302.6336","271680.8846","NA","NA","Sternberg Task","35","20999.0361999","39","yes","1024"
"90","90","535.543457499","535.543457499","black","experiment","psycho","psycho","psycho","0","uniform","1","undefined","1","right","39","39","0","0","39","NA","39","0","0","39","39","39","39","0","39","0","NA","10/24/21 23:13:32","","yes","SternbergTask.osexp","C:\Users\mmcel\OneDrive\GRAD SCHOOL\fall 2021\Advanced Quant","no","mono","no","18","no","white","no","yes","768","psycho","27","11","C:/Users/mmcel/OneDrive/GRAD SCHOOL/fall 2021/Advanced Quant/sternberg/MM-subject-4.csv","psycho","1","Lentiform Loewenfeld","3.3.9","0","n","0","right","left","right","right","NA","422.702100012","7996.19719997","8955.31379996","422.702100012","NA","NA","NA","2","legacy","1","1024","2","48000","-16","experiment","4","even","7","272261.7985","273342.4592","113605.4285","17669.9112","273345.9443","NA","266390.0004","18305.2969","104649.4978","275552.9014","277556.5321","277980.0287","274349.5491","26302.6336","277556.3349","NA","NA","Sternberg Task","36","21421.7382999","40","yes","1024"
"90.243902439","90.243902439","533.745641462","533.745641462","black","experiment","psycho","psycho","psycho","0","uniform","1","undefined","1","left","40","40","0","0","40","NA","40","0","0","40","40","40","40","0","40","0","NA","10/24/21 23:13:32","","yes","SternbergTask.osexp","C:\Users\mmcel\OneDrive\GRAD SCHOOL\fall 2021\Advanced Quant","no","mono","no","18","no","white","no","yes","768","psycho","28","11","C:/Users/mmcel/OneDrive/GRAD SCHOOL/fall 2021/Advanced Quant/sternberg/MM-subject-4.csv","psycho","6 2","Lentiform Loewenfeld","3.3.9","1","y","0","left","left","right","left","NA","461.833000008","7996.19719997","8955.31379996","461.833000008","NA","NA","NA","2","legacy","2","1024","2","48000","-16","experiment","4","even","6","278013.3474","279092.4757","113605.4285","17669.9112","279095.7834","NA","266390.0004","18305.2969","104649.4978","281301.6828","283304.7123","283767.3951","280098.3112","26302.6336","283304.5496","NA","NA","Sternberg Task","37","21883.5713","41","yes","1024"
"90.4761904762","90.4761904762","531.666649999","531.666649999","black","experiment","psycho","psycho","psycho","0","uniform","1","undefined","1","right","41","41","0","0","41","NA","41","0","0","41","41","41","41","0","41","0","NA","10/24/21 23:13:32","","yes","SternbergTask.osexp","C:\Users\mmcel\OneDrive\GRAD SCHOOL\fall 2021\Advanced Quant","no","mono","no","18","no","white","no","yes","768","psycho","29","11","C:/Users/mmcel/OneDrive/GRAD SCHOOL/fall 2021/Advanced Quant/sternberg/MM-subject-4.csv","psycho","5","Lentiform Loewenfeld","3.3.9","0","n","0","right","left","right","right","NA","446.427999996","7996.19719997","8955.31379996","446.427999996","NA","NA","NA","2","legacy","1","1024","2","48000","-16","experiment","4","even","8","283802.2003","284883.026","113605.4285","17669.9112","284886.7275","NA","266390.0004","18305.2969","104649.4978","287092.9048","289096.3841","289543.5616","285889.7811","26302.6336","289096.1883","NA","NA","Sternberg Task","38","22329.9993","42","yes","1024"
"90.6976744186","90.6976744186","534.735376742","534.735376742","black","experiment","psycho","psycho","psycho","0","uniform","1","undefined","1","right","42","42","0","0","42","NA","42","0","0","42","42","42","42","0","42","0","NA","10/24/21 23:13:32","","yes","SternbergTask.osexp","C:\Users\mmcel\OneDrive\GRAD SCHOOL\fall 2021\Advanced Quant","no","mono","no","18","no","white","no","yes","768","psycho","30","11","C:/Users/mmcel/OneDrive/GRAD SCHOOL/fall 2021/Advanced Quant/sternberg/MM-subject-4.csv","psycho","9 8 2 7 4","Lentiform Loewenfeld","3.3.9","0","n","0","right","left","right","right","NA","663.621899963","7996.19719997","8955.31379996","663.621899963","NA","NA","NA","2","legacy","5","1024","2","48000","-16","experiment","4","even","5","289580.2551","290662.2767","113605.4285","17669.9112","290665.6215","NA","266390.0004","18305.2969","104649.4978","292871.7149","294874.408","295538.879","291668.7399","26302.6336","294874.2345","NA","NA","Sternberg Task","39","22993.6211999","43","yes","1024"
"90.9090909091","90.9090909091","533.984138634","533.984138634","black","experiment","psycho","psycho","psycho","0","uniform","1","undefined","1","left","43","43","0","0","43","NA","43","0","0","43","43","43","43","0","43","0","NA","10/24/21 23:13:32","","yes","SternbergTask.osexp","C:\Users\mmcel\OneDrive\GRAD SCHOOL\fall 2021\Advanced Quant","no","mono","no","18","no","white","no","yes","768","psycho","31","11","C:/Users/mmcel/OneDrive/GRAD SCHOOL/fall 2021/Advanced Quant/sternberg/MM-subject-4.csv","psycho","5 2 6","Lentiform Loewenfeld","3.3.9","2","y","0","left","left","right","left","NA","501.680899994","7996.19719997","8955.31379996","501.680899994","NA","NA","NA","2","legacy","3","1024","2","48000","-16","experiment","4","even","2","295558.024","296639.7897","113605.4285","17669.9112","296643.223","NA","266390.0004","18305.2969","104649.4978","298850.5201","300854.2275","301356.7015","297647.423","26302.6336","300854.0588","NA","NA","Sternberg Task","40","23495.3020999","44","yes","1024"
"91.1111111111","91.1111111111","537.683666664","537.683666664","black","experiment","psycho","psycho","psycho","0","uniform","1","undefined","1","right","44","44","0","0","44","NA","44","0","0","44","44","44","44","0","44","0","NA","10/24/21 23:13:32","","yes","SternbergTask.osexp","C:\Users\mmcel\OneDrive\GRAD SCHOOL\fall 2021\Advanced Quant","no","mono","no","18","no","white","no","yes","768","psycho","32","11","C:/Users/mmcel/OneDrive/GRAD SCHOOL/fall 2021/Advanced Quant/sternberg/MM-subject-4.csv","psycho","6 9 4 5 3 2","Lentiform Loewenfeld","3.3.9","0","n","0","right","left","right","right","NA","700.462899986","7996.19719997","8955.31379996","700.462899986","NA","NA","NA","2","legacy","6","1024","2","48000","-16","experiment","4","even","8","301380.412","302458.9786","113605.4285","17669.9112","302462.4696","NA","266390.0004","18305.2969","104649.4978","304669.0489","306671.9701","307373.4234","303465.7447","26302.6336","306671.8081","NA","NA","Sternberg Task","41","24195.7649999","45","yes","1024"
"91.3043478261","91.3043478261","534.05284565","534.05284565","black","experiment","psycho","psycho","psycho","0","uniform","1","undefined","1","left","45","45","0","0","45","NA","45","0","0","45","45","45","45","0","45","0","NA","10/24/21 23:13:32","","yes","SternbergTask.osexp","C:\Users\mmcel\OneDrive\GRAD SCHOOL\fall 2021\Advanced Quant","no","mono","no","18","no","white","no","yes","768","psycho","33","11","C:/Users/mmcel/OneDrive/GRAD SCHOOL/fall 2021/Advanced Quant/sternberg/MM-subject-4.csv","psycho","9 6 2 4 1","Lentiform Loewenfeld","3.3.9","4","y","0","left","left","right","left","NA","370.665900002","7996.19719997","8955.31379996","370.665900002","NA","NA","NA","2","legacy","5","1024","2","48000","-16","experiment","4","even","4","307392.594","308473.8897","113605.4285","17669.9112","308477.2078","NA","266390.0004","18305.2969","104649.4978","310683.8807","312688.2025","313059.7766","309480.2786","26302.6336","312687.9432","NA","NA","Sternberg Task","42","24566.4308999","46","yes","1024"
"91.4893617021","91.4893617021","536.068195743","536.068195743","black","experiment","psycho","psycho","psycho","0","uniform","1","undefined","1","left","46","46","0","0","46","NA","46","0","0","46","46","46","46","0","46","0","NA","10/24/21 23:13:32","","yes","SternbergTask.osexp","C:\Users\mmcel\OneDrive\GRAD SCHOOL\fall 2021\Advanced Quant","no","mono","no","18","no","white","no","yes","768","psycho","34","11","C:/Users/mmcel/OneDrive/GRAD SCHOOL/fall 2021/Advanced Quant/sternberg/MM-subject-4.csv","psycho","9 8 4","Lentiform Loewenfeld","3.3.9","1","y","0","left","left","right","left","NA","628.774300043","7996.19719997","8955.31379996","628.774300043","NA","NA","NA","2","legacy","3","1024","2","48000","-16","experiment","4","even","9","313129.0083","314207.0688","113605.4285","17669.9112","314210.5194","NA","266390.0004","18305.2969","104649.4978","316417.4686","318421.0269","319050.619","315214.3582","26302.6336","318420.8324","NA","NA","Sternberg Task","43","25195.2051999","47","yes","1024"
"91.6666666667","91.6666666667","534.988610415","534.988610415","black","experiment","psycho","psycho","psycho","0","uniform","1","undefined","1","left","47","47","0","0","47","NA","47","0","0","47","47","47","47","0","47","0","NA","10/24/21 23:13:32","","yes","SternbergTask.osexp","C:\Users\mmcel\OneDrive\GRAD SCHOOL\fall 2021\Advanced Quant","no","mono","no","18","no","white","no","yes","768","psycho","35","11","C:/Users/mmcel/OneDrive/GRAD SCHOOL/fall 2021/Advanced Quant/sternberg/MM-subject-4.csv","psycho","3 2 1 4 7","Lentiform Loewenfeld","3.3.9","2","y","0","left","left","right","left","NA","484.248099965","7996.19719997","8955.31379996","484.248099965","NA","NA","NA","2","legacy","5","1024","2","48000","-16","experiment","4","even","2","319070.365","320151.71","113605.4285","17669.9112","320155.1539","NA","266390.0004","18305.2969","104649.4978","322361.8436","324365.2805","324850.3301","321158.2673","26302.6336","324365.1016","NA","NA","Sternberg Task","44","25679.4532999","48","yes","1024"
"91.8367346939","91.8367346939","533.223271427","533.223271427","black","experiment","psycho","psycho","psycho","0","uniform","1","undefined","1","right","48","48","0","0","48","NA","48","0","0","48","48","48","48","0","48","0","NA","10/24/21 23:13:32","","yes","SternbergTask.osexp","C:\Users\mmcel\OneDrive\GRAD SCHOOL\fall 2021\Advanced Quant","no","mono","no","18","no","white","no","yes","768","psycho","36","11","C:/Users/mmcel/OneDrive/GRAD SCHOOL/fall 2021/Advanced Quant/sternberg/MM-subject-4.csv","psycho","7 1","Lentiform Loewenfeld","3.3.9","0","n","0","right","left","right","right","NA","448.487000016","7996.19719997","8955.31379996","448.487000016","NA","NA","NA","2","legacy","2","1024","2","48000","-16","experiment","4","even","8","324917.988","325998.8323","113605.4285","17669.9112","326002.1839","NA","266390.0004","18305.2969","104649.4978","328209.4494","330213.1105","330662.58","327005.7882","26302.6336","330212.905","NA","NA","Sternberg Task","45","26127.9402999","49","yes","1024"
"92","92","529.430711998","529.430711998","black","experiment","psycho","psycho","psycho","0","uniform","1","undefined","1","left","49","49","0","0","49","NA","49","0","0","49","49","49","49","0","49","0","NA","10/24/21 23:13:32","","yes","SternbergTask.osexp","C:\Users\mmcel\OneDrive\GRAD SCHOOL\fall 2021\Advanced Quant","no","mono","no","18","no","white","no","yes","768","psycho","37","11","C:/Users/mmcel/OneDrive/GRAD SCHOOL/fall 2021/Advanced Quant/sternberg/MM-subject-4.csv","psycho","4 6 5 8","Lentiform Loewenfeld","3.3.9","1","y","0","left","left","right","left","NA","343.595299986","7996.19719997","8955.31379996","343.595299986","NA","NA","NA","2","legacy","4","1024","2","48000","-16","experiment","4","even","4","330693.3763","331772.8132","113605.4285","17669.9112","331776.3781","NA","266390.0004","18305.2969","104649.4978","333982.2826","335985.8819","336330.3209","332779.1689","26302.6336","335985.7281","NA","NA","Sternberg Task","46","26471.5355999","50","yes","1024"
"92.1568627451","92.1568627451","528.682088234","528.682088234","black","experiment","psycho","psycho","psycho","0","uniform","1","undefined","1","left","50","50","0","0","50","NA","50","0","0","50","50","50","50","0","50","0","NA","10/24/21 23:13:32","","yes","SternbergTask.osexp","C:\Users\mmcel\OneDrive\GRAD SCHOOL\fall 2021\Advanced Quant","no","mono","no","18","no","white","no","yes","768","psycho","38","11","C:/Users/mmcel/OneDrive/GRAD SCHOOL/fall 2021/Advanced Quant/sternberg/MM-subject-4.csv","psycho","3 5 4 7","Lentiform Loewenfeld","3.3.9","1","y","0","left","left","right","left","NA","491.250900028","7996.19719997","8955.31379996","491.250900028","NA","NA","NA","2","legacy","4","1024","2","48000","-16","experiment","4","even","3","336349.3857","337427.9508","113605.4285","17669.9112","337431.4262","NA","266390.0004","18305.2969","104649.4978","339638.604","341642.0096","342134.1534","338435.0205","26302.6336","341641.8223","NA","NA","Sternberg Task","47","26962.7864999","51","yes","1024"
"92.3076923077","92.3076923077","527.716734613","527.716734613","black","experiment","psycho","psycho","psycho","0","uniform","1","undefined","1","right","51","51","0","0","51","NA","51","0","0","51","51","51","51","0","51","0","NA","10/24/21 23:13:32","","yes","SternbergTask.osexp","C:\Users\mmcel\OneDrive\GRAD SCHOOL\fall 2021\Advanced Quant","no","mono","no","18","no","white","no","yes","768","psycho","39","11","C:/Users/mmcel/OneDrive/GRAD SCHOOL/fall 2021/Advanced Quant/sternberg/MM-subject-4.csv","psycho","9 7 4 5 8","Lentiform Loewenfeld","3.3.9","0","n","0","right","left","right","right","NA","478.483699961","7996.19719997","8955.31379996","478.483699961","NA","NA","NA","2","legacy","5","1024","2","48000","-16","experiment","4","even","6","342161.059","343241.5933","113605.4285","17669.9112","343245.0502","NA","266390.0004","18305.2969","104649.4978","345452.309","347456.6074","347936.4371","344249.5204","26302.6336","347456.4519","NA","NA","Sternberg Task","48","27441.2701999","52","yes","1024"
"92.4528301887","92.4528301887","524.902609432","524.902609432","black","experiment","psycho","psycho","psycho","0","uniform","1","undefined","1","left","52","52","0","0","52","NA","52","0","0","52","52","52","52","0","52","0","NA","10/24/21 23:13:32","","yes","SternbergTask.osexp","C:\Users\mmcel\OneDrive\GRAD SCHOOL\fall 2021\Advanced Quant","no","mono","no","18","no","white","no","yes","768","psycho","40","11","C:/Users/mmcel/OneDrive/GRAD SCHOOL/fall 2021/Advanced Quant/sternberg/MM-subject-4.csv","psycho","4 3 2 5 8","Lentiform Loewenfeld","3.3.9","2","y","0","left","left","right","left","NA","378.568099986","7996.19719997","8955.31379996","378.568099986","NA","NA","NA","2","legacy","5","1024","2","48000","-16","experiment","4","even","3","347972.5841","349061.3169","113605.4285","17669.9112","349064.6884","NA","266390.0004","18305.2969","104649.4978","351270.8421","353274.1803","353653.57","350067.5232","26302.6336","353274.0028","NA","NA","Sternberg Task","49","27819.8382999","53","yes","1024"
"92.5925925926","92.5925925926","526.738648145","526.738648145","black","experiment","psycho","psycho","psycho","0","uniform","1","undefined","1","right","53","53","0","0","53","NA","53","0","0","53","53","53","53","0","53","0","NA","10/24/21 23:13:32","","yes","SternbergTask.osexp","C:\Users\mmcel\OneDrive\GRAD SCHOOL\fall 2021\Advanced Quant","no","mono","no","18","no","white","no","yes","768","psycho","41","11","C:/Users/mmcel/OneDrive/GRAD SCHOOL/fall 2021/Advanced Quant/sternberg/MM-subject-4.csv","psycho","6 7 5 9","Lentiform Loewenfeld","3.3.9","0","n","0","right","left","right","right","NA","624.048699974","7996.19719997","8955.31379996","624.048699974","NA","NA","NA","2","legacy","4","1024","2","48000","-16","experiment","4","even","2","353684.1643","354762.111","113605.4285","17669.9112","354765.5203","NA","266390.0004","18305.2969","104649.4978","356970.9729","358974.8842","359599.9305","355768.2393","26302.6336","358974.7237","NA","NA","Sternberg Task","50","28443.8869999","54","yes","1024"
"92.7272727273","92.7272727273","524.48171818","524.48171818","black","experiment","psycho","psycho","psycho","0","uniform","1","undefined","1","right","54","54","0","0","54","NA","54","0","0","54","54","54","54","0","54","0","NA","10/24/21 23:13:32","","yes","SternbergTask.osexp","C:\Users\mmcel\OneDrive\GRAD SCHOOL\fall 2021\Advanced Quant","no","mono","no","18","no","white","no","yes","768","psycho","42","11","C:/Users/mmcel/OneDrive/GRAD SCHOOL/fall 2021/Advanced Quant/sternberg/MM-subject-4.csv","psycho","5 2","Lentiform Loewenfeld","3.3.9","0","n","0","right","left","right","right","NA","402.607500029","7996.19719997","8955.31379996","402.607500029","NA","NA","NA","2","legacy","2","1024","2","48000","-16","experiment","4","even","7","359627.9333","360705.9413","113605.4285","17669.9112","360709.3489","NA","266390.0004","18305.2969","104649.4978","362914.8805","364918.1845","365321.74","361712.3475","26302.6336","364917.9424","NA","NA","Sternberg Task","51","28846.4944999","55","yes","1024"
"92.8571428571","92.8571428571","530.135416069","530.135416069","black","experiment","psycho","psycho","psycho","0","uniform","1","undefined","1","left","55","55","0","0","55","NA","55","0","0","55","55","55","55","0","55","0","NA","10/24/21 23:13:32","","yes","SternbergTask.osexp","C:\Users\mmcel\OneDrive\GRAD SCHOOL\fall 2021\Advanced Quant","no","mono","no","18","no","white","no","yes","768","psycho","43","11","C:/Users/mmcel/OneDrive/GRAD SCHOOL/fall 2021/Advanced Quant/sternberg/MM-subject-4.csv","psycho","9 3 1 2 5","Lentiform Loewenfeld","3.3.9","4","y","0","left","left","right","left","NA","841.088799993","7996.19719997","8955.31379996","841.088799993","NA","NA","NA","2","legacy","5","1024","2","48000","-16","experiment","4","even","2","365386.3225","366472.2753","113605.4285","17669.9112","366475.7001","NA","266390.0004","18305.2969","104649.4978","368682.3029","370685.8817","371528.5008","367479.3361","26302.6336","370685.6764","NA","NA","Sternberg Task","52","29687.5832999","56","yes","1024"
"92.9824561404","92.9824561404","529.452577191","529.452577191","black","experiment","psycho","psycho","psycho","0","uniform","1","undefined","1","right","56","56","0","0","56","NA","56","0","0","56","56","56","56","0","56","0","NA","10/24/21 23:13:32","","yes","SternbergTask.osexp","C:\Users\mmcel\OneDrive\GRAD SCHOOL\fall 2021\Advanced Quant","no","mono","no","18","no","white","no","yes","768","psycho","44","11","C:/Users/mmcel/OneDrive/GRAD SCHOOL/fall 2021/Advanced Quant/sternberg/MM-subject-4.csv","psycho","7 3 2 8","Lentiform Loewenfeld","3.3.9","0","n","0","right","left","right","right","NA","491.213600035","7996.19719997","8955.31379996","491.213600035","NA","NA","NA","2","legacy","4","1024","2","48000","-16","experiment","4","even","4","371561.9482","372651.894","113605.4285","17669.9112","372655.4328","NA","266390.0004","18305.2969","104649.4978","374861.7899","376865.4679","377357.5232","373659.2771","26302.6336","376865.2947","NA","NA","Sternberg Task","53","30178.7968999","57","yes","1024"
"91.3793103448","91.3793103448","533.018877585","533.018877585","black","experiment","psycho","psycho","psycho","0","uniform","0","undefined","0","right","57","57","0","0","57","NA","57","0","0","57","57","57","57","0","57","0","NA","10/24/21 23:13:32","","yes","SternbergTask.osexp","C:\Users\mmcel\OneDrive\GRAD SCHOOL\fall 2021\Advanced Quant","no","mono","no","18","no","white","no","yes","768","psycho","45","11","C:/Users/mmcel/OneDrive/GRAD SCHOOL/fall 2021/Advanced Quant/sternberg/MM-subject-4.csv","psycho","1 6 4","Lentiform Loewenfeld","3.3.9","0","n","0","left","left","right","left","NA","736.298000033","7996.19719997","8955.31379996","736.298000033","NA","NA","NA","2","legacy","3","1024","2","48000","-16","experiment","4","even","7","377384.5026","378463.4001","113605.4285","17669.9112","378466.8023","NA","266390.0004","18305.2969","104649.4978","380672.8814","382676.3781","383413.5388","379470.0846","26302.6336","382676.1868","NA","NA","Sternberg Task","53","30915.0948999","58","yes","1024"
"91.5254237288","91.5254237288","532.117269491","532.117269491","black","experiment","psycho","psycho","psycho","0","uniform","1","undefined","1","right","58","58","0","0","58","NA","58","0","0","58","58","58","58","0","58","0","NA","10/24/21 23:13:32","","yes","SternbergTask.osexp","C:\Users\mmcel\OneDrive\GRAD SCHOOL\fall 2021\Advanced Quant","no","mono","no","18","no","white","no","yes","768","psycho","46","11","C:/Users/mmcel/OneDrive/GRAD SCHOOL/fall 2021/Advanced Quant/sternberg/MM-subject-4.csv","psycho","5 7 3","Lentiform Loewenfeld","3.3.9","0","n","0","right","left","right","right","NA","479.824000038","7996.19719997","8955.31379996","479.824000038","NA","NA","NA","2","legacy","3","1024","2","48000","-16","experiment","4","even","9","377384.5026","384518.837","113605.4285","17669.9112","384522.3671","NA","383440.7241","18305.2969","104649.4978","386729.796","388733.9555","389214.8033","385526.0603","26302.6336","388733.7226","NA","NA","Sternberg Task","54","31394.9189","59","yes","1024"
"91.6666666667","91.6666666667","531.620833333","531.620833333","black","experiment","psycho","psycho","psycho","0","uniform","1","undefined","1","right","59","59","0","0","59","NA","59","0","0","59","59","59","59","0","59","0","NA","10/24/21 23:13:32","","yes","SternbergTask.osexp","C:\Users\mmcel\OneDrive\GRAD SCHOOL\fall 2021\Advanced Quant","no","mono","no","18","no","white","no","yes","768","psycho","47","11","C:/Users/mmcel/OneDrive/GRAD SCHOOL/fall 2021/Advanced Quant/sternberg/MM-subject-4.csv","psycho","3 4 9 6 7 8","Lentiform Loewenfeld","3.3.9","0","n","0","right","left","right","right","NA","502.331099997","7996.19719997","8955.31379996","502.331099997","NA","NA","NA","2","legacy","6","1024","2","48000","-16","experiment","4","even","2","389276.8237","390364.0837","113605.4285","17669.9112","390367.5997","NA","383440.7241","18305.2969","104649.4978","392573.2161","394577.3344","395080.5972","391370.5168","26302.6336","394577.1709","NA","NA","Sternberg Task","55","31897.25","60","yes","1024"
"91.8032786885","91.8032786885","537.208614754","537.208614754","black","experiment","psycho","psycho","psycho","0","uniform","1","undefined","1","left","60","60","0","0","60","NA","60","0","0","60","60","60","60","0","60","0","NA","10/24/21 23:13:32","","yes","SternbergTask.osexp","C:\Users\mmcel\OneDrive\GRAD SCHOOL\fall 2021\Advanced Quant","no","mono","no","18","no","white","no","yes","768","psycho","48","11","C:/Users/mmcel/OneDrive/GRAD SCHOOL/fall 2021/Advanced Quant/sternberg/MM-subject-4.csv","psycho","5 7 8 2 3 8","Lentiform Loewenfeld","3.3.9","5","y","0","left","left","right","left","NA","872.475499986","7996.19719997","8955.31379996","872.475499986","NA","NA","NA","2","legacy","6","1024","2","48000","-16","experiment","4","even","3","395107.7416","396187.1786","113605.4285","17669.9112","396190.6145","NA","383440.7241","18305.2969","104649.4978","398398.5203","400401.9168","401275.3782","397194.9694","26302.6336","400401.7436","NA","NA","Sternberg Task","56","32769.7255","61","yes","1024"
"91.935483871","91.935483871","537.172340322","537.172340322","black","experiment","psycho","psycho","psycho","0","uniform","1","undefined","1","right","61","61","0","0","61","NA","61","0","0","61","61","61","61","0","61","0","NA","10/24/21 23:13:32","","yes","SternbergTask.osexp","C:\Users\mmcel\OneDrive\GRAD SCHOOL\fall 2021\Advanced Quant","no","mono","no","18","no","white","no","yes","768","psycho","49","11","C:/Users/mmcel/OneDrive/GRAD SCHOOL/fall 2021/Advanced Quant/sternberg/MM-subject-4.csv","psycho","2 3 8 5 6 7","Lentiform Loewenfeld","3.3.9","0","n","0","right","left","right","right","NA","534.959600016","7996.19719997","8955.31379996","534.959600016","NA","NA","NA","2","legacy","6","1024","2","48000","-16","experiment","4","even","1","401333.8837","402418.1085","113605.4285","17669.9112","402421.6034","NA","383440.7241","18305.2969","104649.4978","404628.2341","406631.7685","407167.8437","403424.8902","26302.6336","406631.6018","NA","NA","Sternberg Task","57","33304.6851","62","yes","1024"
"90.4761904762","90.4761904762","541.074612698","541.074612698","black","experiment","psycho","psycho","psycho","0","uniform","0","undefined","0","right","62","62","0","0","62","NA","62","0","0","62","62","62","62","0","62","0","NA","10/24/21 23:13:32","","yes","SternbergTask.osexp","C:\Users\mmcel\OneDrive\GRAD SCHOOL\fall 2021\Advanced Quant","no","mono","no","18","no","white","no","yes","768","psycho","50","11","C:/Users/mmcel/OneDrive/GRAD SCHOOL/fall 2021/Advanced Quant/sternberg/MM-subject-4.csv","psycho","7 8 6 1","Lentiform Loewenfeld","3.3.9","0","n","0","left","left","right","left","NA","783.015499997","7996.19719997","8955.31379996","783.015499997","NA","NA","NA","2","legacy","4","1024","2","48000","-16","experiment","4","even","3","407233.2628","408315.1994","113605.4285","17669.9112","408318.6369","NA","383440.7241","18305.2969","104649.4978","410525.5747","412529.22","413313.2638","409322.0392","26302.6336","412529.038","NA","NA","Sternberg Task","57","34087.7006","63","yes","1024"
"90.625","90.625","541.061848437","541.061848437","black","experiment","psycho","psycho","psycho","0","uniform","1","undefined","1","left","63","63","0","0","63","NA","63","0","0","63","63","63","63","0","63","0","NA","10/24/21 23:13:32","","yes","SternbergTask.osexp","C:\Users\mmcel\OneDrive\GRAD SCHOOL\fall 2021\Advanced Quant","no","mono","no","18","no","white","no","yes","768","psycho","51","11","C:/Users/mmcel/OneDrive/GRAD SCHOOL/fall 2021/Advanced Quant/sternberg/MM-subject-4.csv","psycho","7 2 3","Lentiform Loewenfeld","3.3.9","3","y","0","left","left","right","left","NA","540.25770002","7996.19719997","8955.31379996","540.25770002","NA","NA","NA","2","legacy","3","1024","2","48000","-16","experiment","4","even","3","407233.2628","414420.9436","113605.4285","17669.9112","414424.5494","NA","413342.6112","18305.2969","104649.4978","416631.1831","418634.914","419176.2257","415427.807","26302.6336","418634.7405","NA","NA","Sternberg Task","58","34627.9583","64","yes","1024"
"90.7692307692","90.7692307692","540.330764615","540.330764615","black","experiment","psycho","psycho","psycho","0","uniform","1","undefined","1","right","64","64","0","0","64","NA","64","0","0","64","64","64","64","0","64","0","NA","10/24/21 23:13:32","","yes","SternbergTask.osexp","C:\Users\mmcel\OneDrive\GRAD SCHOOL\fall 2021\Advanced Quant","no","mono","no","18","no","white","no","yes","768","psycho","52","11","C:/Users/mmcel/OneDrive/GRAD SCHOOL/fall 2021/Advanced Quant/sternberg/MM-subject-4.csv","psycho","9","Lentiform Loewenfeld","3.3.9","0","n","0","right","left","right","right","NA","493.541400007","7996.19719997","8955.31379996","493.541400007","NA","NA","NA","2","legacy","1","1024","2","48000","-16","experiment","4","even","6","419268.2542","420348.2193","113605.4285","17669.9112","420351.6476","NA","413342.6112","18305.2969","104649.4978","422558.0128","424561.2845","425056.1071","421354.9718","26302.6336","424561.1023","NA","NA","Sternberg Task","59","35121.4997","65","yes","1024"
"90.9090909091","90.9090909091","538.637310606","538.637310606","black","experiment","psycho","psycho","psycho","0","uniform","1","undefined","1","right","65","65","0","0","65","NA","65","0","0","65","65","65","65","0","65","0","NA","10/24/21 23:13:32","","yes","SternbergTask.osexp","C:\Users\mmcel\OneDrive\GRAD SCHOOL\fall 2021\Advanced Quant","no","mono","no","18","no","white","no","yes","768","psycho","53","11","C:/Users/mmcel/OneDrive/GRAD SCHOOL/fall 2021/Advanced Quant/sternberg/MM-subject-4.csv","psycho","4 1","Lentiform Loewenfeld","3.3.9","0","n","0","right","left","right","right","NA","428.562799993","7996.19719997","8955.31379996","428.562799993","NA","NA","NA","2","legacy","2","1024","2","48000","-16","experiment","4","even","6","425122.8265","426205.3406","113605.4285","17669.9112","426208.8586","NA","413342.6112","18305.2969","104649.4978","428414.393","430418.453","430848.0328","427211.8798","26302.6336","430418.2985","NA","NA","Sternberg Task","60","35550.0625","66","yes","1024"
"91.0447761194","91.0447761194","538.731058209","538.731058209","black","experiment","psycho","psycho","psycho","0","uniform","1","undefined","1","left","66","66","0","0","66","NA","66","0","0","66","66","66","66","0","66","0","NA","10/24/21 23:13:32","","yes","SternbergTask.osexp","C:\Users\mmcel\OneDrive\GRAD SCHOOL\fall 2021\Advanced Quant","no","mono","no","18","no","white","no","yes","768","psycho","54","11","C:/Users/mmcel/OneDrive/GRAD SCHOOL/fall 2021/Advanced Quant/sternberg/MM-subject-4.csv","psycho","6 9 7 4 5 1","Lentiform Loewenfeld","3.3.9","2","y","0","left","left","right","left","NA","544.918400003","7996.19719997","8955.31379996","544.918400003","NA","NA","NA","2","legacy","6","1024","2","48000","-16","experiment","4","even","9","430912.289","431995.1645","113605.4285","17669.9112","431998.7406","NA","413342.6112","18305.2969","104649.4978","434205.3166","436209.1158","436755.1125","433002.4792","26302.6336","436208.9465","NA","NA","Sternberg Task","61","36094.9809","67","yes","1024"
"91.1764705882","91.1764705882","537.018280882","537.018280882","black","experiment","psycho","psycho","psycho","0","uniform","1","undefined","1","left","67","67","0","0","67","NA","67","0","0","67","67","67","67","0","67","0","NA","10/24/21 23:13:32","","yes","SternbergTask.osexp","C:\Users\mmcel\OneDrive\GRAD SCHOOL\fall 2021\Advanced Quant","no","mono","no","18","no","white","no","yes","768","psycho","55","11","C:/Users/mmcel/OneDrive/GRAD SCHOOL/fall 2021/Advanced Quant/sternberg/MM-subject-4.csv","psycho","9 1 6 7 8","Lentiform Loewenfeld","3.3.9","1","y","0","left","left","right","left","NA","422.26219998","7996.19719997","8955.31379996","422.26219998","NA","NA","NA","2","legacy","5","1024","2","48000","-16","experiment","4","even","9","436824.0808","437903.7154","113605.4285","17669.9112","437907.4857","NA","413342.6112","18305.2969","104649.4978","440113.3219","442116.6727","442539.9512","438910.7295","26302.6336","442116.5109","NA","NA","Sternberg Task","62","36517.2431","68","yes","1024"
"91.3043478261","91.3043478261","534.635463768","534.635463768","black","experiment","psycho","psycho","psycho","0","uniform","1","undefined","1","left","68","68","0","0","68","NA","68","0","0","68","68","68","68","0","68","0","NA","10/24/21 23:13:32","","yes","SternbergTask.osexp","C:\Users\mmcel\OneDrive\GRAD SCHOOL\fall 2021\Advanced Quant","no","mono","no","18","no","white","no","yes","768","psycho","56","11","C:/Users/mmcel/OneDrive/GRAD SCHOOL/fall 2021/Advanced Quant/sternberg/MM-subject-4.csv","psycho","3 4","Lentiform Loewenfeld","3.3.9","1","y","0","left","left","right","left","NA","372.603900032","7996.19719997","8955.31379996","372.603900032","NA","NA","NA","2","legacy","2","1024","2","48000","-16","experiment","4","even","3","442566.0899","443645.082","113605.4285","17669.9112","443648.6449","NA","413342.6112","18305.2969","104649.4978","445855.5826","447858.8697","448233.1808","444652.0718","26302.6336","447858.6991","NA","NA","Sternberg Task","63","36889.847","69","yes","1024"
"90","90","533.80113","533.80113","black","experiment","psycho","psycho","psycho","0","uniform","0","undefined","0","right","69","69","0","0","69","NA","69","0","0","69","69","69","69","0","69","0","NA","10/24/21 23:13:32","","yes","SternbergTask.osexp","C:\Users\mmcel\OneDrive\GRAD SCHOOL\fall 2021\Advanced Quant","no","mono","no","18","no","white","no","yes","768","psycho","57","11","C:/Users/mmcel/OneDrive/GRAD SCHOOL/fall 2021/Advanced Quant/sternberg/MM-subject-4.csv","psycho","5 3 2 6 9 8","Lentiform Loewenfeld","3.3.9","0","n","0","left","left","right","left","NA","476.232099987","7996.19719997","8955.31379996","476.232099987","NA","NA","NA","2","legacy","6","1024","2","48000","-16","experiment","4","even","4","448288.5523","449367.1487","113605.4285","17669.9112","449370.5627","NA","413342.6112","18305.2969","104649.4978","451576.7973","453579.954","454057.1379","450373.7512","26302.6336","453579.7491","NA","NA","Sternberg Task","63","37366.0791","70","yes","1024"
"90.1408450704","90.1408450704","532.855747887","532.855747887","black","experiment","psycho","psycho","psycho","0","uniform","1","undefined","1","left","70","70","0","0","70","NA","70","0","0","70","70","70","70","0","70","0","NA","10/24/21 23:13:32","","yes","SternbergTask.osexp","C:\Users\mmcel\OneDrive\GRAD SCHOOL\fall 2021\Advanced Quant","no","mono","no","18","no","white","no","yes","768","psycho","58","11","C:/Users/mmcel/OneDrive/GRAD SCHOOL/fall 2021/Advanced Quant/sternberg/MM-subject-4.csv","psycho","4 1 5","Lentiform Loewenfeld","3.3.9","2","y","0","left","left","right","left","NA","466.679000005","7996.19719997","8955.31379996","466.679000005","NA","NA","NA","2","legacy","3","1024","2","48000","-16","experiment","4","even","1","448288.5523","455190.4923","113605.4285","17669.9112","455193.8406","NA","454110.6167","18305.2969","104649.4978","457400.2034","459404.1875","459871.9588","456197.3151","26302.6336","459404.0145","NA","NA","Sternberg Task","64","37832.7581","71","yes","1024"
"90.2777777778","90.2777777778","533.441393056","533.441393056","black","experiment","psycho","psycho","psycho","0","uniform","1","undefined","1","left","71","71","0","0","71","NA","71","0","0","71","71","71","71","0","71","0","NA","10/24/21 23:13:32","","yes","SternbergTask.osexp","C:\Users\mmcel\OneDrive\GRAD SCHOOL\fall 2021\Advanced Quant","no","mono","no","18","no","white","no","yes","768","psycho","59","11","C:/Users/mmcel/OneDrive/GRAD SCHOOL/fall 2021/Advanced Quant/sternberg/MM-subject-4.csv","psycho","7 1 8 5 6 2","Lentiform Loewenfeld","3.3.9","2","y","0","left","left","right","left","NA","575.022200006","7996.19719997","8955.31379996","575.022200006","NA","NA","NA","2","legacy","6","1024","2","48000","-16","experiment","4","even","1","459959.8524","461039.4212","113605.4285","17669.9112","461042.7444","NA","454110.6167","18305.2969","104649.4978","463249.9966","465254.1899","465830.2265","462046.4703","26302.6336","465254.0052","NA","NA","Sternberg Task","65","38407.7803","72","yes","1024"
"90.4109589041","90.4109589041","533.733294521","533.733294521","black","experiment","psycho","psycho","psycho","0","uniform","1","undefined","1","right","72","72","0","0","72","NA","72","0","0","72","72","72","72","0","72","0","NA","10/24/21 23:13:32","","yes","SternbergTask.osexp","C:\Users\mmcel\OneDrive\GRAD SCHOOL\fall 2021\Advanced Quant","no","mono","no","18","no","white","no","yes","768","psycho","60","11","C:/Users/mmcel/OneDrive/GRAD SCHOOL/fall 2021/Advanced Quant/sternberg/MM-subject-4.csv","psycho","1 4 9 2 5","Lentiform Loewenfeld","3.3.9","0","n","0","right","left","right","right","NA","554.750200012","7996.19719997","8955.31379996","554.750200012","NA","NA","NA","2","legacy","5","1024","2","48000","-16","experiment","4","even","7","465866.6922","466945.2124","113605.4285","17669.9112","466948.7557","NA","454110.6167","18305.2969","104649.4978","469154.5897","471158.2942","471714.0153","467951.7993","26302.6336","471158.1405","NA","NA","Sternberg Task","66","38962.5305","73","yes","1024"
"90.5405405405","90.5405405405","534.93362973","534.93362973","black","experiment","psycho","psycho","psycho","0","uniform","1","undefined","1","right","73","73","0","0","73","NA","73","0","0","73","73","73","73","0","73","0","NA","10/24/21 23:13:32","","yes","SternbergTask.osexp","C:\Users\mmcel\OneDrive\GRAD SCHOOL\fall 2021\Advanced Quant","no","mono","no","18","no","white","no","yes","768","psycho","61","11","C:/Users/mmcel/OneDrive/GRAD SCHOOL/fall 2021/Advanced Quant/sternberg/MM-subject-4.csv","psycho","6 8 4","Lentiform Loewenfeld","3.3.9","0","n","0","right","left","right","right","NA","622.558099974","7996.19719997","8955.31379996","622.558099974","NA","NA","NA","2","legacy","3","1024","2","48000","-16","experiment","4","even","1","471780.4936","472859.3623","113605.4285","17669.9112","472862.5024","NA","454110.6167","18305.2969","104649.4978","475069.5679","477072.7538","477696.3521","473866.5179","26302.6336","477072.5783","NA","NA","Sternberg Task","67","39585.0886","74","yes","1024"
"90.6666666667","90.6666666667","534.846566667","534.846566667","black","experiment","psycho","psycho","psycho","0","uniform","1","undefined","1","right","74","74","0","0","74","NA","74","0","0","74","74","74","74","0","74","0","NA","10/24/21 23:13:32","","yes","SternbergTask.osexp","C:\Users\mmcel\OneDrive\GRAD SCHOOL\fall 2021\Advanced Quant","no","mono","no","18","no","white","no","yes","768","psycho","62","11","C:/Users/mmcel/OneDrive/GRAD SCHOOL/fall 2021/Advanced Quant/sternberg/MM-subject-4.csv","psycho","2 7 5","Lentiform Loewenfeld","3.3.9","0","n","0","right","left","right","right","NA","528.40390004","7996.19719997","8955.31379996","528.40390004","NA","NA","NA","2","legacy","3","1024","2","48000","-16","experiment","4","even","8","477759.4974","478837.9239","113605.4285","17669.9112","478841.3219","NA","454110.6167","18305.2969","104649.4978","481047.5359","483050.979","483580.5836","479844.1947","26302.6336","483050.7847","NA","NA","Sternberg Task","68","40113.4925","75","yes","1024"
"89.4736842105","89.4736842105","540.493439475","540.493439475","black","experiment","psycho","psycho","psycho","0","uniform","0","undefined","0","right","75","75","0","0","75","NA","75","0","0","75","75","75","75","0","75","0","NA","10/24/21 23:13:32","","yes","SternbergTask.osexp","C:\Users\mmcel\OneDrive\GRAD SCHOOL\fall 2021\Advanced Quant","no","mono","no","18","no","white","no","yes","768","psycho","63","11","C:/Users/mmcel/OneDrive/GRAD SCHOOL/fall 2021/Advanced Quant/sternberg/MM-subject-4.csv","psycho","1 6 4 3 9 7","Lentiform Loewenfeld","3.3.9","0","n","0","left","left","right","left","NA","964.008900046","7996.19719997","8955.31379996","964.008900046","NA","NA","NA","2","legacy","6","1024","2","48000","-16","experiment","4","even","8","483634.4326","484713.9657","113605.4285","17669.9112","484717.5655","NA","454110.6167","18305.2969","104649.4978","486924.2643","488928.0813","489893.0844","485721.482","26302.6336","488927.9102","NA","NA","Sternberg Task","68","41077.5014001","76","yes","1024"
"89.6103896104","89.6103896104","541.098097404","541.098097404","black","experiment","psycho","psycho","psycho","0","uniform","1","undefined","1","right","76","76","0","0","76","NA","76","0","0","76","76","76","76","0","76","0","NA","10/24/21 23:13:32","","yes","SternbergTask.osexp","C:\Users\mmcel\OneDrive\GRAD SCHOOL\fall 2021\Advanced Quant","no","mono","no","18","no","white","no","yes","768","psycho","64","11","C:/Users/mmcel/OneDrive/GRAD SCHOOL/fall 2021/Advanced Quant/sternberg/MM-subject-4.csv","psycho","7 9","Lentiform Loewenfeld","3.3.9","0","n","0","right","left","right","right","NA","587.052100047","7996.19719997","8955.31379996","587.052100047","NA","NA","NA","2","legacy","2","1024","2","48000","-16","experiment","4","even","1","483634.4326","491034.584","113605.4285","17669.9112","491038.0096","NA","489957.1128","18305.2969","104649.4978","493245.5558","495249.8772","495837.9181","492042.091","26302.6336","495249.7072","NA","NA","Sternberg Task","69","41664.5535001","77","yes","1024"
"89.7435897436","89.7435897436","539.247825643","539.247825643","black","experiment","psycho","psycho","psycho","0","uniform","1","undefined","1","left","77","77","0","0","77","NA","77","0","0","77","77","77","77","0","77","0","NA","10/24/21 23:13:32","","yes","SternbergTask.osexp","C:\Users\mmcel\OneDrive\GRAD SCHOOL\fall 2021\Advanced Quant","no","mono","no","18","no","white","no","yes","768","psycho","65","11","C:/Users/mmcel/OneDrive/GRAD SCHOOL/fall 2021/Advanced Quant/sternberg/MM-subject-4.csv","psycho","7 4 2 6 3 5","Lentiform Loewenfeld","3.3.9","6","y","0","left","left","right","left","NA","396.776899986","7996.19719997","8955.31379996","396.776899986","NA","NA","NA","2","legacy","6","1024","2","48000","-16","experiment","4","even","5","495868.3863","496948.8285","113605.4285","17669.9112","496952.2819","NA","489957.1128","18305.2969","104649.4978","499158.2739","501162.3866","501560.2268","497955.0155","26302.6336","501162.2174","NA","NA","Sternberg Task","70","42061.3304001","78","yes","1024"
"89.8734177215","89.8734177215","541.24129747","541.24129747","black","experiment","psycho","psycho","psycho","0","uniform","1","undefined","1","right","78","78","0","0","78","NA","78","0","0","78","78","78","78","0","78","0","NA","10/24/21 23:13:32","","yes","SternbergTask.osexp","C:\Users\mmcel\OneDrive\GRAD SCHOOL\fall 2021\Advanced Quant","no","mono","no","18","no","white","no","yes","768","psycho","66","11","C:/Users/mmcel/OneDrive/GRAD SCHOOL/fall 2021/Advanced Quant/sternberg/MM-subject-4.csv","psycho","1 4 3 6 5","Lentiform Loewenfeld","3.3.9","0","n","0","right","left","right","right","NA","696.732099983","7996.19719997","8955.31379996","696.732099983","NA","NA","NA","2","legacy","5","1024","2","48000","-16","experiment","4","even","8","501624.6031","502704.364","113605.4285","17669.9112","502708.0091","NA","489957.1128","18305.2969","104649.4978","504914.0573","506917.8344","507615.71","503710.8629","26302.6336","506917.6692","NA","NA","Sternberg Task","71","42758.0625001","79","yes","1024"
"90","90","540.447305002","540.447305002","black","experiment","psycho","psycho","psycho","0","uniform","1","undefined","1","left","79","79","0","0","79","NA","79","0","0","79","79","79","79","0","79","0","NA","10/24/21 23:13:32","","yes","SternbergTask.osexp","C:\Users\mmcel\OneDrive\GRAD SCHOOL\fall 2021\Advanced Quant","no","mono","no","18","no","white","no","yes","768","psycho","67","11","C:/Users/mmcel/OneDrive/GRAD SCHOOL/fall 2021/Advanced Quant/sternberg/MM-subject-4.csv","psycho","3 9 7 6 4","Lentiform Loewenfeld","3.3.9","3","y","0","left","left","right","left","NA","477.721900039","7996.19719997","8955.31379996","477.721900039","NA","NA","NA","2","legacy","5","1024","2","48000","-16","experiment","4","even","7","507647.4086","508725.4588","113605.4285","17669.9112","508729.0271","NA","489957.1128","18305.2969","104649.4978","510935.329","512938.5939","513417.5191","509732.7596","26302.6336","512938.4371","NA","NA","Sternberg Task","72","43235.7844001","80","yes","1024"
"90.1234567901","90.1234567901","539.409071607","539.409071607","black","experiment","psycho","psycho","psycho","0","uniform","1","undefined","1","left","80","80","0","0","80","NA","80","0","0","80","80","80","80","0","80","0","NA","10/24/21 23:13:32","","yes","SternbergTask.osexp","C:\Users\mmcel\OneDrive\GRAD SCHOOL\fall 2021\Advanced Quant","no","mono","no","18","no","white","no","yes","768","psycho","68","11","C:/Users/mmcel/OneDrive/GRAD SCHOOL/fall 2021/Advanced Quant/sternberg/MM-subject-4.csv","psycho","2 4 6 9","Lentiform Loewenfeld","3.3.9","3","y","0","left","left","right","left","NA","456.350399996","7996.19719997","8955.31379996","456.350399996","NA","NA","NA","2","legacy","4","1024","2","48000","-16","experiment","4","even","6","513483.5791","514564.8563","113605.4285","17669.9112","514568.2782","NA","489957.1128","18305.2969","104649.4978","516775.6299","518779.0007","519236.405","515571.9678","26302.6336","518778.796","NA","NA","Sternberg Task","73","43692.1348001","81","yes","1024"
"90.243902439","90.243902439","538.783140246","538.783140246","black","experiment","psycho","psycho","psycho","0","uniform","1","undefined","1","left","81","81","0","0","81","NA","81","0","0","81","81","81","81","0","81","0","NA","10/24/21 23:13:32","","yes","SternbergTask.osexp","C:\Users\mmcel\OneDrive\GRAD SCHOOL\fall 2021\Advanced Quant","no","mono","no","18","no","white","no","yes","768","psycho","69","11","C:/Users/mmcel/OneDrive/GRAD SCHOOL/fall 2021/Advanced Quant/sternberg/MM-subject-4.csv","psycho","7 1 3","Lentiform Loewenfeld","3.3.9","2","y","0","left","left","right","left","NA","488.082700002","7996.19719997","8955.31379996","488.082700002","NA","NA","NA","2","legacy","3","1024","2","48000","-16","experiment","4","even","1","519294.1847","520373.6442","113605.4285","17669.9112","520377.0253","NA","489957.1128","18305.2969","104649.4978","522582.7371","524586.3473","525075.5243","521380.1352","26302.6336","524586.1529","NA","NA","Sternberg Task","74","44180.2175001","82","yes","1024"
"90.3614457831","90.3614457831","540.508855424","540.508855424","black","experiment","psycho","psycho","psycho","0","uniform","1","undefined","1","left","82","82","0","0","82","NA","82","0","0","82","82","82","82","0","82","0","NA","10/24/21 23:13:32","","yes","SternbergTask.osexp","C:\Users\mmcel\OneDrive\GRAD SCHOOL\fall 2021\Advanced Quant","no","mono","no","18","no","white","no","yes","768","psycho","70","11","C:/Users/mmcel/OneDrive/GRAD SCHOOL/fall 2021/Advanced Quant/sternberg/MM-subject-4.csv","psycho","1 4 9 3 2 5","Lentiform Loewenfeld","3.3.9","3","y","0","left","left","right","left","NA","682.017500047","7996.19719997","8955.31379996","682.017500047","NA","NA","NA","2","legacy","6","1024","2","48000","-16","experiment","4","even","9","525139.8238","526224.0507","113605.4285","17669.9112","526227.5538","NA","489957.1128","18305.2969","104649.4978","528433.8491","530438.1417","531121.2265","527230.7354","26302.6336","530437.9738","NA","NA","Sternberg Task","75","44862.2350002","83","yes","1024"
"89.2857142857","89.2857142857","539.894014288","539.894014288","black","experiment","psycho","psycho","psycho","0","uniform","0","undefined","0","right","83","83","0","0","83","NA","83","0","0","83","83","83","83","0","83","0","NA","10/24/21 23:13:32","","yes","SternbergTask.osexp","C:\Users\mmcel\OneDrive\GRAD SCHOOL\fall 2021\Advanced Quant","no","mono","no","18","no","white","no","yes","768","psycho","71","11","C:/Users/mmcel/OneDrive/GRAD SCHOOL/fall 2021/Advanced Quant/sternberg/MM-subject-4.csv","psycho","6 2 9 3 8 4","Lentiform Loewenfeld","3.3.9","0","n","0","left","left","right","left","NA","488.8622","7996.19719997","8955.31379996","488.8622","NA","NA","NA","2","legacy","6","1024","2","48000","-16","experiment","4","even","1","531183.9294","532269.1679","113605.4285","17669.9112","532272.8162","NA","489957.1128","18305.2969","104649.4978","534479.7453","536483.2331","536974.0237","533276.5249","26302.6336","536483.0577","NA","NA","Sternberg Task","75","45351.0972002","84","yes","1024"
"89.4117647059","89.4117647059","540.634317649","540.634317649","black","experiment","psycho","psycho","psycho","0","uniform","1","undefined","1","left","84","84","0","0","84","NA","84","0","0","84","84","84","84","0","84","0","NA","10/24/21 23:13:32","","yes","SternbergTask.osexp","C:\Users\mmcel\OneDrive\GRAD SCHOOL\fall 2021\Advanced Quant","no","mono","no","18","no","white","no","yes","768","psycho","72","11","C:/Users/mmcel/OneDrive/GRAD SCHOOL/fall 2021/Advanced Quant/sternberg/MM-subject-4.csv","psycho","6 5","Lentiform Loewenfeld","3.3.9","2","y","0","left","left","right","left","NA","602.819799969","7996.19719997","8955.31379996","602.819799969","NA","NA","NA","2","legacy","2","1024","2","48000","-16","experiment","4","even","5","531183.9294","538080.9218","113605.4285","17669.9112","538084.2391","NA","537003.4024","18305.2969","104649.4978","540291.2996","542294.8905","542898.9583","539088.1648","26302.6336","542294.6628","NA","NA","Sternberg Task","76","45953.9170002","85","yes","1024"
"88.3720930233","88.3720930233","540.174944188","540.174944188","black","experiment","psycho","psycho","psycho","0","uniform","0","undefined","0","left","85","85","0","0","85","NA","85","0","0","85","85","85","85","0","85","0","NA","10/24/21 23:13:32","","yes","SternbergTask.osexp","C:\Users\mmcel\OneDrive\GRAD SCHOOL\fall 2021\Advanced Quant","no","mono","no","18","no","white","no","yes","768","psycho","73","11","C:/Users/mmcel/OneDrive/GRAD SCHOOL/fall 2021/Advanced Quant/sternberg/MM-subject-4.csv","psycho","8 7 3","Lentiform Loewenfeld","3.3.9","1","y","0","right","left","right","right","NA","501.128200034","7996.19719997","8955.31379996","501.128200034","NA","NA","NA","2","legacy","3","1024","2","48000","-16","experiment","4","even","8","542964.0677","544045.25","113605.4285","17669.9112","544048.8569","NA","537003.4024","18305.2969","104649.4978","546254.7511","548258.0273","548760.2668","545051.4403","26302.6336","548257.8455","NA","NA","Sternberg Task","76","46455.0452002","86","yes","1024"
"88.5057471264","88.5057471264","539.876782761","539.876782761","black","experiment","psycho","psycho","psycho","0","uniform","1","undefined","1","left","86","86","0","0","86","NA","86","0","0","86","86","86","86","0","86","0","NA","10/24/21 23:13:32","","yes","SternbergTask.osexp","C:\Users\mmcel\OneDrive\GRAD SCHOOL\fall 2021\Advanced Quant","no","mono","no","18","no","white","no","yes","768","psycho","74","11","C:/Users/mmcel/OneDrive/GRAD SCHOOL/fall 2021/Advanced Quant/sternberg/MM-subject-4.csv","psycho","8 5 4 7 3 1","Lentiform Loewenfeld","3.3.9","2","y","0","left","left","right","left","NA","514.234900009","7996.19719997","8955.31379996","514.234900009","NA","NA","NA","2","legacy","6","1024","2","48000","-16","experiment","4","even","5","542964.0677","549899.6665","113605.4285","17669.9112","549903.1401","NA","548818.3287","18305.2969","104649.4978","552109.5106","554113.374","554628.6872","550906.6038","26302.6336","554113.1983","NA","NA","Sternberg Task","77","46969.2801002","87","yes","1024"
"88.6363636364","88.6363636364","538.033535229","538.033535229","black","experiment","psycho","psycho","psycho","0","uniform","1","undefined","1","left","87","87","0","0","87","NA","87","0","0","87","87","87","87","0","87","0","NA","10/24/21 23:13:32","","yes","SternbergTask.osexp","C:\Users\mmcel\OneDrive\GRAD SCHOOL\fall 2021\Advanced Quant","no","mono","no","18","no","white","no","yes","768","psycho","75","11","C:/Users/mmcel/OneDrive/GRAD SCHOOL/fall 2021/Advanced Quant/sternberg/MM-subject-4.csv","psycho","8","Lentiform Loewenfeld","3.3.9","1","y","0","left","left","right","left","NA","377.670999966","7996.19719997","8955.31379996","377.670999966","NA","NA","NA","2","legacy","1","1024","2","48000","-16","experiment","4","even","8","554685.6188","555765.201","113605.4285","17669.9112","555768.6628","NA","548818.3287","18305.2969","104649.4978","557975.4246","559978.5179","560357.8732","556772.4532","26302.6336","559978.3584","NA","NA","Sternberg Task","78","47346.9511002","88","yes","1024"
"88.7640449438","88.7640449438","547.816665171","547.816665171","black","experiment","psycho","psycho","psycho","0","uniform","1","undefined","1","right","88","88","0","0","88","NA","88","0","0","88","88","88","88","0","88","0","NA","10/24/21 23:13:32","","yes","SternbergTask.osexp","C:\Users\mmcel\OneDrive\GRAD SCHOOL\fall 2021\Advanced Quant","no","mono","no","18","no","white","no","yes","768","psycho","76","11","C:/Users/mmcel/OneDrive/GRAD SCHOOL/fall 2021/Advanced Quant/sternberg/MM-subject-4.csv","psycho","1 7 5 2 9","Lentiform Loewenfeld","3.3.9","0","n","0","right","left","right","right","NA","1408.73210004","7996.19719997","8955.31379996","1408.73210004","NA","NA","NA","2","legacy","5","1024","2","48000","-16","experiment","4","even","3","560418.2659","561503.0828","113605.4285","17669.9112","561506.638","NA","548818.3287","18305.2969","104649.4978","563712.8288","565716.7238","567126.6499","562509.6112","26302.6336","565716.5662","NA","NA","Sternberg Task","79","48755.6832002","89","yes","1024"
"88.8888888889","88.8888888889","549.497801113","549.497801113","black","experiment","psycho","psycho","psycho","0","uniform","1","undefined","1","right","89","89","0","0","89","NA","89","0","0","89","89","89","89","0","89","0","NA","10/24/21 23:13:32","","yes","SternbergTask.osexp","C:\Users\mmcel\OneDrive\GRAD SCHOOL\fall 2021\Advanced Quant","no","mono","no","18","no","white","no","yes","768","psycho","77","11","C:/Users/mmcel/OneDrive/GRAD SCHOOL/fall 2021/Advanced Quant/sternberg/MM-subject-4.csv","psycho","6 3 1 7 9 8","Lentiform Loewenfeld","3.3.9","0","n","0","right","left","right","right","NA","699.118899996","7996.19719997","8955.31379996","699.118899996","NA","NA","NA","2","legacy","6","1024","2","48000","-16","experiment","4","even","4","567160.9292","568243.7605","113605.4285","17669.9112","568247.2287","NA","548818.3287","18305.2969","104649.4978","570454.4944","572458.5575","573158.8284","569251.002","26302.6336","572458.3745","NA","NA","Sternberg Task","80","49454.8021002","90","yes","1024"
"89.010989011","89.010989011","548.283154947","548.283154947","black","experiment","psycho","psycho","psycho","0","uniform","1","undefined","1","left","90","90","0","0","90","NA","90","0","0","90","90","90","90","0","90","0","NA","10/24/21 23:13:32","","yes","SternbergTask.osexp","C:\Users\mmcel\OneDrive\GRAD SCHOOL\fall 2021\Advanced Quant","no","mono","no","18","no","white","no","yes","768","psycho","78","11","C:/Users/mmcel/OneDrive/GRAD SCHOOL/fall 2021/Advanced Quant/sternberg/MM-subject-4.csv","psycho","2 6 1 7 4","Lentiform Loewenfeld","3.3.9","2","y","0","left","left","right","left","NA","438.964999979","7996.19719997","8955.31379996","438.964999979","NA","NA","NA","2","legacy","5","1024","2","48000","-16","experiment","4","even","6","573220.16","574302.3425","113605.4285","17669.9112","574305.9486","NA","548818.3287","18305.2969","104649.4978","576512.8493","578516.1698","578956.2448","575308.8998","26302.6336","578516.013","NA","NA","Sternberg Task","81","49893.7671002","91","yes","1024"
"89.1304347826","89.1304347826","547.050707611","547.050707611","black","experiment","psycho","psycho","psycho","0","uniform","1","undefined","1","right","91","91","0","0","91","NA","91","0","0","91","91","91","91","0","91","0","NA","10/24/21 23:13:32","","yes","SternbergTask.osexp","C:\Users\mmcel\OneDrive\GRAD SCHOOL\fall 2021\Advanced Quant","no","mono","no","18","no","white","no","yes","768","psycho","79","11","C:/Users/mmcel/OneDrive/GRAD SCHOOL/fall 2021/Advanced Quant/sternberg/MM-subject-4.csv","psycho","2 6 4 3 9","Lentiform Loewenfeld","3.3.9","0","n","0","right","left","right","right","NA","434.898000036","7996.19719997","8955.31379996","434.898000036","NA","NA","NA","2","legacy","5","1024","2","48000","-16","experiment","4","even","1","579019.7015","580098.3992","113605.4285","17669.9112","580101.795","NA","548818.3287","18305.2969","104649.4978","582309.0796","584312.5624","584748.6824","581105.4473","26302.6336","584312.3842","NA","NA","Sternberg Task","82","50328.6651002","92","yes","1024"
"89.247311828","89.247311828","546.150926884","546.150926884","black","experiment","psycho","psycho","psycho","0","uniform","1","undefined","1","right","92","92","0","0","92","NA","92","0","0","92","92","92","92","0","92","0","NA","10/24/21 23:13:32","","yes","SternbergTask.osexp","C:\Users\mmcel\OneDrive\GRAD SCHOOL\fall 2021\Advanced Quant","no","mono","no","18","no","white","no","yes","768","psycho","80","11","C:/Users/mmcel/OneDrive/GRAD SCHOOL/fall 2021/Advanced Quant/sternberg/MM-subject-4.csv","psycho","3 9 8 1 6 4","Lentiform Loewenfeld","3.3.9","0","n","0","right","left","right","right","NA","463.371099962","7996.19719997","8955.31379996","463.371099962","NA","NA","NA","2","legacy","6","1024","2","48000","-16","experiment","4","even","7","584807.643","585892.2038","113605.4285","17669.9112","585895.8415","NA","548818.3287","18305.2969","104649.4978","588102.0257","590105.619","590570.1898","586899.3452","26302.6336","590105.4644","NA","NA","Sternberg Task","83","50792.0362002","93","yes","1024"
"89.3617021277","89.3617021277","544.938314896","544.938314896","black","experiment","psycho","psycho","psycho","0","uniform","1","undefined","1","right","93","93","0","0","93","NA","93","0","0","93","93","93","93","0","93","0","NA","10/24/21 23:13:32","","yes","SternbergTask.osexp","C:\Users\mmcel\OneDrive\GRAD SCHOOL\fall 2021\Advanced Quant","no","mono","no","18","no","white","no","yes","768","psycho","81","11","C:/Users/mmcel/OneDrive/GRAD SCHOOL/fall 2021/Advanced Quant/sternberg/MM-subject-4.csv","psycho","1 8 7","Lentiform Loewenfeld","3.3.9","0","n","0","right","left","right","right","NA","432.165400009","7996.19719997","8955.31379996","432.165400009","NA","NA","NA","2","legacy","3","1024","2","48000","-16","experiment","4","even","4","590631.7784","591713.1921","113605.4285","17669.9112","591716.7491","NA","548818.3287","18305.2969","104649.4978","593924.6813","595928.3982","596361.8474","592720.991","26302.6336","595928.2407","NA","NA","Sternberg Task","84","51224.2016002","94","yes","1024"
"88.4210526316","88.4210526316","546.179367371","546.179367371","black","experiment","psycho","psycho","psycho","0","uniform","0","undefined","0","right","94","94","0","0","94","NA","94","0","0","94","94","94","94","0","94","0","NA","10/24/21 23:13:32","","yes","SternbergTask.osexp","C:\Users\mmcel\OneDrive\GRAD SCHOOL\fall 2021\Advanced Quant","no","mono","no","18","no","white","no","yes","768","psycho","82","11","C:/Users/mmcel/OneDrive/GRAD SCHOOL/fall 2021/Advanced Quant/sternberg/MM-subject-4.csv","psycho","6 9 4 5 2","Lentiform Loewenfeld","3.3.9","0","n","0","left","left","right","left","NA","662.83830005","7996.19719997","8955.31379996","662.83830005","NA","NA","NA","2","legacy","5","1024","2","48000","-16","experiment","4","even","1","596420.0104","597501.8204","113605.4285","17669.9112","597505.3302","NA","548818.3287","18305.2969","104649.4978","599712.7406","601716.2491","602380.2138","598509.1953","26302.6336","601716.0815","NA","NA","Sternberg Task","84","51887.0399002","95","yes","1024"
"88.5416666667","88.5416666667","545.253652086","545.253652086","black","experiment","psycho","psycho","psycho","0","uniform","1","undefined","1","left","95","95","0","0","95","NA","95","0","0","95","95","95","95","0","95","0","NA","10/24/21 23:13:32","","yes","SternbergTask.osexp","C:\Users\mmcel\OneDrive\GRAD SCHOOL\fall 2021\Advanced Quant","no","mono","no","18","no","white","no","yes","768","psycho","83","11","C:/Users/mmcel/OneDrive/GRAD SCHOOL/fall 2021/Advanced Quant/sternberg/MM-subject-4.csv","psycho","9 5 8 1","Lentiform Loewenfeld","3.3.9","2","y","0","left","left","right","left","NA","457.310700032","7996.19719997","8955.31379996","457.310700032","NA","NA","NA","2","legacy","4","1024","2","48000","-16","experiment","4","even","5","596420.0104","603522.2991","113605.4285","17669.9112","603525.8216","NA","602443.1916","18305.2969","104649.4978","605731.4941","607735.1248","608193.6013","604528.5609","26302.6336","607734.9714","NA","NA","Sternberg Task","85","52344.3506003","96","yes","1024"
"88.6597938144","88.6597938144","545.427470106","545.427470106","black","experiment","psycho","psycho","psycho","0","uniform","1","undefined","1","right","96","96","0","0","96","NA","96","0","0","96","96","96","96","0","96","0","NA","10/24/21 23:13:32","","yes","SternbergTask.osexp","C:\Users\mmcel\OneDrive\GRAD SCHOOL\fall 2021\Advanced Quant","no","mono","no","18","no","white","no","yes","768","psycho","84","11","C:/Users/mmcel/OneDrive/GRAD SCHOOL/fall 2021/Advanced Quant/sternberg/MM-subject-4.csv","psycho","8 4 3 9","Lentiform Loewenfeld","3.3.9","0","n","0","right","left","right","right","NA","562.113999971","7996.19719997","8955.31379996","562.113999971","NA","NA","NA","2","legacy","4","1024","2","48000","-16","experiment","4","even","5","608252.5981","609333.6201","113605.4285","17669.9112","609337.1972","NA","602443.1916","18305.2969","104649.4978","611542.5473","613546.4511","614109.7108","610339.9182","26302.6336","613546.2643","NA","NA","Sternberg Task","86","52906.4646002","97","yes","1024"
