"acc","accuracy","average_response_time","avg_rt","background","block","canvas_backend","clock_backend","color_backend","compensation","coordinates","correct","correct_instruction1","correct_keyboard_response","correct_response","count_correctfeedback","count_expSequence","count_experementloop","count_experiment","count_fixation","count_getting_started","count_incorrectfeedback","count_instruction1","count_instructions2_2","count_isi","count_keyboard_response","count_logger","count_memorySet","count_practiceloop","count_probe","count_thankyou","count_welcome","datetime","description","disable_garbage_collection","experiment_file","experiment_path","font_bold","font_family","font_italic","font_size","font_underline","foreground","form_clicks","fullscreen","height","keyboard_backend","live_row","live_row_practiceloop","logfile","mouse_backend","numberSet","opensesame_codename","opensesame_version","posInSet","present","repeat_cycle","response","response_instruction1","response_instructions2_2","response_keyboard_response","response_thankyou","response_time","response_time_instruction1","response_time_instructions2_2","response_time_keyboard_response","response_time_thankyou","response_time_welcome","response_welcome","round_decimals","sampler_backend","setSize","sound_buf_size","sound_channels","sound_freq","sound_sample_size","start","subject_nr","subject_parity","target","time_correctfeedback","time_expSequence","time_experementloop","time_experiment","time_fixation","time_getting_started","time_incorrectfeedback","time_instruction1","time_instructions2_2","time_isi","time_keyboard_response","time_logger","time_memorySet","time_practiceloop","time_probe","time_thankyou","time_welcome","title","total_correct","total_response_time","total_responses","uniform_coordinates","width"
"0","0","572.000399989","572.000399989","black","practice","psycho","psycho","psycho","0","uniform","0","undefined","0","right","0","0","0","0","0","NA","0","0","0","0","0","0","0","0","0","0","NA","10/24/21 18:58:10","","yes","SternbergTask.osexp","C:\Users\mmcel\OneDrive\GRAD SCHOOL\fall 2021\Advanced Quant","no","mono","no","18","no","white","no","yes","768","psycho","0","0","C:/Users/mmcel/OneDrive/GRAD SCHOOL/fall 2021/Advanced Quant/sternberg/MM-Subject-2.csv","psycho","2 1","Lentiform Loewenfeld","3.3.9","0","n","0","left","left","NA","left","NA","572.000399989","10540.4192","NA","572.000399989","NA","NA","NA","2","legacy","2","1024","2","48000","-16","experiment","2","even","5","NA","24232.1599","NA","3893.51800003","24315.032","NA","NA","3920.52580003","NA","26522.6246","28526.0925","29098.5998","25319.1023","14462.4762","28525.9384","NA","NA","Sternberg Task","0","572.000399989","1","yes","1024"
"50","50","861.622750002","861.622750002","black","practice","psycho","psycho","psycho","0","uniform","1","undefined","1","right","1","1","0","0","1","NA","1","0","0","1","1","1","1","0","1","0","NA","10/24/21 18:58:10","","yes","SternbergTask.osexp","C:\Users\mmcel\OneDrive\GRAD SCHOOL\fall 2021\Advanced Quant","no","mono","no","18","no","white","no","yes","768","psycho","1","1","C:/Users/mmcel/OneDrive/GRAD SCHOOL/fall 2021/Advanced Quant/sternberg/MM-Subject-2.csv","psycho","5 7 8 4 1 2","Lentiform Loewenfeld","3.3.9","0","n","0","right","left","NA","right","NA","1151.24510002","10540.4192","NA","1151.24510002","NA","NA","NA","2","legacy","6","1024","2","48000","-16","experiment","2","even","6","NA","30401.856","NA","3893.51800003","30405.4623001","NA","29309.6654","3920.52580003","NA","32611.9177","34616.2041","35767.9788001","31408.6889","14462.4762","34616.0374","NA","NA","Sternberg Task","1","1723.2455","2","yes","1024"
"66.6666666667","66.6666666667","829.727833334","829.727833334","black","practice","psycho","psycho","psycho","0","uniform","1","undefined","1","left","2","2","0","0","2","NA","2","0","0","2","2","2","2","0","2","0","NA","10/24/21 18:58:10","","yes","SternbergTask.osexp","C:\Users\mmcel\OneDrive\GRAD SCHOOL\fall 2021\Advanced Quant","no","mono","no","18","no","white","no","yes","768","psycho","2","2","C:/Users/mmcel/OneDrive/GRAD SCHOOL/fall 2021/Advanced Quant/sternberg/MM-Subject-2.csv","psycho","1 5 2 9","Lentiform Loewenfeld","3.3.9","2","y","0","left","left","NA","left","NA","765.937999997","10540.4192","NA","765.937999997","NA","NA","NA","2","legacy","4","1024","2","48000","-16","experiment","2","even","5","35841.1731001","36932.5769001","NA","3893.51800003","36936.4125","NA","29309.6654","3920.52580003","NA","39142.8745","41146.4992","41912.9265","37939.4539","14462.4762","41146.3404","NA","NA","Sternberg Task","2","2489.1835","3","yes","1024"
"75","75","790.288350006","790.288350006","black","practice","psycho","psycho","psycho","0","uniform","1","undefined","1","left","3","3","0","0","3","NA","3","0","0","3","3","3","3","0","3","0","NA","10/24/21 18:58:10","","yes","SternbergTask.osexp","C:\Users\mmcel\OneDrive\GRAD SCHOOL\fall 2021\Advanced Quant","no","mono","no","18","no","white","no","yes","768","psycho","3","3","C:/Users/mmcel/OneDrive/GRAD SCHOOL/fall 2021/Advanced Quant/sternberg/MM-Subject-2.csv","psycho","2 9 4","Lentiform Loewenfeld","3.3.9","3","y","0","left","left","NA","left","NA","671.969900024","10540.4192","NA","671.969900024","NA","NA","NA","2","legacy","3","1024","2","48000","-16","experiment","2","even","4","41989.5612","43143.8482","NA","3893.51800003","43147.2819","NA","29309.6654","3920.52580003","NA","45354.0022","47357.2757","48029.8288","44150.3052","14462.4762","47357.0947","NA","NA","Sternberg Task","3","3161.15340003","4","yes","1024"
"80","80","767.450740002","767.450740002","black","practice","psycho","psycho","psycho","0","uniform","1","undefined","1","left","4","4","0","0","4","NA","4","0","0","4","4","4","4","0","4","0","NA","10/24/21 18:58:10","","yes","SternbergTask.osexp","C:\Users\mmcel\OneDrive\GRAD SCHOOL\fall 2021\Advanced Quant","no","mono","no","18","no","white","no","yes","768","psycho","4","4","C:/Users/mmcel/OneDrive/GRAD SCHOOL/fall 2021/Advanced Quant/sternberg/MM-Subject-2.csv","psycho","1 7 9 8 5","Lentiform Loewenfeld","3.3.9","4","y","0","left","left","NA","left","NA","676.100299985","10540.4192","NA","676.100299985","NA","NA","NA","2","legacy","5","1024","2","48000","-16","experiment","2","even","8","48112.7511","49197.3211","NA","3893.51800003","49200.4567001","NA","29309.6654","3920.52580003","NA","51408.1773","53412.0164","54088.886","50205.0954","14462.4762","53411.7966","NA","NA","Sternberg Task","4","3837.25370001","5","yes","1024"
"66.6666666667","66.6666666667","709.296116664","709.296116664","black","practice","psycho","psycho","psycho","0","uniform","0","undefined","0","right","5","5","0","0","5","NA","5","0","0","5","5","5","5","0","5","0","NA","10/24/21 18:58:10","","yes","SternbergTask.osexp","C:\Users\mmcel\OneDrive\GRAD SCHOOL\fall 2021\Advanced Quant","no","mono","no","18","no","white","no","yes","768","psycho","5","5","C:/Users/mmcel/OneDrive/GRAD SCHOOL/fall 2021/Advanced Quant/sternberg/MM-Subject-2.csv","psycho","5","Lentiform Loewenfeld","3.3.9","0","n","0","left","left","NA","left","NA","418.522999971","10540.4192","NA","418.522999971","NA","NA","NA","2","legacy","1","1024","2","48000","-16","experiment","2","even","3","54173.3874","55298.8493","NA","3893.51800003","55302.3666","NA","29309.6654","3920.52580003","NA","57509.6418","59512.1839","59931.4477","56305.6965001","14462.4762","59512.0132","NA","NA","Sternberg Task","4","4255.77669998","6","yes","1024"
"71.4285714286","71.4285714286","663.478899997","663.478899997","black","practice","psycho","psycho","psycho","0","uniform","1","undefined","1","right","6","6","0","0","6","NA","6","0","0","6","6","6","6","0","6","0","NA","10/24/21 18:58:10","","yes","SternbergTask.osexp","C:\Users\mmcel\OneDrive\GRAD SCHOOL\fall 2021\Advanced Quant","no","mono","no","18","no","white","no","yes","768","psycho","6","6","C:/Users/mmcel/OneDrive/GRAD SCHOOL/fall 2021/Advanced Quant/sternberg/MM-Subject-2.csv","psycho","4 1 5","Lentiform Loewenfeld","3.3.9","0","n","0","right","left","NA","right","NA","388.575599995","10540.4192","NA","388.575599995","NA","NA","NA","2","legacy","3","1024","2","48000","-16","experiment","2","even","2","54173.3874","61055.1289","NA","3893.51800003","61058.528","NA","59974.8794","3920.52580003","NA","63265.0351","65268.8392","65657.9832","62061.7904","14462.4762","65268.6321","NA","NA","Sternberg Task","5","4644.35229998","7","yes","1024"
"75","75","641.750512499","641.750512499","black","practice","psycho","psycho","psycho","0","uniform","1","undefined","1","right","7","7","0","0","7","NA","7","0","0","7","7","7","7","0","7","0","NA","10/24/21 18:58:10","","yes","SternbergTask.osexp","C:\Users\mmcel\OneDrive\GRAD SCHOOL\fall 2021\Advanced Quant","no","mono","no","18","no","white","no","yes","768","psycho","7","7","C:/Users/mmcel/OneDrive/GRAD SCHOOL/fall 2021/Advanced Quant/sternberg/MM-Subject-2.csv","psycho","9 6 7 4 5","Lentiform Loewenfeld","3.3.9","0","n","0","right","left","NA","right","NA","489.651800017","10540.4192","NA","489.651800017","NA","NA","NA","2","legacy","5","1024","2","48000","-16","experiment","2","even","3","65697.8027","66786.97","NA","3893.51800003","66790.1301","NA","59974.8794","3920.52580003","NA","68996.9226","71000.1914","71490.6373","67794.1524","14462.4762","71000.0007","NA","NA","Sternberg Task","6","5134.00409999","8","yes","1024"
"77.7777777778","77.7777777778","631.655377776","631.655377776","black","practice","psycho","psycho","psycho","0","uniform","1","undefined","1","left","8","8","0","0","8","NA","8","0","0","8","8","8","8","0","8","0","NA","10/24/21 18:58:10","","yes","SternbergTask.osexp","C:\Users\mmcel\OneDrive\GRAD SCHOOL\fall 2021\Advanced Quant","no","mono","no","18","no","white","no","yes","768","psycho","8","8","C:/Users/mmcel/OneDrive/GRAD SCHOOL/fall 2021/Advanced Quant/sternberg/MM-Subject-2.csv","psycho","4 3 1 7 9 8","Lentiform Loewenfeld","3.3.9","1","y","0","left","left","NA","left","NA","550.894299988","10540.4192","NA","550.894299988","NA","NA","NA","2","legacy","6","1024","2","48000","-16","experiment","2","even","4","71519.2404001","72615.1632","NA","3893.51800003","72618.6235","NA","59974.8794","3920.52580003","NA","74825.8264","76829.1973","77380.7636001","73622.6962","14462.4762","76829.0285","NA","NA","Sternberg Task","7","5684.89839998","9","yes","1024"
"80","80","606.371239998","606.371239998","black","practice","psycho","psycho","psycho","0","uniform","1","undefined","1","left","9","9","0","0","9","NA","9","0","0","9","9","9","9","0","9","0","NA","10/24/21 18:58:10","","yes","SternbergTask.osexp","C:\Users\mmcel\OneDrive\GRAD SCHOOL\fall 2021\Advanced Quant","no","mono","no","18","no","white","no","yes","768","psycho","9","9","C:/Users/mmcel/OneDrive/GRAD SCHOOL/fall 2021/Advanced Quant/sternberg/MM-Subject-2.csv","psycho","6","Lentiform Loewenfeld","3.3.9","1","y","0","left","left","NA","left","NA","378.813999996","10540.4192","NA","378.813999996","NA","NA","NA","2","legacy","1","1024","2","48000","-16","experiment","2","even","6","77408.9246001","78521.6731","NA","3893.51800003","78524.9795","NA","59974.8794","3920.52580003","NA","80731.6351","82734.7679","83114.1387","79528.6952","14462.4762","82734.556","NA","NA","Sternberg Task","8","6063.71239998","10","yes","1024"
"72.7272727273","72.7272727273","581.984399998","581.984399998","black","practice","psycho","psycho","psycho","0","uniform","0","undefined","0","left","10","10","0","0","10","NA","10","0","0","10","10","10","10","0","10","0","NA","10/24/21 18:58:10","","yes","SternbergTask.osexp","C:\Users\mmcel\OneDrive\GRAD SCHOOL\fall 2021\Advanced Quant","no","mono","no","18","no","white","no","yes","768","psycho","10","10","C:/Users/mmcel/OneDrive/GRAD SCHOOL/fall 2021/Advanced Quant/sternberg/MM-Subject-2.csv","psycho","4 8","Lentiform Loewenfeld","3.3.9","1","y","0","right","left","NA","right","NA","338.115999999","10540.4192","NA","338.115999999","NA","NA","NA","2","legacy","2","1024","2","48000","-16","experiment","2","even","4","83163.9337","84248.2687","NA","3893.51800003","84251.8765","NA","59974.8794","3920.52580003","NA","86457.6748","88461.1795","88799.8347","85254.8380001","14462.4762","88460.9986001","NA","NA","Sternberg Task","8","6401.82839998","11","yes","1024"
"75","75","578.295249996","578.295249996","black","practice","psycho","psycho","psycho","0","uniform","1","undefined","1","right","11","11","0","0","11","NA","11","0","0","11","11","11","11","0","11","0","NA","10/24/21 18:58:10","","yes","SternbergTask.osexp","C:\Users\mmcel\OneDrive\GRAD SCHOOL\fall 2021\Advanced Quant","no","mono","no","18","no","white","no","yes","768","psycho","11","11","C:/Users/mmcel/OneDrive/GRAD SCHOOL/fall 2021/Advanced Quant/sternberg/MM-Subject-2.csv","psycho","3 1 9 4","Lentiform Loewenfeld","3.3.9","0","n","0","right","left","NA","right","NA","537.714599981","10540.4192","NA","537.714599981","NA","NA","NA","2","legacy","4","1024","2","48000","-16","experiment","2","even","6","83163.9337","89971.4411","NA","3893.51800003","89974.9312","NA","88891.6165","3920.52580003","NA","92181.0472001","94184.1257","94722.4504","90978.1623","14462.4762","94183.9669","NA","NA","Sternberg Task","9","6939.54299996","12","yes","1024"
"76.9230769231","76.9230769231","575.999699999","575.999699999","black","experiment","psycho","psycho","psycho","0","uniform","1","undefined","1","right","12","12","0","0","12","NA","12","0","0","12","12","12","12","0","12","0","NA","10/24/21 18:58:10","","yes","SternbergTask.osexp","C:\Users\mmcel\OneDrive\GRAD SCHOOL\fall 2021\Advanced Quant","no","mono","no","18","no","white","no","yes","768","psycho","0","11","C:/Users/mmcel/OneDrive/GRAD SCHOOL/fall 2021/Advanced Quant/sternberg/MM-Subject-2.csv","psycho","2 5 1 4","Lentiform Loewenfeld","3.3.9","0","n","0","right","left","left","right","NA","548.453100026","10540.4192","8160.6383","548.453100026","NA","NA","NA","2","legacy","4","1024","2","48000","-16","experiment","2","even","6","94834.8281001","104144.3602","104032.2438","3893.51800003","104147.7386","NA","88891.6165","3920.52580003","95870.8059","106354.9806","108358.8181","108907.8748","105151.5863","14462.4762","108358.6537","NA","NA","Sternberg Task","10","7487.99609998","13","yes","1024"
"78.5714285714","78.5714285714","566.535114282","566.535114282","black","experiment","psycho","psycho","psycho","0","uniform","1","undefined","1","left","13","13","0","0","13","NA","13","0","0","13","13","13","13","0","13","0","NA","10/24/21 18:58:10","","yes","SternbergTask.osexp","C:\Users\mmcel\OneDrive\GRAD SCHOOL\fall 2021\Advanced Quant","no","mono","no","18","no","white","no","yes","768","psycho","1","11","C:/Users/mmcel/OneDrive/GRAD SCHOOL/fall 2021/Advanced Quant/sternberg/MM-Subject-2.csv","psycho","3 5 4 7","Lentiform Loewenfeld","3.3.9","1","y","0","left","left","left","left","NA","443.49549996","10540.4192","8160.6383","443.49549996","NA","NA","NA","2","legacy","4","1024","2","48000","-16","experiment","2","even","3","109071.475","110152.7942","104032.2438","3893.51800003","110156.0812","NA","88891.6165","3920.52580003","95870.8059","112361.7988","114365.9707","114810.0845","111158.7984","14462.4762","114365.8166","NA","NA","Sternberg Task","11","7931.49159994","14","yes","1024"
"80","80","559.320613331","559.320613331","black","experiment","psycho","psycho","psycho","0","uniform","1","undefined","1","right","14","14","0","0","14","NA","14","0","0","14","14","14","14","0","14","0","NA","10/24/21 18:58:10","","yes","SternbergTask.osexp","C:\Users\mmcel\OneDrive\GRAD SCHOOL\fall 2021\Advanced Quant","no","mono","no","18","no","white","no","yes","768","psycho","2","11","C:/Users/mmcel/OneDrive/GRAD SCHOOL/fall 2021/Advanced Quant/sternberg/MM-Subject-2.csv","psycho","2 6 4 3 9","Lentiform Loewenfeld","3.3.9","0","n","0","right","left","left","right","NA","458.317600016","10540.4192","8160.6383","458.317600016","NA","NA","NA","2","legacy","5","1024","2","48000","-16","experiment","2","even","1","115060.5477","116141.5204","104032.2438","3893.51800003","116144.8741","NA","88891.6165","3920.52580003","95870.8059","118352.0953","120355.2207","120814.0986","117148.9752","14462.4762","120355.0408","NA","NA","Sternberg Task","12","8389.80919996","15","yes","1024"
"75","75","558.320262498","558.320262498","black","experiment","psycho","psycho","psycho","0","uniform","0","undefined","0","left","15","15","0","0","15","NA","15","0","0","15","15","15","15","0","15","0","NA","10/24/21 18:58:10","","yes","SternbergTask.osexp","C:\Users\mmcel\OneDrive\GRAD SCHOOL\fall 2021\Advanced Quant","no","mono","no","18","no","white","no","yes","768","psycho","3","11","C:/Users/mmcel/OneDrive/GRAD SCHOOL/fall 2021/Advanced Quant/sternberg/MM-Subject-2.csv","psycho","6 9 7 4 5 1","Lentiform Loewenfeld","3.3.9","2","y","0","right","left","left","right","NA","543.315000017","10540.4192","8160.6383","543.315000017","NA","NA","NA","2","legacy","6","1024","2","48000","-16","experiment","2","even","9","120959.7941","122049.1979","104032.2438","3893.51800003","122052.7418","NA","88891.6165","3920.52580003","95870.8059","124259.8571","126264.1759","126808.084","123056.0265","14462.4762","126263.9215","NA","NA","Sternberg Task","12","8933.12419998","16","yes","1024"
"76.4705882353","76.4705882353","553.457688232","553.457688232","black","experiment","psycho","psycho","psycho","0","uniform","1","undefined","1","right","16","16","0","0","16","NA","16","0","0","16","16","16","16","0","16","0","NA","10/24/21 18:58:10","","yes","SternbergTask.osexp","C:\Users\mmcel\OneDrive\GRAD SCHOOL\fall 2021\Advanced Quant","no","mono","no","18","no","white","no","yes","768","psycho","4","11","C:/Users/mmcel/OneDrive/GRAD SCHOOL/fall 2021/Advanced Quant/sternberg/MM-Subject-2.csv","psycho","6 7 5 9","Lentiform Loewenfeld","3.3.9","0","n","0","right","left","left","right","NA","475.65649997","10540.4192","8160.6383","475.65649997","NA","NA","NA","2","legacy","4","1024","2","48000","-16","experiment","2","even","2","120959.7941","128073.3564","104032.2438","3893.51800003","128077.3884","NA","126992.9395","3920.52580003","95870.8059","130283.279","132286.9645","132764.1672","129080.5913","14462.4762","132286.7942","NA","NA","Sternberg Task","13","9408.78069995","17","yes","1024"
"77.7777777778","77.7777777778","571.216483329","571.216483329","black","experiment","psycho","psycho","psycho","0","uniform","1","undefined","1","left","17","17","0","0","17","NA","17","0","0","17","17","17","17","0","17","0","NA","10/24/21 18:58:10","","yes","SternbergTask.osexp","C:\Users\mmcel\OneDrive\GRAD SCHOOL\fall 2021\Advanced Quant","no","mono","no","18","no","white","no","yes","768","psycho","5","11","C:/Users/mmcel/OneDrive/GRAD SCHOOL/fall 2021/Advanced Quant/sternberg/MM-Subject-2.csv","psycho","4 7 6 8 2 3","Lentiform Loewenfeld","3.3.9","6","y","0","left","left","left","left","NA","873.115999973","10540.4192","8160.6383","873.115999973","NA","NA","NA","2","legacy","6","1024","2","48000","-16","experiment","2","even","3","132880.5061","133965.0947","104032.2438","3893.51800003","133968.4827","NA","126992.9395","3920.52580003","95870.8059","136174.7306","138177.6667","139051.408","134971.5419","14462.4762","138177.5011","NA","NA","Sternberg Task","14","10281.8966999","18","yes","1024"
"78.9473684211","78.9473684211","564.019694731","564.019694731","black","experiment","psycho","psycho","psycho","0","uniform","1","undefined","1","left","18","18","0","0","18","NA","18","0","0","18","18","18","18","0","18","0","NA","10/24/21 18:58:10","","yes","SternbergTask.osexp","C:\Users\mmcel\OneDrive\GRAD SCHOOL\fall 2021\Advanced Quant","no","mono","no","18","no","white","no","yes","768","psycho","6","11","C:/Users/mmcel/OneDrive/GRAD SCHOOL/fall 2021/Advanced Quant/sternberg/MM-Subject-2.csv","psycho","2 5 4 8 7","Lentiform Loewenfeld","3.3.9","3","y","0","left","left","left","left","NA","434.477499977","10540.4192","8160.6383","434.477499977","NA","NA","NA","2","legacy","5","1024","2","48000","-16","experiment","2","even","4","139147.1123","140240.0165","104032.2438","3893.51800003","140243.4702","NA","126992.9395","3920.52580003","95870.8059","142451.5928","144455.346","144890.5447","141247.7965","14462.4762","144455.1895","NA","NA","Sternberg Task","15","10716.3741999","19","yes","1024"
"80","80","562.142019992","562.142019992","black","experiment","psycho","psycho","psycho","0","uniform","1","undefined","1","left","19","19","0","0","19","NA","19","0","0","19","19","19","19","0","19","0","NA","10/24/21 18:58:10","","yes","SternbergTask.osexp","C:\Users\mmcel\OneDrive\GRAD SCHOOL\fall 2021\Advanced Quant","no","mono","no","18","no","white","no","yes","768","psycho","7","11","C:/Users/mmcel/OneDrive/GRAD SCHOOL/fall 2021/Advanced Quant/sternberg/MM-Subject-2.csv","psycho","6 7 9 3 1 2","Lentiform Loewenfeld","3.3.9","1","y","0","left","left","left","left","NA","526.466199954","10540.4192","8160.6383","526.466199954","NA","NA","NA","2","legacy","6","1024","2","48000","-16","experiment","2","even","6","144979.9683","146149.3145","104032.2438","3893.51800003","146153.2218","NA","126992.9395","3920.52580003","95870.8059","148359.9994","150364.7488","150892.3419","147156.8797","14462.4762","150364.5103","NA","NA","Sternberg Task","16","11242.8403998","20","yes","1024"
"80.9523809524","80.9523809524","563.378071424","563.378071424","black","experiment","psycho","psycho","psycho","0","uniform","1","undefined","1","right","20","20","0","0","20","NA","20","0","0","20","20","20","20","0","20","0","NA","10/24/21 18:58:10","","yes","SternbergTask.osexp","C:\Users\mmcel\OneDrive\GRAD SCHOOL\fall 2021\Advanced Quant","no","mono","no","18","no","white","no","yes","768","psycho","8","11","C:/Users/mmcel/OneDrive/GRAD SCHOOL/fall 2021/Advanced Quant/sternberg/MM-Subject-2.csv","psycho","7 4 2 8 1 9","Lentiform Loewenfeld","3.3.9","0","n","0","right","left","left","right","NA","588.099100045","10540.4192","8160.6383","588.099100045","NA","NA","NA","2","legacy","6","1024","2","48000","-16","experiment","2","even","5","150957.8948","152064.7553","104032.2438","3893.51800003","152075.9933","NA","126992.9395","3920.52580003","95870.8059","154282.9018","156286.4037","156875.165","153080.2917","14462.4762","156286.2317","NA","NA","Sternberg Task","17","11830.9394999","21","yes","1024"
"81.8181818182","81.8181818182","552.581618178","552.581618178","black","experiment","psycho","psycho","psycho","0","uniform","1","undefined","1","left","21","21","0","0","21","NA","21","0","0","21","21","21","21","0","21","0","NA","10/24/21 18:58:10","","yes","SternbergTask.osexp","C:\Users\mmcel\OneDrive\GRAD SCHOOL\fall 2021\Advanced Quant","no","mono","no","18","no","white","no","yes","768","psycho","9","11","C:/Users/mmcel/OneDrive/GRAD SCHOOL/fall 2021/Advanced Quant/sternberg/MM-Subject-2.csv","psycho","8","Lentiform Loewenfeld","3.3.9","1","y","0","left","left","left","left","NA","325.856100011","10540.4192","8160.6383","325.856100011","NA","NA","NA","2","legacy","1","1024","2","48000","-16","experiment","2","even","8","156935.3175","158019.1828","104032.2438","3893.51800003","158022.77","NA","126992.9395","3920.52580003","95870.8059","160229.415","162233.3975","162560.4423","159025.7191","14462.4762","162233.1655","NA","NA","Sternberg Task","18","12156.7955999","22","yes","1024"
"82.6086956522","82.6086956522","553.633808692","553.633808692","black","experiment","psycho","psycho","psycho","0","uniform","1","undefined","1","right","22","22","0","0","22","NA","22","0","0","22","22","22","22","0","22","0","NA","10/24/21 18:58:10","","yes","SternbergTask.osexp","C:\Users\mmcel\OneDrive\GRAD SCHOOL\fall 2021\Advanced Quant","no","mono","no","18","no","white","no","yes","768","psycho","10","11","C:/Users/mmcel/OneDrive/GRAD SCHOOL/fall 2021/Advanced Quant/sternberg/MM-Subject-2.csv","psycho","8 4 3 9","Lentiform Loewenfeld","3.3.9","0","n","0","right","left","left","right","NA","576.782000018","10540.4192","8160.6383","576.782000018","NA","NA","NA","2","legacy","4","1024","2","48000","-16","experiment","2","even","5","162975.8969","164073.5414","104032.2438","3893.51800003","164077.0826","NA","126992.9395","3920.52580003","95870.8059","166284.6378","168288.5706","168866.2139","165081.3666","14462.4762","168288.3668","NA","NA","Sternberg Task","19","12733.5775999","23","yes","1024"
"83.3333333333","83.3333333333","551.852612497","551.852612497","black","experiment","psycho","psycho","psycho","0","uniform","1","undefined","1","left","23","23","0","0","23","NA","23","0","0","23","23","23","23","0","23","0","NA","10/24/21 18:58:10","","yes","SternbergTask.osexp","C:\Users\mmcel\OneDrive\GRAD SCHOOL\fall 2021\Advanced Quant","no","mono","no","18","no","white","no","yes","768","psycho","11","11","C:/Users/mmcel/OneDrive/GRAD SCHOOL/fall 2021/Advanced Quant/sternberg/MM-Subject-2.csv","psycho","9 8 4","Lentiform Loewenfeld","3.3.9","1","y","0","left","left","left","left","NA","510.885099997","10540.4192","8160.6383","510.885099997","NA","NA","NA","2","legacy","3","1024","2","48000","-16","experiment","2","even","9","168948.4989","170049.1279","104032.2438","3893.51800003","170052.186","NA","126992.9395","3920.52580003","95870.8059","172258.6073","174262.3855","174773.947","171055.7805","14462.4762","174262.2284","NA","NA","Sternberg Task","20","13244.4626999","24","yes","1024"
"84","84","551.994847998","551.994847998","black","experiment","psycho","psycho","psycho","0","uniform","1","undefined","1","left","24","24","0","0","24","NA","24","0","0","24","24","24","24","0","24","0","NA","10/24/21 18:58:10","","yes","SternbergTask.osexp","C:\Users\mmcel\OneDrive\GRAD SCHOOL\fall 2021\Advanced Quant","no","mono","no","18","no","white","no","yes","768","psycho","12","11","C:/Users/mmcel/OneDrive/GRAD SCHOOL/fall 2021/Advanced Quant/sternberg/MM-Subject-2.csv","psycho","6 8 9 3 4 9","Lentiform Loewenfeld","3.3.9","5","y","0","left","left","left","left","NA","555.408500019","10540.4192","8160.6383","555.408500019","NA","NA","NA","2","legacy","6","1024","2","48000","-16","experiment","2","even","4","174946.6752","176033.1251","104032.2438","3893.51800003","176036.2976","NA","126992.9395","3920.52580003","95870.8059","178243.5509","180247.1951","180803.285","177039.7172","14462.4762","180247.0215","NA","NA","Sternberg Task","21","13799.8711999","25","yes","1024"
"84.6153846154","84.6153846154","559.373969228","559.373969228","black","experiment","psycho","psycho","psycho","0","uniform","1","undefined","1","right","25","25","0","0","25","NA","25","0","0","25","25","25","25","0","25","0","NA","10/24/21 18:58:10","","yes","SternbergTask.osexp","C:\Users\mmcel\OneDrive\GRAD SCHOOL\fall 2021\Advanced Quant","no","mono","no","18","no","white","no","yes","768","psycho","13","11","C:/Users/mmcel/OneDrive/GRAD SCHOOL/fall 2021/Advanced Quant/sternberg/MM-Subject-2.csv","psycho","7 6 4 8 1 2","Lentiform Loewenfeld","3.3.9","0","n","0","right","left","left","right","NA","743.851999985","10540.4192","8160.6383","743.851999985","NA","NA","NA","2","legacy","6","1024","2","48000","-16","experiment","2","even","9","180938.6954","182027.266","104032.2438","3893.51800003","182030.9637","NA","126992.9395","3920.52580003","95870.8059","184238.097","186241.7235","186986.2277","183034.4538","14462.4762","186241.5624","NA","NA","Sternberg Task","22","14543.7231999","26","yes","1024"
"85.1851851852","85.1851851852","554.213585181","554.213585181","black","experiment","psycho","psycho","psycho","0","uniform","1","undefined","1","right","26","26","0","0","26","NA","26","0","0","26","26","26","26","0","26","0","NA","10/24/21 18:58:10","","yes","SternbergTask.osexp","C:\Users\mmcel\OneDrive\GRAD SCHOOL\fall 2021\Advanced Quant","no","mono","no","18","no","white","no","yes","768","psycho","14","11","C:/Users/mmcel/OneDrive/GRAD SCHOOL/fall 2021/Advanced Quant/sternberg/MM-Subject-2.csv","psycho","7 1","Lentiform Loewenfeld","3.3.9","0","n","0","right","left","left","right","NA","420.043599966","10540.4192","8160.6383","420.043599966","NA","NA","NA","2","legacy","2","1024","2","48000","-16","experiment","2","even","8","187014.7859","188097.5056","104032.2438","3893.51800003","188101.0429","NA","126992.9395","3920.52580003","95870.8059","190308.318","192312.3084","192733.0306","189105.0778","14462.4762","192312.0983","NA","NA","Sternberg Task","23","14963.7667999","27","yes","1024"
"85.7142857143","85.7142857143","546.437439282","546.437439282","black","experiment","psycho","psycho","psycho","0","uniform","1","undefined","1","left","27","27","0","0","27","NA","27","0","0","27","27","27","27","0","27","0","NA","10/24/21 18:58:10","","yes","SternbergTask.osexp","C:\Users\mmcel\OneDrive\GRAD SCHOOL\fall 2021\Advanced Quant","no","mono","no","18","no","white","no","yes","768","psycho","15","11","C:/Users/mmcel/OneDrive/GRAD SCHOOL/fall 2021/Advanced Quant/sternberg/MM-Subject-2.csv","psycho","8 5 1 3 9","Lentiform Loewenfeld","3.3.9","4","y","0","left","left","left","left","NA","336.48150001","10540.4192","8160.6383","336.48150001","NA","NA","NA","2","legacy","5","1024","2","48000","-16","experiment","2","even","3","192758.0788","193839.8506","104032.2438","3893.51800003","193843.1854","NA","126992.9395","3920.52580003","95870.8059","196049.7423","198053.3696","198390.5015","194847.3422","14462.4762","198053.2008","NA","NA","Sternberg Task","24","15300.2482999","28","yes","1024"
"82.7586206897","82.7586206897","540.469568963","540.469568963","black","experiment","psycho","psycho","psycho","0","uniform","0","undefined","0","left","28","28","0","0","28","NA","28","0","0","28","28","28","28","0","28","0","NA","10/24/21 18:58:10","","yes","SternbergTask.osexp","C:\Users\mmcel\OneDrive\GRAD SCHOOL\fall 2021\Advanced Quant","no","mono","no","18","no","white","no","yes","768","psycho","16","11","C:/Users/mmcel/OneDrive/GRAD SCHOOL/fall 2021/Advanced Quant/sternberg/MM-Subject-2.csv","psycho","4","Lentiform Loewenfeld","3.3.9","1","y","0","right","left","left","right","NA","373.369200039","10540.4192","8160.6383","373.369200039","NA","NA","NA","2","legacy","1","1024","2","48000","-16","experiment","2","even","4","198605.1911","199689.0182","104032.2438","3893.51800003","199692.5813","NA","126992.9395","3920.52580003","95870.8059","201898.792","203902.184","204276.3418","200695.572","14462.4762","203901.9916","NA","NA","Sternberg Task","24","15673.6174999","29","yes","1024"
"83.3333333333","83.3333333333","540.676416664","540.676416664","black","experiment","psycho","psycho","psycho","0","uniform","1","undefined","1","right","29","29","0","0","29","NA","29","0","0","29","29","29","29","0","29","0","NA","10/24/21 18:58:10","","yes","SternbergTask.osexp","C:\Users\mmcel\OneDrive\GRAD SCHOOL\fall 2021\Advanced Quant","no","mono","no","18","no","white","no","yes","768","psycho","17","11","C:/Users/mmcel/OneDrive/GRAD SCHOOL/fall 2021/Advanced Quant/sternberg/MM-Subject-2.csv","psycho","6 9 4 5 2","Lentiform Loewenfeld","3.3.9","0","n","0","right","left","left","right","NA","546.674999991","10540.4192","8160.6383","546.674999991","NA","NA","NA","2","legacy","5","1024","2","48000","-16","experiment","2","even","1","198605.1911","205490.7579","104032.2438","3893.51800003","205493.9005","NA","204408.0539","3920.52580003","95870.8059","207700.1397","209704.1153","210251.5879","206497.4515","14462.4762","209703.96","NA","NA","Sternberg Task","25","16220.2924999","30","yes","1024"
"83.8709677419","83.8709677419","540.837883869","540.837883869","black","experiment","psycho","psycho","psycho","0","uniform","1","undefined","1","right","30","30","0","0","30","NA","30","0","0","30","30","30","30","0","30","0","NA","10/24/21 18:58:10","","yes","SternbergTask.osexp","C:\Users\mmcel\OneDrive\GRAD SCHOOL\fall 2021\Advanced Quant","no","mono","no","18","no","white","no","yes","768","psycho","18","11","C:/Users/mmcel/OneDrive/GRAD SCHOOL/fall 2021/Advanced Quant/sternberg/MM-Subject-2.csv","psycho","2 8 9","Lentiform Loewenfeld","3.3.9","0","n","0","right","left","left","right","NA","545.681899996","10540.4192","8160.6383","545.681899996","NA","NA","NA","2","legacy","3","1024","2","48000","-16","experiment","2","even","6","210341.694","211425.1799","104032.2438","3893.51800003","211428.4083","NA","204408.0539","3920.52580003","95870.8059","213633.801","215637.6843","216184.0837","212431.0929","14462.4762","215637.5194","NA","NA","Sternberg Task","26","16765.9743999","31","yes","1024"
"84.375","84.375","540.608293748","540.608293748","black","experiment","psycho","psycho","psycho","0","uniform","1","undefined","1","right","31","31","0","0","31","NA","31","0","0","31","31","31","31","0","31","0","NA","10/24/21 18:58:10","","yes","SternbergTask.osexp","C:\Users\mmcel\OneDrive\GRAD SCHOOL\fall 2021\Advanced Quant","no","mono","no","18","no","white","no","yes","768","psycho","19","11","C:/Users/mmcel/OneDrive/GRAD SCHOOL/fall 2021/Advanced Quant/sternberg/MM-Subject-2.csv","psycho","2 3 8 5 6 7","Lentiform Loewenfeld","3.3.9","0","n","0","right","left","left","right","NA","533.491000009","10540.4192","8160.6383","533.491000009","NA","NA","NA","2","legacy","6","1024","2","48000","-16","experiment","2","even","1","216277.7826","217361.7766","104032.2438","3893.51800003","217364.9221","NA","204408.0539","3920.52580003","95870.8059","219571.504","221575.5523","222109.7933","218368.4996","14462.4762","221575.3884","NA","NA","Sternberg Task","27","17299.4653999","32","yes","1024"
"84.8484848485","84.8484848485","544.264993937","544.264993937","black","experiment","psycho","psycho","psycho","0","uniform","1","undefined","1","left","32","32","0","0","32","NA","32","0","0","32","32","32","32","0","32","0","NA","10/24/21 18:58:10","","yes","SternbergTask.osexp","C:\Users\mmcel\OneDrive\GRAD SCHOOL\fall 2021\Advanced Quant","no","mono","no","18","no","white","no","yes","768","psycho","20","11","C:/Users/mmcel/OneDrive/GRAD SCHOOL/fall 2021/Advanced Quant/sternberg/MM-Subject-2.csv","psycho","3 4 9 6 2 9","Lentiform Loewenfeld","3.3.9","5","y","0","left","left","left","left","NA","661.279399996","10540.4192","8160.6383","661.279399996","NA","NA","NA","2","legacy","6","1024","2","48000","-16","experiment","2","even","2","222148.2504","223231.2307","104032.2438","3893.51800003","223234.7614","NA","204408.0539","3920.52580003","95870.8059","225441.0461","227444.5381","228106.5333","224237.6411","14462.4762","227444.3804","NA","NA","Sternberg Task","28","17960.7447999","33","yes","1024"
"85.2941176471","85.2941176471","548.435494115","548.435494115","black","experiment","psycho","psycho","psycho","0","uniform","1","undefined","1","right","33","33","0","0","33","NA","33","0","0","33","33","33","33","0","33","0","NA","10/24/21 18:58:10","","yes","SternbergTask.osexp","C:\Users\mmcel\OneDrive\GRAD SCHOOL\fall 2021\Advanced Quant","no","mono","no","18","no","white","no","yes","768","psycho","21","11","C:/Users/mmcel/OneDrive/GRAD SCHOOL/fall 2021/Advanced Quant/sternberg/MM-Subject-2.csv","psycho","9 5 3 2 8 6","Lentiform Loewenfeld","3.3.9","0","n","0","right","left","left","right","NA","686.061999993","10540.4192","8160.6383","686.061999993","NA","NA","NA","2","legacy","6","1024","2","48000","-16","experiment","2","even","7","228162.6837","229247.1019","104032.2438","3893.51800003","229250.8298","NA","204408.0539","3920.52580003","95870.8059","231457.4018","233460.2999","234147.055","230254.466","14462.4762","233460.1093","NA","NA","Sternberg Task","29","18646.8067999","34","yes","1024"
"85.7142857143","85.7142857143","542.146708568","542.146708568","black","experiment","psycho","psycho","psycho","0","uniform","1","undefined","1","left","34","34","0","0","34","NA","34","0","0","34","34","34","34","0","34","0","NA","10/24/21 18:58:10","","yes","SternbergTask.osexp","C:\Users\mmcel\OneDrive\GRAD SCHOOL\fall 2021\Advanced Quant","no","mono","no","18","no","white","no","yes","768","psycho","22","11","C:/Users/mmcel/OneDrive/GRAD SCHOOL/fall 2021/Advanced Quant/sternberg/MM-Subject-2.csv","psycho","2 4 6 9","Lentiform Loewenfeld","3.3.9","3","y","0","left","left","left","left","NA","328.327999974","10540.4192","8160.6383","328.327999974","NA","NA","NA","2","legacy","4","1024","2","48000","-16","experiment","2","even","6","234208.4633","235288.4331","104032.2438","3893.51800003","235291.6094","NA","204408.0539","3920.52580003","95870.8059","237497.4328","239500.8929","239829.9227","236294.4495","14462.4762","239500.7287","NA","NA","Sternberg Task","30","18975.1347999","35","yes","1024"
"83.3333333333","83.3333333333","540.905188886","540.905188886","black","experiment","psycho","psycho","psycho","0","uniform","0","undefined","0","left","35","35","0","0","35","NA","35","0","0","35","35","35","35","0","35","0","NA","10/24/21 18:58:10","","yes","SternbergTask.osexp","C:\Users\mmcel\OneDrive\GRAD SCHOOL\fall 2021\Advanced Quant","no","mono","no","18","no","white","no","yes","768","psycho","23","11","C:/Users/mmcel/OneDrive/GRAD SCHOOL/fall 2021/Advanced Quant/sternberg/MM-Subject-2.csv","psycho","9 1 7 2","Lentiform Loewenfeld","3.3.9","2","y","0","right","left","left","right","NA","497.451999981","10540.4192","8160.6383","497.451999981","NA","NA","NA","2","legacy","4","1024","2","48000","-16","experiment","2","even","1","240010.8918","241092.5566","104032.2438","3893.51800003","241095.9018","NA","204408.0539","3920.52580003","95870.8059","243302.9072","245307.1086","245805.3895","242099.6963","14462.4762","245306.9269","NA","NA","Sternberg Task","30","19472.5867999","36","yes","1024"
"83.7837837838","83.7837837838","541.375156753","541.375156753","black","experiment","psycho","psycho","psycho","0","uniform","1","undefined","1","left","36","36","0","0","36","NA","36","0","0","36","36","36","36","0","36","0","NA","10/24/21 18:58:10","","yes","SternbergTask.osexp","C:\Users\mmcel\OneDrive\GRAD SCHOOL\fall 2021\Advanced Quant","no","mono","no","18","no","white","no","yes","768","psycho","24","11","C:/Users/mmcel/OneDrive/GRAD SCHOOL/fall 2021/Advanced Quant/sternberg/MM-Subject-2.csv","psycho","5 2 6","Lentiform Loewenfeld","3.3.9","2","y","0","left","left","left","left","NA","558.293999988","10540.4192","8160.6383","558.293999988","NA","NA","NA","2","legacy","3","1024","2","48000","-16","experiment","2","even","2","240010.8918","246923.0182","104032.2438","3893.51800003","246926.1902","NA","245839.5754","3920.52580003","95870.8059","249134.5474","251137.7268","251696.7623","247930.6673","14462.4762","251137.564","NA","NA","Sternberg Task","31","20030.8807999","37","yes","1024"
"84.2105263158","84.2105263158","546.79690526","546.79690526","black","experiment","psycho","psycho","psycho","0","uniform","1","undefined","1","right","37","37","0","0","37","NA","37","0","0","37","37","37","37","0","37","0","NA","10/24/21 18:58:10","","yes","SternbergTask.osexp","C:\Users\mmcel\OneDrive\GRAD SCHOOL\fall 2021\Advanced Quant","no","mono","no","18","no","white","no","yes","768","psycho","25","11","C:/Users/mmcel/OneDrive/GRAD SCHOOL/fall 2021/Advanced Quant/sternberg/MM-Subject-2.csv","psycho","8 4 3 5","Lentiform Loewenfeld","3.3.9","0","n","0","right","left","left","right","NA","747.401600005","10540.4192","8160.6383","747.401600005","NA","NA","NA","2","legacy","4","1024","2","48000","-16","experiment","2","even","6","251742.0213","252824.6361","104032.2438","3893.51800003","252827.9904","NA","245839.5754","3920.52580003","95870.8059","255034.0863","257036.7073","257784.823","253831.4639","14462.4762","257036.5368","NA","NA","Sternberg Task","32","20778.2823999","38","yes","1024"
"84.6153846154","84.6153846154","547.166382048","547.166382048","black","experiment","psycho","psycho","psycho","0","uniform","1","undefined","1","right","38","38","0","0","38","NA","38","0","0","38","38","38","38","0","38","0","NA","10/24/21 18:58:10","","yes","SternbergTask.osexp","C:\Users\mmcel\OneDrive\GRAD SCHOOL\fall 2021\Advanced Quant","no","mono","no","18","no","white","no","yes","768","psycho","26","11","C:/Users/mmcel/OneDrive/GRAD SCHOOL/fall 2021/Advanced Quant/sternberg/MM-Subject-2.csv","psycho","1 4 9 2 5","Lentiform Loewenfeld","3.3.9","0","n","0","right","left","left","right","NA","561.206499988","10540.4192","8160.6383","561.206499988","NA","NA","NA","2","legacy","5","1024","2","48000","-16","experiment","2","even","7","257867.464","258959.1937","104032.2438","3893.51800003","258962.4625","NA","245839.5754","3920.52580003","95870.8059","261168.6771","263172.5072","263734.4929","259965.8676","14462.4762","263172.2338","NA","NA","Sternberg Task","33","21339.4888999","39","yes","1024"
"85","85","553.275517497","553.275517497","black","experiment","psycho","psycho","psycho","0","uniform","1","undefined","1","left","39","39","0","0","39","NA","39","0","0","39","39","39","39","0","39","0","NA","10/24/21 18:58:10","","yes","SternbergTask.osexp","C:\Users\mmcel\OneDrive\GRAD SCHOOL\fall 2021\Advanced Quant","no","mono","no","18","no","white","no","yes","768","psycho","27","11","C:/Users/mmcel/OneDrive/GRAD SCHOOL/fall 2021/Advanced Quant/sternberg/MM-Subject-2.csv","psycho","4 3 2 5 8","Lentiform Loewenfeld","3.3.9","2","y","0","left","left","left","left","NA","791.531800001","10540.4192","8160.6383","791.531800001","NA","NA","NA","2","legacy","5","1024","2","48000","-16","experiment","2","even","3","263809.796","264891.2317","104032.2438","3893.51800003","264894.6083","NA","245839.5754","3920.52580003","95870.8059","267101.2541","269104.7333","269897.099","265897.9493","14462.4762","269104.5739","NA","NA","Sternberg Task","34","22131.0206999","40","yes","1024"
"85.3658536585","85.3658536585","554.244136583","554.244136583","black","experiment","psycho","psycho","psycho","0","uniform","1","undefined","1","left","40","40","0","0","40","NA","40","0","0","40","40","40","40","0","40","0","NA","10/24/21 18:58:10","","yes","SternbergTask.osexp","C:\Users\mmcel\OneDrive\GRAD SCHOOL\fall 2021\Advanced Quant","no","mono","no","18","no","white","no","yes","768","psycho","28","11","C:/Users/mmcel/OneDrive/GRAD SCHOOL/fall 2021/Advanced Quant/sternberg/MM-Subject-2.csv","psycho","8 7 3","Lentiform Loewenfeld","3.3.9","1","y","0","left","left","left","left","NA","592.988900025","10540.4192","8160.6383","592.988900025","NA","NA","NA","2","legacy","3","1024","2","48000","-16","experiment","2","even","8","270442.322","271525.4755","104032.2438","3893.51800003","271528.6091","NA","245839.5754","3920.52580003","95870.8059","273735.4961","275738.2285","276332.0215","272532.4536","14462.4762","275738.0474","NA","NA","Sternberg Task","35","22724.0095999","41","yes","1024"
"85.7142857143","85.7142857143","549.455692854","549.455692854","black","experiment","psycho","psycho","psycho","0","uniform","1","undefined","1","left","41","41","0","0","41","NA","41","0","0","41","41","41","41","0","41","0","NA","10/24/21 18:58:10","","yes","SternbergTask.osexp","C:\Users\mmcel\OneDrive\GRAD SCHOOL\fall 2021\Advanced Quant","no","mono","no","18","no","white","no","yes","768","psycho","29","11","C:/Users/mmcel/OneDrive/GRAD SCHOOL/fall 2021/Advanced Quant/sternberg/MM-Subject-2.csv","psycho","8 5 3 7 4 6","Lentiform Loewenfeld","3.3.9","6","y","0","left","left","left","left","NA","353.129499999","10540.4192","8160.6383","353.129499999","NA","NA","NA","2","legacy","6","1024","2","48000","-16","experiment","2","even","6","276367.9553","277451.1513","104032.2438","3893.51800003","277454.3178","NA","245839.5754","3920.52580003","95870.8059","279659.406","281663.6073","282017.5282","278456.9528","14462.4762","281663.4462","NA","NA","Sternberg Task","36","23077.1390999","42","yes","1024"
"86.0465116279","86.0465116279","567.707576742","567.707576742","black","experiment","psycho","psycho","psycho","0","uniform","1","undefined","1","right","42","42","0","0","42","NA","42","0","0","42","42","42","42","0","42","0","NA","10/24/21 18:58:10","","yes","SternbergTask.osexp","C:\Users\mmcel\OneDrive\GRAD SCHOOL\fall 2021\Advanced Quant","no","mono","no","18","no","white","no","yes","768","psycho","30","11","C:/Users/mmcel/OneDrive/GRAD SCHOOL/fall 2021/Advanced Quant/sternberg/MM-Subject-2.csv","psycho","6 8","Lentiform Loewenfeld","3.3.9","0","n","0","right","left","left","right","NA","1334.2867","10540.4192","8160.6383","1334.2867","NA","NA","NA","2","legacy","2","1024","2","48000","-16","experiment","2","even","9","282144.1347","283226.9859","104032.2438","3893.51800003","283230.1208","NA","245839.5754","3920.52580003","95870.8059","285437.2993","287440.5352","288775.6601","284233.4165","14462.4762","287440.3655","NA","NA","Sternberg Task","37","24411.4257999","43","yes","1024"
"86.3636363636","86.3636363636","559.210295453","559.210295453","black","experiment","psycho","psycho","psycho","0","uniform","1","undefined","1","left","43","43","0","0","43","NA","43","0","0","43","43","43","43","0","43","0","NA","10/24/21 18:58:10","","yes","SternbergTask.osexp","C:\Users\mmcel\OneDrive\GRAD SCHOOL\fall 2021\Advanced Quant","no","mono","no","18","no","white","no","yes","768","psycho","31","11","C:/Users/mmcel/OneDrive/GRAD SCHOOL/fall 2021/Advanced Quant/sternberg/MM-Subject-2.csv","psycho","6 2","Lentiform Loewenfeld","3.3.9","1","y","0","left","left","left","left","NA","193.827200041","10540.4192","8160.6383","193.827200041","NA","NA","NA","2","legacy","2","1024","2","48000","-16","experiment","2","even","6","288819.73","289904.7474","104032.2438","3893.51800003","289907.8157","NA","245839.5754","3920.52580003","95870.8059","292115.2319","294119.4885","294314.1153","290911.5951","14462.4762","294119.3201","NA","NA","Sternberg Task","38","24605.2529999","44","yes","1024"
"86.6666666667","86.6666666667","549.542386664","549.542386664","black","experiment","psycho","psycho","psycho","0","uniform","1","undefined","1","left","44","44","0","0","44","NA","44","0","0","44","44","44","44","0","44","0","NA","10/24/21 18:58:10","","yes","SternbergTask.osexp","C:\Users\mmcel\OneDrive\GRAD SCHOOL\fall 2021\Advanced Quant","no","mono","no","18","no","white","no","yes","768","psycho","32","11","C:/Users/mmcel/OneDrive/GRAD SCHOOL/fall 2021/Advanced Quant/sternberg/MM-Subject-2.csv","psycho","9 1 6 7 8","Lentiform Loewenfeld","3.3.9","1","y","0","left","left","left","left","NA","124.154399964","10540.4192","8160.6383","124.154399964","NA","NA","NA","2","legacy","5","1024","2","48000","-16","experiment","2","even","9","294455.6835","295536.7299","104032.2438","3893.51800003","295539.7241","NA","245839.5754","3920.52580003","95870.8059","297746.6745","299750.7108","299875.6568","296543.7999","14462.4762","299750.5495","NA","NA","Sternberg Task","39","24729.4073999","45","yes","1024"
"86.9565217391","86.9565217391","546.810621736","546.810621736","black","experiment","psycho","psycho","psycho","0","uniform","1","undefined","1","right","45","45","0","0","45","NA","45","0","0","45","45","45","45","0","45","0","NA","10/24/21 18:58:10","","yes","SternbergTask.osexp","C:\Users\mmcel\OneDrive\GRAD SCHOOL\fall 2021\Advanced Quant","no","mono","no","18","no","white","no","yes","768","psycho","33","11","C:/Users/mmcel/OneDrive/GRAD SCHOOL/fall 2021/Advanced Quant/sternberg/MM-Subject-2.csv","psycho","4 1","Lentiform Loewenfeld","3.3.9","0","n","0","right","left","left","right","NA","423.881199968","10540.4192","8160.6383","423.881199968","NA","NA","NA","2","legacy","2","1024","2","48000","-16","experiment","2","even","6","299979.8818","301088.0208","104032.2438","3893.51800003","301091.0211","NA","245839.5754","3920.52580003","95870.8059","303298.0655","305301.6586","305726.3514","302094.8715","14462.4762","305301.4935","NA","NA","Sternberg Task","40","25153.2885999","46","yes","1024"
"87.2340425532","87.2340425532","535.798625529","535.798625529","black","experiment","psycho","psycho","psycho","0","uniform","1","undefined","1","left","46","46","0","0","46","NA","46","0","0","46","46","46","46","0","46","0","NA","10/24/21 18:58:10","","yes","SternbergTask.osexp","C:\Users\mmcel\OneDrive\GRAD SCHOOL\fall 2021\Advanced Quant","no","mono","no","18","no","white","no","yes","768","psycho","34","11","C:/Users/mmcel/OneDrive/GRAD SCHOOL/fall 2021/Advanced Quant/sternberg/MM-Subject-2.csv","psycho","2 3 7 4","Lentiform Loewenfeld","3.3.9","1","y","0","left","left","left","left","NA","29.2467999971","10540.4192","8160.6383","29.2467999971","NA","NA","NA","2","legacy","4","1024","2","48000","-16","experiment","2","even","2","305826.906","306910.1758","104032.2438","3893.51800003","306913.6518","NA","245839.5754","3920.52580003","95870.8059","309121.635","311124.542","311154.6817","307918.2111","14462.4762","311124.3499","NA","NA","Sternberg Task","41","25182.5353999","47","yes","1024"
"85.4166666667","85.4166666667","526.989547913","526.989547913","black","experiment","psycho","psycho","psycho","0","uniform","0","undefined","0","left","47","47","0","0","47","NA","47","0","0","47","47","47","47","0","47","0","NA","10/24/21 18:58:10","","yes","SternbergTask.osexp","C:\Users\mmcel\OneDrive\GRAD SCHOOL\fall 2021\Advanced Quant","no","mono","no","18","no","white","no","yes","768","psycho","35","11","C:/Users/mmcel/OneDrive/GRAD SCHOOL/fall 2021/Advanced Quant/sternberg/MM-Subject-2.csv","psycho","2 6 1 7 4","Lentiform Loewenfeld","3.3.9","2","y","0","right","left","left","right","NA","112.962899962","10540.4192","8160.6383","112.962899962","NA","NA","NA","2","legacy","5","1024","2","48000","-16","experiment","2","even","6","311201.7654","312282.5556","104032.2438","3893.51800003","312285.8573","NA","245839.5754","3920.52580003","95870.8059","314492.7805","316496.4681","316610.8281","313289.5709","14462.4762","316496.2639","NA","NA","Sternberg Task","41","25295.4982998","48","yes","1024"
"85.7142857143","85.7142857143","522.600577547","522.600577547","black","experiment","psycho","psycho","psycho","0","uniform","1","undefined","1","left","48","48","0","0","48","NA","48","0","0","48","48","48","48","0","48","0","NA","10/24/21 18:58:10","","yes","SternbergTask.osexp","C:\Users\mmcel\OneDrive\GRAD SCHOOL\fall 2021\Advanced Quant","no","mono","no","18","no","white","no","yes","768","psycho","36","11","C:/Users/mmcel/OneDrive/GRAD SCHOOL/fall 2021/Advanced Quant/sternberg/MM-Subject-2.csv","psycho","9 5 3 8 4","Lentiform Loewenfeld","3.3.9","1","y","0","left","left","left","left","NA","311.929999967","10540.4192","8160.6383","311.929999967","NA","NA","NA","2","legacy","5","1024","2","48000","-16","experiment","2","even","9","311201.7654","317894.5931","104032.2438","3893.51800003","317897.7055","NA","316785.6501","3920.52580003","95870.8059","320104.6422","322108.2282","322421.4216","318901.3984","14462.4762","322108.0692","NA","NA","Sternberg Task","42","25607.4282998","49","yes","1024"
"84","84","514.705395997","514.705395997","black","experiment","psycho","psycho","psycho","0","uniform","0","undefined","0","right","49","49","0","0","49","NA","49","0","0","49","49","49","49","0","49","0","NA","10/24/21 18:58:10","","yes","SternbergTask.osexp","C:\Users\mmcel\OneDrive\GRAD SCHOOL\fall 2021\Advanced Quant","no","mono","no","18","no","white","no","yes","768","psycho","37","11","C:/Users/mmcel/OneDrive/GRAD SCHOOL/fall 2021/Advanced Quant/sternberg/MM-Subject-2.csv","psycho","9 8 2 7 4","Lentiform Loewenfeld","3.3.9","0","n","0","left","left","left","left","NA","127.841500042","10540.4192","8160.6383","127.841500042","NA","NA","NA","2","legacy","5","1024","2","48000","-16","experiment","2","even","5","322557.209","323643.909","104032.2438","3893.51800003","323647.7309","NA","316785.6501","3920.52580003","95870.8059","325854.088","327857.7784","327986.8022","324650.527","14462.4762","327857.5936","NA","NA","Sternberg Task","42","25735.2697998","50","yes","1024"
"84.3137254902","84.3137254902","514.68820784","514.68820784","black","experiment","psycho","psycho","psycho","0","uniform","1","undefined","1","left","50","50","0","0","50","NA","50","0","0","50","50","50","50","0","50","0","NA","10/24/21 18:58:10","","yes","SternbergTask.osexp","C:\Users\mmcel\OneDrive\GRAD SCHOOL\fall 2021\Advanced Quant","no","mono","no","18","no","white","no","yes","768","psycho","38","11","C:/Users/mmcel/OneDrive/GRAD SCHOOL/fall 2021/Advanced Quant/sternberg/MM-Subject-2.csv","psycho","2 3","Lentiform Loewenfeld","3.3.9","1","y","0","left","left","left","left","NA","513.828800002","10540.4192","8160.6383","513.828800002","NA","NA","NA","2","legacy","2","1024","2","48000","-16","experiment","2","even","2","322557.209","329144.9574","104032.2438","3893.51800003","329148.2682","NA","328058.5102","3920.52580003","95870.8059","331354.6481","333358.8364","333873.5308","330151.3523","14462.4762","333358.6724","NA","NA","Sternberg Task","43","26249.0985998","51","yes","1024"
"84.6153846154","84.6153846154","514.000965382","514.000965382","black","experiment","psycho","psycho","psycho","0","uniform","1","undefined","1","right","51","51","0","0","51","NA","51","0","0","51","51","51","51","0","51","0","NA","10/24/21 18:58:10","","yes","SternbergTask.osexp","C:\Users\mmcel\OneDrive\GRAD SCHOOL\fall 2021\Advanced Quant","no","mono","no","18","no","white","no","yes","768","psycho","39","11","C:/Users/mmcel/OneDrive/GRAD SCHOOL/fall 2021/Advanced Quant/sternberg/MM-Subject-2.csv","psycho","3 9 8 1 6 4","Lentiform Loewenfeld","3.3.9","0","n","0","right","left","left","right","NA","478.951600031","10540.4192","8160.6383","478.951600031","NA","NA","NA","2","legacy","6","1024","2","48000","-16","experiment","2","even","7","333922.715","335007.7441","104032.2438","3893.51800003","335011.1056","NA","328058.5102","3920.52580003","95870.8059","337217.6997","339221.2837","339701.15","336014.4264","14462.4762","339221.0707","NA","NA","Sternberg Task","44","26728.0501999","52","yes","1024"
"84.9056603774","84.9056603774","510.495620752","510.495620752","black","experiment","psycho","psycho","psycho","0","uniform","1","undefined","1","left","52","52","0","0","52","NA","52","0","0","52","52","52","52","0","52","0","NA","10/24/21 18:58:10","","yes","SternbergTask.osexp","C:\Users\mmcel\OneDrive\GRAD SCHOOL\fall 2021\Advanced Quant","no","mono","no","18","no","white","no","yes","768","psycho","40","11","C:/Users/mmcel/OneDrive/GRAD SCHOOL/fall 2021/Advanced Quant/sternberg/MM-Subject-2.csv","psycho","3 5 7 1","Lentiform Loewenfeld","3.3.9","3","y","0","left","left","left","left","NA","328.217700007","10540.4192","8160.6383","328.217700007","NA","NA","NA","2","legacy","4","1024","2","48000","-16","experiment","2","even","7","339722.2314","340809.8948","104032.2438","3893.51800003","340813.0404","NA","328058.5102","3920.52580003","95870.8059","343018.9102","345022.67","345351.9241","341815.733","14462.4762","345022.4938","NA","NA","Sternberg Task","45","27056.2678999","53","yes","1024"
"83.3333333333","83.3333333333","511.624020368","511.624020368","black","experiment","psycho","psycho","psycho","0","uniform","0","undefined","0","left","53","53","0","0","53","NA","53","0","0","53","53","53","53","0","53","0","NA","10/24/21 18:58:10","","yes","SternbergTask.osexp","C:\Users\mmcel\OneDrive\GRAD SCHOOL\fall 2021\Advanced Quant","no","mono","no","18","no","white","no","yes","768","psycho","41","11","C:/Users/mmcel/OneDrive/GRAD SCHOOL/fall 2021/Advanced Quant/sternberg/MM-Subject-2.csv","psycho","8 5 4 7 3 1","Lentiform Loewenfeld","3.3.9","2","y","0","right","left","left","right","NA","571.429200005","10540.4192","8160.6383","571.429200005","NA","NA","NA","2","legacy","6","1024","2","48000","-16","experiment","2","even","5","345388.9453","346467.6396","104032.2438","3893.51800003","346471.004","NA","328058.5102","3920.52580003","95870.8059","348677.51","350681.0989","351253.3965","347474.3559","14462.4762","350680.8832","NA","NA","Sternberg Task","45","27627.6970999","54","yes","1024"
"83.6363636364","83.6363636364","511.45016727","511.45016727","black","experiment","psycho","psycho","psycho","0","uniform","1","undefined","1","right","54","54","0","0","54","NA","54","0","0","54","54","54","54","0","54","0","NA","10/24/21 18:58:10","","yes","SternbergTask.osexp","C:\Users\mmcel\OneDrive\GRAD SCHOOL\fall 2021\Advanced Quant","no","mono","no","18","no","white","no","yes","768","psycho","42","11","C:/Users/mmcel/OneDrive/GRAD SCHOOL/fall 2021/Advanced Quant/sternberg/MM-Subject-2.csv","psycho","6 2 9 3 8 4","Lentiform Loewenfeld","3.3.9","0","n","0","right","left","left","right","NA","502.062099986","10540.4192","8160.6383","502.062099986","NA","NA","NA","2","legacy","6","1024","2","48000","-16","experiment","2","even","1","345388.9453","352356.4423","104032.2438","3893.51800003","352359.802","NA","351278.2365","3920.52580003","95870.8059","354567.0682","356570.2967","357073.3291","353363.3822","14462.4762","356570.1109","NA","NA","Sternberg Task","46","28129.7591999","55","yes","1024"
"83.9285714286","83.9285714286","508.611805355","508.611805355","black","experiment","psycho","psycho","psycho","0","uniform","1","undefined","1","left","55","55","0","0","55","NA","55","0","0","55","55","55","55","0","55","0","NA","10/24/21 18:58:10","","yes","SternbergTask.osexp","C:\Users\mmcel\OneDrive\GRAD SCHOOL\fall 2021\Advanced Quant","no","mono","no","18","no","white","no","yes","768","psycho","43","11","C:/Users/mmcel/OneDrive/GRAD SCHOOL/fall 2021/Advanced Quant/sternberg/MM-Subject-2.csv","psycho","4 1 8 7 5","Lentiform Loewenfeld","3.3.9","3","y","0","left","left","left","left","NA","352.501899994","10540.4192","8160.6383","352.501899994","NA","NA","NA","2","legacy","5","1024","2","48000","-16","experiment","2","even","8","357101.0748","358180.0321","104032.2438","3893.51800003","358183.6382","NA","351278.2365","3920.52580003","95870.8059","360390.885","362394.4304","362747.9046","359187.2163","14462.4762","362394.2655","NA","NA","Sternberg Task","47","28482.2610999","56","yes","1024"
"82.4561403509","82.4561403509","507.152238594","507.152238594","black","experiment","psycho","psycho","psycho","0","uniform","0","undefined","0","right","56","56","0","0","56","NA","56","0","0","56","56","56","56","0","56","0","NA","10/24/21 18:58:10","","yes","SternbergTask.osexp","C:\Users\mmcel\OneDrive\GRAD SCHOOL\fall 2021\Advanced Quant","no","mono","no","18","no","white","no","yes","768","psycho","44","11","C:/Users/mmcel/OneDrive/GRAD SCHOOL/fall 2021/Advanced Quant/sternberg/MM-Subject-2.csv","psycho","4 2 7 6 1 3","Lentiform Loewenfeld","3.3.9","0","n","0","left","left","left","left","NA","425.416500017","10540.4192","8160.6383","425.416500017","NA","NA","NA","2","legacy","6","1024","2","48000","-16","experiment","2","even","8","362789.9691","363872.4362","104032.2438","3893.51800003","363875.7997","NA","351278.2365","3920.52580003","95870.8059","366081.8838","368085.3906","368511.8115","364879.1213","14462.4762","368085.212","NA","NA","Sternberg Task","47","28907.6775999","57","yes","1024"
"82.7586206897","82.7586206897","506.098224136","506.098224136","black","experiment","psycho","psycho","psycho","0","uniform","1","undefined","1","right","57","57","0","0","57","NA","57","0","0","57","57","57","57","0","57","0","NA","10/24/21 18:58:10","","yes","SternbergTask.osexp","C:\Users\mmcel\OneDrive\GRAD SCHOOL\fall 2021\Advanced Quant","no","mono","no","18","no","white","no","yes","768","psycho","45","11","C:/Users/mmcel/OneDrive/GRAD SCHOOL/fall 2021/Advanced Quant/sternberg/MM-Subject-2.csv","psycho","1 7 5 2","Lentiform Loewenfeld","3.3.9","0","n","0","right","left","left","right","NA","446.019400028","10540.4192","8160.6383","446.019400028","NA","NA","NA","2","legacy","4","1024","2","48000","-16","experiment","2","even","3","362789.9691","369613.5776","104032.2438","3893.51800003","369616.9817","NA","368534.476","3920.52580003","95870.8059","371823.8163","373827.0201","374273.9447","370620.0153","14462.4762","373826.8383","NA","NA","Sternberg Task","48","29353.6969999","58","yes","1024"
"81.3559322034","81.3559322034","503.699277965","503.699277965","black","experiment","psycho","psycho","psycho","0","uniform","0","undefined","0","right","58","58","0","0","58","NA","58","0","0","58","58","58","58","0","58","0","NA","10/24/21 18:58:10","","yes","SternbergTask.osexp","C:\Users\mmcel\OneDrive\GRAD SCHOOL\fall 2021\Advanced Quant","no","mono","no","18","no","white","no","yes","768","psycho","46","11","C:/Users/mmcel/OneDrive/GRAD SCHOOL/fall 2021/Advanced Quant/sternberg/MM-Subject-2.csv","psycho","6 9 5","Lentiform Loewenfeld","3.3.9","0","n","0","left","left","left","left","NA","364.560400019","10540.4192","8160.6383","364.560400019","NA","NA","NA","2","legacy","3","1024","2","48000","-16","experiment","2","even","8","374394.4546","375474.0717","104032.2438","3893.51800003","375477.4505","NA","368534.476","3920.52580003","95870.8059","377683.9282","379687.8026","380053.4388","376480.9278","14462.4762","379687.6536","NA","NA","Sternberg Task","48","29718.2573999","59","yes","1024"
"81.6666666667","81.6666666667","504.714341665","504.714341665","black","experiment","psycho","psycho","psycho","0","uniform","1","undefined","1","left","59","59","0","0","59","NA","59","0","0","59","59","59","59","0","59","0","NA","10/24/21 18:58:10","","yes","SternbergTask.osexp","C:\Users\mmcel\OneDrive\GRAD SCHOOL\fall 2021\Advanced Quant","no","mono","no","18","no","white","no","yes","768","psycho","47","11","C:/Users/mmcel/OneDrive/GRAD SCHOOL/fall 2021/Advanced Quant/sternberg/MM-Subject-2.csv","psycho","5 7 3 6 2","Lentiform Loewenfeld","3.3.9","5","y","0","left","left","left","left","NA","564.603100007","10540.4192","8160.6383","564.603100007","NA","NA","NA","2","legacy","5","1024","2","48000","-16","experiment","2","even","2","374394.4546","381172.7918","104032.2438","3893.51800003","381176.1838","NA","380090.9978","3920.52580003","95870.8059","383382.6658","385386.2311","385951.9017","382179.1935","14462.4762","385386.0779","NA","NA","Sternberg Task","49","30282.8604999","60","yes","1024"
"81.9672131148","81.9672131148","504.736640982","504.736640982","black","experiment","psycho","psycho","psycho","0","uniform","1","undefined","1","right","60","60","0","0","60","NA","60","0","0","60","60","60","60","0","60","0","NA","10/24/21 18:58:10","","yes","SternbergTask.osexp","C:\Users\mmcel\OneDrive\GRAD SCHOOL\fall 2021\Advanced Quant","no","mono","no","18","no","white","no","yes","768","psycho","48","11","C:/Users/mmcel/OneDrive/GRAD SCHOOL/fall 2021/Advanced Quant/sternberg/MM-Subject-2.csv","psycho","1 8 7","Lentiform Loewenfeld","3.3.9","0","n","0","right","left","left","right","NA","506.07459998","10540.4192","8160.6383","506.07459998","NA","NA","NA","2","legacy","3","1024","2","48000","-16","experiment","2","even","4","385993.5091","387073.9739","104032.2438","3893.51800003","387077.2908","NA","380090.9978","3920.52580003","95870.8059","389283.9745","391287.758","391794.7419","388080.5856","14462.4762","391287.5726","NA","NA","Sternberg Task","50","30788.9350999","61","yes","1024"
"80.6451612903","80.6451612903","502.257970965","502.257970965","black","experiment","psycho","psycho","psycho","0","uniform","0","undefined","0","right","61","61","0","0","61","NA","61","0","0","61","61","61","61","0","61","0","NA","10/24/21 18:58:10","","yes","SternbergTask.osexp","C:\Users\mmcel\OneDrive\GRAD SCHOOL\fall 2021\Advanced Quant","no","mono","no","18","no","white","no","yes","768","psycho","49","11","C:/Users/mmcel/OneDrive/GRAD SCHOOL/fall 2021/Advanced Quant/sternberg/MM-Subject-2.csv","psycho","8 5 4 2 9 6","Lentiform Loewenfeld","3.3.9","0","n","0","left","left","left","left","NA","351.05909995","10540.4192","8160.6383","351.05909995","NA","NA","NA","2","legacy","6","1024","2","48000","-16","experiment","2","even","3","391894.7217","392974.3084","104032.2438","3893.51800003","392977.6433","NA","380090.9978","3920.52580003","95870.8059","395184.1494","397187.7818","397539.8122","393981.124","14462.4762","397187.6103","NA","NA","Sternberg Task","50","31139.9941999","62","yes","1024"
"80.9523809524","80.9523809524","494.77126349","494.77126349","black","experiment","psycho","psycho","psycho","0","uniform","1","undefined","1","left","62","62","0","0","62","NA","62","0","0","62","62","62","62","0","62","0","NA","10/24/21 18:58:10","","yes","SternbergTask.osexp","C:\Users\mmcel\OneDrive\GRAD SCHOOL\fall 2021\Advanced Quant","no","mono","no","18","no","white","no","yes","768","psycho","50","11","C:/Users/mmcel/OneDrive/GRAD SCHOOL/fall 2021/Advanced Quant/sternberg/MM-Subject-2.csv","psycho","9 6 2 4 1","Lentiform Loewenfeld","3.3.9","4","y","0","left","left","left","left","NA","30.5954000214","10540.4192","8160.6383","30.5954000214","NA","NA","NA","2","legacy","5","1024","2","48000","-16","experiment","2","even","4","391894.7217","398662.5118","104032.2438","3893.51800003","398665.8346","NA","397580.1028","3920.52580003","95870.8059","400872.4163","402875.9562","402907.4472","399669.2502","14462.4762","402875.7672","NA","NA","Sternberg Task","51","31170.5895999","63","yes","1024"
"81.25","81.25","492.213184372","492.213184372","black","experiment","psycho","psycho","psycho","0","uniform","1","undefined","1","left","63","63","0","0","63","NA","63","0","0","63","63","63","63","0","63","0","NA","10/24/21 18:58:10","","yes","SternbergTask.osexp","C:\Users\mmcel\OneDrive\GRAD SCHOOL\fall 2021\Advanced Quant","no","mono","no","18","no","white","no","yes","768","psycho","51","11","C:/Users/mmcel/OneDrive/GRAD SCHOOL/fall 2021/Advanced Quant/sternberg/MM-Subject-2.csv","psycho","7 2 3","Lentiform Loewenfeld","3.3.9","3","y","0","left","left","left","left","NA","331.054199953","10540.4192","8160.6383","331.054199953","NA","NA","NA","2","legacy","3","1024","2","48000","-16","experiment","2","even","3","402948.096","404033.378","104032.2438","3893.51800003","404036.7097","NA","397580.1028","3920.52580003","95870.8059","406243.4719","408247.6605","408579.725","405040.6455","14462.4762","408247.4601","NA","NA","Sternberg Task","52","31501.6437998","64","yes","1024"
"81.5384615385","81.5384615385","492.611858459","492.611858459","black","experiment","psycho","psycho","psycho","0","uniform","1","undefined","1","left","64","64","0","0","64","NA","64","0","0","64","64","64","64","0","64","0","NA","10/24/21 18:58:10","","yes","SternbergTask.osexp","C:\Users\mmcel\OneDrive\GRAD SCHOOL\fall 2021\Advanced Quant","no","mono","no","18","no","white","no","yes","768","psycho","52","11","C:/Users/mmcel/OneDrive/GRAD SCHOOL/fall 2021/Advanced Quant/sternberg/MM-Subject-2.csv","psycho","8 9 5 7 1 6","Lentiform Loewenfeld","3.3.9","4","y","0","left","left","left","left","NA","518.127000018","10540.4192","8160.6383","518.127000018","NA","NA","NA","2","legacy","6","1024","2","48000","-16","experiment","2","even","7","408613.8721","409696.1648","104032.2438","3893.51800003","409699.4064","NA","397580.1028","3920.52580003","95870.8059","411905.2907","413909.2799","414428.527","410702.7256","14462.4762","413909.0894","NA","NA","Sternberg Task","53","32019.7707998","65","yes","1024"
"81.8181818182","81.8181818182","493.107472725","493.107472725","black","experiment","psycho","psycho","psycho","0","uniform","1","undefined","1","right","65","65","0","0","65","NA","65","0","0","65","65","65","65","0","65","0","NA","10/24/21 18:58:10","","yes","SternbergTask.osexp","C:\Users\mmcel\OneDrive\GRAD SCHOOL\fall 2021\Advanced Quant","no","mono","no","18","no","white","no","yes","768","psycho","53","11","C:/Users/mmcel/OneDrive/GRAD SCHOOL/fall 2021/Advanced Quant/sternberg/MM-Subject-2.csv","psycho","6 9 7 3 8 2","Lentiform Loewenfeld","3.3.9","0","n","0","right","left","left","right","NA","525.322400033","10540.4192","8160.6383","525.322400033","NA","NA","NA","2","legacy","6","1024","2","48000","-16","experiment","2","even","5","414470.1464","415551.1843","104032.2438","3893.51800003","415554.4233","NA","397580.1028","3920.52580003","95870.8059","417761.4049","419764.465","420290.7532","416557.4468","14462.4762","419764.3013","NA","NA","Sternberg Task","54","32545.0931999","66","yes","1024"
"82.0895522388","82.0895522388","490.884611938","490.884611938","black","experiment","psycho","psycho","psycho","0","uniform","1","undefined","1","right","66","66","0","0","66","NA","66","0","0","66","66","66","66","0","66","0","NA","10/24/21 18:58:10","","yes","SternbergTask.osexp","C:\Users\mmcel\OneDrive\GRAD SCHOOL\fall 2021\Advanced Quant","no","mono","no","18","no","white","no","yes","768","psycho","54","11","C:/Users/mmcel/OneDrive/GRAD SCHOOL/fall 2021/Advanced Quant/sternberg/MM-Subject-2.csv","psycho","2 7 5","Lentiform Loewenfeld","3.3.9","0","n","0","right","left","left","right","NA","344.175799983","10540.4192","8160.6383","344.175799983","NA","NA","NA","2","legacy","3","1024","2","48000","-16","experiment","2","even","8","420395.9008","421475.0958","104032.2438","3893.51800003","421478.4289","NA","397580.1028","3920.52580003","95870.8059","423684.2714","425688.6145","426033.8511","422481.5414","14462.4762","425688.4501","NA","NA","Sternberg Task","55","32889.2689999","67","yes","1024"
"82.3529411765","82.3529411765","490.03680588","490.03680588","black","experiment","psycho","psycho","psycho","0","uniform","1","undefined","1","left","67","67","0","0","67","NA","67","0","0","67","67","67","67","0","67","0","NA","10/24/21 18:58:10","","yes","SternbergTask.osexp","C:\Users\mmcel\OneDrive\GRAD SCHOOL\fall 2021\Advanced Quant","no","mono","no","18","no","white","no","yes","768","psycho","55","11","C:/Users/mmcel/OneDrive/GRAD SCHOOL/fall 2021/Advanced Quant/sternberg/MM-Subject-2.csv","psycho","3 4","Lentiform Loewenfeld","3.3.9","1","y","0","left","left","left","left","NA","433.233799995","10540.4192","8160.6383","433.233799995","NA","NA","NA","2","legacy","2","1024","2","48000","-16","experiment","2","even","3","426117.6449","427199.5748","104032.2438","3893.51800003","427203.103","NA","397580.1028","3920.52580003","95870.8059","429409.898","431413.4381","431847.6881","428206.483","14462.4762","431413.2603","NA","NA","Sternberg Task","56","33322.5027999","68","yes","1024"
"81.1594202899","81.1594202899","491.888071013","491.888071013","black","experiment","psycho","psycho","psycho","0","uniform","0","undefined","0","right","68","68","0","0","68","NA","68","0","0","68","68","68","68","0","68","0","NA","10/24/21 18:58:10","","yes","SternbergTask.osexp","C:\Users\mmcel\OneDrive\GRAD SCHOOL\fall 2021\Advanced Quant","no","mono","no","18","no","white","no","yes","768","psycho","56","11","C:/Users/mmcel/OneDrive/GRAD SCHOOL/fall 2021/Advanced Quant/sternberg/MM-Subject-2.csv","psycho","9 7 4 5 8","Lentiform Loewenfeld","3.3.9","0","n","0","left","left","left","left","NA","617.774100043","10540.4192","8160.6383","617.774100043","NA","NA","NA","2","legacy","5","1024","2","48000","-16","experiment","2","even","6","431882.5241","432967.2082","104032.2438","3893.51800003","432970.7402","NA","397580.1028","3920.52580003","95870.8059","435177.5834","437181.6075","437800.4945","433973.9134","14462.4762","437181.4196","NA","NA","Sternberg Task","56","33940.2768999","69","yes","1024"
"81.4285714286","81.4285714286","492.539375713","492.539375713","black","experiment","psycho","psycho","psycho","0","uniform","1","undefined","1","left","69","69","0","0","69","NA","69","0","0","69","69","69","69","0","69","0","NA","10/24/21 18:58:10","","yes","SternbergTask.osexp","C:\Users\mmcel\OneDrive\GRAD SCHOOL\fall 2021\Advanced Quant","no","mono","no","18","no","white","no","yes","768","psycho","57","11","C:/Users/mmcel/OneDrive/GRAD SCHOOL/fall 2021/Advanced Quant/sternberg/MM-Subject-2.csv","psycho","7 6","Lentiform Loewenfeld","3.3.9","2","y","0","left","left","left","left","NA","537.479399994","10540.4192","8160.6383","537.479399994","NA","NA","NA","2","legacy","2","1024","2","48000","-16","experiment","2","even","6","431882.5241","438906.6085","104032.2438","3893.51800003","438910.0195","NA","437827.2402","3920.52580003","95870.8059","441116.1896","443119.1149","443657.8294","439913.2175","14462.4762","443118.9433","NA","NA","Sternberg Task","57","34477.7562999","70","yes","1024"
"81.6901408451","81.6901408451","492.227323942","492.227323942","black","experiment","psycho","psycho","psycho","0","uniform","1","undefined","1","right","70","70","0","0","70","NA","70","0","0","70","70","70","70","0","70","0","NA","10/24/21 18:58:10","","yes","SternbergTask.osexp","C:\Users\mmcel\OneDrive\GRAD SCHOOL\fall 2021\Advanced Quant","no","mono","no","18","no","white","no","yes","768","psycho","58","11","C:/Users/mmcel/OneDrive/GRAD SCHOOL/fall 2021/Advanced Quant/sternberg/MM-Subject-2.csv","psycho","1 6 4","Lentiform Loewenfeld","3.3.9","0","n","0","right","left","left","right","NA","470.383699983","10540.4192","8160.6383","470.383699983","NA","NA","NA","2","legacy","3","1024","2","48000","-16","experiment","2","even","7","443683.4071","444762.4551","104032.2438","3893.51800003","444765.8936","NA","437827.2402","3920.52580003","95870.8059","446971.1809","448974.4361","449445.9989","445768.3731","14462.4762","448974.2733","NA","NA","Sternberg Task","58","34948.1399999","71","yes","1024"
"81.9444444444","81.9444444444","490.35327222","490.35327222","black","experiment","psycho","psycho","psycho","0","uniform","1","undefined","1","left","71","71","0","0","71","NA","71","0","0","71","71","71","71","0","71","0","NA","10/24/21 18:58:10","","yes","SternbergTask.osexp","C:\Users\mmcel\OneDrive\GRAD SCHOOL\fall 2021\Advanced Quant","no","mono","no","18","no","white","no","yes","768","psycho","59","11","C:/Users/mmcel/OneDrive/GRAD SCHOOL/fall 2021/Advanced Quant/sternberg/MM-Subject-2.csv","psycho","9 3 8 2 1 4","Lentiform Loewenfeld","3.3.9","3","y","0","left","left","left","left","NA","357.295599999","10540.4192","8160.6383","357.295599999","NA","NA","NA","2","legacy","6","1024","2","48000","-16","experiment","2","even","8","449482.8176","450562.6102","104032.2438","3893.51800003","450565.8906","NA","437827.2402","3920.52580003","95870.8059","452771.2608","454775.2407","455133.5284","451569.0517","14462.4762","454775.0712","NA","NA","Sternberg Task","59","35305.4355999","72","yes","1024"
"80.8219178082","80.8219178082","489.725617807","489.725617807","black","experiment","psycho","psycho","psycho","0","uniform","0","undefined","0","left","72","72","0","0","72","NA","72","0","0","72","72","72","72","0","72","0","NA","10/24/21 18:58:10","","yes","SternbergTask.osexp","C:\Users\mmcel\OneDrive\GRAD SCHOOL\fall 2021\Advanced Quant","no","mono","no","18","no","white","no","yes","768","psycho","60","11","C:/Users/mmcel/OneDrive/GRAD SCHOOL/fall 2021/Advanced Quant/sternberg/MM-Subject-2.csv","psycho","7 8 6 3 1","Lentiform Loewenfeld","3.3.9","5","y","0","right","left","left","right","NA","444.534500013","10540.4192","8160.6383","444.534500013","NA","NA","NA","2","legacy","5","1024","2","48000","-16","experiment","2","even","1","455172.4943","456251.2877","104032.2438","3893.51800003","456254.5894","NA","437827.2402","3920.52580003","95870.8059","458460.2957","460463.5496","460909.2085","457257.2422","14462.4762","460463.3823","NA","NA","Sternberg Task","59","35749.9700999","73","yes","1024"
"81.0810810811","81.0810810811","488.757485134","488.757485134","black","experiment","psycho","psycho","psycho","0","uniform","1","undefined","1","right","73","73","0","0","73","NA","73","0","0","73","73","73","73","0","73","0","NA","10/24/21 18:58:10","","yes","SternbergTask.osexp","C:\Users\mmcel\OneDrive\GRAD SCHOOL\fall 2021\Advanced Quant","no","mono","no","18","no","white","no","yes","768","psycho","61","11","C:/Users/mmcel/OneDrive/GRAD SCHOOL/fall 2021/Advanced Quant/sternberg/MM-Subject-2.csv","psycho","1 4 3 6 5","Lentiform Loewenfeld","3.3.9","0","n","0","right","left","left","right","NA","418.083800003","10540.4192","8160.6383","418.083800003","NA","NA","NA","2","legacy","5","1024","2","48000","-16","experiment","2","even","8","455172.4943","462076.888","104032.2438","3893.51800003","462080.1644","NA","460998.1508","3920.52580003","95870.8059","464287.8348","466291.6298","466710.803","463084.1078","14462.4762","466291.4812","NA","NA","Sternberg Task","60","36168.0538999","74","yes","1024"
"80","80","485.670230666","485.670230666","black","experiment","psycho","psycho","psycho","0","uniform","0","undefined","0","right","74","74","0","0","74","NA","74","0","0","74","74","74","74","0","74","0","NA","10/24/21 18:58:10","","yes","SternbergTask.osexp","C:\Users\mmcel\OneDrive\GRAD SCHOOL\fall 2021\Advanced Quant","no","mono","no","18","no","white","no","yes","768","psycho","62","11","C:/Users/mmcel/OneDrive/GRAD SCHOOL/fall 2021/Advanced Quant/sternberg/MM-Subject-2.csv","psycho","2 8 7 9 5 3","Lentiform Loewenfeld","3.3.9","0","n","0","left","left","left","left","NA","257.213400037","10540.4192","8160.6383","257.213400037","NA","NA","NA","2","legacy","6","1024","2","48000","-16","experiment","2","even","6","466739.0201","467818.5717","104032.2438","3893.51800003","467822.0075","NA","460998.1508","3920.52580003","95870.8059","470029.3361","472032.3","472290.811","468826.0708","14462.4762","472032.1177","NA","NA","Sternberg Task","60","36425.2672999","75","yes","1024"
"80.2631578947","80.2631578947","486.07274342","486.07274342","black","experiment","psycho","psycho","psycho","0","uniform","1","undefined","1","right","75","75","0","0","75","NA","75","0","0","75","75","75","75","0","75","0","NA","10/24/21 18:58:10","","yes","SternbergTask.osexp","C:\Users\mmcel\OneDrive\GRAD SCHOOL\fall 2021\Advanced Quant","no","mono","no","18","no","white","no","yes","768","psycho","63","11","C:/Users/mmcel/OneDrive/GRAD SCHOOL/fall 2021/Advanced Quant/sternberg/MM-Subject-2.csv","psycho","5 7 3","Lentiform Loewenfeld","3.3.9","0","n","0","right","left","left","right","NA","516.261200013","10540.4192","8160.6383","516.261200013","NA","NA","NA","2","legacy","3","1024","2","48000","-16","experiment","2","even","9","466739.0201","473480.6503","104032.2438","3893.51800003","473483.9384","NA","472399.2022","3920.52580003","95870.8059","475689.1287","477693.2151","478210.7125","474486.4218","14462.4762","477693.0323","NA","NA","Sternberg Task","61","36941.5284999","76","yes","1024"
"80.5194805195","80.5194805195","486.693668831","486.693668831","black","experiment","psycho","psycho","psycho","0","uniform","1","undefined","1","right","76","76","0","0","76","NA","76","0","0","76","76","76","76","0","76","0","NA","10/24/21 18:58:10","","yes","SternbergTask.osexp","C:\Users\mmcel\OneDrive\GRAD SCHOOL\fall 2021\Advanced Quant","no","mono","no","18","no","white","no","yes","768","psycho","64","11","C:/Users/mmcel/OneDrive/GRAD SCHOOL/fall 2021/Advanced Quant/sternberg/MM-Subject-2.csv","psycho","8 9","Lentiform Loewenfeld","3.3.9","0","n","0","right","left","left","right","NA","533.884000033","10540.4192","8160.6383","533.884000033","NA","NA","NA","2","legacy","2","1024","2","48000","-16","experiment","2","even","5","478262.0081","479343.4848","104032.2438","3893.51800003","479346.8601","NA","472399.2022","3920.52580003","95870.8059","481552.674","483556.3693","484091.4021","480349.3349","14462.4762","483556.1899","NA","NA","Sternberg Task","62","37475.4125","77","yes","1024"
"80.7692307692","80.7692307692","485.66706282","485.66706282","black","experiment","psycho","psycho","psycho","0","uniform","1","undefined","1","left","77","77","0","0","77","NA","77","0","0","77","77","77","77","0","77","0","NA","10/24/21 18:58:10","","yes","SternbergTask.osexp","C:\Users\mmcel\OneDrive\GRAD SCHOOL\fall 2021\Advanced Quant","no","mono","no","18","no","white","no","yes","768","psycho","65","11","C:/Users/mmcel/OneDrive/GRAD SCHOOL/fall 2021/Advanced Quant/sternberg/MM-Subject-2.csv","psycho","6 9 3 1","Lentiform Loewenfeld","3.3.9","4","y","0","left","left","left","left","NA","406.618400011","10540.4192","8160.6383","406.618400011","NA","NA","NA","2","legacy","4","1024","2","48000","-16","experiment","2","even","1","484118.3964","485197.4038","104032.2438","3893.51800003","485200.973","NA","472399.2022","3920.52580003","95870.8059","487407.6887","489410.8842","489818.5162","486204.1059","14462.4762","489410.7093","NA","NA","Sternberg Task","63","37882.0309","78","yes","1024"
"81.0126582278","81.0126582278","486.315306329","486.315306329","black","experiment","psycho","psycho","psycho","0","uniform","1","undefined","1","right","78","78","0","0","78","NA","78","0","0","78","78","78","78","0","78","0","NA","10/24/21 18:58:10","","yes","SternbergTask.osexp","C:\Users\mmcel\OneDrive\GRAD SCHOOL\fall 2021\Advanced Quant","no","mono","no","18","no","white","no","yes","768","psycho","66","11","C:/Users/mmcel/OneDrive/GRAD SCHOOL/fall 2021/Advanced Quant/sternberg/MM-Subject-2.csv","psycho","7 1 8 4 9 3","Lentiform Loewenfeld","3.3.9","0","n","0","right","left","left","right","NA","536.878300016","10540.4192","8160.6383","536.878300016","NA","NA","NA","2","legacy","6","1024","2","48000","-16","experiment","2","even","6","489943.0222","491023.6408","104032.2438","3893.51800003","491026.9758","NA","472399.2022","3920.52580003","95870.8059","493234.7818","495238.3354","495776.2695","492031.0921","14462.4762","495238.1651","NA","NA","Sternberg Task","64","38418.9092","79","yes","1024"
"81.25","81.25","484.500675","484.500675","black","experiment","psycho","psycho","psycho","0","uniform","1","undefined","1","left","79","79","0","0","79","NA","79","0","0","79","79","79","79","0","79","0","NA","10/24/21 18:58:10","","yes","SternbergTask.osexp","C:\Users\mmcel\OneDrive\GRAD SCHOOL\fall 2021\Advanced Quant","no","mono","no","18","no","white","no","yes","768","psycho","67","11","C:/Users/mmcel/OneDrive/GRAD SCHOOL/fall 2021/Advanced Quant/sternberg/MM-Subject-2.csv","psycho","6 7 8 5","Lentiform Loewenfeld","3.3.9","3","y","0","left","left","left","left","NA","341.144800012","10540.4192","8160.6383","341.144800012","NA","NA","NA","2","legacy","4","1024","2","48000","-16","experiment","2","even","8","495807.7864","496886.8942","104032.2438","3893.51800003","496890.6248","NA","472399.2022","3920.52580003","95870.8059","499097.0436","501100.7716","501442.9378","497893.6661","14462.4762","501100.5806","NA","NA","Sternberg Task","65","38760.054","80","yes","1024"
"81.4814814815","81.4814814815","484.570471605","484.570471605","black","experiment","psycho","psycho","psycho","0","uniform","1","undefined","1","right","80","80","0","0","80","NA","80","0","0","80","80","80","80","0","80","0","NA","10/24/21 18:58:10","","yes","SternbergTask.osexp","C:\Users\mmcel\OneDrive\GRAD SCHOOL\fall 2021\Advanced Quant","no","mono","no","18","no","white","no","yes","768","psycho","68","11","C:/Users/mmcel/OneDrive/GRAD SCHOOL/fall 2021/Advanced Quant/sternberg/MM-Subject-2.csv","psycho","2 8 6 3 1","Lentiform Loewenfeld","3.3.9","0","n","0","right","left","left","right","NA","490.154200001","10540.4192","8160.6383","490.154200001","NA","NA","NA","2","legacy","5","1024","2","48000","-16","experiment","2","even","7","501510.9573","502611.2115","104032.2438","3893.51800003","502614.3058","NA","472399.2022","3920.52580003","95870.8059","504822.4878","506825.8464","507317.1171","503618.4609","14462.4762","506825.667","NA","NA","Sternberg Task","66","39250.2082","81","yes","1024"
"81.7073170732","81.7073170732","485.405519512","485.405519512","black","experiment","psycho","psycho","psycho","0","uniform","1","undefined","1","right","81","81","0","0","81","NA","81","0","0","81","81","81","81","0","81","0","NA","10/24/21 18:58:10","","yes","SternbergTask.osexp","C:\Users\mmcel\OneDrive\GRAD SCHOOL\fall 2021\Advanced Quant","no","mono","no","18","no","white","no","yes","768","psycho","69","11","C:/Users/mmcel/OneDrive/GRAD SCHOOL/fall 2021/Advanced Quant/sternberg/MM-Subject-2.csv","psycho","7 8 6 1","Lentiform Loewenfeld","3.3.9","0","n","0","right","left","left","right","NA","553.044400003","10540.4192","8160.6383","553.044400003","NA","NA","NA","2","legacy","4","1024","2","48000","-16","experiment","2","even","3","507430.6142","508510.2345","104032.2438","3893.51800003","508513.6452","NA","472399.2022","3920.52580003","95870.8059","510721.0584","512724.8708","513278.993","509517.327","14462.4762","512724.693","NA","NA","Sternberg Task","67","39803.2526","82","yes","1024"
"81.9277108434","81.9277108434","485.526859036","485.526859036","black","experiment","psycho","psycho","psycho","0","uniform","1","undefined","1","right","82","82","0","0","82","NA","82","0","0","82","82","82","82","0","82","0","NA","10/24/21 18:58:10","","yes","SternbergTask.osexp","C:\Users\mmcel\OneDrive\GRAD SCHOOL\fall 2021\Advanced Quant","no","mono","no","18","no","white","no","yes","768","psycho","70","11","C:/Users/mmcel/OneDrive/GRAD SCHOOL/fall 2021/Advanced Quant/sternberg/MM-Subject-2.csv","psycho","5 3 2 6 9 8","Lentiform Loewenfeld","3.3.9","0","n","0","right","left","left","right","NA","495.476699958","10540.4192","8160.6383","495.476699958","NA","NA","NA","2","legacy","6","1024","2","48000","-16","experiment","2","even","4","513309.2141","514404.3191","104032.2438","3893.51800003","514408.8381","NA","472399.2022","3920.52580003","95870.8059","516617.4323","518621.459","519118.831","515413.3636","14462.4762","518621.2784","NA","NA","Sternberg Task","68","40298.7293","83","yes","1024"
"80.9523809524","80.9523809524","482.981744047","482.981744047","black","experiment","psycho","psycho","psycho","0","uniform","0","undefined","0","right","83","83","0","0","83","NA","83","0","0","83","83","83","83","0","83","0","NA","10/24/21 18:58:10","","yes","SternbergTask.osexp","C:\Users\mmcel\OneDrive\GRAD SCHOOL\fall 2021\Advanced Quant","no","mono","no","18","no","white","no","yes","768","psycho","71","11","C:/Users/mmcel/OneDrive/GRAD SCHOOL/fall 2021/Advanced Quant/sternberg/MM-Subject-2.csv","psycho","7 1 5 6 3","Lentiform Loewenfeld","3.3.9","0","n","0","left","left","left","left","NA","271.737199975","10540.4192","8160.6383","271.737199975","NA","NA","NA","2","legacy","5","1024","2","48000","-16","experiment","2","even","8","519152.9879","520263.647","104032.2438","3893.51800003","520267.1957","NA","472399.2022","3920.52580003","95870.8059","522473.5678","524477.8007","524750.6768","521270.225","14462.4762","524477.6363","NA","NA","Sternberg Task","68","40570.4665","84","yes","1024"
"80","80","481.204165882","481.204165882","black","experiment","psycho","psycho","psycho","0","uniform","0","undefined","0","right","84","84","0","0","84","NA","84","0","0","84","84","84","84","0","84","0","NA","10/24/21 18:58:10","","yes","SternbergTask.osexp","C:\Users\mmcel\OneDrive\GRAD SCHOOL\fall 2021\Advanced Quant","no","mono","no","18","no","white","no","yes","768","psycho","72","11","C:/Users/mmcel/OneDrive/GRAD SCHOOL/fall 2021/Advanced Quant/sternberg/MM-Subject-2.csv","psycho","1 7 8 3 9","Lentiform Loewenfeld","3.3.9","0","n","0","left","left","left","left","NA","331.887600012","10540.4192","8160.6383","331.887600012","NA","NA","NA","2","legacy","5","1024","2","48000","-16","experiment","2","even","2","519152.9879","525855.7029","104032.2438","3893.51800003","525859.1194","NA","524775.9652","3920.52580003","95870.8059","528065.3443","530069.3374","530402.3061","526862.4794","14462.4762","530069.1659","NA","NA","Sternberg Task","68","40902.3541","85","yes","1024"
"80.2325581395","80.2325581395","479.711302325","479.711302325","black","experiment","psycho","psycho","psycho","0","uniform","1","undefined","1","right","85","85","0","0","85","NA","85","0","0","85","85","85","85","0","85","0","NA","10/24/21 18:58:10","","yes","SternbergTask.osexp","C:\Users\mmcel\OneDrive\GRAD SCHOOL\fall 2021\Advanced Quant","no","mono","no","18","no","white","no","yes","768","psycho","73","11","C:/Users/mmcel/OneDrive/GRAD SCHOOL/fall 2021/Advanced Quant/sternberg/MM-Subject-2.csv","psycho","3 4 2","Lentiform Loewenfeld","3.3.9","0","n","0","right","left","left","right","NA","352.817900013","10540.4192","8160.6383","352.817900013","NA","NA","NA","2","legacy","3","1024","2","48000","-16","experiment","2","even","5","519152.9879","531552.1897","104032.2438","3893.51800003","531555.3952","NA","530468.8617","3920.52580003","95870.8059","533762.4047","535765.6456","536119.7566","532559.0008","14462.4762","535765.4767","NA","NA","Sternberg Task","69","41255.172","86","yes","1024"
"80.4597701149","80.4597701149","478.08459885","478.08459885","black","experiment","psycho","psycho","psycho","0","uniform","1","undefined","1","left","86","86","0","0","86","NA","86","0","0","86","86","86","86","0","86","0","NA","10/24/21 18:58:10","","yes","SternbergTask.osexp","C:\Users\mmcel\OneDrive\GRAD SCHOOL\fall 2021\Advanced Quant","no","mono","no","18","no","white","no","yes","768","psycho","74","11","C:/Users/mmcel/OneDrive/GRAD SCHOOL/fall 2021/Advanced Quant/sternberg/MM-Subject-2.csv","psycho","3 9 6 2","Lentiform Loewenfeld","3.3.9","4","y","0","left","left","left","left","NA","338.188099966","10540.4192","8160.6383","338.188099966","NA","NA","NA","2","legacy","4","1024","2","48000","-16","experiment","2","even","2","536142.798","537221.24","104032.2438","3893.51800003","537224.6591","NA","530468.8617","3920.52580003","95870.8059","539431.5518","541435.0905","541774.3594","538228.3516","14462.4762","541434.9017","NA","NA","Sternberg Task","70","41593.3600999","87","yes","1024"
"79.5454545455","79.5454545455","477.498614772","477.498614772","black","experiment","psycho","psycho","psycho","0","uniform","0","undefined","0","left","87","87","0","0","87","NA","87","0","0","87","87","87","87","0","87","0","NA","10/24/21 18:58:10","","yes","SternbergTask.osexp","C:\Users\mmcel\OneDrive\GRAD SCHOOL\fall 2021\Advanced Quant","no","mono","no","18","no","white","no","yes","768","psycho","75","11","C:/Users/mmcel/OneDrive/GRAD SCHOOL/fall 2021/Advanced Quant/sternberg/MM-Subject-2.csv","psycho","2 4 8 5 1 3","Lentiform Loewenfeld","3.3.9","1","y","0","right","left","left","right","NA","426.518000022","10540.4192","8160.6383","426.518000022","NA","NA","NA","2","legacy","6","1024","2","48000","-16","experiment","2","even","2","541798.9208","542877.1672","104032.2438","3893.51800003","542880.5528","NA","530468.8617","3920.52580003","95870.8059","545087.6673","547091.3382","547519.1723","543884.6889","14462.4762","547091.178","NA","NA","Sternberg Task","70","42019.8781","88","yes","1024"
"78.6516853933","78.6516853933","476.556491011","476.556491011","black","experiment","psycho","psycho","psycho","0","uniform","0","undefined","0","right","88","88","0","0","88","NA","88","0","0","88","88","88","88","0","88","0","NA","10/24/21 18:58:10","","yes","SternbergTask.osexp","C:\Users\mmcel\OneDrive\GRAD SCHOOL\fall 2021\Advanced Quant","no","mono","no","18","no","white","no","yes","768","psycho","76","11","C:/Users/mmcel/OneDrive/GRAD SCHOOL/fall 2021/Advanced Quant/sternberg/MM-Subject-2.csv","psycho","9","Lentiform Loewenfeld","3.3.9","0","n","0","left","left","left","left","NA","393.649600039","10540.4192","8160.6383","393.649600039","NA","NA","NA","2","legacy","1","1024","2","48000","-16","experiment","2","even","6","541798.9208","548678.3997","104032.2438","3893.51800003","548681.9017","NA","547600.3825","3920.52580003","95870.8059","550888.4598","552892.0187","553286.8003","549685.0857","14462.4762","552891.8501","NA","NA","Sternberg Task","70","42413.5277","89","yes","1024"
"77.7777777778","77.7777777778","475.76106","475.76106","black","experiment","psycho","psycho","psycho","0","uniform","0","undefined","0","right","89","89","0","0","89","NA","89","0","0","89","89","89","89","0","89","0","NA","10/24/21 18:58:10","","yes","SternbergTask.osexp","C:\Users\mmcel\OneDrive\GRAD SCHOOL\fall 2021\Advanced Quant","no","mono","no","18","no","white","no","yes","768","psycho","77","11","C:/Users/mmcel/OneDrive/GRAD SCHOOL/fall 2021/Advanced Quant/sternberg/MM-Subject-2.csv","psycho","2 8 9 4 1","Lentiform Loewenfeld","3.3.9","0","n","0","left","left","left","left","NA","404.967700015","10540.4192","8160.6383","404.967700015","NA","NA","NA","2","legacy","5","1024","2","48000","-16","experiment","2","even","5","541798.9208","554400.7104","104032.2438","3893.51800003","554404.0943","NA","553321.8104","3920.52580003","95870.8059","556610.1906","558613.2939","559019.4383","555407.0749","14462.4762","558613.1453","NA","NA","Sternberg Task","70","42818.4954","90","yes","1024"
"78.021978022","78.021978022","474.987203297","474.987203297","black","experiment","psycho","psycho","psycho","0","uniform","1","undefined","1","left","90","90","0","0","90","NA","90","0","0","90","90","90","90","0","90","0","NA","10/24/21 18:58:10","","yes","SternbergTask.osexp","C:\Users\mmcel\OneDrive\GRAD SCHOOL\fall 2021\Advanced Quant","no","mono","no","18","no","white","no","yes","768","psycho","78","11","C:/Users/mmcel/OneDrive/GRAD SCHOOL/fall 2021/Advanced Quant/sternberg/MM-Subject-2.csv","psycho","4 6 2 5 1","Lentiform Loewenfeld","3.3.9","5","y","0","left","left","left","left","NA","405.340099998","10540.4192","8160.6383","405.340099998","NA","NA","NA","2","legacy","5","1024","2","48000","-16","experiment","2","even","1","541798.9208","560137.9306","104032.2438","3893.51800003","560141.6041","NA","559058.003","3920.52580003","95870.8059","562348.2996","564351.6579","564758.3627","561145.3355","14462.4762","564351.4734","NA","NA","Sternberg Task","71","43223.8355","91","yes","1024"
"78.2608695652","78.2608695652","474.813155435","474.813155435","black","experiment","psycho","psycho","psycho","0","uniform","1","undefined","1","right","91","91","0","0","91","NA","91","0","0","91","91","91","91","0","91","0","NA","10/24/21 18:58:10","","yes","SternbergTask.osexp","C:\Users\mmcel\OneDrive\GRAD SCHOOL\fall 2021\Advanced Quant","no","mono","no","18","no","white","no","yes","768","psycho","79","11","C:/Users/mmcel/OneDrive/GRAD SCHOOL/fall 2021/Advanced Quant/sternberg/MM-Subject-2.csv","psycho","1 3 2 6 9","Lentiform Loewenfeld","3.3.9","0","n","0","right","left","left","right","NA","458.974800014","10540.4192","8160.6383","458.974800014","NA","NA","NA","2","legacy","5","1024","2","48000","-16","experiment","2","even","5","564811.0628","565889.2904","104032.2438","3893.51800003","565892.6739","NA","559058.003","3920.52580003","95870.8059","568100.2938","570104.3958","570564.626","566896.546","14462.4762","570104.1709","NA","NA","Sternberg Task","72","43682.8103","92","yes","1024"
"78.4946236559","78.4946236559","472.99670215","472.99670215","black","experiment","psycho","psycho","psycho","0","uniform","1","undefined","1","left","92","92","0","0","92","NA","92","0","0","92","92","92","92","0","92","0","NA","10/24/21 18:58:10","","yes","SternbergTask.osexp","C:\Users\mmcel\OneDrive\GRAD SCHOOL\fall 2021\Advanced Quant","no","mono","no","18","no","white","no","yes","768","psycho","80","11","C:/Users/mmcel/OneDrive/GRAD SCHOOL/fall 2021/Advanced Quant/sternberg/MM-Subject-2.csv","psycho","2 8 5 1","Lentiform Loewenfeld","3.3.9","4","y","0","left","left","left","left","NA","305.882999965","10540.4192","8160.6383","305.882999965","NA","NA","NA","2","legacy","4","1024","2","48000","-16","experiment","2","even","1","570599.8509","571678.4772","104032.2438","3893.51800003","571681.8586","NA","559058.003","3920.52580003","95870.8059","573888.9212","575892.4896","576199.4995","572685.5691","14462.4762","575892.3018","NA","NA","Sternberg Task","73","43988.6933","93","yes","1024"
"78.7234042553","78.7234042553","472.192211702","472.192211702","black","experiment","psycho","psycho","psycho","0","uniform","1","undefined","1","left","93","93","0","0","93","NA","93","0","0","93","93","93","93","0","93","0","NA","10/24/21 18:58:10","","yes","SternbergTask.osexp","C:\Users\mmcel\OneDrive\GRAD SCHOOL\fall 2021\Advanced Quant","no","mono","no","18","no","white","no","yes","768","psycho","81","11","C:/Users/mmcel/OneDrive/GRAD SCHOOL/fall 2021/Advanced Quant/sternberg/MM-Subject-2.csv","psycho","4 1 5","Lentiform Loewenfeld","3.3.9","2","y","0","left","left","left","left","NA","397.374599997","10540.4192","8160.6383","397.374599997","NA","NA","NA","2","legacy","3","1024","2","48000","-16","experiment","2","even","1","576292.4954","577372.1963","104032.2438","3893.51800003","577375.4224","NA","559058.003","3920.52580003","95870.8059","579581.108","581584.4618","581983.1235","578378.5216","14462.4762","581584.2855","NA","NA","Sternberg Task","74","44386.0679","94","yes","1024"
"78.9473684211","78.9473684211","471.015644211","471.015644211","black","experiment","psycho","psycho","psycho","0","uniform","1","undefined","1","left","94","94","0","0","94","NA","94","0","0","94","94","94","94","0","94","0","NA","10/24/21 18:58:10","","yes","SternbergTask.osexp","C:\Users\mmcel\OneDrive\GRAD SCHOOL\fall 2021\Advanced Quant","no","mono","no","18","no","white","no","yes","768","psycho","82","11","C:/Users/mmcel/OneDrive/GRAD SCHOOL/fall 2021/Advanced Quant/sternberg/MM-Subject-2.csv","psycho","5 7 8 2 3 8","Lentiform Loewenfeld","3.3.9","5","y","0","left","left","left","left","NA","360.418300028","10540.4192","8160.6383","360.418300028","NA","NA","NA","2","legacy","6","1024","2","48000","-16","experiment","2","even","3","582011.9135","583093.9763","104032.2438","3893.51800003","583097.3257","NA","559058.003","3920.52580003","95870.8059","585304.4447","587307.5115","587669.0976","584101.0426","14462.4762","587307.3303","NA","NA","Sternberg Task","75","44746.4862","95","yes","1024"
"79.1666666667","79.1666666667","469.702727084","469.702727084","black","experiment","psycho","psycho","psycho","0","uniform","1","undefined","1","left","95","95","0","0","95","NA","95","0","0","95","95","95","95","0","95","0","NA","10/24/21 18:58:10","","yes","SternbergTask.osexp","C:\Users\mmcel\OneDrive\GRAD SCHOOL\fall 2021\Advanced Quant","no","mono","no","18","no","white","no","yes","768","psycho","83","11","C:/Users/mmcel/OneDrive/GRAD SCHOOL/fall 2021/Advanced Quant/sternberg/MM-Subject-2.csv","psycho","7 1 8 5 6 2","Lentiform Loewenfeld","3.3.9","2","y","0","left","left","left","left","NA","344.975600019","10540.4192","8160.6383","344.975600019","NA","NA","NA","2","legacy","6","1024","2","48000","-16","experiment","2","even","1","587747.4546","588826.6952","104032.2438","3893.51800003","588830.6565","NA","559058.003","3920.52580003","95870.8059","591036.1642","593039.9205","593386.0349","589833.8594","14462.4762","593039.7193","NA","NA","Sternberg Task","76","45091.4618","96","yes","1024"
"79.381443299","79.381443299","469.146597938","469.146597938","black","experiment","psycho","psycho","psycho","0","uniform","1","undefined","1","right","96","96","0","0","96","NA","96","0","0","96","96","96","96","0","96","0","NA","10/24/21 18:58:10","","yes","SternbergTask.osexp","C:\Users\mmcel\OneDrive\GRAD SCHOOL\fall 2021\Advanced Quant","no","mono","no","18","no","white","no","yes","768","psycho","84","11","C:/Users/mmcel/OneDrive/GRAD SCHOOL/fall 2021/Advanced Quant/sternberg/MM-Subject-2.csv","psycho","5","Lentiform Loewenfeld","3.3.9","0","n","0","right","left","left","right","NA","415.75819999","10540.4192","8160.6383","415.75819999","NA","NA","NA","2","legacy","1","1024","2","48000","-16","experiment","2","even","8","593412.4842","594491.6006","104032.2438","3893.51800003","594494.9508","NA","559058.003","3920.52580003","95870.8059","596701.361","598705.2074","599122.1766","595498.2938","14462.4762","598705.0294","NA","NA","Sternberg Task","77","45507.22","97","yes","1024"
