"acc","accuracy","average_response_time","avg_rt","background","block","canvas_backend","clock_backend","color_backend","compensation","coordinates","correct","correct_instructions1","correct_keyboard_response","correct_response","count_ISI","count_PracticeLoop","count_correctFeedback","count_expSequence","count_experiment","count_experimentLoop","count_fixation","count_incorrectFeedback","count_instructions1","count_instructions2","count_keyboard_response","count_memorySet","count_new_logger","count_new_loop","count_probe","count_thankYou","datetime","description","disable_garbage_collection","empty_column","experiment_file","experiment_path","font_bold","font_family","font_italic","font_size","font_underline","foreground","form_clicks","fullscreen","height","keyboard_backend","live_row","live_row_PracticeLoop","logfile","mouse_backend","numberSet","opensesame_codename","opensesame_version","posInSet","present","repeat_cycle","response","response_instructions1","response_instructions2","response_keyboard_response","response_thankYou","response_time","response_time_instructions1","response_time_instructions2","response_time_keyboard_response","response_time_thankYou","round_decimals","sampler_backend","setSize","sound_buf_size","sound_channels","sound_freq","sound_sample_size","start","subject_nr","subject_parity","target","time_ISI","time_PracticeLoop","time_correctFeedback","time_expSequence","time_experiment","time_experimentLoop","time_fixation","time_incorrectFeedback","time_instructions1","time_instructions2","time_keyboard_response","time_memorySet","time_new_logger","time_new_loop","time_probe","time_thankYou","title","total_correct","total_response_time","total_responses","uniform_coordinates","width"
"100","100","440","440","black","practice","legacy","legacy","legacy","0","uniform","1","undefined","1","left","0","0","0","0","0","0","0","0","0","0","0","0","0","NA","0","0","Fri Oct 16 10:39:41 2020","The main experiment item","yes","NA","SternbergTask.osexp","/Users/kaylaredder/Desktop/Tarleton /AdvancedQuant","no","mono","no","18","no","white","no","yes","768","legacy","0","0","/Users/kaylaredder/Desktop/Tarleton /AdvancedQuant/KR-subject-1.csv","legacy","4 3 1 7 9 8","Lentiform Loewenfeld","3.3.3","1","y","0","left","right","NA","left","NA","440","10546","NA","440","NA","2","legacy","6","1024","2","48000","-16","experiment","1","odd","4","15272","12855","NA","13029","2277","NA","13042","NA","2292","NA","17285","14056","17725","NA","17285","NA","Sternberg Task ","1","440","1","yes","1024"
"100","100","602","602","black","practice","legacy","legacy","legacy","0","uniform","1","undefined","1","right","1","0","1","1","0","0","1","1","0","0","1","1","1","NA","1","0","Fri Oct 16 10:39:41 2020","The main experiment item","yes","NA","SternbergTask.osexp","/Users/kaylaredder/Desktop/Tarleton /AdvancedQuant","no","mono","no","18","no","white","no","yes","768","legacy","1","1","/Users/kaylaredder/Desktop/Tarleton /AdvancedQuant/KR-subject-1.csv","legacy","5","Lentiform Loewenfeld","3.3.3","0","n","0","right","right","NA","right","NA","764","10546","NA","764","NA","2","legacy","1","1024","2","48000","-16","experiment","1","odd","3","21079","12855","17769","18835","2277","NA","18848","NA","2292","NA","23092","19863","23856","NA","23092","NA","Sternberg Task ","2","1204","2","yes","1024"
"66.66666666666667","66.66666666666667","586.6666666666666","586.6666666666666","black","practice","legacy","legacy","legacy","0","uniform","0","undefined","0","left","2","0","2","2","0","0","2","2","0","0","2","2","2","NA","2","0","Fri Oct 16 10:39:41 2020","The main experiment item","yes","NA","SternbergTask.osexp","/Users/kaylaredder/Desktop/Tarleton /AdvancedQuant","no","mono","no","18","no","white","no","yes","768","legacy","2","2","/Users/kaylaredder/Desktop/Tarleton /AdvancedQuant/KR-subject-1.csv","legacy","2 9 4","Lentiform Loewenfeld","3.3.3","3","y","0","right","right","NA","right","NA","556","10546","NA","556","NA","2","legacy","3","1024","2","48000","-16","experiment","1","odd","4","27172","12855","23877","24930","2277","NA","24943","NA","2292","NA","29186","25958","29742","NA","29185","NA","Sternberg Task ","2","1760","3","yes","1024"
"75","75","622.75","622.75","black","practice","legacy","legacy","legacy","0","uniform","1","undefined","1","right","3","0","3","3","0","0","3","3","0","0","3","3","3","NA","3","0","Fri Oct 16 10:39:41 2020","The main experiment item","yes","NA","SternbergTask.osexp","/Users/kaylaredder/Desktop/Tarleton /AdvancedQuant","no","mono","no","18","no","white","no","yes","768","legacy","3","3","/Users/kaylaredder/Desktop/Tarleton /AdvancedQuant/KR-subject-1.csv","legacy","3 1 9 4","Lentiform Loewenfeld","3.3.3","0","n","0","right","right","NA","right","NA","731","10546","NA","731","NA","2","legacy","4","1024","2","48000","-16","experiment","1","odd","6","33062","12855","23877","30818","2277","NA","30830","29763","2292","NA","35075","31846","35807","NA","35075","NA","Sternberg Task ","3","2491","4","yes","1024"
"60","60","648.4","648.4","black","practice","legacy","legacy","legacy","0","uniform","0","undefined","0","right","4","0","4","4","0","0","4","4","0","0","4","4","4","NA","4","0","Fri Oct 16 10:39:41 2020","The main experiment item","yes","NA","SternbergTask.osexp","/Users/kaylaredder/Desktop/Tarleton /AdvancedQuant","no","mono","no","18","no","white","no","yes","768","legacy","4","4","/Users/kaylaredder/Desktop/Tarleton /AdvancedQuant/KR-subject-1.csv","legacy","9 6 7 4 5","Lentiform Loewenfeld","3.3.3","0","n","0","left","right","NA","left","NA","751","10546","NA","751","NA","2","legacy","5","1024","2","48000","-16","experiment","1","odd","3","39127","12855","35827","36884","2277","NA","36896","29763","2292","NA","41141","37912","41892","NA","41140","NA","Sternberg Task ","3","3242","5","yes","1024"
"66.66666666666667","66.66666666666667","603.8333333333334","603.8333333333334","black","practice","legacy","legacy","legacy","0","uniform","1","undefined","1","left","5","0","5","5","0","0","5","5","0","0","5","5","5","NA","5","0","Fri Oct 16 10:39:41 2020","The main experiment item","yes","NA","SternbergTask.osexp","/Users/kaylaredder/Desktop/Tarleton /AdvancedQuant","no","mono","no","18","no","white","no","yes","768","legacy","5","5","/Users/kaylaredder/Desktop/Tarleton /AdvancedQuant/KR-subject-1.csv","legacy","6","Lentiform Loewenfeld","3.3.3","1","y","0","left","right","NA","left","NA","381","10546","NA","381","NA","2","legacy","1","1024","2","48000","-16","experiment","1","odd","6","45210","12855","35827","42968","2277","NA","42980","41913","2292","NA","47224","43994","47606","NA","47223","NA","Sternberg Task ","4","3623","6","yes","1024"
"71.42857142857143","71.42857142857143","580","580","black","practice","legacy","legacy","legacy","0","uniform","1","undefined","1","left","6","0","6","6","0","0","6","6","0","0","6","6","6","NA","6","0","Fri Oct 16 10:39:41 2020","The main experiment item","yes","NA","SternbergTask.osexp","/Users/kaylaredder/Desktop/Tarleton /AdvancedQuant","no","mono","no","18","no","white","no","yes","768","legacy","6","6","/Users/kaylaredder/Desktop/Tarleton /AdvancedQuant/KR-subject-1.csv","legacy","4 8","Lentiform Loewenfeld","3.3.3","1","y","0","left","right","NA","left","NA","437","10546","NA","437","NA","2","legacy","2","1024","2","48000","-16","experiment","1","odd","4","50925","12855","47627","48681","2277","NA","48693","41913","2292","NA","52938","49708","53376","NA","52938","NA","Sternberg Task ","5","4060","7","yes","1024"
"75","75","586.25","586.25","black","practice","legacy","legacy","legacy","0","uniform","1","undefined","1","right","7","0","7","7","0","0","7","7","0","0","7","7","7","NA","7","0","Fri Oct 16 10:39:41 2020","The main experiment item","yes","NA","SternbergTask.osexp","/Users/kaylaredder/Desktop/Tarleton /AdvancedQuant","no","mono","no","18","no","white","no","yes","768","legacy","7","7","/Users/kaylaredder/Desktop/Tarleton /AdvancedQuant/KR-subject-1.csv","legacy","4 1 5","Lentiform Loewenfeld","3.3.3","0","n","0","right","right","NA","right","NA","630","10546","NA","630","NA","2","legacy","3","1024","2","48000","-16","experiment","1","odd","2","56695","12855","53397","54451","2277","NA","54464","41913","2292","NA","58710","55478","59341","NA","58709","NA","Sternberg Task ","6","4690","8","yes","1024"
"77.77777777777777","77.77777777777777","602.7777777777778","602.7777777777778","black","practice","legacy","legacy","legacy","0","uniform","1","undefined","1","left","8","0","8","8","0","0","8","8","0","0","8","8","8","NA","8","0","Fri Oct 16 10:39:41 2020","The main experiment item","yes","NA","SternbergTask.osexp","/Users/kaylaredder/Desktop/Tarleton /AdvancedQuant","no","mono","no","18","no","white","no","yes","768","legacy","8","8","/Users/kaylaredder/Desktop/Tarleton /AdvancedQuant/KR-subject-1.csv","legacy","1 5 2 9","Lentiform Loewenfeld","3.3.3","2","y","0","left","right","NA","left","NA","735","10546","NA","735","NA","2","legacy","4","1024","2","48000","-16","experiment","1","odd","5","62670","12855","59371","60425","2277","NA","60438","41913","2292","NA","64686","61453","65421","NA","64686","NA","Sternberg Task ","7","5425","9","yes","1024"
"80","80","658.9","658.9","black","practice","legacy","legacy","legacy","0","uniform","1","undefined","1","left","9","0","9","9","0","0","9","9","0","0","9","9","9","NA","9","0","Fri Oct 16 10:39:41 2020","The main experiment item","yes","NA","SternbergTask.osexp","/Users/kaylaredder/Desktop/Tarleton /AdvancedQuant","no","mono","no","18","no","white","no","yes","768","legacy","9","9","/Users/kaylaredder/Desktop/Tarleton /AdvancedQuant/KR-subject-1.csv","legacy","1 7 9 8 5","Lentiform Loewenfeld","3.3.3","4","y","0","left","right","NA","left","NA","1164","10546","NA","1164","NA","2","legacy","5","1024","2","48000","-16","experiment","1","odd","8","68745","12855","65444","66500","2277","NA","66513","41913","2292","NA","70759","67528","71924","NA","70759","NA","Sternberg Task ","8","6589","10","yes","1024"
"81.81818181818181","81.81818181818181","654.1818181818181","654.1818181818181","black","practice","legacy","legacy","legacy","0","uniform","1","undefined","1","right","10","0","10","10","0","0","10","10","0","0","10","10","10","NA","10","0","Fri Oct 16 10:39:41 2020","The main experiment item","yes","NA","SternbergTask.osexp","/Users/kaylaredder/Desktop/Tarleton /AdvancedQuant","no","mono","no","18","no","white","no","yes","768","legacy","10","10","/Users/kaylaredder/Desktop/Tarleton /AdvancedQuant/KR-subject-1.csv","legacy","5 7 8 4 1 2","Lentiform Loewenfeld","3.3.3","0","n","0","right","right","NA","right","NA","607","10546","NA","607","NA","2","legacy","6","1024","2","48000","-16","experiment","1","odd","6","75244","12855","71946","73000","2277","NA","73012","41913","2292","NA","77258","74027","77865","NA","77258","NA","Sternberg Task ","9","7196","11","yes","1024"
"83.33333333333333","83.33333333333333","652.5","652.5","black","practice","legacy","legacy","legacy","0","uniform","1","undefined","1","right","11","0","11","11","0","0","11","11","0","0","11","11","11","NA","11","0","Fri Oct 16 10:39:41 2020","The main experiment item","yes","NA","SternbergTask.osexp","/Users/kaylaredder/Desktop/Tarleton /AdvancedQuant","no","mono","no","18","no","white","no","yes","768","legacy","11","11","/Users/kaylaredder/Desktop/Tarleton /AdvancedQuant/KR-subject-1.csv","legacy","2 1","Lentiform Loewenfeld","3.3.3","0","n","0","right","right","NA","right","NA","634","10546","NA","634","NA","2","legacy","2","1024","2","48000","-16","experiment","1","odd","5","81184","12855","77887","78941","2277","NA","78954","41913","2292","NA","83198","79969","83832","NA","83198","NA","Sternberg Task ","10","7830","12","yes","1024"
"84.61538461538461","84.61538461538461","645.6923076923077","645.6923076923077","black","experiment","legacy","legacy","legacy","0","uniform","1","undefined","1","left","12","0","12","12","0","0","12","12","0","0","12","12","12","NA","12","0","Fri Oct 16 10:39:41 2020","The main experiment item","yes","NA","SternbergTask.osexp","/Users/kaylaredder/Desktop/Tarleton /AdvancedQuant","no","mono","no","18","no","white","no","yes","768","legacy","0","11","/Users/kaylaredder/Desktop/Tarleton /AdvancedQuant/KR-subject-1.csv","legacy","7 1 3","Lentiform Loewenfeld","3.3.3","2","y","0","left","right","right","left","NA","564","10546","2264","564","NA","2","legacy","3","1024","2","48000","-16","experiment","1","odd","1","89446","12855","83854","87202","2277","87157","87215","41913","2292","84892","91459","88230","92024","NA","91459","NA","Sternberg Task ","11","8394","13","yes","1024"
"85.71428571428571","85.71428571428571","634.5","634.5","black","experiment","legacy","legacy","legacy","0","uniform","1","undefined","1","left","13","0","13","13","0","0","13","13","0","0","13","13","13","NA","13","0","Fri Oct 16 10:39:41 2020","The main experiment item","yes","NA","SternbergTask.osexp","/Users/kaylaredder/Desktop/Tarleton /AdvancedQuant","no","mono","no","18","no","white","no","yes","768","legacy","1","11","/Users/kaylaredder/Desktop/Tarleton /AdvancedQuant/KR-subject-1.csv","legacy","3 4","Lentiform Loewenfeld","3.3.3","1","y","0","left","right","right","left","NA","489","10546","2264","489","NA","2","legacy","2","1024","2","48000","-16","experiment","1","odd","3","95347","12855","92046","93104","2277","87157","93116","41913","2292","84892","97362","94131","97852","NA","97362","NA","Sternberg Task ","12","8883","14","yes","1024"
"86.66666666666667","86.66666666666667","617.4","617.4","black","experiment","legacy","legacy","legacy","0","uniform","1","undefined","1","left","14","0","14","14","0","0","14","14","0","0","14","14","14","NA","14","0","Fri Oct 16 10:39:41 2020","The main experiment item","yes","NA","SternbergTask.osexp","/Users/kaylaredder/Desktop/Tarleton /AdvancedQuant","no","mono","no","18","no","white","no","yes","768","legacy","2","11","/Users/kaylaredder/Desktop/Tarleton /AdvancedQuant/KR-subject-1.csv","legacy","6 8 9 3 4 9","Lentiform Loewenfeld","3.3.3","5","y","0","left","right","right","left","NA","378","10546","2264","378","NA","2","legacy","6","1024","2","48000","-16","experiment","1","odd","4","101168","12855","97869","98924","2277","87157","98937","41913","2292","84892","103182","99952","103560","NA","103182","NA","Sternberg Task ","13","9261","15","yes","1024"
"87.5","87.5","628.4375","628.4375","black","experiment","legacy","legacy","legacy","0","uniform","1","undefined","1","left","15","0","15","15","0","0","15","15","0","0","15","15","15","NA","15","0","Fri Oct 16 10:39:41 2020","The main experiment item","yes","NA","SternbergTask.osexp","/Users/kaylaredder/Desktop/Tarleton /AdvancedQuant","no","mono","no","18","no","white","no","yes","768","legacy","3","11","/Users/kaylaredder/Desktop/Tarleton /AdvancedQuant/KR-subject-1.csv","legacy","9 1 7 2","Lentiform Loewenfeld","3.3.3","2","y","0","left","right","right","left","NA","794","10546","2264","794","NA","2","legacy","4","1024","2","48000","-16","experiment","1","odd","1","106880","12855","103582","104636","2277","87157","104649","41913","2292","84892","108894","105663","109689","NA","108894","NA","Sternberg Task ","14","10055","16","yes","1024"
"88.23529411764706","88.23529411764706","623.6470588235294","623.6470588235294","black","experiment","legacy","legacy","legacy","0","uniform","1","undefined","1","right","16","0","16","16","0","0","16","16","0","0","16","16","16","NA","16","0","Fri Oct 16 10:39:41 2020","The main experiment item","yes","NA","SternbergTask.osexp","/Users/kaylaredder/Desktop/Tarleton /AdvancedQuant","no","mono","no","18","no","white","no","yes","768","legacy","4","11","/Users/kaylaredder/Desktop/Tarleton /AdvancedQuant/KR-subject-1.csv","legacy","6 8 4","Lentiform Loewenfeld","3.3.3","0","n","0","right","right","right","right","NA","547","10546","2264","547","NA","2","legacy","3","1024","2","48000","-16","experiment","1","odd","1","113009","12855","109710","110764","2277","87157","110777","41913","2292","84892","115023","111792","115570","NA","115023","NA","Sternberg Task ","15","10602","17","yes","1024"
"88.88888888888889","88.88888888888889","619.6666666666666","619.6666666666666","black","experiment","legacy","legacy","legacy","0","uniform","1","undefined","1","right","17","0","17","17","0","0","17","17","0","0","17","17","17","NA","17","0","Fri Oct 16 10:39:41 2020","The main experiment item","yes","NA","SternbergTask.osexp","/Users/kaylaredder/Desktop/Tarleton /AdvancedQuant","no","mono","no","18","no","white","no","yes","768","legacy","5","11","/Users/kaylaredder/Desktop/Tarleton /AdvancedQuant/KR-subject-1.csv","legacy","4 2 6 9","Lentiform Loewenfeld","3.3.3","0","n","0","right","right","right","right","NA","552","10546","2264","552","NA","2","legacy","4","1024","2","48000","-16","experiment","1","odd","7","118891","12855","115593","116647","2277","87157","116660","41913","2292","84892","120905","117675","121457","NA","120905","NA","Sternberg Task ","16","11154","18","yes","1024"
"89.47368421052632","89.47368421052632","617.0526315789474","617.0526315789474","black","experiment","legacy","legacy","legacy","0","uniform","1","undefined","1","right","18","0","18","18","0","0","18","18","0","0","18","18","18","NA","18","0","Fri Oct 16 10:39:41 2020","The main experiment item","yes","NA","SternbergTask.osexp","/Users/kaylaredder/Desktop/Tarleton /AdvancedQuant","no","mono","no","18","no","white","no","yes","768","legacy","6","11","/Users/kaylaredder/Desktop/Tarleton /AdvancedQuant/KR-subject-1.csv","legacy","5 2","Lentiform Loewenfeld","3.3.3","0","n","0","right","right","right","right","NA","570","10546","2264","570","NA","2","legacy","2","1024","2","48000","-16","experiment","1","odd","7","124780","12855","121482","122536","2277","87157","122549","41913","2292","84892","126794","123564","127364","NA","126794","NA","Sternberg Task ","17","11724","19","yes","1024"
"90","90","628.7","628.7","black","experiment","legacy","legacy","legacy","0","uniform","1","undefined","1","left","19","0","19","19","0","0","19","19","0","0","19","19","19","NA","19","0","Fri Oct 16 10:39:41 2020","The main experiment item","yes","NA","SternbergTask.osexp","/Users/kaylaredder/Desktop/Tarleton /AdvancedQuant","no","mono","no","18","no","white","no","yes","768","legacy","7","11","/Users/kaylaredder/Desktop/Tarleton /AdvancedQuant/KR-subject-1.csv","legacy","2 4 8 5 1 3","Lentiform Loewenfeld","3.3.3","1","y","0","left","right","right","left","NA","850","10546","2264","850","NA","2","legacy","6","1024","2","48000","-16","experiment","1","odd","2","130683","12855","127385","128440","2277","87157","128452","41913","2292","84892","132697","129467","133548","NA","132697","NA","Sternberg Task ","18","12574","20","yes","1024"
"90.47619047619048","90.47619047619048","622.2857142857143","622.2857142857143","black","experiment","legacy","legacy","legacy","0","uniform","1","undefined","1","right","20","0","20","20","0","0","20","20","0","0","20","20","20","NA","20","0","Fri Oct 16 10:39:41 2020","The main experiment item","yes","NA","SternbergTask.osexp","/Users/kaylaredder/Desktop/Tarleton /AdvancedQuant","no","mono","no","18","no","white","no","yes","768","legacy","8","11","/Users/kaylaredder/Desktop/Tarleton /AdvancedQuant/KR-subject-1.csv","legacy","7 9 1 6","Lentiform Loewenfeld","3.3.3","0","n","0","right","right","right","right","NA","494","10546","2264","494","NA","2","legacy","4","1024","2","48000","-16","experiment","1","odd","4","136868","12855","133569","134623","2277","87157","134636","41913","2292","84892","138882","135651","139376","NA","138882","NA","Sternberg Task ","19","13068","21","yes","1024"
"90.9090909090909","90.9090909090909","623.2727272727273","623.2727272727273","black","experiment","legacy","legacy","legacy","0","uniform","1","undefined","1","left","21","0","21","21","0","0","21","21","0","0","21","21","21","NA","21","0","Fri Oct 16 10:39:41 2020","The main experiment item","yes","NA","SternbergTask.osexp","/Users/kaylaredder/Desktop/Tarleton /AdvancedQuant","no","mono","no","18","no","white","no","yes","768","legacy","9","11","/Users/kaylaredder/Desktop/Tarleton /AdvancedQuant/KR-subject-1.csv","legacy","2 8 5 1","Lentiform Loewenfeld","3.3.3","4","y","0","left","right","right","left","NA","644","10546","2264","644","NA","2","legacy","4","1024","2","48000","-16","experiment","1","odd","1","142697","12855","139398","140452","2277","87157","140465","41913","2292","84892","144712","141480","145357","NA","144712","NA","Sternberg Task ","20","13712","22","yes","1024"
"91.30434782608695","91.30434782608695","623.8260869565217","623.8260869565217","black","experiment","legacy","legacy","legacy","0","uniform","1","undefined","1","right","22","0","22","22","0","0","22","22","0","0","22","22","22","NA","22","0","Fri Oct 16 10:39:41 2020","The main experiment item","yes","NA","SternbergTask.osexp","/Users/kaylaredder/Desktop/Tarleton /AdvancedQuant","no","mono","no","18","no","white","no","yes","768","legacy","10","11","/Users/kaylaredder/Desktop/Tarleton /AdvancedQuant/KR-subject-1.csv","legacy","9 5 3 2 8 6","Lentiform Loewenfeld","3.3.3","0","n","0","right","right","right","right","NA","636","10546","2264","636","NA","2","legacy","6","1024","2","48000","-16","experiment","1","odd","7","148691","12855","145379","146447","2277","87157","146460","41913","2292","84892","150705","147475","151342","NA","150705","NA","Sternberg Task ","21","14348","23","yes","1024"
"91.66666666666667","91.66666666666667","620.25","620.25","black","experiment","legacy","legacy","legacy","0","uniform","1","undefined","1","right","23","0","23","23","0","0","23","23","0","0","23","23","23","NA","23","0","Fri Oct 16 10:39:41 2020","The main experiment item","yes","NA","SternbergTask.osexp","/Users/kaylaredder/Desktop/Tarleton /AdvancedQuant","no","mono","no","18","no","white","no","yes","768","legacy","11","11","/Users/kaylaredder/Desktop/Tarleton /AdvancedQuant/KR-subject-1.csv","legacy","8 4 3 5","Lentiform Loewenfeld","3.3.3","0","n","0","right","right","right","right","NA","538","10546","2264","538","NA","2","legacy","4","1024","2","48000","-16","experiment","1","odd","6","154661","12855","151363","152417","2277","87157","152430","41913","2292","84892","156675","153445","157213","NA","156675","NA","Sternberg Task ","22","14886","24","yes","1024"
"92","92","622.96","622.96","black","experiment","legacy","legacy","legacy","0","uniform","1","undefined","1","right","24","0","24","24","0","0","24","24","0","0","24","24","24","NA","24","0","Fri Oct 16 10:39:41 2020","The main experiment item","yes","NA","SternbergTask.osexp","/Users/kaylaredder/Desktop/Tarleton /AdvancedQuant","no","mono","no","18","no","white","no","yes","768","legacy","12","11","/Users/kaylaredder/Desktop/Tarleton /AdvancedQuant/KR-subject-1.csv","legacy","8 5 4 2 9 6","Lentiform Loewenfeld","3.3.3","0","n","0","right","right","right","right","NA","688","10546","2264","688","NA","2","legacy","6","1024","2","48000","-16","experiment","1","odd","3","160533","12855","157234","158289","2277","87157","158301","41913","2292","84892","162547","159317","163236","NA","162547","NA","Sternberg Task ","23","15574","25","yes","1024"
"92.3076923076923","92.3076923076923","627.8846153846154","627.8846153846154","black","experiment","legacy","legacy","legacy","0","uniform","1","undefined","1","right","25","0","25","25","0","0","25","25","0","0","25","25","25","NA","25","0","Fri Oct 16 10:39:41 2020","The main experiment item","yes","NA","SternbergTask.osexp","/Users/kaylaredder/Desktop/Tarleton /AdvancedQuant","no","mono","no","18","no","white","no","yes","768","legacy","13","11","/Users/kaylaredder/Desktop/Tarleton /AdvancedQuant/KR-subject-1.csv","legacy","2 8 9","Lentiform Loewenfeld","3.3.3","0","n","0","right","right","right","right","NA","751","10546","2264","751","NA","2","legacy","3","1024","2","48000","-16","experiment","1","odd","6","166555","12855","163257","164311","2277","87157","164324","41913","2292","84892","168569","165339","169320","NA","168569","NA","Sternberg Task ","24","16325","26","yes","1024"
"88.88888888888889","88.88888888888889","625.2962962962963","625.2962962962963","black","experiment","legacy","legacy","legacy","0","uniform","0","undefined","0","left","26","0","26","26","0","0","26","26","0","0","26","26","26","NA","26","0","Fri Oct 16 10:39:41 2020","The main experiment item","yes","NA","SternbergTask.osexp","/Users/kaylaredder/Desktop/Tarleton /AdvancedQuant","no","mono","no","18","no","white","no","yes","768","legacy","14","11","/Users/kaylaredder/Desktop/Tarleton /AdvancedQuant/KR-subject-1.csv","legacy","3 5 7 1","Lentiform Loewenfeld","3.3.3","3","y","0","right","right","right","right","NA","558","10546","2264","558","NA","2","legacy","4","1024","2","48000","-16","experiment","1","odd","7","172642","12855","169342","170398","2277","87157","170411","41913","2292","84892","174656","171426","175214","NA","174656","NA","Sternberg Task ","24","16883","27","yes","1024"
"89.28571428571429","89.28571428571429","623.4285714285714","623.4285714285714","black","experiment","legacy","legacy","legacy","0","uniform","1","undefined","1","right","27","0","27","27","0","0","27","27","0","0","27","27","27","NA","27","0","Fri Oct 16 10:39:41 2020","The main experiment item","yes","NA","SternbergTask.osexp","/Users/kaylaredder/Desktop/Tarleton /AdvancedQuant","no","mono","no","18","no","white","no","yes","768","legacy","15","11","/Users/kaylaredder/Desktop/Tarleton /AdvancedQuant/KR-subject-1.csv","legacy","1 5 3 2 8","Lentiform Loewenfeld","3.3.3","0","n","0","right","right","right","right","NA","573","10546","2264","573","NA","2","legacy","5","1024","2","48000","-16","experiment","1","odd","4","178536","12855","169342","176291","2277","87157","176304","175237","2292","84892","180551","177320","181125","NA","180551","NA","Sternberg Task ","25","17456","28","yes","1024"
"89.65517241379311","89.65517241379311","622.3103448275862","622.3103448275862","black","experiment","legacy","legacy","legacy","0","uniform","1","undefined","1","left","28","0","28","28","0","0","28","28","0","0","28","28","28","NA","28","0","Fri Oct 16 10:39:41 2020","The main experiment item","yes","NA","SternbergTask.osexp","/Users/kaylaredder/Desktop/Tarleton /AdvancedQuant","no","mono","no","18","no","white","no","yes","768","legacy","16","11","/Users/kaylaredder/Desktop/Tarleton /AdvancedQuant/KR-subject-1.csv","legacy","6 9 3 1","Lentiform Loewenfeld","3.3.3","4","y","0","left","right","right","left","NA","591","10546","2264","591","NA","2","legacy","4","1024","2","48000","-16","experiment","1","odd","1","184444","12855","181146","182200","2277","87157","182213","175237","2292","84892","186459","183228","187050","NA","186459","NA","Sternberg Task ","26","18047","29","yes","1024"
"90","90","629.5","629.5","black","experiment","legacy","legacy","legacy","0","uniform","1","undefined","1","left","29","0","29","29","0","0","29","29","0","0","29","29","29","NA","29","0","Fri Oct 16 10:39:41 2020","The main experiment item","yes","NA","SternbergTask.osexp","/Users/kaylaredder/Desktop/Tarleton /AdvancedQuant","no","mono","no","18","no","white","no","yes","768","legacy","17","11","/Users/kaylaredder/Desktop/Tarleton /AdvancedQuant/KR-subject-1.csv","legacy","6 9 7 4 5 1","Lentiform Loewenfeld","3.3.3","2","y","0","left","right","right","left","NA","838","10546","2264","838","NA","2","legacy","6","1024","2","48000","-16","experiment","1","odd","9","190371","12855","187072","188126","2277","87157","188139","175237","2292","84892","192385","189154","193224","NA","192385","NA","Sternberg Task ","27","18885","30","yes","1024"
"90.3225806451613","90.3225806451613","628.7741935483871","628.7741935483871","black","experiment","legacy","legacy","legacy","0","uniform","1","undefined","1","right","30","0","30","30","0","0","30","30","0","0","30","30","30","NA","30","0","Fri Oct 16 10:39:41 2020","The main experiment item","yes","NA","SternbergTask.osexp","/Users/kaylaredder/Desktop/Tarleton /AdvancedQuant","no","mono","no","18","no","white","no","yes","768","legacy","18","11","/Users/kaylaredder/Desktop/Tarleton /AdvancedQuant/KR-subject-1.csv","legacy","6 9 5","Lentiform Loewenfeld","3.3.3","0","n","0","right","right","right","right","NA","607","10546","2264","607","NA","2","legacy","3","1024","2","48000","-16","experiment","1","odd","8","196542","12855","193245","194299","2277","87157","194311","175237","2292","84892","198556","195326","199164","NA","198556","NA","Sternberg Task ","28","19492","31","yes","1024"
"90.625","90.625","624.875","624.875","black","experiment","legacy","legacy","legacy","0","uniform","1","undefined","1","left","31","0","31","31","0","0","31","31","0","0","31","31","31","NA","31","0","Fri Oct 16 10:39:41 2020","The main experiment item","yes","NA","SternbergTask.osexp","/Users/kaylaredder/Desktop/Tarleton /AdvancedQuant","no","mono","no","18","no","white","no","yes","768","legacy","19","11","/Users/kaylaredder/Desktop/Tarleton /AdvancedQuant/KR-subject-1.csv","legacy","5 7 8 2 3 8","Lentiform Loewenfeld","3.3.3","5","y","0","left","right","right","left","NA","504","10546","2264","504","NA","2","legacy","6","1024","2","48000","-16","experiment","1","odd","3","202484","12855","199184","200240","2277","87157","200253","175237","2292","84892","204498","201268","205003","NA","204498","NA","Sternberg Task ","29","19996","32","yes","1024"
"87.87878787878788","87.87878787878788","619.3939393939394","619.3939393939394","black","experiment","legacy","legacy","legacy","0","uniform","0","undefined","0","left","32","0","32","32","0","0","32","32","0","0","32","32","32","NA","32","0","Fri Oct 16 10:39:41 2020","The main experiment item","yes","NA","SternbergTask.osexp","/Users/kaylaredder/Desktop/Tarleton /AdvancedQuant","no","mono","no","18","no","white","no","yes","768","legacy","20","11","/Users/kaylaredder/Desktop/Tarleton /AdvancedQuant/KR-subject-1.csv","legacy","9 5 8 1","Lentiform Loewenfeld","3.3.3","2","y","0","right","right","right","right","NA","444","10546","2264","444","NA","2","legacy","4","1024","2","48000","-16","experiment","1","odd","5","208323","12855","205025","206079","2277","87157","206092","175237","2292","84892","210337","207106","210782","NA","210337","NA","Sternberg Task ","29","20440","33","yes","1024"
"88.23529411764706","88.23529411764706","615.9411764705883","615.9411764705883","black","experiment","legacy","legacy","legacy","0","uniform","1","undefined","1","left","33","0","33","33","0","0","33","33","0","0","33","33","33","NA","33","0","Fri Oct 16 10:39:41 2020","The main experiment item","yes","NA","SternbergTask.osexp","/Users/kaylaredder/Desktop/Tarleton /AdvancedQuant","no","mono","no","18","no","white","no","yes","768","legacy","21","11","/Users/kaylaredder/Desktop/Tarleton /AdvancedQuant/KR-subject-1.csv","legacy","7 6","Lentiform Loewenfeld","3.3.3","2","y","0","left","right","right","left","NA","502","10546","2264","502","NA","2","legacy","2","1024","2","48000","-16","experiment","1","odd","6","214104","12855","205025","211860","2277","87157","211873","210805","2292","84892","216118","212888","216621","NA","216118","NA","Sternberg Task ","30","20942","34","yes","1024"
"88.57142857142857","88.57142857142857","620.3428571428572","620.3428571428572","black","experiment","legacy","legacy","legacy","0","uniform","1","undefined","1","right","34","0","34","34","0","0","34","34","0","0","34","34","34","NA","34","0","Fri Oct 16 10:39:41 2020","The main experiment item","yes","NA","SternbergTask.osexp","/Users/kaylaredder/Desktop/Tarleton /AdvancedQuant","no","mono","no","18","no","white","no","yes","768","legacy","22","11","/Users/kaylaredder/Desktop/Tarleton /AdvancedQuant/KR-subject-1.csv","legacy","7 6 4 8 1 2","Lentiform Loewenfeld","3.3.3","0","n","0","right","right","right","right","NA","770","10546","2264","770","NA","2","legacy","6","1024","2","48000","-16","experiment","1","odd","9","219942","12855","216642","217696","2277","87157","217709","210805","2292","84892","221956","218724","222726","NA","221956","NA","Sternberg Task ","31","21712","35","yes","1024"
"88.88888888888889","88.88888888888889","617","617","black","experiment","legacy","legacy","legacy","0","uniform","1","undefined","1","left","35","0","35","35","0","0","35","35","0","0","35","35","35","NA","35","0","Fri Oct 16 10:39:41 2020","The main experiment item","yes","NA","SternbergTask.osexp","/Users/kaylaredder/Desktop/Tarleton /AdvancedQuant","no","mono","no","18","no","white","no","yes","768","legacy","23","11","/Users/kaylaredder/Desktop/Tarleton /AdvancedQuant/KR-subject-1.csv","legacy","6 5","Lentiform Loewenfeld","3.3.3","2","y","0","left","right","right","left","NA","500","10546","2264","500","NA","2","legacy","2","1024","2","48000","-16","experiment","1","odd","5","226048","12855","222749","223803","2277","87157","223816","210805","2292","84892","228062","224831","228563","NA","228062","NA","Sternberg Task ","32","22212","36","yes","1024"
"89.1891891891892","89.1891891891892","614.1081081081081","614.1081081081081","black","experiment","legacy","legacy","legacy","0","uniform","1","undefined","1","right","36","0","36","36","0","0","36","36","0","0","36","36","36","NA","36","0","Fri Oct 16 10:39:41 2020","The main experiment item","yes","NA","SternbergTask.osexp","/Users/kaylaredder/Desktop/Tarleton /AdvancedQuant","no","mono","no","18","no","white","no","yes","768","legacy","24","11","/Users/kaylaredder/Desktop/Tarleton /AdvancedQuant/KR-subject-1.csv","legacy","2 6 4 3 9","Lentiform Loewenfeld","3.3.3","0","n","0","right","right","right","right","NA","510","10546","2264","510","NA","2","legacy","5","1024","2","48000","-16","experiment","1","odd","1","231884","12855","228585","229639","2277","87157","229652","210805","2292","84892","233898","230667","234409","NA","233898","NA","Sternberg Task ","33","22722","37","yes","1024"
"86.84210526315789","86.84210526315789","616.9473684210526","616.9473684210526","black","experiment","legacy","legacy","legacy","0","uniform","0","undefined","0","left","37","0","37","37","0","0","37","37","0","0","37","37","37","NA","37","0","Fri Oct 16 10:39:41 2020","The main experiment item","yes","NA","SternbergTask.osexp","/Users/kaylaredder/Desktop/Tarleton /AdvancedQuant","no","mono","no","18","no","white","no","yes","768","legacy","25","11","/Users/kaylaredder/Desktop/Tarleton /AdvancedQuant/KR-subject-1.csv","legacy","5 2 6","Lentiform Loewenfeld","3.3.3","2","y","0","right","right","right","right","NA","722","10546","2264","722","NA","2","legacy","3","1024","2","48000","-16","experiment","1","odd","2","237729","12855","234430","235484","2277","87157","235497","210805","2292","84892","239743","236512","240466","NA","239743","NA","Sternberg Task ","33","23444","38","yes","1024"
"87.17948717948718","87.17948717948718","619.4358974358975","619.4358974358975","black","experiment","legacy","legacy","legacy","0","uniform","1","undefined","1","left","38","0","38","38","0","0","38","38","0","0","38","38","38","NA","38","0","Fri Oct 16 10:39:41 2020","The main experiment item","yes","NA","SternbergTask.osexp","/Users/kaylaredder/Desktop/Tarleton /AdvancedQuant","no","mono","no","18","no","white","no","yes","768","legacy","26","11","/Users/kaylaredder/Desktop/Tarleton /AdvancedQuant/KR-subject-1.csv","legacy","4 6 2 5 1","Lentiform Loewenfeld","3.3.3","5","y","0","left","right","right","left","NA","714","10546","2264","714","NA","2","legacy","5","1024","2","48000","-16","experiment","1","odd","1","243786","12855","234430","241543","2277","87157","241556","240489","2292","84892","245800","242571","246515","NA","245800","NA","Sternberg Task ","34","24158","39","yes","1024"
"87.5","87.5","618.7","618.7","black","experiment","legacy","legacy","legacy","0","uniform","1","undefined","1","right","39","0","39","39","0","0","39","39","0","0","39","39","39","NA","39","0","Fri Oct 16 10:39:41 2020","The main experiment item","yes","NA","SternbergTask.osexp","/Users/kaylaredder/Desktop/Tarleton /AdvancedQuant","no","mono","no","18","no","white","no","yes","768","legacy","27","11","/Users/kaylaredder/Desktop/Tarleton /AdvancedQuant/KR-subject-1.csv","legacy","5 7 3","Lentiform Loewenfeld","3.3.3","0","n","0","right","right","right","right","NA","590","10546","2264","590","NA","2","legacy","3","1024","2","48000","-16","experiment","1","odd","9","249837","12855","246536","247591","2277","87157","247604","240489","2292","84892","251851","248619","252442","NA","251851","NA","Sternberg Task ","35","24748","40","yes","1024"
"85.36585365853658","85.36585365853658","614.8536585365854","614.8536585365854","black","experiment","legacy","legacy","legacy","0","uniform","0","undefined","0","right","40","0","40","40","0","0","40","40","0","0","40","40","40","NA","40","0","Fri Oct 16 10:39:41 2020","The main experiment item","yes","NA","SternbergTask.osexp","/Users/kaylaredder/Desktop/Tarleton /AdvancedQuant","no","mono","no","18","no","white","no","yes","768","legacy","28","11","/Users/kaylaredder/Desktop/Tarleton /AdvancedQuant/KR-subject-1.csv","legacy","9","Lentiform Loewenfeld","3.3.3","0","n","0","left","right","right","left","NA","461","10546","2264","461","NA","2","legacy","1","1024","2","48000","-16","experiment","1","odd","6","255760","12855","252462","253516","2277","87157","253528","240489","2292","84892","257774","254544","258236","NA","257774","NA","Sternberg Task ","35","25209","41","yes","1024"
"85.71428571428571","85.71428571428571","613.4761904761905","613.4761904761905","black","experiment","legacy","legacy","legacy","0","uniform","1","undefined","1","right","41","0","41","41","0","0","41","41","0","0","41","41","41","NA","41","0","Fri Oct 16 10:39:41 2020","The main experiment item","yes","NA","SternbergTask.osexp","/Users/kaylaredder/Desktop/Tarleton /AdvancedQuant","no","mono","no","18","no","white","no","yes","768","legacy","29","11","/Users/kaylaredder/Desktop/Tarleton /AdvancedQuant/KR-subject-1.csv","legacy","1 6 4 3 9 7","Lentiform Loewenfeld","3.3.3","0","n","0","right","right","right","right","NA","557","10546","2264","557","NA","2","legacy","6","1024","2","48000","-16","experiment","1","odd","8","261559","12855","252462","259315","2277","87157","259328","258258","2292","84892","263573","260343","264131","NA","263573","NA","Sternberg Task ","36","25766","42","yes","1024"
"83.72093023255815","83.72093023255815","612.8372093023256","612.8372093023256","black","experiment","legacy","legacy","legacy","0","uniform","0","undefined","0","right","42","0","42","42","0","0","42","42","0","0","42","42","42","NA","42","0","Fri Oct 16 10:39:41 2020","The main experiment item","yes","NA","SternbergTask.osexp","/Users/kaylaredder/Desktop/Tarleton /AdvancedQuant","no","mono","no","18","no","white","no","yes","768","legacy","30","11","/Users/kaylaredder/Desktop/Tarleton /AdvancedQuant/KR-subject-1.csv","legacy","8 9","Lentiform Loewenfeld","3.3.3","0","n","0","left","right","right","left","NA","586","10546","2264","586","NA","2","legacy","2","1024","2","48000","-16","experiment","1","odd","5","267449","12855","264152","265206","2277","87157","265218","258258","2292","84892","269463","266233","270050","NA","269463","NA","Sternberg Task ","36","26352","43","yes","1024"
"84.0909090909091","84.0909090909091","614.3636363636364","614.3636363636364","black","experiment","legacy","legacy","legacy","0","uniform","1","undefined","1","right","43","0","43","43","0","0","43","43","0","0","43","43","43","NA","43","0","Fri Oct 16 10:39:41 2020","The main experiment item","yes","NA","SternbergTask.osexp","/Users/kaylaredder/Desktop/Tarleton /AdvancedQuant","no","mono","no","18","no","white","no","yes","768","legacy","31","11","/Users/kaylaredder/Desktop/Tarleton /AdvancedQuant/KR-subject-1.csv","legacy","2 8 6 3 1","Lentiform Loewenfeld","3.3.3","0","n","0","right","right","right","right","NA","680","10546","2264","680","NA","2","legacy","5","1024","2","48000","-16","experiment","1","odd","7","273371","12855","264152","271127","2277","87157","271140","270071","2292","84892","275385","272155","276066","NA","275385","NA","Sternberg Task ","37","27032","44","yes","1024"
"84.44444444444444","84.44444444444444","613","613","black","experiment","legacy","legacy","legacy","0","uniform","1","undefined","1","right","44","0","44","44","0","0","44","44","0","0","44","44","44","NA","44","0","Fri Oct 16 10:39:41 2020","The main experiment item","yes","NA","SternbergTask.osexp","/Users/kaylaredder/Desktop/Tarleton /AdvancedQuant","no","mono","no","18","no","white","no","yes","768","legacy","32","11","/Users/kaylaredder/Desktop/Tarleton /AdvancedQuant/KR-subject-1.csv","legacy","8 6 3 4 7","Lentiform Loewenfeld","3.3.3","0","n","0","right","right","right","right","NA","553","10546","2264","553","NA","2","legacy","5","1024","2","48000","-16","experiment","1","odd","1","279386","12855","276087","277142","2277","87157","277155","270071","2292","84892","281400","278170","281954","NA","281400","NA","Sternberg Task ","38","27585","45","yes","1024"
"84.78260869565217","84.78260869565217","613.0869565217391","613.0869565217391","black","experiment","legacy","legacy","legacy","0","uniform","1","undefined","1","left","45","0","45","45","0","0","45","45","0","0","45","45","45","NA","45","0","Fri Oct 16 10:39:41 2020","The main experiment item","yes","NA","SternbergTask.osexp","/Users/kaylaredder/Desktop/Tarleton /AdvancedQuant","no","mono","no","18","no","white","no","yes","768","legacy","33","11","/Users/kaylaredder/Desktop/Tarleton /AdvancedQuant/KR-subject-1.csv","legacy","6 7 9 3 1 2","Lentiform Loewenfeld","3.3.3","1","y","0","left","right","right","left","NA","617","10546","2264","617","NA","2","legacy","6","1024","2","48000","-16","experiment","1","odd","6","285272","12855","281975","283029","2277","87157","283042","270071","2292","84892","287287","284056","287905","NA","287287","NA","Sternberg Task ","39","28202","46","yes","1024"
"85.1063829787234","85.1063829787234","611.5957446808511","611.5957446808511","black","experiment","legacy","legacy","legacy","0","uniform","1","undefined","1","right","46","0","46","46","0","0","46","46","0","0","46","46","46","NA","46","0","Fri Oct 16 10:39:41 2020","The main experiment item","yes","NA","SternbergTask.osexp","/Users/kaylaredder/Desktop/Tarleton /AdvancedQuant","no","mono","no","18","no","white","no","yes","768","legacy","34","11","/Users/kaylaredder/Desktop/Tarleton /AdvancedQuant/KR-subject-1.csv","legacy","6 9 4 5 2","Lentiform Loewenfeld","3.3.3","0","n","0","right","right","right","right","NA","543","10546","2264","543","NA","2","legacy","5","1024","2","48000","-16","experiment","1","odd","1","291224","12855","287927","288981","2277","87157","288994","270071","2292","84892","293238","290008","293782","NA","293238","NA","Sternberg Task ","40","28745","47","yes","1024"
"85.41666666666667","85.41666666666667","611.625","611.625","black","experiment","legacy","legacy","legacy","0","uniform","1","undefined","1","right","47","0","47","47","0","0","47","47","0","0","47","47","47","NA","47","0","Fri Oct 16 10:39:41 2020","The main experiment item","yes","NA","SternbergTask.osexp","/Users/kaylaredder/Desktop/Tarleton /AdvancedQuant","no","mono","no","18","no","white","no","yes","768","legacy","35","11","/Users/kaylaredder/Desktop/Tarleton /AdvancedQuant/KR-subject-1.csv","legacy","7 1 8 4 9 3","Lentiform Loewenfeld","3.3.3","0","n","0","right","right","right","right","NA","613","10546","2264","613","NA","2","legacy","6","1024","2","48000","-16","experiment","1","odd","6","297101","12855","293803","294858","2277","87157","294871","270071","2292","84892","299115","295886","299729","NA","299115","NA","Sternberg Task ","41","29358","48","yes","1024"
"85.71428571428571","85.71428571428571","607.3061224489796","607.3061224489796","black","experiment","legacy","legacy","legacy","0","uniform","1","undefined","1","left","48","0","48","48","0","0","48","48","0","0","48","48","48","NA","48","0","Fri Oct 16 10:39:41 2020","The main experiment item","yes","NA","SternbergTask.osexp","/Users/kaylaredder/Desktop/Tarleton /AdvancedQuant","no","mono","no","18","no","white","no","yes","768","legacy","36","11","/Users/kaylaredder/Desktop/Tarleton /AdvancedQuant/KR-subject-1.csv","legacy","4","Lentiform Loewenfeld","3.3.3","1","y","0","left","right","right","left","NA","400","10546","2264","400","NA","2","legacy","1","1024","2","48000","-16","experiment","1","odd","4","303048","12855","299751","300804","2277","87157","300817","270071","2292","84892","305062","301832","305463","NA","305062","NA","Sternberg Task ","42","29758","49","yes","1024"
"86","86","609.64","609.64","black","experiment","legacy","legacy","legacy","0","uniform","1","undefined","1","right","49","0","49","49","0","0","49","49","0","0","49","49","49","NA","49","0","Fri Oct 16 10:39:41 2020","The main experiment item","yes","NA","SternbergTask.osexp","/Users/kaylaredder/Desktop/Tarleton /AdvancedQuant","no","mono","no","18","no","white","no","yes","768","legacy","37","11","/Users/kaylaredder/Desktop/Tarleton /AdvancedQuant/KR-subject-1.csv","legacy","4 2 7 6 1 3","Lentiform Loewenfeld","3.3.3","0","n","0","right","right","right","right","NA","724","10546","2264","724","NA","2","legacy","6","1024","2","48000","-16","experiment","1","odd","8","308782","12855","305484","306538","2277","87157","306551","270071","2292","84892","310796","307566","311521","NA","310796","NA","Sternberg Task ","43","30482","50","yes","1024"
"86.27450980392157","86.27450980392157","610.0980392156863","610.0980392156863","black","experiment","legacy","legacy","legacy","0","uniform","1","undefined","1","left","50","0","50","50","0","0","50","50","0","0","50","50","50","NA","50","0","Fri Oct 16 10:39:41 2020","The main experiment item","yes","NA","SternbergTask.osexp","/Users/kaylaredder/Desktop/Tarleton /AdvancedQuant","no","mono","no","18","no","white","no","yes","768","legacy","38","11","/Users/kaylaredder/Desktop/Tarleton /AdvancedQuant/KR-subject-1.csv","legacy","4 6 5 8","Lentiform Loewenfeld","3.3.3","1","y","0","left","right","right","left","NA","633","10546","2264","633","NA","2","legacy","4","1024","2","48000","-16","experiment","1","odd","4","314842","12855","311543","312597","2277","87157","312610","270071","2292","84892","316856","313625","317490","NA","316856","NA","Sternberg Task ","44","31115","51","yes","1024"
"86.53846153846153","86.53846153846153","612.4230769230769","612.4230769230769","black","experiment","legacy","legacy","legacy","0","uniform","1","undefined","1","left","51","0","51","51","0","0","51","51","0","0","51","51","51","NA","51","0","Fri Oct 16 10:39:41 2020","The main experiment item","yes","NA","SternbergTask.osexp","/Users/kaylaredder/Desktop/Tarleton /AdvancedQuant","no","mono","no","18","no","white","no","yes","768","legacy","39","11","/Users/kaylaredder/Desktop/Tarleton /AdvancedQuant/KR-subject-1.csv","legacy","9 3 1 2 5","Lentiform Loewenfeld","3.3.3","4","y","0","left","right","right","left","NA","731","10546","2264","731","NA","2","legacy","5","1024","2","48000","-16","experiment","1","odd","2","320811","12855","317510","318567","2277","87157","318579","270071","2292","84892","322825","319594","323557","NA","322825","NA","Sternberg Task ","45","31846","52","yes","1024"
"86.79245283018868","86.79245283018868","613.622641509434","613.622641509434","black","experiment","legacy","legacy","legacy","0","uniform","1","undefined","1","left","52","0","52","52","0","0","52","52","0","0","52","52","52","NA","52","0","Fri Oct 16 10:39:41 2020","The main experiment item","yes","NA","SternbergTask.osexp","/Users/kaylaredder/Desktop/Tarleton /AdvancedQuant","no","mono","no","18","no","white","no","yes","768","legacy","40","11","/Users/kaylaredder/Desktop/Tarleton /AdvancedQuant/KR-subject-1.csv","legacy","2 4 6 9","Lentiform Loewenfeld","3.3.3","3","y","0","left","right","right","left","NA","676","10546","2264","676","NA","2","legacy","4","1024","2","48000","-16","experiment","1","odd","6","326879","12855","323578","324634","2277","87157","324647","270071","2292","84892","328893","325662","329570","NA","328893","NA","Sternberg Task ","46","32522","53","yes","1024"
"87.03703703703704","87.03703703703704","615.2407407407408","615.2407407407408","black","experiment","legacy","legacy","legacy","0","uniform","1","undefined","1","left","53","0","53","53","0","0","53","53","0","0","53","53","53","NA","53","0","Fri Oct 16 10:39:41 2020","The main experiment item","yes","NA","SternbergTask.osexp","/Users/kaylaredder/Desktop/Tarleton /AdvancedQuant","no","mono","no","18","no","white","no","yes","768","legacy","41","11","/Users/kaylaredder/Desktop/Tarleton /AdvancedQuant/KR-subject-1.csv","legacy","4 1 5","Lentiform Loewenfeld","3.3.3","2","y","0","left","right","right","left","NA","701","10546","2264","701","NA","2","legacy","3","1024","2","48000","-16","experiment","1","odd","1","332890","12855","329592","330647","2277","87157","330659","270071","2292","84892","334904","331674","335606","NA","334904","NA","Sternberg Task ","47","33223","54","yes","1024"
"87.27272727272727","87.27272727272727","614.5090909090909","614.5090909090909","black","experiment","legacy","legacy","legacy","0","uniform","1","undefined","1","left","54","0","54","54","0","0","54","54","0","0","54","54","54","NA","54","0","Fri Oct 16 10:39:41 2020","The main experiment item","yes","NA","SternbergTask.osexp","/Users/kaylaredder/Desktop/Tarleton /AdvancedQuant","no","mono","no","18","no","white","no","yes","768","legacy","42","11","/Users/kaylaredder/Desktop/Tarleton /AdvancedQuant/KR-subject-1.csv","legacy","7 4 2 6 3 5","Lentiform Loewenfeld","3.3.3","6","y","0","left","right","right","left","NA","575","10546","2264","575","NA","2","legacy","6","1024","2","48000","-16","experiment","1","odd","5","338925","12855","335627","336681","2277","87157","336694","270071","2292","84892","340940","337708","341515","NA","340939","NA","Sternberg Task ","48","33798","55","yes","1024"
"87.5","87.5","612.4107142857143","612.4107142857143","black","experiment","legacy","legacy","legacy","0","uniform","1","undefined","1","left","55","0","55","55","0","0","55","55","0","0","55","55","55","NA","55","0","Fri Oct 16 10:39:41 2020","The main experiment item","yes","NA","SternbergTask.osexp","/Users/kaylaredder/Desktop/Tarleton /AdvancedQuant","no","mono","no","18","no","white","no","yes","768","legacy","43","11","/Users/kaylaredder/Desktop/Tarleton /AdvancedQuant/KR-subject-1.csv","legacy","4 3 2 5 8","Lentiform Loewenfeld","3.3.3","2","y","0","left","right","right","left","NA","497","10546","2264","497","NA","2","legacy","5","1024","2","48000","-16","experiment","1","odd","3","344833","12855","341536","342590","2277","87157","342603","270071","2292","84892","346848","343617","347346","NA","346848","NA","Sternberg Task ","49","34295","56","yes","1024"
"87.71929824561404","87.71929824561404","611.8245614035088","611.8245614035088","black","experiment","legacy","legacy","legacy","0","uniform","1","undefined","1","left","56","0","56","56","0","0","56","56","0","0","56","56","56","NA","56","0","Fri Oct 16 10:39:41 2020","The main experiment item","yes","NA","SternbergTask.osexp","/Users/kaylaredder/Desktop/Tarleton /AdvancedQuant","no","mono","no","18","no","white","no","yes","768","legacy","44","11","/Users/kaylaredder/Desktop/Tarleton /AdvancedQuant/KR-subject-1.csv","legacy","6 1 2","Lentiform Loewenfeld","3.3.3","3","y","0","left","right","right","left","NA","579","10546","2264","579","NA","2","legacy","3","1024","2","48000","-16","experiment","1","odd","2","350668","12855","347368","348425","2277","87157","348437","270071","2292","84892","352682","349452","353262","NA","352681","NA","Sternberg Task ","50","34874","57","yes","1024"
"87.93103448275862","87.93103448275862","610.8103448275862","610.8103448275862","black","experiment","legacy","legacy","legacy","0","uniform","1","undefined","1","left","57","0","57","57","0","0","57","57","0","0","57","57","57","NA","57","0","Fri Oct 16 10:39:41 2020","The main experiment item","yes","NA","SternbergTask.osexp","/Users/kaylaredder/Desktop/Tarleton /AdvancedQuant","no","mono","no","18","no","white","no","yes","768","legacy","45","11","/Users/kaylaredder/Desktop/Tarleton /AdvancedQuant/KR-subject-1.csv","legacy","8","Lentiform Loewenfeld","3.3.3","1","y","0","left","right","right","left","NA","553","10546","2264","553","NA","2","legacy","1","1024","2","48000","-16","experiment","1","odd","8","356580","12855","353283","354337","2277","87157","354350","270071","2292","84892","358595","355364","359149","NA","358595","NA","Sternberg Task ","51","35427","58","yes","1024"
"88.13559322033899","88.13559322033899","609.4915254237288","609.4915254237288","black","experiment","legacy","legacy","legacy","0","uniform","1","undefined","1","left","58","0","58","58","0","0","58","58","0","0","58","58","58","NA","58","0","Fri Oct 16 10:39:41 2020","The main experiment item","yes","NA","SternbergTask.osexp","/Users/kaylaredder/Desktop/Tarleton /AdvancedQuant","no","mono","no","18","no","white","no","yes","768","legacy","46","11","/Users/kaylaredder/Desktop/Tarleton /AdvancedQuant/KR-subject-1.csv","legacy","8 9 5 6 7","Lentiform Loewenfeld","3.3.3","1","y","0","left","right","right","left","NA","533","10546","2264","533","NA","2","legacy","5","1024","2","48000","-16","experiment","1","odd","8","362470","12855","359171","360226","2277","87157","360238","270071","2292","84892","364484","361253","365018","NA","364484","NA","Sternberg Task ","52","35960","59","yes","1024"
"86.66666666666667","86.66666666666667","611.7166666666667","611.7166666666667","black","experiment","legacy","legacy","legacy","0","uniform","0","undefined","0","right","59","0","59","59","0","0","59","59","0","0","59","59","59","NA","59","0","Fri Oct 16 10:39:41 2020","The main experiment item","yes","NA","SternbergTask.osexp","/Users/kaylaredder/Desktop/Tarleton /AdvancedQuant","no","mono","no","18","no","white","no","yes","768","legacy","47","11","/Users/kaylaredder/Desktop/Tarleton /AdvancedQuant/KR-subject-1.csv","legacy","5 9 2 3","Lentiform Loewenfeld","3.3.3","0","n","0","left","right","right","left","NA","743","10546","2264","743","NA","2","legacy","4","1024","2","48000","-16","experiment","1","odd","8","368340","12855","365040","366097","2277","87157","366109","270071","2292","84892","370354","367123","371098","NA","370354","NA","Sternberg Task ","52","36703","60","yes","1024"
"86.88524590163935","86.88524590163935","614.655737704918","614.655737704918","black","experiment","legacy","legacy","legacy","0","uniform","1","undefined","1","right","60","0","60","60","0","0","60","60","0","0","60","60","60","NA","60","0","Fri Oct 16 10:39:41 2020","The main experiment item","yes","NA","SternbergTask.osexp","/Users/kaylaredder/Desktop/Tarleton /AdvancedQuant","no","mono","no","18","no","white","no","yes","768","legacy","48","11","/Users/kaylaredder/Desktop/Tarleton /AdvancedQuant/KR-subject-1.csv","legacy","1 4 9 3","Lentiform Loewenfeld","3.3.3","0","n","0","right","right","right","right","NA","791","10546","2264","791","NA","2","legacy","4","1024","2","48000","-16","experiment","1","odd","5","374417","12855","365040","372174","2277","87157","372186","371118","2292","84892","376430","373201","377221","NA","376430","NA","Sternberg Task ","53","37494","61","yes","1024"
"87.09677419354838","87.09677419354838","612.0322580645161","612.0322580645161","black","experiment","legacy","legacy","legacy","0","uniform","1","undefined","1","right","61","0","61","61","0","0","61","61","0","0","61","61","61","NA","61","0","Fri Oct 16 10:39:41 2020","The main experiment item","yes","NA","SternbergTask.osexp","/Users/kaylaredder/Desktop/Tarleton /AdvancedQuant","no","mono","no","18","no","white","no","yes","768","legacy","49","11","/Users/kaylaredder/Desktop/Tarleton /AdvancedQuant/KR-subject-1.csv","legacy","7 1","Lentiform Loewenfeld","3.3.3","0","n","0","right","right","right","right","NA","452","10546","2264","452","NA","2","legacy","2","1024","2","48000","-16","experiment","1","odd","8","380544","12855","377244","378301","2277","87157","378313","371118","2292","84892","382558","379328","383011","NA","382558","NA","Sternberg Task ","54","37946","62","yes","1024"
"87.3015873015873","87.3015873015873","613.015873015873","613.015873015873","black","experiment","legacy","legacy","legacy","0","uniform","1","undefined","1","left","62","0","62","62","0","0","62","62","0","0","62","62","62","NA","62","0","Fri Oct 16 10:39:41 2020","The main experiment item","yes","NA","SternbergTask.osexp","/Users/kaylaredder/Desktop/Tarleton /AdvancedQuant","no","mono","no","18","no","white","no","yes","768","legacy","50","11","/Users/kaylaredder/Desktop/Tarleton /AdvancedQuant/KR-subject-1.csv","legacy","2 5 4 8 7","Lentiform Loewenfeld","3.3.3","3","y","0","left","right","right","left","NA","674","10546","2264","674","NA","2","legacy","5","1024","2","48000","-16","experiment","1","odd","4","386330","12855","383032","384087","2277","87157","384099","371118","2292","84892","388344","385114","389019","NA","388344","NA","Sternberg Task ","55","38620","63","yes","1024"
"85.9375","85.9375","610.859375","610.859375","black","experiment","legacy","legacy","legacy","0","uniform","0","undefined","0","right","63","0","63","63","0","0","63","63","0","0","63","63","63","NA","63","0","Fri Oct 16 10:39:41 2020","The main experiment item","yes","NA","SternbergTask.osexp","/Users/kaylaredder/Desktop/Tarleton /AdvancedQuant","no","mono","no","18","no","white","no","yes","768","legacy","51","11","/Users/kaylaredder/Desktop/Tarleton /AdvancedQuant/KR-subject-1.csv","legacy","3 9 8 1 6 4","Lentiform Loewenfeld","3.3.3","0","n","0","left","right","right","left","NA","475","10546","2264","475","NA","2","legacy","6","1024","2","48000","-16","experiment","1","odd","7","392340","12855","389042","390096","2277","87157","390109","371118","2292","84892","394354","391123","394830","NA","394354","NA","Sternberg Task ","55","39095","64","yes","1024"
"84.61538461538461","84.61538461538461","611.6615384615385","611.6615384615385","black","experiment","legacy","legacy","legacy","0","uniform","0","undefined","0","left","64","0","64","64","0","0","64","64","0","0","64","64","64","NA","64","0","Fri Oct 16 10:39:41 2020","The main experiment item","yes","NA","SternbergTask.osexp","/Users/kaylaredder/Desktop/Tarleton /AdvancedQuant","no","mono","no","18","no","white","no","yes","768","legacy","52","11","/Users/kaylaredder/Desktop/Tarleton /AdvancedQuant/KR-subject-1.csv","legacy","4 7 6 8 2 3","Lentiform Loewenfeld","3.3.3","6","y","0","right","right","right","right","NA","663","10546","2264","663","NA","2","legacy","6","1024","2","48000","-16","experiment","1","odd","3","398151","12855","389042","395908","2277","87157","395920","394851","2292","84892","400165","396935","400829","NA","400165","NA","Sternberg Task ","55","39758","65","yes","1024"
"84.84848484848484","84.84848484848484","611.0454545454545","611.0454545454545","black","experiment","legacy","legacy","legacy","0","uniform","1","undefined","1","right","65","0","65","65","0","0","65","65","0","0","65","65","65","NA","65","0","Fri Oct 16 10:39:41 2020","The main experiment item","yes","NA","SternbergTask.osexp","/Users/kaylaredder/Desktop/Tarleton /AdvancedQuant","no","mono","no","18","no","white","no","yes","768","legacy","53","11","/Users/kaylaredder/Desktop/Tarleton /AdvancedQuant/KR-subject-1.csv","legacy","1 4 9 2 5","Lentiform Loewenfeld","3.3.3","0","n","0","right","right","right","right","NA","571","10546","2264","571","NA","2","legacy","5","1024","2","48000","-16","experiment","1","odd","7","404150","12855","389042","401908","2277","87157","401921","400851","2292","84892","406163","402936","406734","NA","406163","NA","Sternberg Task ","56","40329","66","yes","1024"
"85.07462686567165","85.07462686567165","611.1343283582089","611.1343283582089","black","experiment","legacy","legacy","legacy","0","uniform","1","undefined","1","left","66","0","66","66","0","0","66","66","0","0","66","66","66","NA","66","0","Fri Oct 16 10:39:41 2020","The main experiment item","yes","NA","SternbergTask.osexp","/Users/kaylaredder/Desktop/Tarleton /AdvancedQuant","no","mono","no","18","no","white","no","yes","768","legacy","54","11","/Users/kaylaredder/Desktop/Tarleton /AdvancedQuant/KR-subject-1.csv","legacy","5 2 9 6 1 7","Lentiform Loewenfeld","3.3.3","3","y","0","left","right","right","left","NA","617","10546","2264","617","NA","2","legacy","6","1024","2","48000","-16","experiment","1","odd","9","410055","12855","406755","407810","2277","87157","407823","400851","2292","84892","412069","408839","412687","NA","412069","NA","Sternberg Task ","57","40946","67","yes","1024"
"85.29411764705883","85.29411764705883","612.2058823529412","612.2058823529412","black","experiment","legacy","legacy","legacy","0","uniform","1","undefined","1","right","67","0","67","67","0","0","67","67","0","0","67","67","67","NA","67","0","Fri Oct 16 10:39:41 2020","The main experiment item","yes","NA","SternbergTask.osexp","/Users/kaylaredder/Desktop/Tarleton /AdvancedQuant","no","mono","no","18","no","white","no","yes","768","legacy","55","11","/Users/kaylaredder/Desktop/Tarleton /AdvancedQuant/KR-subject-1.csv","legacy","7 1 5 6 3","Lentiform Loewenfeld","3.3.3","0","n","0","right","right","right","right","NA","684","10546","2264","684","NA","2","legacy","5","1024","2","48000","-16","experiment","1","odd","8","416006","12855","412707","413762","2277","87157","413775","400851","2292","84892","418020","414790","418705","NA","418020","NA","Sternberg Task ","58","41630","68","yes","1024"
"85.5072463768116","85.5072463768116","612.5652173913044","612.5652173913044","black","experiment","legacy","legacy","legacy","0","uniform","1","undefined","1","right","68","0","68","68","0","0","68","68","0","0","68","68","68","NA","68","0","Fri Oct 16 10:39:41 2020","The main experiment item","yes","NA","SternbergTask.osexp","/Users/kaylaredder/Desktop/Tarleton /AdvancedQuant","no","mono","no","18","no","white","no","yes","768","legacy","56","11","/Users/kaylaredder/Desktop/Tarleton /AdvancedQuant/KR-subject-1.csv","legacy","5","Lentiform Loewenfeld","3.3.3","0","n","0","right","right","right","right","NA","637","10546","2264","637","NA","2","legacy","1","1024","2","48000","-16","experiment","1","odd","8","422028","12855","418730","419784","2277","87157","419797","400851","2292","84892","424042","420812","424680","NA","424041","NA","Sternberg Task ","59","42267","69","yes","1024"
"85.71428571428571","85.71428571428571","615.9857142857143","615.9857142857143","black","experiment","legacy","legacy","legacy","0","uniform","1","undefined","1","left","69","0","69","69","0","0","69","69","0","0","69","69","69","NA","69","0","Fri Oct 16 10:39:41 2020","The main experiment item","yes","NA","SternbergTask.osexp","/Users/kaylaredder/Desktop/Tarleton /AdvancedQuant","no","mono","no","18","no","white","no","yes","768","legacy","57","11","/Users/kaylaredder/Desktop/Tarleton /AdvancedQuant/KR-subject-1.csv","legacy","8 5 1 3 9","Lentiform Loewenfeld","3.3.3","4","y","0","left","right","right","left","NA","852","10546","2264","852","NA","2","legacy","5","1024","2","48000","-16","experiment","1","odd","3","428000","12855","424702","425756","2277","87157","425769","400851","2292","84892","430013","426784","430866","NA","430013","NA","Sternberg Task ","60","43119","70","yes","1024"
"85.91549295774648","85.91549295774648","614.5915492957746","614.5915492957746","black","experiment","legacy","legacy","legacy","0","uniform","1","undefined","1","right","70","0","70","70","0","0","70","70","0","0","70","70","70","NA","70","0","Fri Oct 16 10:39:41 2020","The main experiment item","yes","NA","SternbergTask.osexp","/Users/kaylaredder/Desktop/Tarleton /AdvancedQuant","no","mono","no","18","no","white","no","yes","768","legacy","58","11","/Users/kaylaredder/Desktop/Tarleton /AdvancedQuant/KR-subject-1.csv","legacy","4 8 1 2","Lentiform Loewenfeld","3.3.3","0","n","0","right","right","right","right","NA","517","10546","2264","517","NA","2","legacy","4","1024","2","48000","-16","experiment","1","odd","7","434185","12855","430888","431943","2277","87157","431955","400851","2292","84892","436198","432970","436716","NA","436198","NA","Sternberg Task ","61","43636","71","yes","1024"
"86.11111111111111","86.11111111111111","613.6111111111111","613.6111111111111","black","experiment","legacy","legacy","legacy","0","uniform","1","undefined","1","left","71","0","71","71","0","0","71","71","0","0","71","71","71","NA","71","0","Fri Oct 16 10:39:41 2020","The main experiment item","yes","NA","SternbergTask.osexp","/Users/kaylaredder/Desktop/Tarleton /AdvancedQuant","no","mono","no","18","no","white","no","yes","768","legacy","59","11","/Users/kaylaredder/Desktop/Tarleton /AdvancedQuant/KR-subject-1.csv","legacy","2 3 7 4","Lentiform Loewenfeld","3.3.3","1","y","0","left","right","right","left","NA","544","10546","2264","544","NA","2","legacy","4","1024","2","48000","-16","experiment","1","odd","2","440037","12855","436738","437793","2277","87157","437806","400851","2292","84892","442051","438821","442596","NA","442051","NA","Sternberg Task ","62","44180","72","yes","1024"
"86.3013698630137","86.3013698630137","611.931506849315","611.931506849315","black","experiment","legacy","legacy","legacy","0","uniform","1","undefined","1","left","72","0","72","72","0","0","72","72","0","0","72","72","72","NA","72","0","Fri Oct 16 10:39:41 2020","The main experiment item","yes","NA","SternbergTask.osexp","/Users/kaylaredder/Desktop/Tarleton /AdvancedQuant","no","mono","no","18","no","white","no","yes","768","legacy","60","11","/Users/kaylaredder/Desktop/Tarleton /AdvancedQuant/KR-subject-1.csv","legacy","8 9 5 7 1 6","Lentiform Loewenfeld","3.3.3","4","y","0","left","right","right","left","NA","491","10546","2264","491","NA","2","legacy","6","1024","2","48000","-16","experiment","1","odd","7","445916","12855","442618","443672","2277","87157","443685","400851","2292","84892","447930","444700","448422","NA","447930","NA","Sternberg Task ","63","44671","73","yes","1024"
"86.48648648648648","86.48648648648648","612.3513513513514","612.3513513513514","black","experiment","legacy","legacy","legacy","0","uniform","1","undefined","1","right","73","0","73","73","0","0","73","73","0","0","73","73","73","NA","73","0","Fri Oct 16 10:39:41 2020","The main experiment item","yes","NA","SternbergTask.osexp","/Users/kaylaredder/Desktop/Tarleton /AdvancedQuant","no","mono","no","18","no","white","no","yes","768","legacy","61","11","/Users/kaylaredder/Desktop/Tarleton /AdvancedQuant/KR-subject-1.csv","legacy","6 7 5 9","Lentiform Loewenfeld","3.3.3","0","n","0","right","right","right","right","NA","643","10546","2264","643","NA","2","legacy","4","1024","2","48000","-16","experiment","1","odd","2","451744","12855","448446","449501","2277","87157","449513","400851","2292","84892","453758","450528","454402","NA","453758","NA","Sternberg Task ","64","45314","74","yes","1024"
"86.66666666666667","86.66666666666667","614.32","614.32","black","experiment","legacy","legacy","legacy","0","uniform","1","undefined","1","right","74","0","74","74","0","0","74","74","0","0","74","74","74","NA","74","0","Fri Oct 16 10:39:41 2020","The main experiment item","yes","NA","SternbergTask.osexp","/Users/kaylaredder/Desktop/Tarleton /AdvancedQuant","no","mono","no","18","no","white","no","yes","768","legacy","62","11","/Users/kaylaredder/Desktop/Tarleton /AdvancedQuant/KR-subject-1.csv","legacy","8 5 7 3 6","Lentiform Loewenfeld","3.3.3","0","n","0","right","right","right","right","NA","760","10546","2264","760","NA","2","legacy","5","1024","2","48000","-16","experiment","1","odd","9","457721","12855","454423","455477","2277","87157","455489","400851","2292","84892","459734","456504","460495","NA","459734","NA","Sternberg Task ","65","46074","75","yes","1024"
"85.52631578947368","85.52631578947368","614.2236842105264","614.2236842105264","black","experiment","legacy","legacy","legacy","0","uniform","0","undefined","0","left","75","0","75","75","0","0","75","75","0","0","75","75","75","NA","75","0","Fri Oct 16 10:39:41 2020","The main experiment item","yes","NA","SternbergTask.osexp","/Users/kaylaredder/Desktop/Tarleton /AdvancedQuant","no","mono","no","18","no","white","no","yes","768","legacy","63","11","/Users/kaylaredder/Desktop/Tarleton /AdvancedQuant/KR-subject-1.csv","legacy","4 9 7 8 5 3","Lentiform Loewenfeld","3.3.3","4","y","0","right","right","right","right","NA","607","10546","2264","607","NA","2","legacy","6","1024","2","48000","-16","experiment","1","odd","8","463814","12855","460515","461571","2277","87157","461583","400851","2292","84892","465828","462598","466436","NA","465828","NA","Sternberg Task ","65","46681","76","yes","1024"
"85.71428571428571","85.71428571428571","614.012987012987","614.012987012987","black","experiment","legacy","legacy","legacy","0","uniform","1","undefined","1","left","76","0","76","76","0","0","76","76","0","0","76","76","76","NA","76","0","Fri Oct 16 10:39:41 2020","The main experiment item","yes","NA","SternbergTask.osexp","/Users/kaylaredder/Desktop/Tarleton /AdvancedQuant","no","mono","no","18","no","white","no","yes","768","legacy","64","11","/Users/kaylaredder/Desktop/Tarleton /AdvancedQuant/KR-subject-1.csv","legacy","8 3","Lentiform Loewenfeld","3.3.3","2","y","0","left","right","right","left","NA","598","10546","2264","598","NA","2","legacy","2","1024","2","48000","-16","experiment","1","odd","3","469754","12855","460515","467511","2277","87157","467524","466458","2292","84892","471768","468539","472367","NA","471768","NA","Sternberg Task ","66","47279","77","yes","1024"
"85.8974358974359","85.8974358974359","614.5769230769231","614.5769230769231","black","experiment","legacy","legacy","legacy","0","uniform","1","undefined","1","left","77","0","77","77","0","0","77","77","0","0","77","77","77","NA","77","0","Fri Oct 16 10:39:41 2020","The main experiment item","yes","NA","SternbergTask.osexp","/Users/kaylaredder/Desktop/Tarleton /AdvancedQuant","no","mono","no","18","no","white","no","yes","768","legacy","65","11","/Users/kaylaredder/Desktop/Tarleton /AdvancedQuant/KR-subject-1.csv","legacy","3 9 6 2","Lentiform Loewenfeld","3.3.3","4","y","0","left","right","right","left","NA","658","10546","2264","658","NA","2","legacy","4","1024","2","48000","-16","experiment","1","odd","2","475685","12855","472387","473441","2277","87157","473454","466458","2292","84892","477699","474469","478358","NA","477699","NA","Sternberg Task ","67","47937","78","yes","1024"
"86.07594936708861","86.07594936708861","616.0632911392405","616.0632911392405","black","experiment","legacy","legacy","legacy","0","uniform","1","undefined","1","right","78","0","78","78","0","0","78","78","0","0","78","78","78","NA","78","0","Fri Oct 16 10:39:41 2020","The main experiment item","yes","NA","SternbergTask.osexp","/Users/kaylaredder/Desktop/Tarleton /AdvancedQuant","no","mono","no","18","no","white","no","yes","768","legacy","66","11","/Users/kaylaredder/Desktop/Tarleton /AdvancedQuant/KR-subject-1.csv","legacy","2 8 9 4 1","Lentiform Loewenfeld","3.3.3","0","n","0","right","right","right","right","NA","732","10546","2264","732","NA","2","legacy","5","1024","2","48000","-16","experiment","1","odd","5","481677","12855","478378","479433","2277","87157","479446","466458","2292","84892","483691","480460","484424","NA","483691","NA","Sternberg Task ","68","48669","79","yes","1024"
"86.25","86.25","615.0125","615.0125","black","experiment","legacy","legacy","legacy","0","uniform","1","undefined","1","right","79","0","79","79","0","0","79","79","0","0","79","79","79","NA","79","0","Fri Oct 16 10:39:41 2020","The main experiment item","yes","NA","SternbergTask.osexp","/Users/kaylaredder/Desktop/Tarleton /AdvancedQuant","no","mono","no","18","no","white","no","yes","768","legacy","67","11","/Users/kaylaredder/Desktop/Tarleton /AdvancedQuant/KR-subject-1.csv","legacy","9 8 2 7 4","Lentiform Loewenfeld","3.3.3","0","n","0","right","right","right","right","NA","532","10546","2264","532","NA","2","legacy","5","1024","2","48000","-16","experiment","1","odd","5","487743","12855","484445","485499","2277","87157","485512","466458","2292","84892","489757","486527","490290","NA","489757","NA","Sternberg Task ","69","49201","80","yes","1024"
"86.41975308641975","86.41975308641975","620.4197530864197","620.4197530864197","black","experiment","legacy","legacy","legacy","0","uniform","1","undefined","1","right","80","0","80","80","0","0","80","80","0","0","80","80","80","NA","80","0","Fri Oct 16 10:39:41 2020","The main experiment item","yes","NA","SternbergTask.osexp","/Users/kaylaredder/Desktop/Tarleton /AdvancedQuant","no","mono","no","18","no","white","no","yes","768","legacy","68","11","/Users/kaylaredder/Desktop/Tarleton /AdvancedQuant/KR-subject-1.csv","legacy","6 3 1 7 9 8","Lentiform Loewenfeld","3.3.3","0","n","0","right","right","right","right","NA","1053","10546","2264","1053","NA","2","legacy","6","1024","2","48000","-16","experiment","1","odd","4","493610","12855","490311","491366","2277","87157","491379","466458","2292","84892","495624","492394","496678","NA","495624","NA","Sternberg Task ","70","50254","81","yes","1024"
"86.58536585365853","86.58536585365853","620.6829268292682","620.6829268292682","black","experiment","legacy","legacy","legacy","0","uniform","1","undefined","1","left","81","0","81","81","0","0","81","81","0","0","81","81","81","NA","81","0","Fri Oct 16 10:39:41 2020","The main experiment item","yes","NA","SternbergTask.osexp","/Users/kaylaredder/Desktop/Tarleton /AdvancedQuant","no","mono","no","18","no","white","no","yes","768","legacy","69","11","/Users/kaylaredder/Desktop/Tarleton /AdvancedQuant/KR-subject-1.csv","legacy","9 5 3 8 4","Lentiform Loewenfeld","3.3.3","1","y","0","left","right","right","left","NA","642","10546","2264","642","NA","2","legacy","5","1024","2","48000","-16","experiment","1","odd","9","499999","12855","496700","497754","2277","87157","497767","466458","2292","84892","502012","498782","502655","NA","502012","NA","Sternberg Task ","71","50896","82","yes","1024"
"86.74698795180723","86.74698795180723","619.710843373494","619.710843373494","black","experiment","legacy","legacy","legacy","0","uniform","1","undefined","1","left","82","0","82","82","0","0","82","82","0","0","82","82","82","NA","82","0","Fri Oct 16 10:39:41 2020","The main experiment item","yes","NA","SternbergTask.osexp","/Users/kaylaredder/Desktop/Tarleton /AdvancedQuant","no","mono","no","18","no","white","no","yes","768","legacy","70","11","/Users/kaylaredder/Desktop/Tarleton /AdvancedQuant/KR-subject-1.csv","legacy","9 1 6 7 8","Lentiform Loewenfeld","3.3.3","1","y","0","left","right","right","left","NA","540","10546","2264","540","NA","2","legacy","5","1024","2","48000","-16","experiment","1","odd","9","505975","12855","502677","503731","2277","87157","503743","466458","2292","84892","507990","504758","508531","NA","507990","NA","Sternberg Task ","72","51436","83","yes","1024"
"86.9047619047619","86.9047619047619","620.6904761904761","620.6904761904761","black","experiment","legacy","legacy","legacy","0","uniform","1","undefined","1","right","83","0","83","83","0","0","83","83","0","0","83","83","83","NA","83","0","Fri Oct 16 10:39:41 2020","The main experiment item","yes","NA","SternbergTask.osexp","/Users/kaylaredder/Desktop/Tarleton /AdvancedQuant","no","mono","no","18","no","white","no","yes","768","legacy","71","11","/Users/kaylaredder/Desktop/Tarleton /AdvancedQuant/KR-subject-1.csv","legacy","2 3 8 5 6 7","Lentiform Loewenfeld","3.3.3","0","n","0","right","right","right","right","NA","702","10546","2264","702","NA","2","legacy","6","1024","2","48000","-16","experiment","1","odd","1","511852","12855","508553","509608","2277","87157","509620","466458","2292","84892","513866","510635","514569","NA","513866","NA","Sternberg Task ","73","52138","84","yes","1024"
"87.05882352941177","87.05882352941177","621.8","621.8","black","experiment","legacy","legacy","legacy","0","uniform","1","undefined","1","left","84","0","84","84","0","0","84","84","0","0","84","84","84","NA","84","0","Fri Oct 16 10:39:41 2020","The main experiment item","yes","NA","SternbergTask.osexp","/Users/kaylaredder/Desktop/Tarleton /AdvancedQuant","no","mono","no","18","no","white","no","yes","768","legacy","72","11","/Users/kaylaredder/Desktop/Tarleton /AdvancedQuant/KR-subject-1.csv","legacy","5 7 3 6 2","Lentiform Loewenfeld","3.3.3","5","y","0","left","right","right","left","NA","715","10546","2264","715","NA","2","legacy","5","1024","2","48000","-16","experiment","1","odd","2","517889","12855","514591","515645","2277","87157","515658","466458","2292","84892","519903","516672","520619","NA","519903","NA","Sternberg Task ","74","52853","85","yes","1024"
"87.20930232558139","87.20930232558139","620.5116279069767","620.5116279069767","black","experiment","legacy","legacy","legacy","0","uniform","1","undefined","1","left","85","0","85","85","0","0","85","85","0","0","85","85","85","NA","85","0","Fri Oct 16 10:39:41 2020","The main experiment item","yes","NA","SternbergTask.osexp","/Users/kaylaredder/Desktop/Tarleton /AdvancedQuant","no","mono","no","18","no","white","no","yes","768","legacy","73","11","/Users/kaylaredder/Desktop/Tarleton /AdvancedQuant/KR-subject-1.csv","legacy","4 1 8 7 5","Lentiform Loewenfeld","3.3.3","3","y","0","left","right","right","left","NA","511","10546","2264","511","NA","2","legacy","5","1024","2","48000","-16","experiment","1","odd","8","523938","12855","520640","521695","2277","87157","521707","466458","2292","84892","525952","522721","526464","NA","525952","NA","Sternberg Task ","75","53364","86","yes","1024"
"87.35632183908046","87.35632183908046","619.2413793103449","619.2413793103449","black","experiment","legacy","legacy","legacy","0","uniform","1","undefined","1","right","86","0","86","86","0","0","86","86","0","0","86","86","86","NA","86","0","Fri Oct 16 10:39:41 2020","The main experiment item","yes","NA","SternbergTask.osexp","/Users/kaylaredder/Desktop/Tarleton /AdvancedQuant","no","mono","no","18","no","white","no","yes","768","legacy","74","11","/Users/kaylaredder/Desktop/Tarleton /AdvancedQuant/KR-subject-1.csv","legacy","6 9 7 3 8 2","Lentiform Loewenfeld","3.3.3","0","n","0","right","right","right","right","NA","510","10546","2264","510","NA","2","legacy","6","1024","2","48000","-16","experiment","1","odd","5","529785","12855","526485","527541","2277","87157","527554","466458","2292","84892","531799","528569","532310","NA","531798","NA","Sternberg Task ","76","53874","87","yes","1024"
"87.5","87.5","616.7613636363636","616.7613636363636","black","experiment","legacy","legacy","legacy","0","uniform","1","undefined","1","left","87","0","87","87","0","0","87","87","0","0","87","87","87","NA","87","0","Fri Oct 16 10:39:41 2020","The main experiment item","yes","NA","SternbergTask.osexp","/Users/kaylaredder/Desktop/Tarleton /AdvancedQuant","no","mono","no","18","no","white","no","yes","768","legacy","75","11","/Users/kaylaredder/Desktop/Tarleton /AdvancedQuant/KR-subject-1.csv","legacy","9 6 2 4 1","Lentiform Loewenfeld","3.3.3","4","y","0","left","right","right","left","NA","401","10546","2264","401","NA","2","legacy","5","1024","2","48000","-16","experiment","1","odd","4","535632","12855","532331","533388","2277","87157","533401","466458","2292","84892","537646","534416","538048","NA","537646","NA","Sternberg Task ","77","54275","88","yes","1024"
"87.64044943820225","87.64044943820225","616.685393258427","616.685393258427","black","experiment","legacy","legacy","legacy","0","uniform","1","undefined","1","right","88","0","88","88","0","0","88","88","0","0","88","88","88","NA","88","0","Fri Oct 16 10:39:41 2020","The main experiment item","yes","NA","SternbergTask.osexp","/Users/kaylaredder/Desktop/Tarleton /AdvancedQuant","no","mono","no","18","no","white","no","yes","768","legacy","76","11","/Users/kaylaredder/Desktop/Tarleton /AdvancedQuant/KR-subject-1.csv","legacy","2 7 5","Lentiform Loewenfeld","3.3.3","0","n","0","right","right","right","right","NA","610","10546","2264","610","NA","2","legacy","3","1024","2","48000","-16","experiment","1","odd","8","541368","12855","538069","539125","2277","87157","539138","466458","2292","84892","543382","540153","543993","NA","543382","NA","Sternberg Task ","78","54885","89","yes","1024"
"87.77777777777777","87.77777777777777","615.8","615.8","black","experiment","legacy","legacy","legacy","0","uniform","1","undefined","1","left","89","0","89","89","0","0","89","89","0","0","89","89","89","NA","89","0","Fri Oct 16 10:39:41 2020","The main experiment item","yes","NA","SternbergTask.osexp","/Users/kaylaredder/Desktop/Tarleton /AdvancedQuant","no","mono","no","18","no","white","no","yes","768","legacy","77","11","/Users/kaylaredder/Desktop/Tarleton /AdvancedQuant/KR-subject-1.csv","legacy","1 4 9 3 2 5","Lentiform Loewenfeld","3.3.3","3","y","0","left","right","right","left","NA","537","10546","2264","537","NA","2","legacy","6","1024","2","48000","-16","experiment","1","odd","9","547311","12855","544013","545068","2277","87157","545081","466458","2292","84892","549325","546095","549863","NA","549325","NA","Sternberg Task ","79","55422","90","yes","1024"
"87.91208791208791","87.91208791208791","618.0879120879121","618.0879120879121","black","experiment","legacy","legacy","legacy","0","uniform","1","undefined","1","right","90","0","90","90","0","0","90","90","0","0","90","90","90","NA","90","0","Fri Oct 16 10:39:41 2020","The main experiment item","yes","NA","SternbergTask.osexp","/Users/kaylaredder/Desktop/Tarleton /AdvancedQuant","no","mono","no","18","no","white","no","yes","768","legacy","78","11","/Users/kaylaredder/Desktop/Tarleton /AdvancedQuant/KR-subject-1.csv","legacy","1 6 4","Lentiform Loewenfeld","3.3.3","0","n","0","right","right","right","right","NA","824","10546","2264","824","NA","2","legacy","3","1024","2","48000","-16","experiment","1","odd","7","553181","12855","549884","550937","2277","87157","550950","466458","2292","84892","555195","551964","556020","NA","555195","NA","Sternberg Task ","80","56246","91","yes","1024"
"88.04347826086956","88.04347826086956","619.9782608695652","619.9782608695652","black","experiment","legacy","legacy","legacy","0","uniform","1","undefined","1","right","91","0","91","91","0","0","91","91","0","0","91","91","91","NA","91","0","Fri Oct 16 10:39:41 2020","The main experiment item","yes","NA","SternbergTask.osexp","/Users/kaylaredder/Desktop/Tarleton /AdvancedQuant","no","mono","no","18","no","white","no","yes","768","legacy","79","11","/Users/kaylaredder/Desktop/Tarleton /AdvancedQuant/KR-subject-1.csv","legacy","3 4 9 6 7 8","Lentiform Loewenfeld","3.3.3","0","n","0","right","right","right","right","NA","792","10546","2264","792","NA","2","legacy","6","1024","2","48000","-16","experiment","1","odd","2","559340","12855","556042","557096","2277","87157","557109","466458","2292","84892","561355","558123","562148","NA","561354","NA","Sternberg Task ","81","57038","92","yes","1024"
"88.17204301075269","88.17204301075269","618.6236559139785","618.6236559139785","black","experiment","legacy","legacy","legacy","0","uniform","1","undefined","1","right","92","0","92","92","0","0","92","92","0","0","92","92","92","NA","92","0","Fri Oct 16 10:39:41 2020","The main experiment item","yes","NA","SternbergTask.osexp","/Users/kaylaredder/Desktop/Tarleton /AdvancedQuant","no","mono","no","18","no","white","no","yes","768","legacy","80","11","/Users/kaylaredder/Desktop/Tarleton /AdvancedQuant/KR-subject-1.csv","legacy","1 3 2 6 9","Lentiform Loewenfeld","3.3.3","0","n","0","right","right","right","right","NA","494","10546","2264","494","NA","2","legacy","5","1024","2","48000","-16","experiment","1","odd","5","565467","12855","562169","563223","2277","87157","563236","466458","2292","84892","567481","564251","567976","NA","567481","NA","Sternberg Task ","82","57532","93","yes","1024"
"88.29787234042553","88.29787234042553","617.4042553191489","617.4042553191489","black","experiment","legacy","legacy","legacy","0","uniform","1","undefined","1","left","93","0","93","93","0","0","93","93","0","0","93","93","93","NA","93","0","Fri Oct 16 10:39:41 2020","The main experiment item","yes","NA","SternbergTask.osexp","/Users/kaylaredder/Desktop/Tarleton /AdvancedQuant","no","mono","no","18","no","white","no","yes","768","legacy","81","11","/Users/kaylaredder/Desktop/Tarleton /AdvancedQuant/KR-subject-1.csv","legacy","9 4 2","Lentiform Loewenfeld","3.3.3","1","y","0","left","right","right","left","NA","504","10546","2264","504","NA","2","legacy","3","1024","2","48000","-16","experiment","1","odd","9","571295","12855","567998","569051","2277","87157","569064","466458","2292","84892","573309","570079","573814","NA","573309","NA","Sternberg Task ","83","58036","94","yes","1024"
"88.42105263157895","88.42105263157895","619.2105263157895","619.2105263157895","black","experiment","legacy","legacy","legacy","0","uniform","1","undefined","1","left","94","0","94","94","0","0","94","94","0","0","94","94","94","NA","94","0","Fri Oct 16 10:39:41 2020","The main experiment item","yes","NA","SternbergTask.osexp","/Users/kaylaredder/Desktop/Tarleton /AdvancedQuant","no","mono","no","18","no","white","no","yes","768","legacy","82","11","/Users/kaylaredder/Desktop/Tarleton /AdvancedQuant/KR-subject-1.csv","legacy","3 9 7 6 4","Lentiform Loewenfeld","3.3.3","3","y","0","left","right","right","left","NA","789","10546","2264","789","NA","2","legacy","5","1024","2","48000","-16","experiment","1","odd","7","577132","12855","573836","574890","2277","87157","574902","466458","2292","84892","579146","575916","579936","NA","579146","NA","Sternberg Task ","84","58825","95","yes","1024"
"88.54166666666667","88.54166666666667","620.2083333333334","620.2083333333334","black","experiment","legacy","legacy","legacy","0","uniform","1","undefined","1","right","95","0","95","95","0","0","95","95","0","0","95","95","95","NA","95","0","Fri Oct 16 10:39:41 2020","The main experiment item","yes","NA","SternbergTask.osexp","/Users/kaylaredder/Desktop/Tarleton /AdvancedQuant","no","mono","no","18","no","white","no","yes","768","legacy","83","11","/Users/kaylaredder/Desktop/Tarleton /AdvancedQuant/KR-subject-1.csv","legacy","5 3 2 6 9 8","Lentiform Loewenfeld","3.3.3","0","n","0","right","right","right","right","NA","715","10546","2264","715","NA","2","legacy","6","1024","2","48000","-16","experiment","1","odd","4","583254","12855","579957","581011","2277","87157","581024","466458","2292","84892","585268","582038","585984","NA","585268","NA","Sternberg Task ","85","59540","96","yes","1024"
"88.65979381443299","88.65979381443299","618.2474226804123","618.2474226804123","black","experiment","legacy","legacy","legacy","0","uniform","1","undefined","1","left","96","0","96","96","0","0","96","96","0","0","96","96","96","NA","96","0","Fri Oct 16 10:39:41 2020","The main experiment item","yes","NA","SternbergTask.osexp","/Users/kaylaredder/Desktop/Tarleton /AdvancedQuant","no","mono","no","18","no","white","no","yes","768","legacy","84","11","/Users/kaylaredder/Desktop/Tarleton /AdvancedQuant/KR-subject-1.csv","legacy","7 1 8 5 6 2","Lentiform Loewenfeld","3.3.3","2","y","0","left","right","right","left","NA","430","10546","2264","430","NA","2","legacy","6","1024","2","48000","-16","experiment","1","odd","1","589301","12855","586004","587058","2277","87157","587071","466458","2292","84892","591315","588085","591746","NA","591315","NA","Sternberg Task ","86","59970","97","yes","1024"
"88.77551020408163","88.77551020408163","618.6428571428571","618.6428571428571","black","experiment","legacy","legacy","legacy","0","uniform","1","undefined","1","right","97","0","97","97","0","0","97","97","0","0","97","97","97","NA","97","0","Fri Oct 16 10:39:41 2020","The main experiment item","yes","NA","SternbergTask.osexp","/Users/kaylaredder/Desktop/Tarleton /AdvancedQuant","no","mono","no","18","no","white","no","yes","768","legacy","85","11","/Users/kaylaredder/Desktop/Tarleton /AdvancedQuant/KR-subject-1.csv","legacy","6 2 9 3 8 4","Lentiform Loewenfeld","3.3.3","0","n","0","right","right","right","right","NA","657","10546","2264","657","NA","2","legacy","6","1024","2","48000","-16","experiment","1","odd","1","595066","12855","591767","592822","2277","87157","592835","466458","2292","84892","597080","593850","597738","NA","597080","NA","Sternberg Task ","87","60627","98","yes","1024"
"88.88888888888889","88.88888888888889","618.7474747474747","618.7474747474747","black","experiment","legacy","legacy","legacy","0","uniform","1","undefined","1","right","98","0","98","98","0","0","98","98","0","0","98","98","98","NA","98","0","Fri Oct 16 10:39:41 2020","The main experiment item","yes","NA","SternbergTask.osexp","/Users/kaylaredder/Desktop/Tarleton /AdvancedQuant","no","mono","no","18","no","white","no","yes","768","legacy","86","11","/Users/kaylaredder/Desktop/Tarleton /AdvancedQuant/KR-subject-1.csv","legacy","4 1","Lentiform Loewenfeld","3.3.3","0","n","0","right","right","right","right","NA","629","10546","2264","629","NA","2","legacy","2","1024","2","48000","-16","experiment","1","odd","6","601058","12855","597760","598815","2277","87157","598827","466458","2292","84892","603071","599843","603700","NA","603071","NA","Sternberg Task ","88","61256","99","yes","1024"
"89","89","618.3","618.3","black","experiment","legacy","legacy","legacy","0","uniform","1","undefined","1","right","99","0","99","99","0","0","99","99","0","0","99","99","99","NA","99","0","Fri Oct 16 10:39:41 2020","The main experiment item","yes","NA","SternbergTask.osexp","/Users/kaylaredder/Desktop/Tarleton /AdvancedQuant","no","mono","no","18","no","white","no","yes","768","legacy","87","11","/Users/kaylaredder/Desktop/Tarleton /AdvancedQuant/KR-subject-1.csv","legacy","7 3 2 8","Lentiform Loewenfeld","3.3.3","0","n","0","right","right","right","right","NA","574","10546","2264","574","NA","2","legacy","4","1024","2","48000","-16","experiment","1","odd","4","607021","12855","603722","604777","2277","87157","604790","466458","2292","84892","609035","605804","609610","NA","609035","NA","Sternberg Task ","89","61830","100","yes","1024"
"89.10891089108911","89.10891089108911","619.4851485148515","619.4851485148515","black","experiment","legacy","legacy","legacy","0","uniform","1","undefined","1","left","100","0","100","100","0","0","100","100","0","0","100","100","100","NA","100","0","Fri Oct 16 10:39:41 2020","The main experiment item","yes","NA","SternbergTask.osexp","/Users/kaylaredder/Desktop/Tarleton /AdvancedQuant","no","mono","no","18","no","white","no","yes","768","legacy","88","11","/Users/kaylaredder/Desktop/Tarleton /AdvancedQuant/KR-subject-1.csv","legacy","8 9 6 1","Lentiform Loewenfeld","3.3.3","2","y","0","left","right","right","left","NA","738","10546","2264","738","NA","2","legacy","4","1024","2","48000","-16","experiment","1","odd","9","612930","12855","609632","610686","2277","87157","610699","466458","2292","84892","614944","611714","615683","NA","614944","NA","Sternberg Task ","90","62568","101","yes","1024"
"89.2156862745098","89.2156862745098","620.7254901960785","620.7254901960785","black","experiment","legacy","legacy","legacy","0","uniform","1","undefined","1","left","101","0","101","101","0","0","101","101","0","0","101","101","101","NA","101","0","Fri Oct 16 10:39:41 2020","The main experiment item","yes","NA","SternbergTask.osexp","/Users/kaylaredder/Desktop/Tarleton /AdvancedQuant","no","mono","no","18","no","white","no","yes","768","legacy","89","11","/Users/kaylaredder/Desktop/Tarleton /AdvancedQuant/KR-subject-1.csv","legacy","3 5 9 6 2 4","Lentiform Loewenfeld","3.3.3","1","y","0","left","right","right","left","NA","746","10546","2264","746","NA","2","legacy","6","1024","2","48000","-16","experiment","1","odd","3","619002","12855","615704","616759","2277","87157","616771","466458","2292","84892","621016","617786","621763","NA","621016","NA","Sternberg Task ","91","63314","102","yes","1024"
"89.32038834951456","89.32038834951456","623.0097087378641","623.0097087378641","black","experiment","legacy","legacy","legacy","0","uniform","1","undefined","1","right","102","0","102","102","0","0","102","102","0","0","102","102","102","NA","102","0","Fri Oct 16 10:39:41 2020","The main experiment item","yes","NA","SternbergTask.osexp","/Users/kaylaredder/Desktop/Tarleton /AdvancedQuant","no","mono","no","18","no","white","no","yes","768","legacy","90","11","/Users/kaylaredder/Desktop/Tarleton /AdvancedQuant/KR-subject-1.csv","legacy","5 3 8 7 2 4","Lentiform Loewenfeld","3.3.3","0","n","0","right","right","right","right","NA","856","10546","2264","856","NA","2","legacy","6","1024","2","48000","-16","experiment","1","odd","9","625085","12855","621784","622841","2277","87157","622854","466458","2292","84892","627099","623869","627956","NA","627099","NA","Sternberg Task ","92","64170","103","yes","1024"
"89.42307692307692","89.42307692307692","626.9519230769231","626.9519230769231","black","experiment","legacy","legacy","legacy","0","uniform","1","undefined","1","right","103","0","103","103","0","0","103","103","0","0","103","103","103","NA","103","0","Fri Oct 16 10:39:41 2020","The main experiment item","yes","NA","SternbergTask.osexp","/Users/kaylaredder/Desktop/Tarleton /AdvancedQuant","no","mono","no","18","no","white","no","yes","768","legacy","91","11","/Users/kaylaredder/Desktop/Tarleton /AdvancedQuant/KR-subject-1.csv","legacy","3 9 1","Lentiform Loewenfeld","3.3.3","0","n","0","right","right","right","right","NA","1033","10546","2264","1033","NA","2","legacy","3","1024","2","48000","-16","experiment","1","odd","7","631276","12855","627978","629033","2277","87157","629045","466458","2292","84892","633290","630060","634324","NA","633290","NA","Sternberg Task ","93","65203","104","yes","1024"
"89.52380952380952","89.52380952380952","627.0857142857143","627.0857142857143","black","experiment","legacy","legacy","legacy","0","uniform","1","undefined","1","left","104","0","104","104","0","0","104","104","0","0","104","104","104","NA","104","0","Fri Oct 16 10:39:41 2020","The main experiment item","yes","NA","SternbergTask.osexp","/Users/kaylaredder/Desktop/Tarleton /AdvancedQuant","no","mono","no","18","no","white","no","yes","768","legacy","92","11","/Users/kaylaredder/Desktop/Tarleton /AdvancedQuant/KR-subject-1.csv","legacy","6 7 8 5","Lentiform Loewenfeld","3.3.3","3","y","0","left","right","right","left","NA","641","10546","2264","641","NA","2","legacy","4","1024","2","48000","-16","experiment","1","odd","8","637642","12855","634345","635398","2277","87157","635411","466458","2292","84892","639656","636426","640298","NA","639656","NA","Sternberg Task ","94","65844","105","yes","1024"
"89.62264150943396","89.62264150943396","625.5377358490566","625.5377358490566","black","experiment","legacy","legacy","legacy","0","uniform","1","undefined","1","left","105","0","105","105","0","0","105","105","0","0","105","105","105","NA","105","0","Fri Oct 16 10:39:41 2020","The main experiment item","yes","NA","SternbergTask.osexp","/Users/kaylaredder/Desktop/Tarleton /AdvancedQuant","no","mono","no","18","no","white","no","yes","768","legacy","93","11","/Users/kaylaredder/Desktop/Tarleton /AdvancedQuant/KR-subject-1.csv","legacy","8 5 4 7 3 1","Lentiform Loewenfeld","3.3.3","2","y","0","left","right","right","left","NA","463","10546","2264","463","NA","2","legacy","6","1024","2","48000","-16","experiment","1","odd","5","643620","12855","640320","641376","2277","87157","641389","466458","2292","84892","645634","642404","646098","NA","645634","NA","Sternberg Task ","95","66307","106","yes","1024"
"89.7196261682243","89.7196261682243","625.5140186915888","625.5140186915888","black","experiment","legacy","legacy","legacy","0","uniform","1","undefined","1","right","106","0","106","106","0","0","106","106","0","0","106","106","106","NA","106","0","Fri Oct 16 10:39:41 2020","The main experiment item","yes","NA","SternbergTask.osexp","/Users/kaylaredder/Desktop/Tarleton /AdvancedQuant","no","mono","no","18","no","white","no","yes","768","legacy","94","11","/Users/kaylaredder/Desktop/Tarleton /AdvancedQuant/KR-subject-1.csv","legacy","3 4 2","Lentiform Loewenfeld","3.3.3","0","n","0","right","right","right","right","NA","623","10546","2264","623","NA","2","legacy","3","1024","2","48000","-16","experiment","1","odd","5","649418","12855","646121","647175","2277","87157","647187","466458","2292","84892","651431","648202","652055","NA","651431","NA","Sternberg Task ","96","66930","107","yes","1024"
"89.81481481481481","89.81481481481481","626.3425925925926","626.3425925925926","black","experiment","legacy","legacy","legacy","0","uniform","1","undefined","1","left","107","0","107","107","0","0","107","107","0","0","107","107","107","NA","107","0","Fri Oct 16 10:39:41 2020","The main experiment item","yes","NA","SternbergTask.osexp","/Users/kaylaredder/Desktop/Tarleton /AdvancedQuant","no","mono","no","18","no","white","no","yes","768","legacy","95","11","/Users/kaylaredder/Desktop/Tarleton /AdvancedQuant/KR-subject-1.csv","legacy","9 3 8 2 1 4","Lentiform Loewenfeld","3.3.3","3","y","0","left","right","right","left","NA","715","10546","2264","715","NA","2","legacy","6","1024","2","48000","-16","experiment","1","odd","8","655374","12855","652075","653130","2277","87157","653143","466458","2292","84892","657388","654158","658104","NA","657388","NA","Sternberg Task ","97","67645","108","yes","1024"
"89.90825688073394","89.90825688073394","626.4036697247707","626.4036697247707","black","experiment","legacy","legacy","legacy","0","uniform","1","undefined","1","left","108","0","108","108","0","0","108","108","0","0","108","108","108","NA","108","0","Fri Oct 16 10:39:41 2020","The main experiment item","yes","NA","SternbergTask.osexp","/Users/kaylaredder/Desktop/Tarleton /AdvancedQuant","no","mono","no","18","no","white","no","yes","768","legacy","96","11","/Users/kaylaredder/Desktop/Tarleton /AdvancedQuant/KR-subject-1.csv","legacy","2 6 1 7 4","Lentiform Loewenfeld","3.3.3","2","y","0","left","right","right","left","NA","633","10546","2264","633","NA","2","legacy","5","1024","2","48000","-16","experiment","1","odd","6","661424","12855","658126","659180","2277","87157","659193","466458","2292","84892","663438","660208","664072","NA","663437","NA","Sternberg Task ","98","68278","109","yes","1024"
"90","90","627.4363636363636","627.4363636363636","black","experiment","legacy","legacy","legacy","0","uniform","1","undefined","1","right","109","0","109","109","0","0","109","109","0","0","109","109","109","NA","109","0","Fri Oct 16 10:39:41 2020","The main experiment item","yes","NA","SternbergTask.osexp","/Users/kaylaredder/Desktop/Tarleton /AdvancedQuant","no","mono","no","18","no","white","no","yes","768","legacy","97","11","/Users/kaylaredder/Desktop/Tarleton /AdvancedQuant/KR-subject-1.csv","legacy","2 5 1 4","Lentiform Loewenfeld","3.3.3","0","n","0","right","right","right","right","NA","740","10546","2264","740","NA","2","legacy","4","1024","2","48000","-16","experiment","1","odd","6","667391","12855","664093","665148","2277","87157","665160","466458","2292","84892","669405","666175","670146","NA","669405","NA","Sternberg Task ","99","69018","110","yes","1024"
