"acc","accuracy","average_response_time","avg_rt","background","block","canvas_backend","clock_backend","color_backend","compensation","coordinates","correct","correct_instruction1","correct_keyboard_response","correct_response","count_ISI","count_Practiceloop","count_correctFeedback","count_expSequence","count_experiment","count_experimentLoop","count_fixation","count_incorrectFeedback","count_instruction1","count_instructions2","count_keyboard_response","count_logger","count_memorySet","count_probe","count_thankYou","datetime","description","disable_garbage_collection","experiment_file","experiment_path","font_bold","font_family","font_italic","font_size","font_underline","foreground","form_clicks","fullscreen","height","keyboard_backend","live_row","live_row_Practiceloop","logfile","mouse_backend","numberSet","opensesame_codename","opensesame_version","posInSet","present","repeat_cycle","response","response_instruction1","response_instructions2","response_keyboard_response","response_thankYou","response_time","response_time_instruction1","response_time_instructions2","response_time_keyboard_response","response_time_thankYou","round_decimals","sampler_backend","setSize","sound_buf_size","sound_channels","sound_freq","sound_sample_size","start","subject_nr","subject_parity","target","time_ISI","time_Practiceloop","time_correctFeedback","time_expSequence","time_experiment","time_experimentLoop","time_fixation","time_incorrectFeedback","time_instruction1","time_instructions2","time_keyboard_response","time_logger","time_memorySet","time_probe","time_thankYou","title","total_correct","total_response_time","total_responses","uniform_coordinates","width"
"100","100","626","626","black","practice","legacy","legacy","legacy","0","uniform","1","undefined","1","right","0","0","0","0","0","0","0","0","0","0","0","0","0","0","0","Fri Oct 15 09:42:12 2021","The main experiment item","yes","Sternbergtask.osexp","C:/Users/Simon M. Rook/Documents/School/1Tarleton/Classes/Adv Quant/Lab 3","no","mono","no","18","no","white","no","no","768","legacy","0","0","C:/Users/Simon M. Rook/Documents/School/1Tarleton/Classes/Adv Quant/Lab 3/New folder/sr-subject-1.csv","legacy","5","Lentiform Loewenfeld","3.3.10","0","n","0","right","left","NA","right","NA","626","10911","NA","626","NA","2","legacy","1","1024","2","48000","-16","experiment","1","odd","3","16581","12433","NA","14375","1518","NA","14377","NA","1521","NA","18582","19209","15379","18582","NA","Sternberg task","1","626","1","yes","1024"
"50","50","1313","1313","black","practice","legacy","legacy","legacy","0","uniform","0","undefined","0","left","1","0","1","1","0","0","1","1","0","0","1","1","1","1","0","Fri Oct 15 09:42:12 2021","The main experiment item","yes","Sternbergtask.osexp","C:/Users/Simon M. Rook/Documents/School/1Tarleton/Classes/Adv Quant/Lab 3","no","mono","no","18","no","white","no","no","768","legacy","1","1","C:/Users/Simon M. Rook/Documents/School/1Tarleton/Classes/Adv Quant/Lab 3/New folder/sr-subject-1.csv","legacy","4 3 1 7 9 8","Lentiform Loewenfeld","3.3.10","1","y","0","None","left","NA","None","NA","2000","10911","NA","2000","NA","2","legacy","6","1024","2","48000","-16","experiment","1","odd","4","22787","12433","19434","20582","1518","NA","20585","NA","1521","NA","24788","26788","21586","24788","NA","Sternberg task","1","2626","2","yes","1024"
"33.333333333333336","33.333333333333336","1440.6666666666667","1440.6666666666667","black","practice","legacy","legacy","legacy","0","uniform","0","undefined","0","right","2","0","2","2","0","0","2","2","0","0","2","2","2","2","0","Fri Oct 15 09:42:12 2021","The main experiment item","yes","Sternbergtask.osexp","C:/Users/Simon M. Rook/Documents/School/1Tarleton/Classes/Adv Quant/Lab 3","no","mono","no","18","no","white","no","no","768","legacy","2","2","C:/Users/Simon M. Rook/Documents/School/1Tarleton/Classes/Adv Quant/Lab 3/New folder/sr-subject-1.csv","legacy","9 6 7 4 5","Lentiform Loewenfeld","3.3.10","0","n","0","left","left","NA","left","NA","1696","10911","NA","1696","NA","2","legacy","5","1024","2","48000","-16","experiment","1","odd","3","31641","12433","19434","29437","1518","NA","29439","28334","1521","NA","33642","35338","30440","33642","NA","Sternberg task","1","4322","3","yes","1024"
"50","50","1382","1382","black","practice","legacy","legacy","legacy","0","uniform","1","undefined","1","right","3","0","3","3","0","0","3","3","0","0","3","3","3","3","0","Fri Oct 15 09:42:12 2021","The main experiment item","yes","Sternbergtask.osexp","C:/Users/Simon M. Rook/Documents/School/1Tarleton/Classes/Adv Quant/Lab 3","no","mono","no","18","no","white","no","no","768","legacy","3","3","C:/Users/Simon M. Rook/Documents/School/1Tarleton/Classes/Adv Quant/Lab 3/New folder/sr-subject-1.csv","legacy","3 1 9 4","Lentiform Loewenfeld","3.3.10","0","n","0","right","left","NA","right","NA","1206","10911","NA","1206","NA","2","legacy","4","1024","2","48000","-16","experiment","1","odd","6","38676","12433","19434","36472","1518","NA","36474","35361","1521","NA","40677","41884","37475","40677","NA","Sternberg task","2","5528","4","yes","1024"
"60","60","1299","1299","black","practice","legacy","legacy","legacy","0","uniform","1","undefined","1","right","4","0","4","4","0","0","4","4","0","0","4","4","4","4","0","Fri Oct 15 09:42:12 2021","The main experiment item","yes","Sternbergtask.osexp","C:/Users/Simon M. Rook/Documents/School/1Tarleton/Classes/Adv Quant/Lab 3","no","mono","no","18","no","white","no","no","768","legacy","4","4","C:/Users/Simon M. Rook/Documents/School/1Tarleton/Classes/Adv Quant/Lab 3/New folder/sr-subject-1.csv","legacy","4 1 5","Lentiform Loewenfeld","3.3.10","0","n","0","right","left","NA","right","NA","967","10911","NA","967","NA","2","legacy","3","1024","2","48000","-16","experiment","1","odd","2","45244","12433","41929","43035","1518","NA","43042","35361","1521","NA","47245","48212","44043","47245","NA","Sternberg task","3","6495","5","yes","1024"
"66.66666666666667","66.66666666666667","1261.8333333333333","1261.8333333333333","black","practice","legacy","legacy","legacy","0","uniform","1","undefined","1","left","5","0","5","5","0","0","5","5","0","0","5","5","5","5","0","Fri Oct 15 09:42:12 2021","The main experiment item","yes","Sternbergtask.osexp","C:/Users/Simon M. Rook/Documents/School/1Tarleton/Classes/Adv Quant/Lab 3","no","mono","no","18","no","white","no","no","768","legacy","5","5","C:/Users/Simon M. Rook/Documents/School/1Tarleton/Classes/Adv Quant/Lab 3/New folder/sr-subject-1.csv","legacy","1 7 9 8 5","Lentiform Loewenfeld","3.3.10","4","y","0","left","left","NA","left","NA","1076","10911","NA","1076","NA","2","legacy","5","1024","2","48000","-16","experiment","1","odd","8","52464","12433","49153","50260","1518","NA","50262","35361","1521","NA","54465","55541","51263","54465","NA","Sternberg task","4","7571","6","yes","1024"
"71.42857142857143","71.42857142857143","1280.2857142857142","1280.2857142857142","black","practice","legacy","legacy","legacy","0","uniform","1","undefined","1","left","6","0","6","6","0","0","6","6","0","0","6","6","6","6","0","Fri Oct 15 09:42:12 2021","The main experiment item","yes","Sternbergtask.osexp","C:/Users/Simon M. Rook/Documents/School/1Tarleton/Classes/Adv Quant/Lab 3","no","mono","no","18","no","white","no","no","768","legacy","6","6","C:/Users/Simon M. Rook/Documents/School/1Tarleton/Classes/Adv Quant/Lab 3/New folder/sr-subject-1.csv","legacy","2 9 4","Lentiform Loewenfeld","3.3.10","3","y","0","left","left","NA","left","NA","1391","10911","NA","1391","NA","2","legacy","3","1024","2","48000","-16","experiment","1","odd","4","58877","12433","55568","56673","1518","NA","56675","35361","1521","NA","60878","62270","57676","60878","NA","Sternberg task","5","8962","7","yes","1024"
"75","75","1269.125","1269.125","black","practice","legacy","legacy","legacy","0","uniform","1","undefined","1","right","7","0","7","7","0","0","7","7","0","0","7","7","7","7","0","Fri Oct 15 09:42:12 2021","The main experiment item","yes","Sternbergtask.osexp","C:/Users/Simon M. Rook/Documents/School/1Tarleton/Classes/Adv Quant/Lab 3","no","mono","no","18","no","white","no","no","768","legacy","7","7","C:/Users/Simon M. Rook/Documents/School/1Tarleton/Classes/Adv Quant/Lab 3/New folder/sr-subject-1.csv","legacy","5 7 8 4 1 2","Lentiform Loewenfeld","3.3.10","0","n","0","right","left","NA","right","NA","1191","10911","NA","1191","NA","2","legacy","6","1024","2","48000","-16","experiment","1","odd","6","65662","12433","62332","63458","1518","NA","63460","35361","1521","NA","67663","68855","64461","67663","NA","Sternberg task","6","10153","8","yes","1024"
"66.66666666666667","66.66666666666667","1242","1242","black","practice","legacy","legacy","legacy","0","uniform","0","undefined","0","left","8","0","8","8","0","0","8","8","0","0","8","8","8","8","0","Fri Oct 15 09:42:12 2021","The main experiment item","yes","Sternbergtask.osexp","C:/Users/Simon M. Rook/Documents/School/1Tarleton/Classes/Adv Quant/Lab 3","no","mono","no","18","no","white","no","no","768","legacy","8","8","C:/Users/Simon M. Rook/Documents/School/1Tarleton/Classes/Adv Quant/Lab 3/New folder/sr-subject-1.csv","legacy","1 5 2 9","Lentiform Loewenfeld","3.3.10","2","y","0","right","left","NA","right","NA","1025","10911","NA","1025","NA","2","legacy","4","1024","2","48000","-16","experiment","1","odd","5","72197","12433","68890","69993","1518","NA","69995","35361","1521","NA","74198","75224","70996","74198","NA","Sternberg task","6","11178","9","yes","1024"
"70","70","1270.3","1270.3","black","practice","legacy","legacy","legacy","0","uniform","1","undefined","1","right","9","0","9","9","0","0","9","9","0","0","9","9","9","9","0","Fri Oct 15 09:42:12 2021","The main experiment item","yes","Sternbergtask.osexp","C:/Users/Simon M. Rook/Documents/School/1Tarleton/Classes/Adv Quant/Lab 3","no","mono","no","18","no","white","no","no","768","legacy","9","9","C:/Users/Simon M. Rook/Documents/School/1Tarleton/Classes/Adv Quant/Lab 3/New folder/sr-subject-1.csv","legacy","2 1","Lentiform Loewenfeld","3.3.10","0","n","0","right","left","NA","right","NA","1525","10911","NA","1525","NA","2","legacy","2","1024","2","48000","-16","experiment","1","odd","5","78562","12433","68890","76357","1518","NA","76360","75260","1521","NA","80563","82089","77361","80563","NA","Sternberg task","7","12703","10","yes","1024"
"63.63636363636363","63.63636363636363","1336.6363636363637","1336.6363636363637","black","practice","legacy","legacy","legacy","0","uniform","0","undefined","0","left","10","0","10","10","0","0","10","10","0","0","10","10","10","10","0","Fri Oct 15 09:42:12 2021","The main experiment item","yes","Sternbergtask.osexp","C:/Users/Simon M. Rook/Documents/School/1Tarleton/Classes/Adv Quant/Lab 3","no","mono","no","18","no","white","no","no","768","legacy","10","10","C:/Users/Simon M. Rook/Documents/School/1Tarleton/Classes/Adv Quant/Lab 3/New folder/sr-subject-1.csv","legacy","4 8","Lentiform Loewenfeld","3.3.10","1","y","0","None","left","NA","None","NA","2000","10911","NA","2000","NA","2","legacy","2","1024","2","48000","-16","experiment","1","odd","4","85436","12433","82117","83232","1518","NA","83234","75260","1521","NA","87437","89437","84235","87437","NA","Sternberg task","7","14703","11","yes","1024"
"66.66666666666667","66.66666666666667","1290.5","1290.5","black","practice","legacy","legacy","legacy","0","uniform","1","undefined","1","left","11","0","11","11","0","0","11","11","0","0","11","11","11","11","0","Fri Oct 15 09:42:12 2021","The main experiment item","yes","Sternbergtask.osexp","C:/Users/Simon M. Rook/Documents/School/1Tarleton/Classes/Adv Quant/Lab 3","no","mono","no","18","no","white","no","no","768","legacy","11","11","C:/Users/Simon M. Rook/Documents/School/1Tarleton/Classes/Adv Quant/Lab 3/New folder/sr-subject-1.csv","legacy","6","Lentiform Loewenfeld","3.3.10","1","y","0","left","left","NA","left","NA","783","10911","NA","783","NA","2","legacy","1","1024","2","48000","-16","experiment","1","odd","6","92937","12433","82117","90729","1518","NA","90732","89586","1521","NA","94938","95722","91733","94938","NA","Sternberg task","8","15486","12","yes","1024"
"69.23076923076923","69.23076923076923","1314.6153846153845","1314.6153846153845","black","experiment","legacy","legacy","legacy","0","uniform","1","undefined","1","right","12","0","12","12","0","0","12","12","0","0","12","12","12","12","0","Fri Oct 15 09:42:12 2021","The main experiment item","yes","Sternbergtask.osexp","C:/Users/Simon M. Rook/Documents/School/1Tarleton/Classes/Adv Quant/Lab 3","no","mono","no","18","no","white","no","no","768","legacy","0","11","C:/Users/Simon M. Rook/Documents/School/1Tarleton/Classes/Adv Quant/Lab 3/New folder/sr-subject-1.csv","legacy","5 2","Lentiform Loewenfeld","3.3.10","0","n","0","right","left","left","right","NA","1604","10911","17198","1604","NA","2","legacy","2","1024","2","48000","-16","experiment","1","odd","7","116319","12433","95763","114115","1518","114021","114117","89586","1521","96823","118320","119925","115118","118320","NA","Sternberg task","9","17090","13","yes","1024"
"64.28571428571429","64.28571428571429","1363.5714285714287","1363.5714285714287","black","experiment","legacy","legacy","legacy","0","uniform","0","undefined","0","left","13","0","13","13","0","0","13","13","0","0","13","13","13","13","0","Fri Oct 15 09:42:12 2021","The main experiment item","yes","Sternbergtask.osexp","C:/Users/Simon M. Rook/Documents/School/1Tarleton/Classes/Adv Quant/Lab 3","no","mono","no","18","no","white","no","no","768","legacy","1","11","C:/Users/Simon M. Rook/Documents/School/1Tarleton/Classes/Adv Quant/Lab 3/New folder/sr-subject-1.csv","legacy","1 4 9 3 2 5","Lentiform Loewenfeld","3.3.10","3","y","0","None","left","left","None","NA","2000","10911","17198","2000","NA","2","legacy","6","1024","2","48000","-16","experiment","1","odd","9","124065","12433","120718","121861","1518","114021","121863","89586","1521","96823","126066","128066","122864","126066","NA","Sternberg task","9","19090","14","yes","1024"
"60","60","1406","1406","black","experiment","legacy","legacy","legacy","0","uniform","0","undefined","0","right","14","0","14","14","0","0","14","14","0","0","14","14","14","14","0","Fri Oct 15 09:42:12 2021","The main experiment item","yes","Sternbergtask.osexp","C:/Users/Simon M. Rook/Documents/School/1Tarleton/Classes/Adv Quant/Lab 3","no","mono","no","18","no","white","no","no","768","legacy","2","11","C:/Users/Simon M. Rook/Documents/School/1Tarleton/Classes/Adv Quant/Lab 3/New folder/sr-subject-1.csv","legacy","3 9 1","Lentiform Loewenfeld","3.3.10","0","n","0","None","left","left","None","NA","2000","10911","17198","2000","NA","2","legacy","3","1024","2","48000","-16","experiment","1","odd","7","131560","12433","120718","129356","1518","114021","129358","128233","1521","96823","133561","135561","130359","133561","NA","Sternberg task","9","21090","15","yes","1024"
"56.25","56.25","1443.125","1443.125","black","experiment","legacy","legacy","legacy","0","uniform","0","undefined","0","right","15","0","15","15","0","0","15","15","0","0","15","15","15","15","0","Fri Oct 15 09:42:12 2021","The main experiment item","yes","Sternbergtask.osexp","C:/Users/Simon M. Rook/Documents/School/1Tarleton/Classes/Adv Quant/Lab 3","no","mono","no","18","no","white","no","no","768","legacy","3","11","C:/Users/Simon M. Rook/Documents/School/1Tarleton/Classes/Adv Quant/Lab 3/New folder/sr-subject-1.csv","legacy","7 1 8 4 9 3","Lentiform Loewenfeld","3.3.10","0","n","0","None","left","left","None","NA","2000","10911","17198","2000","NA","2","legacy","6","1024","2","48000","-16","experiment","1","odd","6","138926","12433","120718","136722","1518","114021","136724","135594","1521","96823","140927","142927","137725","140927","NA","Sternberg task","9","23090","16","yes","1024"
"58.8235294117647","58.8235294117647","1403.1764705882354","1403.1764705882354","black","experiment","legacy","legacy","legacy","0","uniform","1","undefined","1","right","16","0","16","16","0","0","16","16","0","0","16","16","16","16","0","Fri Oct 15 09:42:12 2021","The main experiment item","yes","Sternbergtask.osexp","C:/Users/Simon M. Rook/Documents/School/1Tarleton/Classes/Adv Quant/Lab 3","no","mono","no","18","no","white","no","no","768","legacy","4","11","C:/Users/Simon M. Rook/Documents/School/1Tarleton/Classes/Adv Quant/Lab 3/New folder/sr-subject-1.csv","legacy","1","Lentiform Loewenfeld","3.3.10","0","n","0","right","left","left","right","NA","764","10911","17198","764","NA","2","legacy","1","1024","2","48000","-16","experiment","1","odd","7","147347","12433","120718","145142","1518","114021","145144","144037","1521","96823","149348","150112","146146","149348","NA","Sternberg task","10","23854","17","yes","1024"
"61.111111111111114","61.111111111111114","1436","1436","black","experiment","legacy","legacy","legacy","0","uniform","1","undefined","1","left","17","0","17","17","0","0","17","17","0","0","17","17","17","17","0","Fri Oct 15 09:42:12 2021","The main experiment item","yes","Sternbergtask.osexp","C:/Users/Simon M. Rook/Documents/School/1Tarleton/Classes/Adv Quant/Lab 3","no","mono","no","18","no","white","no","no","768","legacy","5","11","C:/Users/Simon M. Rook/Documents/School/1Tarleton/Classes/Adv Quant/Lab 3/New folder/sr-subject-1.csv","legacy","9 1 6 7 8","Lentiform Loewenfeld","3.3.10","1","y","0","left","left","left","left","NA","1994","10911","17198","1994","NA","2","legacy","5","1024","2","48000","-16","experiment","1","odd","9","154237","12433","150921","152032","1518","114021","152035","144037","1521","96823","156238","158232","153036","156238","NA","Sternberg task","11","25848","18","yes","1024"
"63.1578947368421","63.1578947368421","1403.0526315789473","1403.0526315789473","black","experiment","legacy","legacy","legacy","0","uniform","1","undefined","1","left","18","0","18","18","0","0","18","18","0","0","18","18","18","18","0","Fri Oct 15 09:42:12 2021","The main experiment item","yes","Sternbergtask.osexp","C:/Users/Simon M. Rook/Documents/School/1Tarleton/Classes/Adv Quant/Lab 3","no","mono","no","18","no","white","no","no","768","legacy","6","11","C:/Users/Simon M. Rook/Documents/School/1Tarleton/Classes/Adv Quant/Lab 3/New folder/sr-subject-1.csv","legacy","7 2 3","Lentiform Loewenfeld","3.3.10","3","y","0","left","left","left","left","NA","810","10911","17198","810","NA","2","legacy","3","1024","2","48000","-16","experiment","1","odd","3","161654","12433","158323","159450","1518","114021","159452","144037","1521","96823","163655","164466","160453","163655","NA","Sternberg task","12","26658","19","yes","1024"
"65","65","1364.15","1364.15","black","experiment","legacy","legacy","legacy","0","uniform","1","undefined","1","right","19","0","19","19","0","0","19","19","0","0","19","19","19","19","0","Fri Oct 15 09:42:12 2021","The main experiment item","yes","Sternbergtask.osexp","C:/Users/Simon M. Rook/Documents/School/1Tarleton/Classes/Adv Quant/Lab 3","no","mono","no","18","no","white","no","no","768","legacy","7","11","C:/Users/Simon M. Rook/Documents/School/1Tarleton/Classes/Adv Quant/Lab 3/New folder/sr-subject-1.csv","legacy","8 9","Lentiform Loewenfeld","3.3.10","0","n","0","right","left","left","right","NA","625","10911","17198","625","NA","2","legacy","2","1024","2","48000","-16","experiment","1","odd","5","167784","12433","164482","165581","1518","114021","165582","144037","1521","96823","169785","170410","166583","169785","NA","Sternberg task","13","27283","20","yes","1024"
"66.66666666666667","66.66666666666667","1352.2380952380952","1352.2380952380952","black","experiment","legacy","legacy","legacy","0","uniform","1","undefined","1","right","20","0","20","20","0","0","20","20","0","0","20","20","20","20","0","Fri Oct 15 09:42:12 2021","The main experiment item","yes","Sternbergtask.osexp","C:/Users/Simon M. Rook/Documents/School/1Tarleton/Classes/Adv Quant/Lab 3","no","mono","no","18","no","white","no","no","768","legacy","8","11","C:/Users/Simon M. Rook/Documents/School/1Tarleton/Classes/Adv Quant/Lab 3/New folder/sr-subject-1.csv","legacy","1 6 4","Lentiform Loewenfeld","3.3.10","0","n","0","right","left","left","right","NA","1114","10911","17198","1114","NA","2","legacy","3","1024","2","48000","-16","experiment","1","odd","7","173768","12433","170467","171564","1518","114021","171566","144037","1521","96823","175769","176884","172567","175769","NA","Sternberg task","14","28397","21","yes","1024"
"68.18181818181819","68.18181818181819","1320.909090909091","1320.909090909091","black","experiment","legacy","legacy","legacy","0","uniform","1","undefined","1","left","21","0","21","21","0","0","21","21","0","0","21","21","21","21","0","Fri Oct 15 09:42:12 2021","The main experiment item","yes","Sternbergtask.osexp","C:/Users/Simon M. Rook/Documents/School/1Tarleton/Classes/Adv Quant/Lab 3","no","mono","no","18","no","white","no","no","768","legacy","9","11","C:/Users/Simon M. Rook/Documents/School/1Tarleton/Classes/Adv Quant/Lab 3/New folder/sr-subject-1.csv","legacy","3 9 6 2","Lentiform Loewenfeld","3.3.10","4","y","0","left","left","left","left","NA","663","10911","17198","663","NA","2","legacy","4","1024","2","48000","-16","experiment","1","odd","2","180195","12433","176901","177992","1518","114021","177993","144037","1521","96823","182196","182859","178994","182196","NA","Sternberg task","15","29060","22","yes","1024"
"69.56521739130434","69.56521739130434","1309.4782608695652","1309.4782608695652","black","experiment","legacy","legacy","legacy","0","uniform","1","undefined","1","right","22","0","22","22","0","0","22","22","0","0","22","22","22","22","0","Fri Oct 15 09:42:12 2021","The main experiment item","yes","Sternbergtask.osexp","C:/Users/Simon M. Rook/Documents/School/1Tarleton/Classes/Adv Quant/Lab 3","no","mono","no","18","no","white","no","no","768","legacy","10","11","C:/Users/Simon M. Rook/Documents/School/1Tarleton/Classes/Adv Quant/Lab 3/New folder/sr-subject-1.csv","legacy","7 4 2 8 1 9","Lentiform Loewenfeld","3.3.10","0","n","0","right","left","left","right","NA","1058","10911","17198","1058","NA","2","legacy","6","1024","2","48000","-16","experiment","1","odd","5","186177","12433","182884","183973","1518","114021","183974","144037","1521","96823","188178","189236","184976","188178","NA","Sternberg task","16","30118","23","yes","1024"
"70.83333333333333","70.83333333333333","1277.3333333333333","1277.3333333333333","black","experiment","legacy","legacy","legacy","0","uniform","1","undefined","1","right","23","0","23","23","0","0","23","23","0","0","23","23","23","23","0","Fri Oct 15 09:42:12 2021","The main experiment item","yes","Sternbergtask.osexp","C:/Users/Simon M. Rook/Documents/School/1Tarleton/Classes/Adv Quant/Lab 3","no","mono","no","18","no","white","no","no","768","legacy","11","11","C:/Users/Simon M. Rook/Documents/School/1Tarleton/Classes/Adv Quant/Lab 3/New folder/sr-subject-1.csv","legacy","1 8 7","Lentiform Loewenfeld","3.3.10","0","n","0","right","left","left","right","NA","538","10911","17198","538","NA","2","legacy","3","1024","2","48000","-16","experiment","1","odd","4","192561","12433","189265","190358","1518","114021","190359","144037","1521","96823","194562","195101","191360","194562","NA","Sternberg task","17","30656","24","yes","1024"
"72","72","1264.88","1264.88","black","experiment","legacy","legacy","legacy","0","uniform","1","undefined","1","left","24","0","24","24","0","0","24","24","0","0","24","24","24","24","0","Fri Oct 15 09:42:12 2021","The main experiment item","yes","Sternbergtask.osexp","C:/Users/Simon M. Rook/Documents/School/1Tarleton/Classes/Adv Quant/Lab 3","no","mono","no","18","no","white","no","no","768","legacy","12","11","C:/Users/Simon M. Rook/Documents/School/1Tarleton/Classes/Adv Quant/Lab 3/New folder/sr-subject-1.csv","legacy","9 3 8 2 1 4","Lentiform Loewenfeld","3.3.10","3","y","0","left","left","left","left","NA","966","10911","17198","966","NA","2","legacy","6","1024","2","48000","-16","experiment","1","odd","8","198406","12433","195106","196202","1518","114021","196203","144037","1521","96823","200407","201374","197205","200407","NA","Sternberg task","18","31622","25","yes","1024"
"73.07692307692308","73.07692307692308","1251.076923076923","1251.076923076923","black","experiment","legacy","legacy","legacy","0","uniform","1","undefined","1","left","25","0","25","25","0","0","25","25","0","0","25","25","25","25","0","Fri Oct 15 09:42:12 2021","The main experiment item","yes","Sternbergtask.osexp","C:/Users/Simon M. Rook/Documents/School/1Tarleton/Classes/Adv Quant/Lab 3","no","mono","no","18","no","white","no","no","768","legacy","13","11","C:/Users/Simon M. Rook/Documents/School/1Tarleton/Classes/Adv Quant/Lab 3/New folder/sr-subject-1.csv","legacy","2 3 7 4","Lentiform Loewenfeld","3.3.10","1","y","0","left","left","left","left","NA","906","10911","17198","906","NA","2","legacy","4","1024","2","48000","-16","experiment","1","odd","2","204675","12433","201380","202472","1518","114021","202473","144037","1521","96823","206676","207582","203474","206676","NA","Sternberg task","19","32528","26","yes","1024"
"74.07407407407408","74.07407407407408","1263.4444444444443","1263.4444444444443","black","experiment","legacy","legacy","legacy","0","uniform","1","undefined","1","left","26","0","26","26","0","0","26","26","0","0","26","26","26","26","0","Fri Oct 15 09:42:12 2021","The main experiment item","yes","Sternbergtask.osexp","C:/Users/Simon M. Rook/Documents/School/1Tarleton/Classes/Adv Quant/Lab 3","no","mono","no","18","no","white","no","no","768","legacy","14","11","C:/Users/Simon M. Rook/Documents/School/1Tarleton/Classes/Adv Quant/Lab 3/New folder/sr-subject-1.csv","legacy","6 8 9 3 4 9","Lentiform Loewenfeld","3.3.10","5","y","0","left","left","left","left","NA","1585","10911","17198","1585","NA","2","legacy","6","1024","2","48000","-16","experiment","1","odd","4","210909","12433","207613","208704","1518","114021","208707","144037","1521","96823","212910","214496","209708","212910","NA","Sternberg task","20","34113","27","yes","1024"
"75","75","1243.857142857143","1243.857142857143","black","experiment","legacy","legacy","legacy","0","uniform","1","undefined","1","right","27","0","27","27","0","0","27","27","0","0","27","27","27","27","0","Fri Oct 15 09:42:12 2021","The main experiment item","yes","Sternbergtask.osexp","C:/Users/Simon M. Rook/Documents/School/1Tarleton/Classes/Adv Quant/Lab 3","no","mono","no","18","no","white","no","no","768","legacy","15","11","C:/Users/Simon M. Rook/Documents/School/1Tarleton/Classes/Adv Quant/Lab 3/New folder/sr-subject-1.csv","legacy","1 6 4 3 9 7","Lentiform Loewenfeld","3.3.10","0","n","0","right","left","left","right","NA","715","10911","17198","715","NA","2","legacy","6","1024","2","48000","-16","experiment","1","odd","8","217827","12433","214514","215624","1518","114021","215625","144037","1521","96823","219828","220544","216626","219828","NA","Sternberg task","21","34828","28","yes","1024"
"75.86206896551724","75.86206896551724","1229.2413793103449","1229.2413793103449","black","experiment","legacy","legacy","legacy","0","uniform","1","undefined","1","right","28","0","28","28","0","0","28","28","0","0","28","28","28","28","0","Fri Oct 15 09:42:12 2021","The main experiment item","yes","Sternbergtask.osexp","C:/Users/Simon M. Rook/Documents/School/1Tarleton/Classes/Adv Quant/Lab 3","no","mono","no","18","no","white","no","no","768","legacy","16","11","C:/Users/Simon M. Rook/Documents/School/1Tarleton/Classes/Adv Quant/Lab 3/New folder/sr-subject-1.csv","legacy","7 8 6 1","Lentiform Loewenfeld","3.3.10","0","n","0","right","left","left","right","NA","820","10911","17198","820","NA","2","legacy","4","1024","2","48000","-16","experiment","1","odd","3","223947","12433","220621","221744","1518","114021","221745","144037","1521","96823","225948","226769","222746","225948","NA","Sternberg task","22","35648","29","yes","1024"
"76.66666666666667","76.66666666666667","1213.6","1213.6","black","experiment","legacy","legacy","legacy","0","uniform","1","undefined","1","left","29","0","29","29","0","0","29","29","0","0","29","29","29","29","0","Fri Oct 15 09:42:12 2021","The main experiment item","yes","Sternbergtask.osexp","C:/Users/Simon M. Rook/Documents/School/1Tarleton/Classes/Adv Quant/Lab 3","no","mono","no","18","no","white","no","no","768","legacy","17","11","C:/Users/Simon M. Rook/Documents/School/1Tarleton/Classes/Adv Quant/Lab 3/New folder/sr-subject-1.csv","legacy","2 5 4 8 7","Lentiform Loewenfeld","3.3.10","3","y","0","left","left","left","left","NA","760","10911","17198","760","NA","2","legacy","5","1024","2","48000","-16","experiment","1","odd","4","230080","12433","226778","227876","1518","114021","227878","144037","1521","96823","232081","232841","228879","232081","NA","Sternberg task","23","36408","30","yes","1024"
"77.41935483870968","77.41935483870968","1197.225806451613","1197.225806451613","black","experiment","legacy","legacy","legacy","0","uniform","1","undefined","1","right","30","0","30","30","0","0","30","30","0","0","30","30","30","30","0","Fri Oct 15 09:42:12 2021","The main experiment item","yes","Sternbergtask.osexp","C:/Users/Simon M. Rook/Documents/School/1Tarleton/Classes/Adv Quant/Lab 3","no","mono","no","18","no","white","no","no","768","legacy","18","11","C:/Users/Simon M. Rook/Documents/School/1Tarleton/Classes/Adv Quant/Lab 3/New folder/sr-subject-1.csv","legacy","8 6 3 4 7","Lentiform Loewenfeld","3.3.10","0","n","0","right","left","left","right","NA","706","10911","17198","706","NA","2","legacy","5","1024","2","48000","-16","experiment","1","odd","1","236199","12433","232907","233995","1518","114021","233997","144037","1521","96823","238200","238907","234998","238200","NA","Sternberg task","24","37114","31","yes","1024"
"78.125","78.125","1176.78125","1176.78125","black","experiment","legacy","legacy","legacy","0","uniform","1","undefined","1","right","31","0","31","31","0","0","31","31","0","0","31","31","31","31","0","Fri Oct 15 09:42:12 2021","The main experiment item","yes","Sternbergtask.osexp","C:/Users/Simon M. Rook/Documents/School/1Tarleton/Classes/Adv Quant/Lab 3","no","mono","no","18","no","white","no","no","768","legacy","19","11","C:/Users/Simon M. Rook/Documents/School/1Tarleton/Classes/Adv Quant/Lab 3/New folder/sr-subject-1.csv","legacy","7 3 2 8","Lentiform Loewenfeld","3.3.10","0","n","0","right","left","left","right","NA","543","10911","17198","543","NA","2","legacy","4","1024","2","48000","-16","experiment","1","odd","4","242218","12433","238921","240015","1518","114021","240016","144037","1521","96823","244219","244763","241017","244219","NA","Sternberg task","25","37657","32","yes","1024"
"78.78787878787878","78.78787878787878","1161.4545454545455","1161.4545454545455","black","experiment","legacy","legacy","legacy","0","uniform","1","undefined","1","right","32","0","32","32","0","0","32","32","0","0","32","32","32","32","0","Fri Oct 15 09:42:12 2021","The main experiment item","yes","Sternbergtask.osexp","C:/Users/Simon M. Rook/Documents/School/1Tarleton/Classes/Adv Quant/Lab 3","no","mono","no","18","no","white","no","no","768","legacy","20","11","C:/Users/Simon M. Rook/Documents/School/1Tarleton/Classes/Adv Quant/Lab 3/New folder/sr-subject-1.csv","legacy","2 3 8 5 6 7","Lentiform Loewenfeld","3.3.10","0","n","0","right","left","left","right","NA","671","10911","17198","671","NA","2","legacy","6","1024","2","48000","-16","experiment","1","odd","1","248075","12433","244770","245871","1518","114021","245873","144037","1521","96823","250076","250747","246874","250076","NA","Sternberg task","26","38328","33","yes","1024"
"79.41176470588235","79.41176470588235","1156.0882352941176","1156.0882352941176","black","experiment","legacy","legacy","legacy","0","uniform","1","undefined","1","right","33","0","33","33","0","0","33","33","0","0","33","33","33","33","0","Fri Oct 15 09:42:12 2021","The main experiment item","yes","Sternbergtask.osexp","C:/Users/Simon M. Rook/Documents/School/1Tarleton/Classes/Adv Quant/Lab 3","no","mono","no","18","no","white","no","no","768","legacy","21","11","C:/Users/Simon M. Rook/Documents/School/1Tarleton/Classes/Adv Quant/Lab 3/New folder/sr-subject-1.csv","legacy","5","Lentiform Loewenfeld","3.3.10","0","n","0","right","left","left","right","NA","979","10911","17198","979","NA","2","legacy","1","1024","2","48000","-16","experiment","1","odd","8","254056","12433","250760","251853","1518","114021","251854","144037","1521","96823","256057","257037","252855","256057","NA","Sternberg task","27","39307","34","yes","1024"
"80","80","1141.8857142857144","1141.8857142857144","black","experiment","legacy","legacy","legacy","0","uniform","1","undefined","1","left","34","0","34","34","0","0","34","34","0","0","34","34","34","34","0","Fri Oct 15 09:42:12 2021","The main experiment item","yes","Sternbergtask.osexp","C:/Users/Simon M. Rook/Documents/School/1Tarleton/Classes/Adv Quant/Lab 3","no","mono","no","18","no","white","no","no","768","legacy","22","11","C:/Users/Simon M. Rook/Documents/School/1Tarleton/Classes/Adv Quant/Lab 3/New folder/sr-subject-1.csv","legacy","9 4 2","Lentiform Loewenfeld","3.3.10","1","y","0","left","left","left","left","NA","659","10911","17198","659","NA","2","legacy","3","1024","2","48000","-16","experiment","1","odd","9","260360","12433","257069","258156","1518","114021","258158","144037","1521","96823","262361","263021","259159","262361","NA","Sternberg task","28","39966","35","yes","1024"
"80.55555555555556","80.55555555555556","1126.1944444444443","1126.1944444444443","black","experiment","legacy","legacy","legacy","0","uniform","1","undefined","1","right","35","0","35","35","0","0","35","35","0","0","35","35","35","35","0","Fri Oct 15 09:42:12 2021","The main experiment item","yes","Sternbergtask.osexp","C:/Users/Simon M. Rook/Documents/School/1Tarleton/Classes/Adv Quant/Lab 3","no","mono","no","18","no","white","no","no","768","legacy","23","11","C:/Users/Simon M. Rook/Documents/School/1Tarleton/Classes/Adv Quant/Lab 3/New folder/sr-subject-1.csv","legacy","1 4 3 6 5","Lentiform Loewenfeld","3.3.10","0","n","0","right","left","left","right","NA","577","10911","17198","577","NA","2","legacy","5","1024","2","48000","-16","experiment","1","odd","8","266347","12433","263046","264144","1518","114021","264145","144037","1521","96823","268348","268926","265146","268348","NA","Sternberg task","29","40543","36","yes","1024"
"81.08108108108108","81.08108108108108","1110.972972972973","1110.972972972973","black","experiment","legacy","legacy","legacy","0","uniform","1","undefined","1","right","36","0","36","36","0","0","36","36","0","0","36","36","36","36","0","Fri Oct 15 09:42:12 2021","The main experiment item","yes","Sternbergtask.osexp","C:/Users/Simon M. Rook/Documents/School/1Tarleton/Classes/Adv Quant/Lab 3","no","mono","no","18","no","white","no","no","768","legacy","24","11","C:/Users/Simon M. Rook/Documents/School/1Tarleton/Classes/Adv Quant/Lab 3/New folder/sr-subject-1.csv","legacy","9","Lentiform Loewenfeld","3.3.10","0","n","0","right","left","left","right","NA","563","10911","17198","563","NA","2","legacy","1","1024","2","48000","-16","experiment","1","odd","6","272234","12433","268942","270031","1518","114021","270032","144037","1521","96823","274235","274798","271033","274235","NA","Sternberg task","30","41106","37","yes","1024"
"81.57894736842105","81.57894736842105","1104.078947368421","1104.078947368421","black","experiment","legacy","legacy","legacy","0","uniform","1","undefined","1","left","37","0","37","37","0","0","37","37","0","0","37","37","37","37","0","Fri Oct 15 09:42:12 2021","The main experiment item","yes","Sternbergtask.osexp","C:/Users/Simon M. Rook/Documents/School/1Tarleton/Classes/Adv Quant/Lab 3","no","mono","no","18","no","white","no","no","768","legacy","25","11","C:/Users/Simon M. Rook/Documents/School/1Tarleton/Classes/Adv Quant/Lab 3/New folder/sr-subject-1.csv","legacy","8 5 4 7 3 1","Lentiform Loewenfeld","3.3.10","2","y","0","left","left","left","left","NA","849","10911","17198","849","NA","2","legacy","6","1024","2","48000","-16","experiment","1","odd","5","278116","12433","274820","275912","1518","114021","275914","144037","1521","96823","280117","280966","276915","280117","NA","Sternberg task","31","41955","38","yes","1024"
"82.05128205128206","82.05128205128206","1096.6410256410256","1096.6410256410256","black","experiment","legacy","legacy","legacy","0","uniform","1","undefined","1","left","38","0","38","38","0","0","38","38","0","0","38","38","38","38","0","Fri Oct 15 09:42:12 2021","The main experiment item","yes","Sternbergtask.osexp","C:/Users/Simon M. Rook/Documents/School/1Tarleton/Classes/Adv Quant/Lab 3","no","mono","no","18","no","white","no","no","768","legacy","26","11","C:/Users/Simon M. Rook/Documents/School/1Tarleton/Classes/Adv Quant/Lab 3/New folder/sr-subject-1.csv","legacy","7 8 4 6 9 5","Lentiform Loewenfeld","3.3.10","4","y","0","left","left","left","left","NA","814","10911","17198","814","NA","2","legacy","6","1024","2","48000","-16","experiment","1","odd","6","284304","12433","281008","282100","1518","114021","282102","144037","1521","96823","286305","287120","283103","286305","NA","Sternberg task","32","42769","39","yes","1024"
"82.5","82.5","1086.75","1086.75","black","experiment","legacy","legacy","legacy","0","uniform","1","undefined","1","left","39","0","39","39","0","0","39","39","0","0","39","39","39","39","0","Fri Oct 15 09:42:12 2021","The main experiment item","yes","Sternbergtask.osexp","C:/Users/Simon M. Rook/Documents/School/1Tarleton/Classes/Adv Quant/Lab 3","no","mono","no","18","no","white","no","no","768","legacy","27","11","C:/Users/Simon M. Rook/Documents/School/1Tarleton/Classes/Adv Quant/Lab 3/New folder/sr-subject-1.csv","legacy","4 1 8 7 5","Lentiform Loewenfeld","3.3.10","3","y","0","left","left","left","left","NA","701","10911","17198","701","NA","2","legacy","5","1024","2","48000","-16","experiment","1","odd","8","290426","12433","287129","288223","1518","114021","288224","144037","1521","96823","292427","293128","289225","292427","NA","Sternberg task","33","43470","40","yes","1024"
"82.92682926829268","82.92682926829268","1083.8048780487804","1083.8048780487804","black","experiment","legacy","legacy","legacy","0","uniform","1","undefined","1","left","40","0","40","40","0","0","40","40","0","0","40","40","40","40","0","Fri Oct 15 09:42:12 2021","The main experiment item","yes","Sternbergtask.osexp","C:/Users/Simon M. Rook/Documents/School/1Tarleton/Classes/Adv Quant/Lab 3","no","mono","no","18","no","white","no","no","768","legacy","28","11","C:/Users/Simon M. Rook/Documents/School/1Tarleton/Classes/Adv Quant/Lab 3/New folder/sr-subject-1.csv","legacy","8 5 1 3 9","Lentiform Loewenfeld","3.3.10","4","y","0","left","left","left","left","NA","966","10911","17198","966","NA","2","legacy","5","1024","2","48000","-16","experiment","1","odd","3","296441","12433","293141","294238","1518","114021","294239","144037","1521","96823","298442","299411","295240","298442","NA","Sternberg task","34","44436","41","yes","1024"
"80.95238095238095","80.95238095238095","1081.4285714285713","1081.4285714285713","black","experiment","legacy","legacy","legacy","0","uniform","0","undefined","0","left","41","0","41","41","0","0","41","41","0","0","41","41","41","41","0","Fri Oct 15 09:42:12 2021","The main experiment item","yes","Sternbergtask.osexp","C:/Users/Simon M. Rook/Documents/School/1Tarleton/Classes/Adv Quant/Lab 3","no","mono","no","18","no","white","no","no","768","legacy","29","11","C:/Users/Simon M. Rook/Documents/School/1Tarleton/Classes/Adv Quant/Lab 3/New folder/sr-subject-1.csv","legacy","7 1 8 5 6 2","Lentiform Loewenfeld","3.3.10","2","y","0","right","left","left","right","NA","984","10911","17198","984","NA","2","legacy","6","1024","2","48000","-16","experiment","1","odd","1","302712","12433","299418","300509","1518","114021","300510","144037","1521","96823","304713","305698","301511","304713","NA","Sternberg task","34","45420","42","yes","1024"
"81.3953488372093","81.3953488372093","1082.4186046511627","1082.4186046511627","black","experiment","legacy","legacy","legacy","0","uniform","1","undefined","1","right","42","0","42","42","0","0","42","42","0","0","42","42","42","42","0","Fri Oct 15 09:42:12 2021","The main experiment item","yes","Sternbergtask.osexp","C:/Users/Simon M. Rook/Documents/School/1Tarleton/Classes/Adv Quant/Lab 3","no","mono","no","18","no","white","no","no","768","legacy","30","11","C:/Users/Simon M. Rook/Documents/School/1Tarleton/Classes/Adv Quant/Lab 3/New folder/sr-subject-1.csv","legacy","8 2 1 4 5 9","Lentiform Loewenfeld","3.3.10","0","n","0","right","left","left","right","NA","1124","10911","17198","1124","NA","2","legacy","6","1024","2","48000","-16","experiment","1","odd","7","309037","12433","299418","306833","1518","114021","306835","305736","1521","96823","311038","312163","307836","311038","NA","Sternberg task","35","46544","43","yes","1024"
"81.81818181818181","81.81818181818181","1072.7045454545455","1072.7045454545455","black","experiment","legacy","legacy","legacy","0","uniform","1","undefined","1","right","43","0","43","43","0","0","43","43","0","0","43","43","43","43","0","Fri Oct 15 09:42:12 2021","The main experiment item","yes","Sternbergtask.osexp","C:/Users/Simon M. Rook/Documents/School/1Tarleton/Classes/Adv Quant/Lab 3","no","mono","no","18","no","white","no","no","768","legacy","31","11","C:/Users/Simon M. Rook/Documents/School/1Tarleton/Classes/Adv Quant/Lab 3/New folder/sr-subject-1.csv","legacy","6 7 5 9","Lentiform Loewenfeld","3.3.10","0","n","0","right","left","left","right","NA","655","10911","17198","655","NA","2","legacy","4","1024","2","48000","-16","experiment","1","odd","2","315466","12433","312172","313262","1518","114021","313263","305736","1521","96823","317467","318123","314265","317467","NA","Sternberg task","36","47199","44","yes","1024"
"82.22222222222223","82.22222222222223","1064.9555555555555","1064.9555555555555","black","experiment","legacy","legacy","legacy","0","uniform","1","undefined","1","right","44","0","44","44","0","0","44","44","0","0","44","44","44","44","0","Fri Oct 15 09:42:12 2021","The main experiment item","yes","Sternbergtask.osexp","C:/Users/Simon M. Rook/Documents/School/1Tarleton/Classes/Adv Quant/Lab 3","no","mono","no","18","no","white","no","no","768","legacy","32","11","C:/Users/Simon M. Rook/Documents/School/1Tarleton/Classes/Adv Quant/Lab 3/New folder/sr-subject-1.csv","legacy","4 8 1 2","Lentiform Loewenfeld","3.3.10","0","n","0","right","left","left","right","NA","724","10911","17198","724","NA","2","legacy","4","1024","2","48000","-16","experiment","1","odd","7","321462","12433","318171","319259","1518","114021","319260","305736","1521","96823","323463","324187","320261","323463","NA","Sternberg task","37","47923","45","yes","1024"
"82.6086956521739","82.6086956521739","1058.0869565217392","1058.0869565217392","black","experiment","legacy","legacy","legacy","0","uniform","1","undefined","1","left","45","0","45","45","0","0","45","45","0","0","45","45","45","45","0","Fri Oct 15 09:42:12 2021","The main experiment item","yes","Sternbergtask.osexp","C:/Users/Simon M. Rook/Documents/School/1Tarleton/Classes/Adv Quant/Lab 3","no","mono","no","18","no","white","no","no","768","legacy","33","11","C:/Users/Simon M. Rook/Documents/School/1Tarleton/Classes/Adv Quant/Lab 3/New folder/sr-subject-1.csv","legacy","5 2 6","Lentiform Loewenfeld","3.3.10","2","y","0","left","left","left","left","NA","749","10911","17198","749","NA","2","legacy","3","1024","2","48000","-16","experiment","1","odd","2","327494","12433","324199","325290","1518","114021","325292","305736","1521","96823","329495","330245","326293","329495","NA","Sternberg task","38","48672","46","yes","1024"
"80.85106382978724","80.85106382978724","1052.063829787234","1052.063829787234","black","experiment","legacy","legacy","legacy","0","uniform","0","undefined","0","left","46","0","46","46","0","0","46","46","0","0","46","46","46","46","0","Fri Oct 15 09:42:12 2021","The main experiment item","yes","Sternbergtask.osexp","C:/Users/Simon M. Rook/Documents/School/1Tarleton/Classes/Adv Quant/Lab 3","no","mono","no","18","no","white","no","no","768","legacy","34","11","C:/Users/Simon M. Rook/Documents/School/1Tarleton/Classes/Adv Quant/Lab 3/New folder/sr-subject-1.csv","legacy","6 9 3 1","Lentiform Loewenfeld","3.3.10","4","y","0","right","left","left","right","NA","775","10911","17198","775","NA","2","legacy","4","1024","2","48000","-16","experiment","1","odd","1","333549","12433","330258","331345","1518","114021","331347","305736","1521","96823","335550","336326","332348","335550","NA","Sternberg task","38","49447","47","yes","1024"
"81.25","81.25","1047.3958333333333","1047.3958333333333","black","experiment","legacy","legacy","legacy","0","uniform","1","undefined","1","right","47","0","47","47","0","0","47","47","0","0","47","47","47","47","0","Fri Oct 15 09:42:12 2021","The main experiment item","yes","Sternbergtask.osexp","C:/Users/Simon M. Rook/Documents/School/1Tarleton/Classes/Adv Quant/Lab 3","no","mono","no","18","no","white","no","no","768","legacy","35","11","C:/Users/Simon M. Rook/Documents/School/1Tarleton/Classes/Adv Quant/Lab 3/New folder/sr-subject-1.csv","legacy","2 8 9","Lentiform Loewenfeld","3.3.10","0","n","0","right","left","left","right","NA","828","10911","17198","828","NA","2","legacy","3","1024","2","48000","-16","experiment","1","odd","6","339640","12433","330258","337436","1518","114021","337438","336345","1521","96823","341641","342470","338439","341641","NA","Sternberg task","39","50275","48","yes","1024"
"81.63265306122449","81.63265306122449","1045.061224489796","1045.061224489796","black","experiment","legacy","legacy","legacy","0","uniform","1","undefined","1","right","48","0","48","48","0","0","48","48","0","0","48","48","48","48","0","Fri Oct 15 09:42:12 2021","The main experiment item","yes","Sternbergtask.osexp","C:/Users/Simon M. Rook/Documents/School/1Tarleton/Classes/Adv Quant/Lab 3","no","mono","no","18","no","white","no","no","768","legacy","36","11","C:/Users/Simon M. Rook/Documents/School/1Tarleton/Classes/Adv Quant/Lab 3/New folder/sr-subject-1.csv","legacy","8 5 7 3 6","Lentiform Loewenfeld","3.3.10","0","n","0","right","left","left","right","NA","933","10911","17198","933","NA","2","legacy","5","1024","2","48000","-16","experiment","1","odd","9","346351","12433","343049","344147","1518","114021","344149","336345","1521","96823","348353","349286","345150","348353","NA","Sternberg task","40","51208","49","yes","1024"
"82","82","1040.46","1040.46","black","experiment","legacy","legacy","legacy","0","uniform","1","undefined","1","right","49","0","49","49","0","0","49","49","0","0","49","49","49","49","0","Fri Oct 15 09:42:12 2021","The main experiment item","yes","Sternbergtask.osexp","C:/Users/Simon M. Rook/Documents/School/1Tarleton/Classes/Adv Quant/Lab 3","no","mono","no","18","no","white","no","no","768","legacy","37","11","C:/Users/Simon M. Rook/Documents/School/1Tarleton/Classes/Adv Quant/Lab 3/New folder/sr-subject-1.csv","legacy","7 6 4 8 1 2","Lentiform Loewenfeld","3.3.10","0","n","0","right","left","left","right","NA","815","10911","17198","815","NA","2","legacy","6","1024","2","48000","-16","experiment","1","odd","9","352599","12433","349290","350396","1518","114021","350397","336345","1521","96823","354600","355416","351398","354600","NA","Sternberg task","41","52023","50","yes","1024"
"82.3529411764706","82.3529411764706","1037.0980392156862","1037.0980392156862","black","experiment","legacy","legacy","legacy","0","uniform","1","undefined","1","left","50","0","50","50","0","0","50","50","0","0","50","50","50","50","0","Fri Oct 15 09:42:12 2021","The main experiment item","yes","Sternbergtask.osexp","C:/Users/Simon M. Rook/Documents/School/1Tarleton/Classes/Adv Quant/Lab 3","no","mono","no","18","no","white","no","no","768","legacy","38","11","C:/Users/Simon M. Rook/Documents/School/1Tarleton/Classes/Adv Quant/Lab 3/New folder/sr-subject-1.csv","legacy","9 6 2 4 1","Lentiform Loewenfeld","3.3.10","4","y","0","left","left","left","left","NA","869","10911","17198","869","NA","2","legacy","5","1024","2","48000","-16","experiment","1","odd","4","358721","12433","355422","356518","1518","114021","356519","336345","1521","96823","360722","361592","357520","360722","NA","Sternberg task","42","52892","51","yes","1024"
"82.6923076923077","82.6923076923077","1032.0576923076924","1032.0576923076924","black","experiment","legacy","legacy","legacy","0","uniform","1","undefined","1","left","51","0","51","51","0","0","51","51","0","0","51","51","51","51","0","Fri Oct 15 09:42:12 2021","The main experiment item","yes","Sternbergtask.osexp","C:/Users/Simon M. Rook/Documents/School/1Tarleton/Classes/Adv Quant/Lab 3","no","mono","no","18","no","white","no","no","768","legacy","39","11","C:/Users/Simon M. Rook/Documents/School/1Tarleton/Classes/Adv Quant/Lab 3/New folder/sr-subject-1.csv","legacy","4 3 2 5 8","Lentiform Loewenfeld","3.3.10","2","y","0","left","left","left","left","NA","775","10911","17198","775","NA","2","legacy","5","1024","2","48000","-16","experiment","1","odd","3","364896","12433","361597","362692","1518","114021","362694","336345","1521","96823","366897","367673","363695","366897","NA","Sternberg task","43","53667","52","yes","1024"
"83.01886792452831","83.01886792452831","1025.0188679245282","1025.0188679245282","black","experiment","legacy","legacy","legacy","0","uniform","1","undefined","1","right","52","0","52","52","0","0","52","52","0","0","52","52","52","52","0","Fri Oct 15 09:42:12 2021","The main experiment item","yes","Sternbergtask.osexp","C:/Users/Simon M. Rook/Documents/School/1Tarleton/Classes/Adv Quant/Lab 3","no","mono","no","18","no","white","no","no","768","legacy","40","11","C:/Users/Simon M. Rook/Documents/School/1Tarleton/Classes/Adv Quant/Lab 3/New folder/sr-subject-1.csv","legacy","4 1","Lentiform Loewenfeld","3.3.10","0","n","0","right","left","left","right","NA","659","10911","17198","659","NA","2","legacy","2","1024","2","48000","-16","experiment","1","odd","6","370981","12433","367686","368777","1518","114021","368778","336345","1521","96823","372982","373642","369780","372982","NA","Sternberg task","44","54326","53","yes","1024"
"83.33333333333333","83.33333333333333","1027.1666666666667","1027.1666666666667","black","experiment","legacy","legacy","legacy","0","uniform","1","undefined","1","right","53","0","53","53","0","0","53","53","0","0","53","53","53","53","0","Fri Oct 15 09:42:12 2021","The main experiment item","yes","Sternbergtask.osexp","C:/Users/Simon M. Rook/Documents/School/1Tarleton/Classes/Adv Quant/Lab 3","no","mono","no","18","no","white","no","no","768","legacy","41","11","C:/Users/Simon M. Rook/Documents/School/1Tarleton/Classes/Adv Quant/Lab 3/New folder/sr-subject-1.csv","legacy","5 3 8 7 2 4","Lentiform Loewenfeld","3.3.10","0","n","0","right","left","left","right","NA","1141","10911","17198","1141","NA","2","legacy","6","1024","2","48000","-16","experiment","1","odd","9","376956","12433","373660","374753","1518","114021","374754","336345","1521","96823","378957","380099","375755","378957","NA","Sternberg task","45","55467","54","yes","1024"
"83.63636363636364","83.63636363636364","1019.6545454545454","1019.6545454545454","black","experiment","legacy","legacy","legacy","0","uniform","1","undefined","1","right","54","0","54","54","0","0","54","54","0","0","54","54","54","54","0","Fri Oct 15 09:42:12 2021","The main experiment item","yes","Sternbergtask.osexp","C:/Users/Simon M. Rook/Documents/School/1Tarleton/Classes/Adv Quant/Lab 3","no","mono","no","18","no","white","no","no","768","legacy","42","11","C:/Users/Simon M. Rook/Documents/School/1Tarleton/Classes/Adv Quant/Lab 3/New folder/sr-subject-1.csv","legacy","4 2 7 6 1 3","Lentiform Loewenfeld","3.3.10","0","n","0","right","left","left","right","NA","614","10911","17198","614","NA","2","legacy","6","1024","2","48000","-16","experiment","1","odd","8","383411","12433","380115","381208","1518","114021","381209","336345","1521","96823","385412","386027","382210","385412","NA","Sternberg task","46","56081","55","yes","1024"
"82.14285714285714","82.14285714285714","1029.767857142857","1029.767857142857","black","experiment","legacy","legacy","legacy","0","uniform","0","undefined","0","left","55","0","55","55","0","0","55","55","0","0","55","55","55","55","0","Fri Oct 15 09:42:12 2021","The main experiment item","yes","Sternbergtask.osexp","C:/Users/Simon M. Rook/Documents/School/1Tarleton/Classes/Adv Quant/Lab 3","no","mono","no","18","no","white","no","no","768","legacy","43","11","C:/Users/Simon M. Rook/Documents/School/1Tarleton/Classes/Adv Quant/Lab 3/New folder/sr-subject-1.csv","legacy","2 8 5 1","Lentiform Loewenfeld","3.3.10","4","y","0","right","left","left","right","NA","1586","10911","17198","1586","NA","2","legacy","4","1024","2","48000","-16","experiment","1","odd","1","389328","12433","386033","387125","1518","114021","387126","336345","1521","96823","391329","392916","388127","391329","NA","Sternberg task","46","57667","56","yes","1024"
"82.45614035087719","82.45614035087719","1024.157894736842","1024.157894736842","black","experiment","legacy","legacy","legacy","0","uniform","1","undefined","1","left","56","0","56","56","0","0","56","56","0","0","56","56","56","56","0","Fri Oct 15 09:42:12 2021","The main experiment item","yes","Sternbergtask.osexp","C:/Users/Simon M. Rook/Documents/School/1Tarleton/Classes/Adv Quant/Lab 3","no","mono","no","18","no","white","no","no","768","legacy","44","11","C:/Users/Simon M. Rook/Documents/School/1Tarleton/Classes/Adv Quant/Lab 3/New folder/sr-subject-1.csv","legacy","3 2 1 4 7","Lentiform Loewenfeld","3.3.10","2","y","0","left","left","left","left","NA","710","10911","17198","710","NA","2","legacy","5","1024","2","48000","-16","experiment","1","odd","2","396213","12433","386033","394010","1518","114021","394011","392922","1521","96823","398214","398924","395012","398214","NA","Sternberg task","47","58377","57","yes","1024"
"82.75862068965517","82.75862068965517","1016.4827586206897","1016.4827586206897","black","experiment","legacy","legacy","legacy","0","uniform","1","undefined","1","left","57","0","57","57","0","0","57","57","0","0","57","57","57","57","0","Fri Oct 15 09:42:12 2021","The main experiment item","yes","Sternbergtask.osexp","C:/Users/Simon M. Rook/Documents/School/1Tarleton/Classes/Adv Quant/Lab 3","no","mono","no","18","no","white","no","no","768","legacy","45","11","C:/Users/Simon M. Rook/Documents/School/1Tarleton/Classes/Adv Quant/Lab 3/New folder/sr-subject-1.csv","legacy","3 5 7 1","Lentiform Loewenfeld","3.3.10","3","y","0","left","left","left","left","NA","579","10911","17198","579","NA","2","legacy","4","1024","2","48000","-16","experiment","1","odd","7","402224","12433","398929","400021","1518","114021","400022","392922","1521","96823","404225","404805","401023","404225","NA","Sternberg task","48","58956","58","yes","1024"
"83.05084745762711","83.05084745762711","1012.5084745762712","1012.5084745762712","black","experiment","legacy","legacy","legacy","0","uniform","1","undefined","1","right","58","0","58","58","0","0","58","58","0","0","58","58","58","58","0","Fri Oct 15 09:42:12 2021","The main experiment item","yes","Sternbergtask.osexp","C:/Users/Simon M. Rook/Documents/School/1Tarleton/Classes/Adv Quant/Lab 3","no","mono","no","18","no","white","no","no","768","legacy","46","11","C:/Users/Simon M. Rook/Documents/School/1Tarleton/Classes/Adv Quant/Lab 3/New folder/sr-subject-1.csv","legacy","6 8 4","Lentiform Loewenfeld","3.3.10","0","n","0","right","left","left","right","NA","782","10911","17198","782","NA","2","legacy","3","1024","2","48000","-16","experiment","1","odd","1","408102","12433","404810","405899","1518","114021","405900","392922","1521","96823","410103","410886","406901","410103","NA","Sternberg task","49","59738","59","yes","1024"
"83.33333333333333","83.33333333333333","1005.4166666666666","1005.4166666666666","black","experiment","legacy","legacy","legacy","0","uniform","1","undefined","1","left","59","0","59","59","0","0","59","59","0","0","59","59","59","59","0","Fri Oct 15 09:42:12 2021","The main experiment item","yes","Sternbergtask.osexp","C:/Users/Simon M. Rook/Documents/School/1Tarleton/Classes/Adv Quant/Lab 3","no","mono","no","18","no","white","no","no","768","legacy","47","11","C:/Users/Simon M. Rook/Documents/School/1Tarleton/Classes/Adv Quant/Lab 3/New folder/sr-subject-1.csv","legacy","6 5","Lentiform Loewenfeld","3.3.10","2","y","0","left","left","left","left","NA","587","10911","17198","587","NA","2","legacy","2","1024","2","48000","-16","experiment","1","odd","5","414194","12433","410894","411990","1518","114021","411992","392922","1521","96823","416195","416783","412993","416195","NA","Sternberg task","50","60325","60","yes","1024"
"83.60655737704919","83.60655737704919","1001.0819672131148","1001.0819672131148","black","experiment","legacy","legacy","legacy","0","uniform","1","undefined","1","right","60","0","60","60","0","0","60","60","0","0","60","60","60","60","0","Fri Oct 15 09:42:12 2021","The main experiment item","yes","Sternbergtask.osexp","C:/Users/Simon M. Rook/Documents/School/1Tarleton/Classes/Adv Quant/Lab 3","no","mono","no","18","no","white","no","no","768","legacy","48","11","C:/Users/Simon M. Rook/Documents/School/1Tarleton/Classes/Adv Quant/Lab 3/New folder/sr-subject-1.csv","legacy","4 2 6 9","Lentiform Loewenfeld","3.3.10","0","n","0","right","left","left","right","NA","741","10911","17198","741","NA","2","legacy","4","1024","2","48000","-16","experiment","1","odd","7","420120","12433","416825","417917","1518","114021","417918","392922","1521","96823","422121","422863","418919","422121","NA","Sternberg task","51","61066","61","yes","1024"
"83.87096774193549","83.87096774193549","995.8225806451613","995.8225806451613","black","experiment","legacy","legacy","legacy","0","uniform","1","undefined","1","left","61","0","61","61","0","0","61","61","0","0","61","61","61","61","0","Fri Oct 15 09:42:12 2021","The main experiment item","yes","Sternbergtask.osexp","C:/Users/Simon M. Rook/Documents/School/1Tarleton/Classes/Adv Quant/Lab 3","no","mono","no","18","no","white","no","no","768","legacy","49","11","C:/Users/Simon M. Rook/Documents/School/1Tarleton/Classes/Adv Quant/Lab 3/New folder/sr-subject-1.csv","legacy","7 6","Lentiform Loewenfeld","3.3.10","2","y","0","left","left","left","left","NA","675","10911","17198","675","NA","2","legacy","2","1024","2","48000","-16","experiment","1","odd","6","426492","12433","423169","424284","1518","114021","424286","392922","1521","96823","428493","429168","425291","428493","NA","Sternberg task","52","61741","62","yes","1024"
"84.12698412698413","84.12698412698413","991.7777777777778","991.7777777777778","black","experiment","legacy","legacy","legacy","0","uniform","1","undefined","1","left","62","0","62","62","0","0","62","62","0","0","62","62","62","62","0","Fri Oct 15 09:42:12 2021","The main experiment item","yes","Sternbergtask.osexp","C:/Users/Simon M. Rook/Documents/School/1Tarleton/Classes/Adv Quant/Lab 3","no","mono","no","18","no","white","no","no","768","legacy","50","11","C:/Users/Simon M. Rook/Documents/School/1Tarleton/Classes/Adv Quant/Lab 3/New folder/sr-subject-1.csv","legacy","2 6 1 7 4","Lentiform Loewenfeld","3.3.10","2","y","0","left","left","left","left","NA","741","10911","17198","741","NA","2","legacy","5","1024","2","48000","-16","experiment","1","odd","6","432458","12433","429174","430254","1518","114021","430256","392922","1521","96823","434459","435201","431257","434459","NA","Sternberg task","53","62482","63","yes","1024"
"84.375","84.375","988.8125","988.8125","black","experiment","legacy","legacy","legacy","0","uniform","1","undefined","1","right","63","0","63","63","0","0","63","63","0","0","63","63","63","63","0","Fri Oct 15 09:42:12 2021","The main experiment item","yes","Sternbergtask.osexp","C:/Users/Simon M. Rook/Documents/School/1Tarleton/Classes/Adv Quant/Lab 3","no","mono","no","18","no","white","no","no","768","legacy","51","11","C:/Users/Simon M. Rook/Documents/School/1Tarleton/Classes/Adv Quant/Lab 3/New folder/sr-subject-1.csv","legacy","6 8","Lentiform Loewenfeld","3.3.10","0","n","0","right","left","left","right","NA","802","10911","17198","802","NA","2","legacy","2","1024","2","48000","-16","experiment","1","odd","9","438672","12433","435355","436468","1518","114021","436470","392922","1521","96823","440673","441475","437471","440673","NA","Sternberg task","54","63284","64","yes","1024"
"83.07692307692308","83.07692307692308","1004.3692307692307","1004.3692307692307","black","experiment","legacy","legacy","legacy","0","uniform","0","undefined","0","left","64","0","64","64","0","0","64","64","0","0","64","64","64","64","0","Fri Oct 15 09:42:12 2021","The main experiment item","yes","Sternbergtask.osexp","C:/Users/Simon M. Rook/Documents/School/1Tarleton/Classes/Adv Quant/Lab 3","no","mono","no","18","no","white","no","no","768","legacy","52","11","C:/Users/Simon M. Rook/Documents/School/1Tarleton/Classes/Adv Quant/Lab 3/New folder/sr-subject-1.csv","legacy","2 4 8 5 1 3","Lentiform Loewenfeld","3.3.10","1","y","0","None","left","left","None","NA","2000","10911","17198","2000","NA","2","legacy","6","1024","2","48000","-16","experiment","1","odd","2","444772","12433","441482","442569","1518","114021","442570","392922","1521","96823","446773","448773","443571","446773","NA","Sternberg task","54","65284","65","yes","1024"
"83.33333333333333","83.33333333333333","999.6969696969697","999.6969696969697","black","experiment","legacy","legacy","legacy","0","uniform","1","undefined","1","left","65","0","65","65","0","0","65","65","0","0","65","65","65","65","0","Fri Oct 15 09:42:12 2021","The main experiment item","yes","Sternbergtask.osexp","C:/Users/Simon M. Rook/Documents/School/1Tarleton/Classes/Adv Quant/Lab 3","no","mono","no","18","no","white","no","no","768","legacy","53","11","C:/Users/Simon M. Rook/Documents/School/1Tarleton/Classes/Adv Quant/Lab 3/New folder/sr-subject-1.csv","legacy","8","Lentiform Loewenfeld","3.3.10","1","y","0","left","left","left","left","NA","696","10911","17198","696","NA","2","legacy","1","1024","2","48000","-16","experiment","1","odd","8","452097","12433","441482","449894","1518","114021","449895","448786","1521","96823","454098","454795","450896","454098","NA","Sternberg task","55","65980","66","yes","1024"
"83.58208955223881","83.58208955223881","992.4179104477612","992.4179104477612","black","experiment","legacy","legacy","legacy","0","uniform","1","undefined","1","right","66","0","66","66","0","0","66","66","0","0","66","66","66","66","0","Fri Oct 15 09:42:12 2021","The main experiment item","yes","Sternbergtask.osexp","C:/Users/Simon M. Rook/Documents/School/1Tarleton/Classes/Adv Quant/Lab 3","no","mono","no","18","no","white","no","no","768","legacy","54","11","C:/Users/Simon M. Rook/Documents/School/1Tarleton/Classes/Adv Quant/Lab 3/New folder/sr-subject-1.csv","legacy","7 9","Lentiform Loewenfeld","3.3.10","0","n","0","right","left","left","right","NA","512","10911","17198","512","NA","2","legacy","2","1024","2","48000","-16","experiment","1","odd","1","458090","12433","454801","455887","1518","114021","455888","448786","1521","96823","460091","460604","456889","460091","NA","Sternberg task","56","66492","67","yes","1024"
"83.82352941176471","83.82352941176471","987.5882352941177","987.5882352941177","black","experiment","legacy","legacy","legacy","0","uniform","1","undefined","1","right","67","0","67","67","0","0","67","67","0","0","67","67","67","67","0","Fri Oct 15 09:42:12 2021","The main experiment item","yes","Sternbergtask.osexp","C:/Users/Simon M. Rook/Documents/School/1Tarleton/Classes/Adv Quant/Lab 3","no","mono","no","18","no","white","no","no","768","legacy","55","11","C:/Users/Simon M. Rook/Documents/School/1Tarleton/Classes/Adv Quant/Lab 3/New folder/sr-subject-1.csv","legacy","2 5 1 4","Lentiform Loewenfeld","3.3.10","0","n","0","right","left","left","right","NA","664","10911","17198","664","NA","2","legacy","4","1024","2","48000","-16","experiment","1","odd","6","463898","12433","460608","461695","1518","114021","461696","448786","1521","96823","465899","466564","462697","465899","NA","Sternberg task","57","67156","68","yes","1024"
"84.05797101449275","84.05797101449275","984.8695652173913","984.8695652173913","black","experiment","legacy","legacy","legacy","0","uniform","1","undefined","1","right","68","0","68","68","0","0","68","68","0","0","68","68","68","68","0","Fri Oct 15 09:42:12 2021","The main experiment item","yes","Sternbergtask.osexp","C:/Users/Simon M. Rook/Documents/School/1Tarleton/Classes/Adv Quant/Lab 3","no","mono","no","18","no","white","no","no","768","legacy","56","11","C:/Users/Simon M. Rook/Documents/School/1Tarleton/Classes/Adv Quant/Lab 3/New folder/sr-subject-1.csv","legacy","1 4 9 3","Lentiform Loewenfeld","3.3.10","0","n","0","right","left","left","right","NA","800","10911","17198","800","NA","2","legacy","4","1024","2","48000","-16","experiment","1","odd","5","469859","12433","466570","467656","1518","114021","467657","448786","1521","96823","471860","472661","468658","471860","NA","Sternberg task","58","67956","69","yes","1024"
"82.85714285714286","82.85714285714286","999.3714285714286","999.3714285714286","black","experiment","legacy","legacy","legacy","0","uniform","0","undefined","0","left","69","0","69","69","0","0","69","69","0","0","69","69","69","69","0","Fri Oct 15 09:42:12 2021","The main experiment item","yes","Sternbergtask.osexp","C:/Users/Simon M. Rook/Documents/School/1Tarleton/Classes/Adv Quant/Lab 3","no","mono","no","18","no","white","no","no","768","legacy","57","11","C:/Users/Simon M. Rook/Documents/School/1Tarleton/Classes/Adv Quant/Lab 3/New folder/sr-subject-1.csv","legacy","6 2","Lentiform Loewenfeld","3.3.10","1","y","0","None","left","left","None","NA","2000","10911","17198","2000","NA","2","legacy","2","1024","2","48000","-16","experiment","1","odd","6","475964","12433","472674","473761","1518","114021","473762","448786","1521","96823","477965","479965","474763","477965","NA","Sternberg task","58","69956","70","yes","1024"
"83.09859154929578","83.09859154929578","993.4084507042254","993.4084507042254","black","experiment","legacy","legacy","legacy","0","uniform","1","undefined","1","right","70","0","70","70","0","0","70","70","0","0","70","70","70","70","0","Fri Oct 15 09:42:12 2021","The main experiment item","yes","Sternbergtask.osexp","C:/Users/Simon M. Rook/Documents/School/1Tarleton/Classes/Adv Quant/Lab 3","no","mono","no","18","no","white","no","no","768","legacy","58","11","C:/Users/Simon M. Rook/Documents/School/1Tarleton/Classes/Adv Quant/Lab 3/New folder/sr-subject-1.csv","legacy","2 7 5","Lentiform Loewenfeld","3.3.10","0","n","0","right","left","left","right","NA","576","10911","17198","576","NA","2","legacy","3","1024","2","48000","-16","experiment","1","odd","8","483285","12433","472674","481082","1518","114021","481083","479974","1521","96823","485286","485862","482084","485286","NA","Sternberg task","59","70532","71","yes","1024"
"83.33333333333333","83.33333333333333","991.1666666666666","991.1666666666666","black","experiment","legacy","legacy","legacy","0","uniform","1","undefined","1","left","71","0","71","71","0","0","71","71","0","0","71","71","71","71","0","Fri Oct 15 09:42:12 2021","The main experiment item","yes","Sternbergtask.osexp","C:/Users/Simon M. Rook/Documents/School/1Tarleton/Classes/Adv Quant/Lab 3","no","mono","no","18","no","white","no","no","768","legacy","59","11","C:/Users/Simon M. Rook/Documents/School/1Tarleton/Classes/Adv Quant/Lab 3/New folder/sr-subject-1.csv","legacy","9 5 3 8 4","Lentiform Loewenfeld","3.3.10","1","y","0","left","left","left","left","NA","832","10911","17198","832","NA","2","legacy","5","1024","2","48000","-16","experiment","1","odd","9","489157","12433","485868","486953","1518","114021","486954","479974","1521","96823","491158","491991","487956","491158","NA","Sternberg task","60","71364","72","yes","1024"
"83.56164383561644","83.56164383561644","989.8219178082192","989.8219178082192","black","experiment","legacy","legacy","legacy","0","uniform","1","undefined","1","left","72","0","72","72","0","0","72","72","0","0","72","72","72","72","0","Fri Oct 15 09:42:12 2021","The main experiment item","yes","Sternbergtask.osexp","C:/Users/Simon M. Rook/Documents/School/1Tarleton/Classes/Adv Quant/Lab 3","no","mono","no","18","no","white","no","no","768","legacy","60","11","C:/Users/Simon M. Rook/Documents/School/1Tarleton/Classes/Adv Quant/Lab 3/New folder/sr-subject-1.csv","legacy","2 4 6 9","Lentiform Loewenfeld","3.3.10","3","y","0","left","left","left","left","NA","893","10911","17198","893","NA","2","legacy","4","1024","2","48000","-16","experiment","1","odd","6","495298","12433","492009","493095","1518","114021","493096","479974","1521","96823","497299","498192","494097","497299","NA","Sternberg task","61","72257","73","yes","1024"
"82.43243243243244","82.43243243243244","984.472972972973","984.472972972973","black","experiment","legacy","legacy","legacy","0","uniform","0","undefined","0","left","73","0","73","73","0","0","73","73","0","0","73","73","73","73","0","Fri Oct 15 09:42:12 2021","The main experiment item","yes","Sternbergtask.osexp","C:/Users/Simon M. Rook/Documents/School/1Tarleton/Classes/Adv Quant/Lab 3","no","mono","no","18","no","white","no","no","768","legacy","61","11","C:/Users/Simon M. Rook/Documents/School/1Tarleton/Classes/Adv Quant/Lab 3/New folder/sr-subject-1.csv","legacy","2 3","Lentiform Loewenfeld","3.3.10","1","y","0","right","left","left","right","NA","594","10911","17198","594","NA","2","legacy","2","1024","2","48000","-16","experiment","1","odd","2","501485","12433","498197","499282","1518","114021","499283","479974","1521","96823","503486","504081","500284","503486","NA","Sternberg task","61","72851","74","yes","1024"
"82.66666666666667","82.66666666666667","981.8933333333333","981.8933333333333","black","experiment","legacy","legacy","legacy","0","uniform","1","undefined","1","left","74","0","74","74","0","0","74","74","0","0","74","74","74","74","0","Fri Oct 15 09:42:12 2021","The main experiment item","yes","Sternbergtask.osexp","C:/Users/Simon M. Rook/Documents/School/1Tarleton/Classes/Adv Quant/Lab 3","no","mono","no","18","no","white","no","no","768","legacy","62","11","C:/Users/Simon M. Rook/Documents/School/1Tarleton/Classes/Adv Quant/Lab 3/New folder/sr-subject-1.csv","legacy","7 4 2 6 3 5","Lentiform Loewenfeld","3.3.10","6","y","0","left","left","left","left","NA","791","10911","17198","791","NA","2","legacy","6","1024","2","48000","-16","experiment","1","odd","5","507376","12433","498197","505172","1518","114021","505174","504087","1521","96823","509377","510169","506175","509377","NA","Sternberg task","62","73642","75","yes","1024"
"82.89473684210526","82.89473684210526","978","978","black","experiment","legacy","legacy","legacy","0","uniform","1","undefined","1","left","75","0","75","75","0","0","75","75","0","0","75","75","75","75","0","Fri Oct 15 09:42:12 2021","The main experiment item","yes","Sternbergtask.osexp","C:/Users/Simon M. Rook/Documents/School/1Tarleton/Classes/Adv Quant/Lab 3","no","mono","no","18","no","white","no","no","768","legacy","63","11","C:/Users/Simon M. Rook/Documents/School/1Tarleton/Classes/Adv Quant/Lab 3/New folder/sr-subject-1.csv","legacy","3 4 9 6 2 9","Lentiform Loewenfeld","3.3.10","5","y","0","left","left","left","left","NA","686","10911","17198","686","NA","2","legacy","6","1024","2","48000","-16","experiment","1","odd","2","513468","12433","510178","511265","1518","114021","511266","504087","1521","96823","515469","516156","512267","515469","NA","Sternberg task","63","74328","76","yes","1024"
"83.11688311688312","83.11688311688312","976.7272727272727","976.7272727272727","black","experiment","legacy","legacy","legacy","0","uniform","1","undefined","1","right","76","0","76","76","0","0","76","76","0","0","76","76","76","76","0","Fri Oct 15 09:42:12 2021","The main experiment item","yes","Sternbergtask.osexp","C:/Users/Simon M. Rook/Documents/School/1Tarleton/Classes/Adv Quant/Lab 3","no","mono","no","18","no","white","no","no","768","legacy","64","11","C:/Users/Simon M. Rook/Documents/School/1Tarleton/Classes/Adv Quant/Lab 3/New folder/sr-subject-1.csv","legacy","2 8 9 4 1","Lentiform Loewenfeld","3.3.10","0","n","0","right","left","left","right","NA","880","10911","17198","880","NA","2","legacy","5","1024","2","48000","-16","experiment","1","odd","5","519449","12433","516160","517245","1518","114021","517246","504087","1521","96823","521450","522331","518248","521450","NA","Sternberg task","64","75208","77","yes","1024"
"83.33333333333333","83.33333333333333","972.6410256410256","972.6410256410256","black","experiment","legacy","legacy","legacy","0","uniform","1","undefined","1","left","77","0","77","77","0","0","77","77","0","0","77","77","77","77","0","Fri Oct 15 09:42:12 2021","The main experiment item","yes","Sternbergtask.osexp","C:/Users/Simon M. Rook/Documents/School/1Tarleton/Classes/Adv Quant/Lab 3","no","mono","no","18","no","white","no","no","768","legacy","65","11","C:/Users/Simon M. Rook/Documents/School/1Tarleton/Classes/Adv Quant/Lab 3/New folder/sr-subject-1.csv","legacy","4 7 6 8 2 3","Lentiform Loewenfeld","3.3.10","6","y","0","left","left","left","left","NA","658","10911","17198","658","NA","2","legacy","6","1024","2","48000","-16","experiment","1","odd","3","525624","12433","522335","523421","1518","114021","523422","504087","1521","96823","527625","528284","524423","527625","NA","Sternberg task","65","75866","78","yes","1024"
"83.54430379746836","83.54430379746836","967.1139240506329","967.1139240506329","black","experiment","legacy","legacy","legacy","0","uniform","1","undefined","1","left","78","0","78","78","0","0","78","78","0","0","78","78","78","78","0","Fri Oct 15 09:42:12 2021","The main experiment item","yes","Sternbergtask.osexp","C:/Users/Simon M. Rook/Documents/School/1Tarleton/Classes/Adv Quant/Lab 3","no","mono","no","18","no","white","no","no","768","legacy","66","11","C:/Users/Simon M. Rook/Documents/School/1Tarleton/Classes/Adv Quant/Lab 3/New folder/sr-subject-1.csv","legacy","8 9 6 1","Lentiform Loewenfeld","3.3.10","2","y","0","left","left","left","left","NA","536","10911","17198","536","NA","2","legacy","4","1024","2","48000","-16","experiment","1","odd","9","531579","12433","528290","529376","1518","114021","529377","504087","1521","96823","533580","534117","530378","533580","NA","Sternberg task","66","76402","79","yes","1024"
"83.75","83.75","963","963","black","experiment","legacy","legacy","legacy","0","uniform","1","undefined","1","left","79","0","79","79","0","0","79","79","0","0","79","79","79","79","0","Fri Oct 15 09:42:12 2021","The main experiment item","yes","Sternbergtask.osexp","C:/Users/Simon M. Rook/Documents/School/1Tarleton/Classes/Adv Quant/Lab 3","no","mono","no","18","no","white","no","no","768","legacy","67","11","C:/Users/Simon M. Rook/Documents/School/1Tarleton/Classes/Adv Quant/Lab 3/New folder/sr-subject-1.csv","legacy","4 1 5","Lentiform Loewenfeld","3.3.10","2","y","0","left","left","left","left","NA","638","10911","17198","638","NA","2","legacy","3","1024","2","48000","-16","experiment","1","odd","1","537413","12433","534123","535209","1518","114021","535211","504087","1521","96823","539414","540053","536212","539414","NA","Sternberg task","67","77040","80","yes","1024"
"83.95061728395062","83.95061728395062","958.8024691358024","958.8024691358024","black","experiment","legacy","legacy","legacy","0","uniform","1","undefined","1","left","80","0","80","80","0","0","80","80","0","0","80","80","80","80","0","Fri Oct 15 09:42:12 2021","The main experiment item","yes","Sternbergtask.osexp","C:/Users/Simon M. Rook/Documents/School/1Tarleton/Classes/Adv Quant/Lab 3","no","mono","no","18","no","white","no","no","768","legacy","68","11","C:/Users/Simon M. Rook/Documents/School/1Tarleton/Classes/Adv Quant/Lab 3/New folder/sr-subject-1.csv","legacy","8 7 3","Lentiform Loewenfeld","3.3.10","1","y","0","left","left","left","left","NA","623","10911","17198","623","NA","2","legacy","3","1024","2","48000","-16","experiment","1","odd","8","543348","12433","540059","541144","1518","114021","541145","504087","1521","96823","545349","545973","542147","545349","NA","Sternberg task","68","77663","81","yes","1024"
"84.14634146341463","84.14634146341463","954.3170731707318","954.3170731707318","black","experiment","legacy","legacy","legacy","0","uniform","1","undefined","1","left","81","0","81","81","0","0","81","81","0","0","81","81","81","81","0","Fri Oct 15 09:42:12 2021","The main experiment item","yes","Sternbergtask.osexp","C:/Users/Simon M. Rook/Documents/School/1Tarleton/Classes/Adv Quant/Lab 3","no","mono","no","18","no","white","no","no","768","legacy","69","11","C:/Users/Simon M. Rook/Documents/School/1Tarleton/Classes/Adv Quant/Lab 3/New folder/sr-subject-1.csv","legacy","5 7 8 2 3 8","Lentiform Loewenfeld","3.3.10","5","y","0","left","left","left","left","NA","591","10911","17198","591","NA","2","legacy","6","1024","2","48000","-16","experiment","1","odd","3","549269","12433","545979","547065","1518","114021","547067","504087","1521","96823","551270","551862","548068","551270","NA","Sternberg task","69","78254","82","yes","1024"
"84.33734939759036","84.33734939759036","949.144578313253","949.144578313253","black","experiment","legacy","legacy","legacy","0","uniform","1","undefined","1","left","82","0","82","82","0","0","82","82","0","0","82","82","82","82","0","Fri Oct 15 09:42:12 2021","The main experiment item","yes","Sternbergtask.osexp","C:/Users/Simon M. Rook/Documents/School/1Tarleton/Classes/Adv Quant/Lab 3","no","mono","no","18","no","white","no","no","768","legacy","70","11","C:/Users/Simon M. Rook/Documents/School/1Tarleton/Classes/Adv Quant/Lab 3/New folder/sr-subject-1.csv","legacy","3 5 4 7","Lentiform Loewenfeld","3.3.10","1","y","0","left","left","left","left","NA","525","10911","17198","525","NA","2","legacy","4","1024","2","48000","-16","experiment","1","odd","3","555160","12433","551870","552956","1518","114021","552958","504087","1521","96823","557161","557687","553959","557161","NA","Sternberg task","70","78779","83","yes","1024"
"84.52380952380952","84.52380952380952","946.4880952380952","946.4880952380952","black","experiment","legacy","legacy","legacy","0","uniform","1","undefined","1","right","83","0","83","83","0","0","83","83","0","0","83","83","83","83","0","Fri Oct 15 09:42:12 2021","The main experiment item","yes","Sternbergtask.osexp","C:/Users/Simon M. Rook/Documents/School/1Tarleton/Classes/Adv Quant/Lab 3","no","mono","no","18","no","white","no","no","768","legacy","71","11","C:/Users/Simon M. Rook/Documents/School/1Tarleton/Classes/Adv Quant/Lab 3/New folder/sr-subject-1.csv","legacy","7 1","Lentiform Loewenfeld","3.3.10","0","n","0","right","left","left","right","NA","726","10911","17198","726","NA","2","legacy","2","1024","2","48000","-16","experiment","1","odd","8","560983","12433","557693","558780","1518","114021","558781","504087","1521","96823","562984","563712","559782","562984","NA","Sternberg task","71","79505","84","yes","1024"
"84.70588235294117","84.70588235294117","941.6470588235294","941.6470588235294","black","experiment","legacy","legacy","legacy","0","uniform","1","undefined","1","left","84","0","84","84","0","0","84","84","0","0","84","84","84","84","0","Fri Oct 15 09:42:12 2021","The main experiment item","yes","Sternbergtask.osexp","C:/Users/Simon M. Rook/Documents/School/1Tarleton/Classes/Adv Quant/Lab 3","no","mono","no","18","no","white","no","no","768","legacy","72","11","C:/Users/Simon M. Rook/Documents/School/1Tarleton/Classes/Adv Quant/Lab 3/New folder/sr-subject-1.csv","legacy","7 1 3","Lentiform Loewenfeld","3.3.10","2","y","0","left","left","left","left","NA","535","10911","17198","535","NA","2","legacy","3","1024","2","48000","-16","experiment","1","odd","1","567008","12433","563715","564805","1518","114021","564806","504087","1521","96823","569009","569545","565807","569009","NA","Sternberg task","72","80040","85","yes","1024"
"84.88372093023256","84.88372093023256","942.9069767441861","942.9069767441861","black","experiment","legacy","legacy","legacy","0","uniform","1","undefined","1","right","85","0","85","85","0","0","85","85","0","0","85","85","85","85","0","Fri Oct 15 09:42:12 2021","The main experiment item","yes","Sternbergtask.osexp","C:/Users/Simon M. Rook/Documents/School/1Tarleton/Classes/Adv Quant/Lab 3","no","mono","no","18","no","white","no","no","768","legacy","73","11","C:/Users/Simon M. Rook/Documents/School/1Tarleton/Classes/Adv Quant/Lab 3/New folder/sr-subject-1.csv","legacy","5 7 3","Lentiform Loewenfeld","3.3.10","0","n","0","right","left","left","right","NA","1050","10911","17198","1050","NA","2","legacy","3","1024","2","48000","-16","experiment","1","odd","9","572837","12433","569548","570634","1518","114021","570635","504087","1521","96823","574838","575889","571636","574838","NA","Sternberg task","73","81090","86","yes","1024"
"85.05747126436782","85.05747126436782","938.3218390804598","938.3218390804598","black","experiment","legacy","legacy","legacy","0","uniform","1","undefined","1","left","86","0","86","86","0","0","86","86","0","0","86","86","86","86","0","Fri Oct 15 09:42:12 2021","The main experiment item","yes","Sternbergtask.osexp","C:/Users/Simon M. Rook/Documents/School/1Tarleton/Classes/Adv Quant/Lab 3","no","mono","no","18","no","white","no","no","768","legacy","74","11","C:/Users/Simon M. Rook/Documents/School/1Tarleton/Classes/Adv Quant/Lab 3/New folder/sr-subject-1.csv","legacy","6 9 7 4 5 1","Lentiform Loewenfeld","3.3.10","2","y","0","left","left","left","left","NA","544","10911","17198","544","NA","2","legacy","6","1024","2","48000","-16","experiment","1","odd","9","579184","12433","575896","576981","1518","114021","576982","504087","1521","96823","581185","581729","577983","581185","NA","Sternberg task","74","81634","87","yes","1024"
"85.22727272727273","85.22727272727273","936.3068181818181","936.3068181818181","black","experiment","legacy","legacy","legacy","0","uniform","1","undefined","1","left","87","0","87","87","0","0","87","87","0","0","87","87","87","87","0","Fri Oct 15 09:42:12 2021","The main experiment item","yes","Sternbergtask.osexp","C:/Users/Simon M. Rook/Documents/School/1Tarleton/Classes/Adv Quant/Lab 3","no","mono","no","18","no","white","no","no","768","legacy","75","11","C:/Users/Simon M. Rook/Documents/School/1Tarleton/Classes/Adv Quant/Lab 3/New folder/sr-subject-1.csv","legacy","8 9 5 7 1 6","Lentiform Loewenfeld","3.3.10","4","y","0","left","left","left","left","NA","761","10911","17198","761","NA","2","legacy","6","1024","2","48000","-16","experiment","1","odd","7","585024","12433","581734","582821","1518","114021","582822","504087","1521","96823","587025","587787","583823","587025","NA","Sternberg task","75","82395","88","yes","1024"
"85.3932584269663","85.3932584269663","939.1797752808989","939.1797752808989","black","experiment","legacy","legacy","legacy","0","uniform","1","undefined","1","left","88","0","88","88","0","0","88","88","0","0","88","88","88","88","0","Fri Oct 15 09:42:12 2021","The main experiment item","yes","Sternbergtask.osexp","C:/Users/Simon M. Rook/Documents/School/1Tarleton/Classes/Adv Quant/Lab 3","no","mono","no","18","no","white","no","no","768","legacy","76","11","C:/Users/Simon M. Rook/Documents/School/1Tarleton/Classes/Adv Quant/Lab 3/New folder/sr-subject-1.csv","legacy","9 3 1 2 5","Lentiform Loewenfeld","3.3.10","4","y","0","left","left","left","left","NA","1192","10911","17198","1192","NA","2","legacy","5","1024","2","48000","-16","experiment","1","odd","2","591089","12433","587799","588886","1518","114021","588887","504087","1521","96823","593090","594283","589888","593090","NA","Sternberg task","76","83587","89","yes","1024"
"85.55555555555556","85.55555555555556","939.7555555555556","939.7555555555556","black","experiment","legacy","legacy","legacy","0","uniform","1","undefined","1","right","89","0","89","89","0","0","89","89","0","0","89","89","89","89","0","Fri Oct 15 09:42:12 2021","The main experiment item","yes","Sternbergtask.osexp","C:/Users/Simon M. Rook/Documents/School/1Tarleton/Classes/Adv Quant/Lab 3","no","mono","no","18","no","white","no","no","768","legacy","77","11","C:/Users/Simon M. Rook/Documents/School/1Tarleton/Classes/Adv Quant/Lab 3/New folder/sr-subject-1.csv","legacy","1 7 8 3 9","Lentiform Loewenfeld","3.3.10","0","n","0","right","left","left","right","NA","991","10911","17198","991","NA","2","legacy","5","1024","2","48000","-16","experiment","1","odd","2","597579","12433","594287","595375","1518","114021","595377","504087","1521","96823","599580","600572","596378","599580","NA","Sternberg task","77","84578","90","yes","1024"
"85.71428571428571","85.71428571428571","936.989010989011","936.989010989011","black","experiment","legacy","legacy","legacy","0","uniform","1","undefined","1","right","90","0","90","90","0","0","90","90","0","0","90","90","90","90","0","Fri Oct 15 09:42:12 2021","The main experiment item","yes","Sternbergtask.osexp","C:/Users/Simon M. Rook/Documents/School/1Tarleton/Classes/Adv Quant/Lab 3","no","mono","no","18","no","white","no","no","768","legacy","78","11","C:/Users/Simon M. Rook/Documents/School/1Tarleton/Classes/Adv Quant/Lab 3/New folder/sr-subject-1.csv","legacy","6 9 7 3 8 2","Lentiform Loewenfeld","3.3.10","0","n","0","right","left","left","right","NA","688","10911","17198","688","NA","2","legacy","6","1024","2","48000","-16","experiment","1","odd","5","603867","12433","600578","601664","1518","114021","601665","504087","1521","96823","605868","606557","602666","605868","NA","Sternberg task","78","85266","91","yes","1024"
"85.8695652173913","85.8695652173913","933.7934782608696","933.7934782608696","black","experiment","legacy","legacy","legacy","0","uniform","1","undefined","1","left","91","0","91","91","0","0","91","91","0","0","91","91","91","91","0","Fri Oct 15 09:42:12 2021","The main experiment item","yes","Sternbergtask.osexp","C:/Users/Simon M. Rook/Documents/School/1Tarleton/Classes/Adv Quant/Lab 3","no","mono","no","18","no","white","no","no","768","legacy","79","11","C:/Users/Simon M. Rook/Documents/School/1Tarleton/Classes/Adv Quant/Lab 3/New folder/sr-subject-1.csv","legacy","4 9 7 8 5 3","Lentiform Loewenfeld","3.3.10","4","y","0","left","left","left","left","NA","643","10911","17198","643","NA","2","legacy","6","1024","2","48000","-16","experiment","1","odd","8","609856","12433","606560","607652","1518","114021","607653","504087","1521","96823","611857","612501","608655","611857","NA","Sternberg task","79","85909","92","yes","1024"
"86.02150537634408","86.02150537634408","932.9462365591398","932.9462365591398","black","experiment","legacy","legacy","legacy","0","uniform","1","undefined","1","right","92","0","92","92","0","0","92","92","0","0","92","92","92","92","0","Fri Oct 15 09:42:12 2021","The main experiment item","yes","Sternbergtask.osexp","C:/Users/Simon M. Rook/Documents/School/1Tarleton/Classes/Adv Quant/Lab 3","no","mono","no","18","no","white","no","no","768","legacy","80","11","C:/Users/Simon M. Rook/Documents/School/1Tarleton/Classes/Adv Quant/Lab 3/New folder/sr-subject-1.csv","legacy","1 7 5 2 9","Lentiform Loewenfeld","3.3.10","0","n","0","right","left","left","right","NA","855","10911","17198","855","NA","2","legacy","5","1024","2","48000","-16","experiment","1","odd","3","615797","12433","612507","613594","1518","114021","613595","504087","1521","96823","617798","618654","614596","617798","NA","Sternberg task","80","86764","93","yes","1024"
"86.17021276595744","86.17021276595744","933.6489361702128","933.6489361702128","black","experiment","legacy","legacy","legacy","0","uniform","1","undefined","1","right","93","0","93","93","0","0","93","93","0","0","93","93","93","93","0","Fri Oct 15 09:42:12 2021","The main experiment item","yes","Sternbergtask.osexp","C:/Users/Simon M. Rook/Documents/School/1Tarleton/Classes/Adv Quant/Lab 3","no","mono","no","18","no","white","no","no","768","legacy","81","11","C:/Users/Simon M. Rook/Documents/School/1Tarleton/Classes/Adv Quant/Lab 3/New folder/sr-subject-1.csv","legacy","8 5 4 2 9 6","Lentiform Loewenfeld","3.3.10","0","n","0","right","left","left","right","NA","999","10911","17198","999","NA","2","legacy","6","1024","2","48000","-16","experiment","1","odd","3","621949","12433","618659","619745","1518","114021","619746","504087","1521","96823","623950","624951","620748","623950","NA","Sternberg task","81","87763","94","yes","1024"
"86.3157894736842","86.3157894736842","931.6210526315789","931.6210526315789","black","experiment","legacy","legacy","legacy","0","uniform","1","undefined","1","right","94","0","94","94","0","0","94","94","0","0","94","94","94","94","0","Fri Oct 15 09:42:12 2021","The main experiment item","yes","Sternbergtask.osexp","C:/Users/Simon M. Rook/Documents/School/1Tarleton/Classes/Adv Quant/Lab 3","no","mono","no","18","no","white","no","no","768","legacy","82","11","C:/Users/Simon M. Rook/Documents/School/1Tarleton/Classes/Adv Quant/Lab 3/New folder/sr-subject-1.csv","legacy","6 9 4 5 2","Lentiform Loewenfeld","3.3.10","0","n","0","right","left","left","right","NA","741","10911","17198","741","NA","2","legacy","5","1024","2","48000","-16","experiment","1","odd","1","628248","12433","624957","626045","1518","114021","626046","504087","1521","96823","630249","630991","627047","630249","NA","Sternberg task","82","88504","95","yes","1024"
"86.45833333333333","86.45833333333333","929.7604166666666","929.7604166666666","black","experiment","legacy","legacy","legacy","0","uniform","1","undefined","1","right","95","0","95","95","0","0","95","95","0","0","95","95","95","95","0","Fri Oct 15 09:42:12 2021","The main experiment item","yes","Sternbergtask.osexp","C:/Users/Simon M. Rook/Documents/School/1Tarleton/Classes/Adv Quant/Lab 3","no","mono","no","18","no","white","no","no","768","legacy","83","11","C:/Users/Simon M. Rook/Documents/School/1Tarleton/Classes/Adv Quant/Lab 3/New folder/sr-subject-1.csv","legacy","2 8 7 9 5 3","Lentiform Loewenfeld","3.3.10","0","n","0","right","left","left","right","NA","753","10911","17198","753","NA","2","legacy","6","1024","2","48000","-16","experiment","1","odd","6","634285","12433","630995","632082","1518","114021","632083","504087","1521","96823","636286","637040","633084","636286","NA","Sternberg task","83","89257","96","yes","1024"
"86.5979381443299","86.5979381443299","926.6185567010309","926.6185567010309","black","experiment","legacy","legacy","legacy","0","uniform","1","undefined","1","right","96","0","96","96","0","0","96","96","0","0","96","96","96","96","0","Fri Oct 15 09:42:12 2021","The main experiment item","yes","Sternbergtask.osexp","C:/Users/Simon M. Rook/Documents/School/1Tarleton/Classes/Adv Quant/Lab 3","no","mono","no","18","no","white","no","no","768","legacy","84","11","C:/Users/Simon M. Rook/Documents/School/1Tarleton/Classes/Adv Quant/Lab 3/New folder/sr-subject-1.csv","legacy","2 6 4 3 9","Lentiform Loewenfeld","3.3.10","0","n","0","right","left","left","right","NA","625","10911","17198","625","NA","2","legacy","5","1024","2","48000","-16","experiment","1","odd","1","640333","12433","637044","638130","1518","114021","638131","504087","1521","96823","642334","642960","639132","642334","NA","Sternberg task","84","89882","97","yes","1024"
"86.73469387755102","86.73469387755102","922.7244897959183","922.7244897959183","black","experiment","legacy","legacy","legacy","0","uniform","1","undefined","1","right","97","0","97","97","0","0","97","97","0","0","97","97","97","97","0","Fri Oct 15 09:42:12 2021","The main experiment item","yes","Sternbergtask.osexp","C:/Users/Simon M. Rook/Documents/School/1Tarleton/Classes/Adv Quant/Lab 3","no","mono","no","18","no","white","no","no","768","legacy","85","11","C:/Users/Simon M. Rook/Documents/School/1Tarleton/Classes/Adv Quant/Lab 3/New folder/sr-subject-1.csv","legacy","7 9 1 6","Lentiform Loewenfeld","3.3.10","0","n","0","right","left","left","right","NA","545","10911","17198","545","NA","2","legacy","4","1024","2","48000","-16","experiment","1","odd","4","646255","12433","642966","644052","1518","114021","644053","504087","1521","96823","648256","648802","645054","648256","NA","Sternberg task","85","90427","98","yes","1024"
"86.86868686868686","86.86868686868686","919.3030303030303","919.3030303030303","black","experiment","legacy","legacy","legacy","0","uniform","1","undefined","1","left","98","0","98","98","0","0","98","98","0","0","98","98","98","98","0","Fri Oct 15 09:42:12 2021","The main experiment item","yes","Sternbergtask.osexp","C:/Users/Simon M. Rook/Documents/School/1Tarleton/Classes/Adv Quant/Lab 3","no","mono","no","18","no","white","no","no","768","legacy","86","11","C:/Users/Simon M. Rook/Documents/School/1Tarleton/Classes/Adv Quant/Lab 3/New folder/sr-subject-1.csv","legacy","5 7 3 6 2","Lentiform Loewenfeld","3.3.10","5","y","0","left","left","left","left","NA","584","10911","17198","584","NA","2","legacy","5","1024","2","48000","-16","experiment","1","odd","2","652096","12433","648807","649893","1518","114021","649894","504087","1521","96823","654097","654682","650895","654097","NA","Sternberg task","86","91011","99","yes","1024"
"87","87","915.72","915.72","black","experiment","legacy","legacy","legacy","0","uniform","1","undefined","1","right","99","0","99","99","0","0","99","99","0","0","99","99","99","99","0","Fri Oct 15 09:42:12 2021","The main experiment item","yes","Sternbergtask.osexp","C:/Users/Simon M. Rook/Documents/School/1Tarleton/Classes/Adv Quant/Lab 3","no","mono","no","18","no","white","no","no","768","legacy","87","11","C:/Users/Simon M. Rook/Documents/School/1Tarleton/Classes/Adv Quant/Lab 3/New folder/sr-subject-1.csv","legacy","8 4 3 9","Lentiform Loewenfeld","3.3.10","0","n","0","right","left","left","right","NA","561","10911","17198","561","NA","2","legacy","4","1024","2","48000","-16","experiment","1","odd","5","657975","12433","654686","655772","1518","114021","655773","504087","1521","96823","659976","660538","656774","659976","NA","Sternberg task","87","91572","100","yes","1024"
"87.12871287128714","87.12871287128714","912.2079207920792","912.2079207920792","black","experiment","legacy","legacy","legacy","0","uniform","1","undefined","1","left","100","0","100","100","0","0","100","100","0","0","100","100","100","100","0","Fri Oct 15 09:42:12 2021","The main experiment item","yes","Sternbergtask.osexp","C:/Users/Simon M. Rook/Documents/School/1Tarleton/Classes/Adv Quant/Lab 3","no","mono","no","18","no","white","no","no","768","legacy","88","11","C:/Users/Simon M. Rook/Documents/School/1Tarleton/Classes/Adv Quant/Lab 3/New folder/sr-subject-1.csv","legacy","6 7 9 3 1 2","Lentiform Loewenfeld","3.3.10","1","y","0","left","left","left","left","NA","561","10911","17198","561","NA","2","legacy","6","1024","2","48000","-16","experiment","1","odd","6","663833","12433","660543","661629","1518","114021","661631","504087","1521","96823","665834","666396","662632","665834","NA","Sternberg task","88","92133","101","yes","1024"
"87.25490196078431","87.25490196078431","908.1372549019608","908.1372549019608","black","experiment","legacy","legacy","legacy","0","uniform","1","undefined","1","left","101","0","101","101","0","0","101","101","0","0","101","101","101","101","0","Fri Oct 15 09:42:12 2021","The main experiment item","yes","Sternbergtask.osexp","C:/Users/Simon M. Rook/Documents/School/1Tarleton/Classes/Adv Quant/Lab 3","no","mono","no","18","no","white","no","no","768","legacy","89","11","C:/Users/Simon M. Rook/Documents/School/1Tarleton/Classes/Adv Quant/Lab 3/New folder/sr-subject-1.csv","legacy","5 2 9 6 1 7","Lentiform Loewenfeld","3.3.10","3","y","0","left","left","left","left","NA","497","10911","17198","497","NA","2","legacy","6","1024","2","48000","-16","experiment","1","odd","9","669689","12433","666400","667486","1518","114021","667487","504087","1521","96823","671690","672188","668488","671690","NA","Sternberg task","89","92630","102","yes","1024"
"87.37864077669903","87.37864077669903","904.5339805825242","904.5339805825242","black","experiment","legacy","legacy","legacy","0","uniform","1","undefined","1","right","102","0","102","102","0","0","102","102","0","0","102","102","102","102","0","Fri Oct 15 09:42:12 2021","The main experiment item","yes","Sternbergtask.osexp","C:/Users/Simon M. Rook/Documents/School/1Tarleton/Classes/Adv Quant/Lab 3","no","mono","no","18","no","white","no","no","768","legacy","90","11","C:/Users/Simon M. Rook/Documents/School/1Tarleton/Classes/Adv Quant/Lab 3/New folder/sr-subject-1.csv","legacy","3 4 2","Lentiform Loewenfeld","3.3.10","0","n","0","right","left","left","right","NA","537","10911","17198","537","NA","2","legacy","3","1024","2","48000","-16","experiment","1","odd","5","675481","12433","672192","673278","1518","114021","673279","504087","1521","96823","677482","678020","674280","677482","NA","Sternberg task","90","93167","103","yes","1024"
"87.5","87.5","901.1538461538462","901.1538461538462","black","experiment","legacy","legacy","legacy","0","uniform","1","undefined","1","right","103","0","103","103","0","0","103","103","0","0","103","103","103","103","0","Fri Oct 15 09:42:12 2021","The main experiment item","yes","Sternbergtask.osexp","C:/Users/Simon M. Rook/Documents/School/1Tarleton/Classes/Adv Quant/Lab 3","no","mono","no","18","no","white","no","no","768","legacy","91","11","C:/Users/Simon M. Rook/Documents/School/1Tarleton/Classes/Adv Quant/Lab 3/New folder/sr-subject-1.csv","legacy","6 9 4 5 3 2","Lentiform Loewenfeld","3.3.10","0","n","0","right","left","left","right","NA","553","10911","17198","553","NA","2","legacy","6","1024","2","48000","-16","experiment","1","odd","8","681315","12433","678026","679111","1518","114021","679113","504087","1521","96823","683316","683870","680114","683316","NA","Sternberg task","91","93720","104","yes","1024"
"87.61904761904762","87.61904761904762","897.9047619047619","897.9047619047619","black","experiment","legacy","legacy","legacy","0","uniform","1","undefined","1","right","104","0","104","104","0","0","104","104","0","0","104","104","104","104","0","Fri Oct 15 09:42:12 2021","The main experiment item","yes","Sternbergtask.osexp","C:/Users/Simon M. Rook/Documents/School/1Tarleton/Classes/Adv Quant/Lab 3","no","mono","no","18","no","white","no","no","768","legacy","92","11","C:/Users/Simon M. Rook/Documents/School/1Tarleton/Classes/Adv Quant/Lab 3/New folder/sr-subject-1.csv","legacy","9 8 2 7 4","Lentiform Loewenfeld","3.3.10","0","n","0","right","left","left","right","NA","560","10911","17198","560","NA","2","legacy","5","1024","2","48000","-16","experiment","1","odd","5","687164","12433","683874","684961","1518","114021","684962","504087","1521","96823","689165","689726","685963","689165","NA","Sternberg task","92","94280","105","yes","1024"
