"acc","accuracy","average_response_time","avg_rt","background","block","canvas_backend","clock_backend","color_backend","correct","correct_instruction1","correct_keyboard_response","correct_response","count_ISI","count_correctFeedback","count_expSequence","count_experiment","count_experimentLoop","count_fixation","count_incorrectFeedback","count_instruction1","count_instructions2","count_keyboard_response","count_logger","count_memorySet","count_practiceLoop","count_probe","count_thankYou","datetime","description","disable_garbage_collection","experiment_file","experiment_path","font_bold","font_family","font_italic","font_size","font_underline","foreground","form_clicks","fullscreen","height","keyboard_backend","live_row","live_row_practiceLoop","logfile","mouse_backend","numberSet","opensesame_codename","opensesame_version","posInSet","present","repeat_cycle","response","response_instruction1","response_instructions2","response_keyboard_response","response_thankYou","response_time","response_time_instruction1","response_time_instructions2","response_time_keyboard_response","response_time_thankYou","round_decimals","sampler_backend","setSize","sound_buf_size","sound_channels","sound_freq","sound_sample_size","start","subject_nr","subject_parity","target","time_ISI","time_correctFeedback","time_expSequence","time_experiment","time_experimentLoop","time_fixation","time_incorrectFeedback","time_instruction1","time_instructions2","time_keyboard_response","time_logger","time_memorySet","time_practiceLoop","time_probe","time_thankYou","title","total_correct","total_response_time","total_responses","width"
"100","100","677","677","#000000","practice","legacy","legacy","legacy","1","undefined","1","left","0","0","0","0","0","0","0","0","0","0","0","0","0","0","0","Tue Oct 17 15:10:50 2023","The main experiment item","False","SternbergTask.osexp","C:\Users\Simone\Desktop","False","mono","False","18","no","white","no","yes","768","legacy","0","0","C:/Users/Simone/Documents/SD-subject-2.csv","legacy","1 5 2 9","Melodramatic Milgram","4.0.5","2","y","0","left","left","NA","left","NA","677.0","3337","NA","677","NA","2","legacy","4","1024","2","48000","-16","experiment","2","even","5","8711","NA","6506","2452","NA","6508","NA","2456","NA","10712","11390","7510","5795","10712","NA","Sternberg Task","1","677.0","1","1024"
"100","100","632","632","#000000","practice","legacy","legacy","legacy","1","undefined","1","right","1","1","1","0","0","1","1","0","0","1","1","1","0","1","0","Tue Oct 17 15:10:50 2023","The main experiment item","False","SternbergTask.osexp","C:\Users\Simone\Desktop","False","mono","False","18","no","white","no","yes","768","legacy","1","1","C:/Users/Simone/Documents/SD-subject-2.csv","legacy","9 6 7 4 5","Melodramatic Milgram","4.0.5","0","n","0","right","left","NA","right","NA","588.0","3337","NA","588","NA","2","legacy","5","1024","2","48000","-16","experiment","2","even","3","14703","11439","12498","2452","NA","12501","NA","2456","NA","16704","17292","13502","5795","16704","NA","Sternberg Task","2","1265.0","2","1024"
"100","100","599","599","#000000","practice","legacy","legacy","legacy","1","undefined","1","right","2","2","2","0","0","2","2","0","0","2","2","2","0","2","0","Tue Oct 17 15:10:50 2023","The main experiment item","False","SternbergTask.osexp","C:\Users\Simone\Desktop","False","mono","False","18","no","white","no","yes","768","legacy","2","2","C:/Users/Simone/Documents/SD-subject-2.csv","legacy","2 1","Melodramatic Milgram","4.0.5","0","n","0","right","left","NA","right","NA","533.0","3337","NA","533","NA","2","legacy","2","1024","2","48000","-16","experiment","2","even","5","20548","17299","18343","2452","NA","18344","NA","2456","NA","22549","23083","19347","5795","22549","NA","Sternberg Task","3","1798.0","3","1024"
"100","100","560","560","#000000","practice","legacy","legacy","legacy","1","undefined","1","left","3","3","3","0","0","3","3","0","0","3","3","3","0","3","0","Tue Oct 17 15:10:50 2023","The main experiment item","False","SternbergTask.osexp","C:\Users\Simone\Desktop","False","mono","False","18","no","white","no","yes","768","legacy","3","3","C:/Users/Simone/Documents/SD-subject-2.csv","legacy","4 3 1 7 9 8","Melodramatic Milgram","4.0.5","1","y","0","left","left","NA","left","NA","444.0","3337","NA","444","NA","2","legacy","6","1024","2","48000","-16","experiment","2","even","4","26324","23088","24120","2452","NA","24122","NA","2456","NA","28325","28770","25123","5795","28325","NA","Sternberg Task","4","2242.0","4","1024"
"100","100","527","527","#000000","practice","legacy","legacy","legacy","1","undefined","1","left","4","4","4","0","0","4","4","0","0","4","4","4","0","4","0","Tue Oct 17 15:10:50 2023","The main experiment item","False","SternbergTask.osexp","C:\Users\Simone\Desktop","False","mono","False","18","no","white","no","yes","768","legacy","4","4","C:/Users/Simone/Documents/SD-subject-2.csv","legacy","6","Melodramatic Milgram","4.0.5","1","y","0","left","left","NA","left","NA","396.0","3337","NA","396","NA","2","legacy","1","1024","2","48000","-16","experiment","2","even","6","32013","28774","29809","2452","NA","29810","NA","2456","NA","34015","34411","30812","5795","34014","NA","Sternberg Task","5","2638.0","5","1024"
"100","100","512","512","#000000","practice","legacy","legacy","legacy","1","undefined","1","right","5","5","5","0","0","5","5","0","0","5","5","5","0","5","0","Tue Oct 17 15:10:50 2023","The main experiment item","False","SternbergTask.osexp","C:\Users\Simone\Desktop","False","mono","False","18","no","white","no","yes","768","legacy","5","5","C:/Users/Simone/Documents/SD-subject-2.csv","legacy","5","Melodramatic Milgram","4.0.5","0","n","0","right","left","NA","right","NA","439.0","3337","NA","439","NA","2","legacy","1","1024","2","48000","-16","experiment","2","even","3","37663","34416","35459","2452","NA","35461","NA","2456","NA","39665","40104","36462","5795","39664","NA","Sternberg Task","6","3077.0","6","1024"
"100","100","585","585","#000000","practice","legacy","legacy","legacy","1","undefined","1","right","6","6","6","0","0","6","6","0","0","6","6","6","0","6","0","Tue Oct 17 15:10:50 2023","The main experiment item","False","SternbergTask.osexp","C:\Users\Simone\Desktop","False","mono","False","18","no","white","no","yes","768","legacy","6","6","C:/Users/Simone/Documents/SD-subject-2.csv","legacy","3 1 9 4","Melodramatic Milgram","4.0.5","0","n","0","right","left","NA","right","NA","1019.0","3337","NA","1019","NA","2","legacy","4","1024","2","48000","-16","experiment","2","even","6","43350","40107","41147","2452","NA","41148","NA","2456","NA","45351","46370","42149","5795","45351","NA","Sternberg Task","7","4096.0","7","1024"
"100","100","608","608","#000000","practice","legacy","legacy","legacy","1","undefined","1","right","7","7","7","0","0","7","7","0","0","7","7","7","0","7","0","Tue Oct 17 15:10:50 2023","The main experiment item","False","SternbergTask.osexp","C:\Users\Simone\Desktop","False","mono","False","18","no","white","no","yes","768","legacy","7","7","C:/Users/Simone/Documents/SD-subject-2.csv","legacy","5 7 8 4 1 2","Melodramatic Milgram","4.0.5","0","n","0","right","left","NA","right","NA","774.0","3337","NA","774","NA","2","legacy","6","1024","2","48000","-16","experiment","2","even","6","49635","46375","47430","2452","NA","47432","NA","2456","NA","51636","52410","48433","5795","51636","NA","Sternberg Task","8","4870.0","8","1024"
"100","100","582","582","#000000","practice","legacy","legacy","legacy","1","undefined","1","left","8","8","8","0","0","8","8","0","0","8","8","8","0","8","0","Tue Oct 17 15:10:50 2023","The main experiment item","False","SternbergTask.osexp","C:\Users\Simone\Desktop","False","mono","False","18","no","white","no","yes","768","legacy","8","8","C:/Users/Simone/Documents/SD-subject-2.csv","legacy","4 8","Melodramatic Milgram","4.0.5","1","y","0","left","left","NA","left","NA","374.0","3337","NA","374","NA","2","legacy","2","1024","2","48000","-16","experiment","2","even","4","55652","52415","53448","2452","NA","53450","NA","2456","NA","57654","58029","54451","5795","57654","NA","Sternberg Task","9","5244.0","9","1024"
"100","100","591","591","#000000","practice","legacy","legacy","legacy","1","undefined","1","left","9","9","9","0","0","9","9","0","0","9","9","9","0","9","0","Tue Oct 17 15:10:50 2023","The main experiment item","False","SternbergTask.osexp","C:\Users\Simone\Desktop","False","mono","False","18","no","white","no","yes","768","legacy","9","9","C:/Users/Simone/Documents/SD-subject-2.csv","legacy","2 9 4","Melodramatic Milgram","4.0.5","3","y","0","left","left","NA","left","NA","674.0","3337","NA","674","NA","2","legacy","3","1024","2","48000","-16","experiment","2","even","4","61278","58033","59074","2452","NA","59076","NA","2456","NA","63279","63953","60077","5795","63279","NA","Sternberg Task","10","5918.0","10","1024"
"100","100","586","586","#000000","practice","legacy","legacy","legacy","1","undefined","1","left","10","10","10","0","0","10","10","0","0","10","10","10","0","10","0","Tue Oct 17 15:10:50 2023","The main experiment item","False","SternbergTask.osexp","C:\Users\Simone\Desktop","False","mono","False","18","no","white","no","yes","768","legacy","10","10","C:/Users/Simone/Documents/SD-subject-2.csv","legacy","1 7 9 8 5","Melodramatic Milgram","4.0.5","4","y","0","left","left","NA","left","NA","537.0","3337","NA","537","NA","2","legacy","5","1024","2","48000","-16","experiment","2","even","8","67213","63957","65009","2452","NA","65010","NA","2456","NA","69214","69752","66012","5795","69214","NA","Sternberg Task","11","6455.0","11","1024"
"100","100","584","584","#000000","practice","legacy","legacy","legacy","1","undefined","1","right","11","11","11","0","0","11","11","0","0","11","11","11","0","11","0","Tue Oct 17 15:10:50 2023","The main experiment item","False","SternbergTask.osexp","C:\Users\Simone\Desktop","False","mono","False","18","no","white","no","yes","768","legacy","11","11","C:/Users/Simone/Documents/SD-subject-2.csv","legacy","4 1 5","Melodramatic Milgram","4.0.5","0","n","0","right","left","NA","right","NA","556.0","3337","NA","556","NA","2","legacy","3","1024","2","48000","-16","experiment","2","even","2","72995","69756","70791","2452","NA","70792","NA","2456","NA","74996","75553","71794","5795","74996","NA","Sternberg Task","12","7011.0","12","1024"
"100","100","582","582","#000000","experiment","legacy","legacy","legacy","1","undefined","1","left","12","12","12","0","0","12","12","0","0","12","12","12","0","12","0","Tue Oct 17 15:10:50 2023","The main experiment item","False","SternbergTask.osexp","C:\Users\Simone\Desktop","False","mono","False","18","no","white","no","yes","768","legacy","0","11","C:/Users/Simone/Documents/SD-subject-2.csv","legacy","4 1 5","Melodramatic Milgram","4.0.5","2","y","0","left","left","left","left","NA","562.0","3337","31193","562","NA","2","legacy","3","1024","2","48000","-16","experiment","2","even","1","110071","75555","107868","2452","107750","107869","NA","2456","76556","112072","112635","108870","5795","112072","NA","Sternberg Task","13","7573.0","13","1024"
"92","92","591","591","#000000","experiment","legacy","legacy","legacy","0","undefined","0","left","13","13","13","0","0","13","13","0","0","13","13","13","0","13","0","Tue Oct 17 15:10:50 2023","The main experiment item","False","SternbergTask.osexp","C:\Users\Simone\Desktop","False","mono","False","18","no","white","no","yes","768","legacy","1","11","C:/Users/Simone/Documents/SD-subject-2.csv","legacy","6 8 9 3 4 9","Melodramatic Milgram","4.0.5","5","y","0","right","left","left","right","NA","706.0","3337","31193","706","NA","2","legacy","6","1024","2","48000","-16","experiment","2","even","4","115876","112639","113672","2452","107750","113674","NA","2456","76556","117877","118583","114675","5795","117877","NA","Sternberg Task","13","8279.0","14","1024"
"93","93","594","594","#000000","experiment","legacy","legacy","legacy","1","undefined","1","right","14","14","14","0","0","14","14","0","0","14","14","14","0","14","0","Tue Oct 17 15:10:50 2023","The main experiment item","False","SternbergTask.osexp","C:\Users\Simone\Desktop","False","mono","False","18","no","white","no","yes","768","legacy","2","11","C:/Users/Simone/Documents/SD-subject-2.csv","legacy","3 4 9 6 7 8","Melodramatic Milgram","4.0.5","0","n","0","right","left","left","right","NA","642.0","3337","31193","642","NA","2","legacy","6","1024","2","48000","-16","experiment","2","even","2","121827","112639","119624","2452","107750","119625","118588","2456","76556","123828","124470","120626","5795","123828","NA","Sternberg Task","14","8921.0","15","1024"
"93","93","591","591","#000000","experiment","legacy","legacy","legacy","1","undefined","1","left","15","15","15","0","0","15","15","0","0","15","15","15","0","15","0","Tue Oct 17 15:10:50 2023","The main experiment item","False","SternbergTask.osexp","C:\Users\Simone\Desktop","False","mono","False","18","no","white","no","yes","768","legacy","3","11","C:/Users/Simone/Documents/SD-subject-2.csv","legacy","4 6 2 5 1","Melodramatic Milgram","4.0.5","5","y","0","left","left","left","left","NA","535.0","3337","31193","535","NA","2","legacy","5","1024","2","48000","-16","experiment","2","even","1","127736","124475","125532","2452","107750","125534","118588","2456","76556","129737","130273","126535","5795","129737","NA","Sternberg Task","15","9456.0","16","1024"
"94","94","587","587","#000000","experiment","legacy","legacy","legacy","1","undefined","1","left","16","16","16","0","0","16","16","0","0","16","16","16","0","16","0","Tue Oct 17 15:10:50 2023","The main experiment item","False","SternbergTask.osexp","C:\Users\Simone\Desktop","False","mono","False","18","no","white","no","yes","768","legacy","4","11","C:/Users/Simone/Documents/SD-subject-2.csv","legacy","3 5 7 1","Melodramatic Milgram","4.0.5","3","y","0","left","left","left","left","NA","536.0","3337","31193","536","NA","2","legacy","4","1024","2","48000","-16","experiment","2","even","7","133533","130277","131329","2452","107750","131331","118588","2456","76556","135534","136071","132332","5795","135534","NA","Sternberg Task","16","9992.0","17","1024"
"94","94","602","602","#000000","experiment","legacy","legacy","legacy","1","undefined","1","right","17","17","17","0","0","17","17","0","0","17","17","17","0","17","0","Tue Oct 17 15:10:50 2023","The main experiment item","False","SternbergTask.osexp","C:\Users\Simone\Desktop","False","mono","False","18","no","white","no","yes","768","legacy","5","11","C:/Users/Simone/Documents/SD-subject-2.csv","legacy","6 7 5 9","Melodramatic Milgram","4.0.5","0","n","0","right","left","left","right","NA","857.0","3337","31193","857","NA","2","legacy","4","1024","2","48000","-16","experiment","2","even","2","139320","136073","137116","2452","107750","137118","118588","2456","76556","141321","142179","138119","5795","141321","NA","Sternberg Task","17","10849.0","18","1024"
"94","94","619","619","#000000","experiment","legacy","legacy","legacy","1","undefined","1","right","18","18","18","0","0","18","18","0","0","18","18","18","0","18","0","Tue Oct 17 15:10:50 2023","The main experiment item","False","SternbergTask.osexp","C:\Users\Simone\Desktop","False","mono","False","18","no","white","no","yes","768","legacy","6","11","C:/Users/Simone/Documents/SD-subject-2.csv","legacy","1 5 3 2 8","Melodramatic Milgram","4.0.5","0","n","0","right","left","left","right","NA","913.0","3337","31193","913","NA","2","legacy","5","1024","2","48000","-16","experiment","2","even","4","145419","142182","143215","2452","107750","143217","118588","2456","76556","147420","148334","144218","5795","147420","NA","Sternberg Task","18","11762.0","19","1024"
"95","95","612","612","#000000","experiment","legacy","legacy","legacy","1","undefined","1","left","19","19","19","0","0","19","19","0","0","19","19","19","0","19","0","Tue Oct 17 15:10:50 2023","The main experiment item","False","SternbergTask.osexp","C:\Users\Simone\Desktop","False","mono","False","18","no","white","no","yes","768","legacy","7","11","C:/Users/Simone/Documents/SD-subject-2.csv","legacy","9 4 2","Melodramatic Milgram","4.0.5","1","y","0","left","left","left","left","NA","485.0","3337","31193","485","NA","2","legacy","3","1024","2","48000","-16","experiment","2","even","9","151578","148338","149374","2452","107750","149375","118588","2456","76556","153579","154065","150377","5795","153579","NA","Sternberg Task","19","12247.0","20","1024"
"95","95","615","615","#000000","experiment","legacy","legacy","legacy","1","undefined","1","left","20","20","20","0","0","20","20","0","0","20","20","20","0","20","0","Tue Oct 17 15:10:50 2023","The main experiment item","False","SternbergTask.osexp","C:\Users\Simone\Desktop","False","mono","False","18","no","white","no","yes","768","legacy","8","11","C:/Users/Simone/Documents/SD-subject-2.csv","legacy","2 5 4 8 7","Melodramatic Milgram","4.0.5","3","y","0","left","left","left","left","NA","683.0","3337","31193","683","NA","2","legacy","5","1024","2","48000","-16","experiment","2","even","4","157310","154069","155106","2452","107750","155108","118588","2456","76556","159311","159995","156109","5795","159311","NA","Sternberg Task","20","12930.0","21","1024"
"95","95","625","625","#000000","experiment","legacy","legacy","legacy","1","undefined","1","right","21","21","21","0","0","21","21","0","0","21","21","21","0","21","0","Tue Oct 17 15:10:50 2023","The main experiment item","False","SternbergTask.osexp","C:\Users\Simone\Desktop","False","mono","False","18","no","white","no","yes","768","legacy","9","11","C:/Users/Simone/Documents/SD-subject-2.csv","legacy","8 4 3 5","Melodramatic Milgram","4.0.5","0","n","0","right","left","left","right","NA","841.0","3337","31193","841","NA","2","legacy","4","1024","2","48000","-16","experiment","2","even","6","163240","159999","161037","2452","107750","161038","118588","2456","76556","165241","166083","162039","5795","165241","NA","Sternberg Task","21","13771.0","22","1024"
"95","95","631","631","#000000","experiment","legacy","legacy","legacy","1","undefined","1","right","22","22","22","0","0","22","22","0","0","22","22","22","0","22","0","Tue Oct 17 15:10:50 2023","The main experiment item","False","SternbergTask.osexp","C:\Users\Simone\Desktop","False","mono","False","18","no","white","no","yes","768","legacy","10","11","C:/Users/Simone/Documents/SD-subject-2.csv","legacy","8 5 7 3 6","Melodramatic Milgram","4.0.5","0","n","0","right","left","left","right","NA","748.0","3337","31193","748","NA","2","legacy","5","1024","2","48000","-16","experiment","2","even","9","169333","166088","167129","2452","107750","167131","118588","2456","76556","171334","172083","168132","5795","171334","NA","Sternberg Task","22","14519.0","23","1024"
"95","95","640","640","#000000","experiment","legacy","legacy","legacy","1","undefined","1","right","23","23","23","0","0","23","23","0","0","23","23","23","0","23","0","Tue Oct 17 15:10:50 2023","The main experiment item","False","SternbergTask.osexp","C:\Users\Simone\Desktop","False","mono","False","18","no","white","no","yes","768","legacy","11","11","C:/Users/Simone/Documents/SD-subject-2.csv","legacy","8 5 4 2 9 6","Melodramatic Milgram","4.0.5","0","n","0","right","left","left","right","NA","857.0","3337","31193","857","NA","2","legacy","6","1024","2","48000","-16","experiment","2","even","3","175343","172087","173139","2452","107750","173140","118588","2456","76556","177345","178202","174142","5795","177345","NA","Sternberg Task","23","15376.0","24","1024"
"96","96","634","634","#000000","experiment","legacy","legacy","legacy","1","undefined","1","left","24","24","24","0","0","24","24","0","0","24","24","24","0","24","0","Tue Oct 17 15:10:50 2023","The main experiment item","False","SternbergTask.osexp","C:\Users\Simone\Desktop","False","mono","False","18","no","white","no","yes","768","legacy","12","11","C:/Users/Simone/Documents/SD-subject-2.csv","legacy","9 5 8 1","Melodramatic Milgram","4.0.5","2","y","0","left","left","left","left","NA","496.0","3337","31193","496","NA","2","legacy","4","1024","2","48000","-16","experiment","2","even","5","181446","178206","179242","2452","107750","179244","118588","2456","76556","183447","183944","180245","5795","183447","NA","Sternberg Task","24","15872.0","25","1024"
"96","96","637","637","#000000","experiment","legacy","legacy","legacy","1","undefined","1","right","25","25","25","0","0","25","25","0","0","25","25","25","0","25","0","Tue Oct 17 15:10:50 2023","The main experiment item","False","SternbergTask.osexp","C:\Users\Simone\Desktop","False","mono","False","18","no","white","no","yes","768","legacy","13","11","C:/Users/Simone/Documents/SD-subject-2.csv","legacy","1 7 5 2 9","Melodramatic Milgram","4.0.5","0","n","0","right","left","left","right","NA","710.0","3337","31193","710","NA","2","legacy","5","1024","2","48000","-16","experiment","2","even","3","187196","183948","184992","2452","107750","184994","118588","2456","76556","189198","189909","185995","5795","189197","NA","Sternberg Task","25","16582.0","26","1024"
"96","96","639","639","#000000","experiment","legacy","legacy","legacy","1","undefined","1","right","26","26","26","0","0","26","26","0","0","26","26","26","0","26","0","Tue Oct 17 15:10:50 2023","The main experiment item","False","SternbergTask.osexp","C:\Users\Simone\Desktop","False","mono","False","18","no","white","no","yes","768","legacy","14","11","C:/Users/Simone/Documents/SD-subject-2.csv","legacy","6 3 1 7 9 8","Melodramatic Milgram","4.0.5","0","n","0","right","left","left","right","NA","671.0","3337","31193","671","NA","2","legacy","6","1024","2","48000","-16","experiment","2","even","4","193152","189912","190948","2452","107750","190950","118588","2456","76556","195163","195834","191951","5795","195163","NA","Sternberg Task","26","17253.0","27","1024"
"96","96","636","636","#000000","experiment","legacy","legacy","legacy","1","undefined","1","right","27","27","27","0","0","27","27","0","0","27","27","27","0","27","0","Tue Oct 17 15:10:50 2023","The main experiment item","False","SternbergTask.osexp","C:\Users\Simone\Desktop","False","mono","False","18","no","white","no","yes","768","legacy","15","11","C:/Users/Simone/Documents/SD-subject-2.csv","legacy","3 9 1","Melodramatic Milgram","4.0.5","0","n","0","right","left","left","right","NA","563.0","3337","31193","563","NA","2","legacy","3","1024","2","48000","-16","experiment","2","even","7","199093","195845","196889","2452","107750","196891","118588","2456","76556","201095","201659","197892","5795","201094","NA","Sternberg Task","27","17816.0","28","1024"
"96","96","634","634","#000000","experiment","legacy","legacy","legacy","1","undefined","1","right","28","28","28","0","0","28","28","0","0","28","28","28","0","28","0","Tue Oct 17 15:10:50 2023","The main experiment item","False","SternbergTask.osexp","C:\Users\Simone\Desktop","False","mono","False","18","no","white","no","yes","768","legacy","16","11","C:/Users/Simone/Documents/SD-subject-2.csv","legacy","6 9 4 5 3 2","Melodramatic Milgram","4.0.5","0","n","0","right","left","left","right","NA","598.0","3337","31193","598","NA","2","legacy","6","1024","2","48000","-16","experiment","2","even","8","204906","201663","202702","2452","107750","202704","118588","2456","76556","206908","207506","203705","5795","206908","NA","Sternberg Task","28","18414.0","29","1024"
"96","96","635","635","#000000","experiment","legacy","legacy","legacy","1","undefined","1","left","29","29","29","0","0","29","29","0","0","29","29","29","0","29","0","Tue Oct 17 15:10:50 2023","The main experiment item","False","SternbergTask.osexp","C:\Users\Simone\Desktop","False","mono","False","18","no","white","no","yes","768","legacy","17","11","C:/Users/Simone/Documents/SD-subject-2.csv","legacy","6 7 8 5","Melodramatic Milgram","4.0.5","3","y","0","left","left","left","left","NA","638.0","3337","31193","638","NA","2","legacy","4","1024","2","48000","-16","experiment","2","even","8","210753","207510","208549","2452","107750","208551","118588","2456","76556","212755","213394","209552","5795","212755","NA","Sternberg Task","29","19052.0","30","1024"
"96","96","636","636","#000000","experiment","legacy","legacy","legacy","1","undefined","1","right","30","30","30","0","0","30","30","0","0","30","30","30","0","30","0","Tue Oct 17 15:10:50 2023","The main experiment item","False","SternbergTask.osexp","C:\Users\Simone\Desktop","False","mono","False","18","no","white","no","yes","768","legacy","18","11","C:/Users/Simone/Documents/SD-subject-2.csv","legacy","5 3 2 6 9 8","Melodramatic Milgram","4.0.5","0","n","0","right","left","left","right","NA","687.0","3337","31193","687","NA","2","legacy","6","1024","2","48000","-16","experiment","2","even","4","216646","213398","214441","2452","107750","214444","118588","2456","76556","218647","219335","215445","5795","218647","NA","Sternberg Task","30","19739.0","31","1024"
"96","96","637","637","#000000","experiment","legacy","legacy","legacy","1","undefined","1","right","31","31","31","0","0","31","31","0","0","31","31","31","0","31","0","Tue Oct 17 15:10:50 2023","The main experiment item","False","SternbergTask.osexp","C:\Users\Simone\Desktop","False","mono","False","18","no","white","no","yes","768","legacy","19","11","C:/Users/Simone/Documents/SD-subject-2.csv","legacy","2 8 7 9 5 3","Melodramatic Milgram","4.0.5","0","n","0","right","left","left","right","NA","648.0","3337","31193","648","NA","2","legacy","6","1024","2","48000","-16","experiment","2","even","6","222586","219339","220381","2452","107750","220383","118588","2456","76556","224587","225236","221384","5795","224587","NA","Sternberg Task","31","20387.0","32","1024"
"96","96","633","633","#000000","experiment","legacy","legacy","legacy","1","undefined","1","right","32","32","32","0","0","32","32","0","0","32","32","32","0","32","0","Tue Oct 17 15:10:50 2023","The main experiment item","False","SternbergTask.osexp","C:\Users\Simone\Desktop","False","mono","False","18","no","white","no","yes","768","legacy","20","11","C:/Users/Simone/Documents/SD-subject-2.csv","legacy","2 8 9","Melodramatic Milgram","4.0.5","0","n","0","right","left","left","right","NA","533.0","3337","31193","533","NA","2","legacy","3","1024","2","48000","-16","experiment","2","even","6","228482","225240","226278","2452","107750","226280","118588","2456","76556","230484","231018","227281","5795","230484","NA","Sternberg Task","32","20920.0","33","1024"
"97","97","626","626","#000000","experiment","legacy","legacy","legacy","1","undefined","1","left","33","33","33","0","0","33","33","0","0","33","33","33","0","33","0","Tue Oct 17 15:10:50 2023","The main experiment item","False","SternbergTask.osexp","C:\Users\Simone\Desktop","False","mono","False","18","no","white","no","yes","768","legacy","21","11","C:/Users/Simone/Documents/SD-subject-2.csv","legacy","5 7 3 6 2","Melodramatic Milgram","4.0.5","5","y","0","left","left","left","left","NA","396.0","3337","31193","396","NA","2","legacy","5","1024","2","48000","-16","experiment","2","even","2","234275","231022","232070","2452","107750","232072","118588","2456","76556","236277","236674","233073","5795","236277","NA","Sternberg Task","33","21316.0","34","1024"
"97","97","623","623","#000000","experiment","legacy","legacy","legacy","1","undefined","1","right","34","34","34","0","0","34","34","0","0","34","34","34","0","34","0","Tue Oct 17 15:10:50 2023","The main experiment item","False","SternbergTask.osexp","C:\Users\Simone\Desktop","False","mono","False","18","no","white","no","yes","768","legacy","22","11","C:/Users/Simone/Documents/SD-subject-2.csv","legacy","8 2 1 4 5 9","Melodramatic Milgram","4.0.5","0","n","0","right","left","left","right","NA","507.0","3337","31193","507","NA","2","legacy","6","1024","2","48000","-16","experiment","2","even","7","239927","236678","237724","2452","107750","237725","118588","2456","76556","241928","242436","238726","5795","241928","NA","Sternberg Task","34","21823.0","35","1024"
"97","97","623","623","#000000","experiment","legacy","legacy","legacy","1","undefined","1","left","35","35","35","0","0","35","35","0","0","35","35","35","0","35","0","Tue Oct 17 15:10:50 2023","The main experiment item","False","SternbergTask.osexp","C:\Users\Simone\Desktop","False","mono","False","18","no","white","no","yes","768","legacy","23","11","C:/Users/Simone/Documents/SD-subject-2.csv","legacy","8 3","Melodramatic Milgram","4.0.5","2","y","0","left","left","left","left","NA","631.0","3337","31193","631","NA","2","legacy","2","1024","2","48000","-16","experiment","2","even","3","245686","242440","243482","2452","107750","243484","118588","2456","76556","247687","248318","244485","5795","247687","NA","Sternberg Task","35","22454.0","36","1024"
"97","97","620","620","#000000","experiment","legacy","legacy","legacy","1","undefined","1","right","36","36","36","0","0","36","36","0","0","36","36","36","0","36","0","Tue Oct 17 15:10:50 2023","The main experiment item","False","SternbergTask.osexp","C:\Users\Simone\Desktop","False","mono","False","18","no","white","no","yes","768","legacy","24","11","C:/Users/Simone/Documents/SD-subject-2.csv","legacy","1 4 9 3","Melodramatic Milgram","4.0.5","0","n","0","right","left","left","right","NA","522.0","3337","31193","522","NA","2","legacy","4","1024","2","48000","-16","experiment","2","even","5","251571","248322","249367","2452","107750","249369","118588","2456","76556","253572","254095","250370","5795","253572","NA","Sternberg Task","36","22976.0","37","1024"
"97","97","618","618","#000000","experiment","legacy","legacy","legacy","1","undefined","1","left","37","37","37","0","0","37","37","0","0","37","37","37","0","37","0","Tue Oct 17 15:10:50 2023","The main experiment item","False","SternbergTask.osexp","C:\Users\Simone\Desktop","False","mono","False","18","no","white","no","yes","768","legacy","25","11","C:/Users/Simone/Documents/SD-subject-2.csv","legacy","7 1 8 5 6 2","Melodramatic Milgram","4.0.5","2","y","0","left","left","left","left","NA","532.0","3337","31193","532","NA","2","legacy","6","1024","2","48000","-16","experiment","2","even","1","257343","254102","255139","2452","107750","255141","118588","2456","76556","259344","259877","256142","5795","259344","NA","Sternberg Task","37","23508.0","38","1024"
"97","97","618","618","#000000","experiment","legacy","legacy","legacy","1","undefined","1","left","38","38","38","0","0","38","38","0","0","38","38","38","0","38","0","Tue Oct 17 15:10:50 2023","The main experiment item","False","SternbergTask.osexp","C:\Users\Simone\Desktop","False","mono","False","18","no","white","no","yes","768","legacy","26","11","C:/Users/Simone/Documents/SD-subject-2.csv","legacy","9 1 6 7 8","Melodramatic Milgram","4.0.5","1","y","0","left","left","left","left","NA","610.0","3337","31193","610","NA","2","legacy","5","1024","2","48000","-16","experiment","2","even","9","263128","259881","260924","2452","107750","260926","118588","2456","76556","265129","265740","261927","5795","265129","NA","Sternberg Task","38","24118.0","39","1024"
"97","97","617","617","#000000","experiment","legacy","legacy","legacy","1","undefined","1","right","39","39","39","0","0","39","39","0","0","39","39","39","0","39","0","Tue Oct 17 15:10:50 2023","The main experiment item","False","SternbergTask.osexp","C:\Users\Simone\Desktop","False","mono","False","18","no","white","no","yes","768","legacy","27","11","C:/Users/Simone/Documents/SD-subject-2.csv","legacy","2 8 6 3 1","Melodramatic Milgram","4.0.5","0","n","0","right","left","left","right","NA","586.0","3337","31193","586","NA","2","legacy","5","1024","2","48000","-16","experiment","2","even","7","268992","265744","266788","2452","107750","266790","118588","2456","76556","270993","271579","267791","5795","270993","NA","Sternberg Task","39","24704.0","40","1024"
"97","97","612","612","#000000","experiment","legacy","legacy","legacy","1","undefined","1","left","40","40","40","0","0","40","40","0","0","40","40","40","0","40","0","Tue Oct 17 15:10:50 2023","The main experiment item","False","SternbergTask.osexp","C:\Users\Simone\Desktop","False","mono","False","18","no","white","no","yes","768","legacy","28","11","C:/Users/Simone/Documents/SD-subject-2.csv","legacy","2 3","Melodramatic Milgram","4.0.5","1","y","0","left","left","left","left","NA","399.0","3337","31193","399","NA","2","legacy","2","1024","2","48000","-16","experiment","2","even","2","274824","271583","272620","2452","107750","272622","118588","2456","76556","276825","277224","273623","5795","276825","NA","Sternberg Task","40","25103.0","41","1024"
"97","97","609","609","#000000","experiment","legacy","legacy","legacy","1","undefined","1","right","41","41","41","0","0","41","41","0","0","41","41","41","0","41","0","Tue Oct 17 15:10:50 2023","The main experiment item","False","SternbergTask.osexp","C:\Users\Simone\Desktop","False","mono","False","18","no","white","no","yes","768","legacy","29","11","C:/Users/Simone/Documents/SD-subject-2.csv","legacy","1 6 4","Melodramatic Milgram","4.0.5","0","n","0","right","left","left","right","NA","476.0","3337","31193","476","NA","2","legacy","3","1024","2","48000","-16","experiment","2","even","7","280471","277228","278267","2452","107750","278269","118588","2456","76556","282472","282949","279270","5795","282472","NA","Sternberg Task","41","25579.0","42","1024"
"97","97","607","607","#000000","experiment","legacy","legacy","legacy","1","undefined","1","left","42","42","42","0","0","42","42","0","0","42","42","42","0","42","0","Tue Oct 17 15:10:50 2023","The main experiment item","False","SternbergTask.osexp","C:\Users\Simone\Desktop","False","mono","False","18","no","white","no","yes","768","legacy","30","11","C:/Users/Simone/Documents/SD-subject-2.csv","legacy","7 6","Melodramatic Milgram","4.0.5","2","y","0","left","left","left","left","NA","552.0","3337","31193","552","NA","2","legacy","2","1024","2","48000","-16","experiment","2","even","6","286196","282952","283992","2452","107750","283994","118588","2456","76556","288197","288750","284995","5795","288197","NA","Sternberg Task","42","26131.0","43","1024"
"97","97","606","606","#000000","experiment","legacy","legacy","legacy","1","undefined","1","left","43","43","43","0","0","43","43","0","0","43","43","43","0","43","0","Tue Oct 17 15:10:50 2023","The main experiment item","False","SternbergTask.osexp","C:\Users\Simone\Desktop","False","mono","False","18","no","white","no","yes","768","legacy","31","11","C:/Users/Simone/Documents/SD-subject-2.csv","legacy","8 1 6","Melodramatic Milgram","4.0.5","3","y","0","left","left","left","left","NA","555.0","3337","31193","555","NA","2","legacy","3","1024","2","48000","-16","experiment","2","even","6","292003","288754","289799","2452","107750","289801","118588","2456","76556","294004","294559","290802","5795","294004","NA","Sternberg Task","43","26686.0","44","1024"
"97","97","608","608","#000000","experiment","legacy","legacy","legacy","1","undefined","1","right","44","44","44","0","0","44","44","0","0","44","44","44","0","44","0","Tue Oct 17 15:10:50 2023","The main experiment item","False","SternbergTask.osexp","C:\Users\Simone\Desktop","False","mono","False","18","no","white","no","yes","768","legacy","32","11","C:/Users/Simone/Documents/SD-subject-2.csv","legacy","7 3 2 8","Melodramatic Milgram","4.0.5","0","n","0","right","left","left","right","NA","712.0","3337","31193","712","NA","2","legacy","4","1024","2","48000","-16","experiment","2","even","4","297805","294563","295601","2452","107750","295602","118588","2456","76556","299806","300519","296604","5795","299806","NA","Sternberg Task","44","27398.0","45","1024"
"97","97","611","611","#000000","experiment","legacy","legacy","legacy","1","undefined","1","right","45","45","45","0","0","45","45","0","0","45","45","45","0","45","0","Tue Oct 17 15:10:50 2023","The main experiment item","False","SternbergTask.osexp","C:\Users\Simone\Desktop","False","mono","False","18","no","white","no","yes","768","legacy","33","11","C:/Users/Simone/Documents/SD-subject-2.csv","legacy","6 9 7 3 8 2","Melodramatic Milgram","4.0.5","0","n","0","right","left","left","right","NA","718.0","3337","31193","718","NA","2","legacy","6","1024","2","48000","-16","experiment","2","even","5","303779","300523","301573","2452","107750","301575","118588","2456","76556","305780","306498","302576","5795","305780","NA","Sternberg Task","45","28116.0","46","1024"
"97","97","612","612","#000000","experiment","legacy","legacy","legacy","1","undefined","1","left","46","46","46","0","0","46","46","0","0","46","46","46","0","46","0","Tue Oct 17 15:10:50 2023","The main experiment item","False","SternbergTask.osexp","C:\Users\Simone\Desktop","False","mono","False","18","no","white","no","yes","768","legacy","34","11","C:/Users/Simone/Documents/SD-subject-2.csv","legacy","2 6 1 7 4","Melodramatic Milgram","4.0.5","2","y","0","left","left","left","left","NA","668.0","3337","31193","668","NA","2","legacy","5","1024","2","48000","-16","experiment","2","even","6","309757","306502","307553","2452","107750","307555","118588","2456","76556","311758","312427","308556","5795","311758","NA","Sternberg Task","46","28784.0","47","1024"
"97","97","609","609","#000000","experiment","legacy","legacy","legacy","1","undefined","1","left","47","47","47","0","0","47","47","0","0","47","47","47","0","47","0","Tue Oct 17 15:10:50 2023","The main experiment item","False","SternbergTask.osexp","C:\Users\Simone\Desktop","False","mono","False","18","no","white","no","yes","768","legacy","35","11","C:/Users/Simone/Documents/SD-subject-2.csv","legacy","6 2","Melodramatic Milgram","4.0.5","1","y","0","left","left","left","left","NA","486.0","3337","31193","486","NA","2","legacy","2","1024","2","48000","-16","experiment","2","even","6","315671","312431","313466","2452","107750","313468","118588","2456","76556","317672","318159","314469","5795","317672","NA","Sternberg Task","47","29270.0","48","1024"
"97","97","609","609","#000000","experiment","legacy","legacy","legacy","1","undefined","1","left","48","48","48","0","0","48","48","0","0","48","48","48","0","48","0","Tue Oct 17 15:10:50 2023","The main experiment item","False","SternbergTask.osexp","C:\Users\Simone\Desktop","False","mono","False","18","no","white","no","yes","768","legacy","36","11","C:/Users/Simone/Documents/SD-subject-2.csv","legacy","6 9 3 1","Melodramatic Milgram","4.0.5","4","y","0","left","left","left","left","NA","596.0","3337","31193","596","NA","2","legacy","4","1024","2","48000","-16","experiment","2","even","1","321408","318162","319204","2452","107750","319206","118588","2456","76556","323409","324005","320207","5795","323409","NA","Sternberg Task","48","29866.0","49","1024"
"98","98","607","607","#000000","experiment","legacy","legacy","legacy","1","undefined","1","left","49","49","49","0","0","49","49","0","0","49","49","49","0","49","0","Tue Oct 17 15:10:50 2023","The main experiment item","False","SternbergTask.osexp","C:\Users\Simone\Desktop","False","mono","False","18","no","white","no","yes","768","legacy","37","11","C:/Users/Simone/Documents/SD-subject-2.csv","legacy","8 5 3 7 4 6","Melodramatic Milgram","4.0.5","6","y","0","left","left","left","left","NA","501.0","3337","31193","501","NA","2","legacy","6","1024","2","48000","-16","experiment","2","even","6","327248","324009","325044","2452","107750","325046","118588","2456","76556","329249","329751","326047","5795","329249","NA","Sternberg Task","49","30367.0","50","1024"
"98","98","607","607","#000000","experiment","legacy","legacy","legacy","1","undefined","1","left","50","50","50","0","0","50","50","0","0","50","50","50","0","50","0","Tue Oct 17 15:10:50 2023","The main experiment item","False","SternbergTask.osexp","C:\Users\Simone\Desktop","False","mono","False","18","no","white","no","yes","768","legacy","38","11","C:/Users/Simone/Documents/SD-subject-2.csv","legacy","9 5 3 8 4","Melodramatic Milgram","4.0.5","1","y","0","left","left","left","left","NA","633.0","3337","31193","633","NA","2","legacy","5","1024","2","48000","-16","experiment","2","even","9","332994","329755","330790","2452","107750","330792","118588","2456","76556","334995","335629","331793","5795","334995","NA","Sternberg Task","50","31000.0","51","1024"
"98","98","612","612","#000000","experiment","legacy","legacy","legacy","1","undefined","1","right","51","51","51","0","0","51","51","0","0","51","51","51","0","51","0","Tue Oct 17 15:10:50 2023","The main experiment item","False","SternbergTask.osexp","C:\Users\Simone\Desktop","False","mono","False","18","no","white","no","yes","768","legacy","39","11","C:/Users/Simone/Documents/SD-subject-2.csv","legacy","7 9 1 6","Melodramatic Milgram","4.0.5","0","n","0","right","left","left","right","NA","824.0","3337","31193","824","NA","2","legacy","4","1024","2","48000","-16","experiment","2","even","4","338876","335633","336672","2452","107750","336674","118588","2456","76556","340877","341702","337675","5795","340877","NA","Sternberg Task","51","31824.0","52","1024"
"98","98","611","611","#000000","experiment","legacy","legacy","legacy","1","undefined","1","left","52","52","52","0","0","52","52","0","0","52","52","52","0","52","0","Tue Oct 17 15:10:50 2023","The main experiment item","False","SternbergTask.osexp","C:\Users\Simone\Desktop","False","mono","False","18","no","white","no","yes","768","legacy","40","11","C:/Users/Simone/Documents/SD-subject-2.csv","legacy","2 4 6 9","Melodramatic Milgram","4.0.5","3","y","0","left","left","left","left","NA","569.0","3337","31193","569","NA","2","legacy","4","1024","2","48000","-16","experiment","2","even","6","344946","341706","342742","2452","107750","342744","118588","2456","76556","346949","347518","343745","5795","346948","NA","Sternberg Task","52","32393.0","53","1024"
"98","98","610","610","#000000","experiment","legacy","legacy","legacy","1","undefined","1","right","53","53","53","0","0","53","53","0","0","53","53","53","0","53","0","Tue Oct 17 15:10:50 2023","The main experiment item","False","SternbergTask.osexp","C:\Users\Simone\Desktop","False","mono","False","18","no","white","no","yes","768","legacy","41","11","C:/Users/Simone/Documents/SD-subject-2.csv","legacy","2 3 8 5 6 7","Melodramatic Milgram","4.0.5","0","n","0","right","left","left","right","NA","588.0","3337","31193","588","NA","2","legacy","6","1024","2","48000","-16","experiment","2","even","1","350771","347522","348566","2452","107750","348569","118588","2456","76556","352772","353361","349570","5795","352772","NA","Sternberg Task","53","32981.0","54","1024"
"98","98","610","610","#000000","experiment","legacy","legacy","legacy","1","undefined","1","right","54","54","54","0","0","54","54","0","0","54","54","54","0","54","0","Tue Oct 17 15:10:50 2023","The main experiment item","False","SternbergTask.osexp","C:\Users\Simone\Desktop","False","mono","False","18","no","white","no","yes","768","legacy","42","11","C:/Users/Simone/Documents/SD-subject-2.csv","legacy","6 9 4 5 2","Melodramatic Milgram","4.0.5","0","n","0","right","left","left","right","NA","616.0","3337","31193","616","NA","2","legacy","5","1024","2","48000","-16","experiment","2","even","1","356613","353364","354410","2452","107750","354411","118588","2456","76556","358622","359239","355412","5795","358622","NA","Sternberg Task","54","33597.0","55","1024"
"98","98","613","613","#000000","experiment","legacy","legacy","legacy","1","undefined","1","right","55","55","55","0","0","55","55","0","0","55","55","55","0","55","0","Tue Oct 17 15:10:50 2023","The main experiment item","False","SternbergTask.osexp","C:\Users\Simone\Desktop","False","mono","False","18","no","white","no","yes","768","legacy","43","11","C:/Users/Simone/Documents/SD-subject-2.csv","legacy","6 2 9 3 8 4","Melodramatic Milgram","4.0.5","0","n","0","right","left","left","right","NA","736.0","3337","31193","736","NA","2","legacy","6","1024","2","48000","-16","experiment","2","even","1","362492","359252","360287","2452","107750","360289","118588","2456","76556","364493","365230","361291","5795","364493","NA","Sternberg Task","55","34333.0","56","1024"
"98","98","613","613","#000000","experiment","legacy","legacy","legacy","1","undefined","1","left","56","56","56","0","0","56","56","0","0","56","56","56","0","56","0","Tue Oct 17 15:10:50 2023","The main experiment item","False","SternbergTask.osexp","C:\Users\Simone\Desktop","False","mono","False","18","no","white","no","yes","768","legacy","44","11","C:/Users/Simone/Documents/SD-subject-2.csv","legacy","4 1 8 7 5","Melodramatic Milgram","4.0.5","3","y","0","left","left","left","left","NA","622.0","3337","31193","622","NA","2","legacy","5","1024","2","48000","-16","experiment","2","even","8","368478","365234","366275","2452","107750","366276","118588","2456","76556","370480","371103","367277","5795","370479","NA","Sternberg Task","56","34955.0","57","1024"
"98","98","611","611","#000000","experiment","legacy","legacy","legacy","1","undefined","1","left","57","57","57","0","0","57","57","0","0","57","57","57","0","57","0","Tue Oct 17 15:10:50 2023","The main experiment item","False","SternbergTask.osexp","C:\Users\Simone\Desktop","False","mono","False","18","no","white","no","yes","768","legacy","45","11","C:/Users/Simone/Documents/SD-subject-2.csv","legacy","4 7 6 8 2 3","Melodramatic Milgram","4.0.5","6","y","0","left","left","left","left","NA","540.0","3337","31193","540","NA","2","legacy","6","1024","2","48000","-16","experiment","2","even","3","374340","371107","372137","2452","107750","372138","118588","2456","76556","376341","376882","373139","5795","376341","NA","Sternberg Task","57","35495.0","58","1024"
"98","98","609","609","#000000","experiment","legacy","legacy","legacy","1","undefined","1","left","58","58","58","0","0","58","58","0","0","58","58","58","0","58","0","Tue Oct 17 15:10:50 2023","The main experiment item","False","SternbergTask.osexp","C:\Users\Simone\Desktop","False","mono","False","18","no","white","no","yes","768","legacy","46","11","C:/Users/Simone/Documents/SD-subject-2.csv","legacy","3 9 6 2","Melodramatic Milgram","4.0.5","4","y","0","left","left","left","left","NA","464.0","3337","31193","464","NA","2","legacy","4","1024","2","48000","-16","experiment","2","even","2","380122","376885","377918","2452","107750","377920","118588","2456","76556","382123","382587","378921","5795","382123","NA","Sternberg Task","58","35959.0","59","1024"
"98","98","607","607","#000000","experiment","legacy","legacy","legacy","1","undefined","1","left","59","59","59","0","0","59","59","0","0","59","59","59","0","59","0","Tue Oct 17 15:10:50 2023","The main experiment item","False","SternbergTask.osexp","C:\Users\Simone\Desktop","False","mono","False","18","no","white","no","yes","768","legacy","47","11","C:/Users/Simone/Documents/SD-subject-2.csv","legacy","6 5","Melodramatic Milgram","4.0.5","2","y","0","left","left","left","left","NA","501.0","3337","31193","501","NA","2","legacy","2","1024","2","48000","-16","experiment","2","even","5","385836","382591","383633","2452","107750","383634","118588","2456","76556","387837","388339","384635","5795","387837","NA","Sternberg Task","59","36460.0","60","1024"
"98","98","608","608","#000000","experiment","legacy","legacy","legacy","1","undefined","1","right","60","60","60","0","0","60","60","0","0","60","60","60","0","60","0","Tue Oct 17 15:10:50 2023","The main experiment item","False","SternbergTask.osexp","C:\Users\Simone\Desktop","False","mono","False","18","no","white","no","yes","768","legacy","48","11","C:/Users/Simone/Documents/SD-subject-2.csv","legacy","1 3 2 6 9","Melodramatic Milgram","4.0.5","0","n","0","right","left","left","right","NA","633.0","3337","31193","633","NA","2","legacy","5","1024","2","48000","-16","experiment","2","even","5","391582","388343","389378","2452","107750","389379","118588","2456","76556","393583","394216","390381","5795","393583","NA","Sternberg Task","60","37093.0","61","1024"
"98","98","604","604","#000000","experiment","legacy","legacy","legacy","1","undefined","1","left","61","61","61","0","0","61","61","0","0","61","61","61","0","61","0","Tue Oct 17 15:10:50 2023","The main experiment item","False","SternbergTask.osexp","C:\Users\Simone\Desktop","False","mono","False","18","no","white","no","yes","768","legacy","49","11","C:/Users/Simone/Documents/SD-subject-2.csv","legacy","9 1 7 2","Melodramatic Milgram","4.0.5","2","y","0","left","left","left","left","NA","401.0","3337","31193","401","NA","2","legacy","4","1024","2","48000","-16","experiment","2","even","1","397465","394220","395260","2452","107750","395261","118588","2456","76556","399467","399869","396263","5795","399466","NA","Sternberg Task","61","37494.0","62","1024"
"98","98","603","603","#000000","experiment","legacy","legacy","legacy","1","undefined","1","left","62","62","62","0","0","62","62","0","0","62","62","62","0","62","0","Tue Oct 17 15:10:50 2023","The main experiment item","False","SternbergTask.osexp","C:\Users\Simone\Desktop","False","mono","False","18","no","white","no","yes","768","legacy","50","11","C:/Users/Simone/Documents/SD-subject-2.csv","legacy","8 9 5 6 7","Melodramatic Milgram","4.0.5","1","y","0","left","left","left","left","NA","502.0","3337","31193","502","NA","2","legacy","5","1024","2","48000","-16","experiment","2","even","8","403110","399873","400907","2452","107750","400908","118588","2456","76556","405112","405615","401909","5795","405111","NA","Sternberg Task","62","37996.0","63","1024"
"98","98","607","607","#000000","experiment","legacy","legacy","legacy","1","undefined","1","right","63","63","63","0","0","63","63","0","0","63","63","63","0","63","0","Tue Oct 17 15:10:50 2023","The main experiment item","False","SternbergTask.osexp","C:\Users\Simone\Desktop","False","mono","False","18","no","white","no","yes","768","legacy","51","11","C:/Users/Simone/Documents/SD-subject-2.csv","legacy","3 9 8 1 6 4","Melodramatic Milgram","4.0.5","0","n","0","right","left","left","right","NA","915.0","3337","31193","915","NA","2","legacy","6","1024","2","48000","-16","experiment","2","even","7","408874","405619","406670","2452","107750","406672","118588","2456","76556","410877","411793","407673","5795","410876","NA","Sternberg Task","63","38911.0","64","1024"
"98","98","608","608","#000000","experiment","legacy","legacy","legacy","1","undefined","1","left","64","64","64","0","0","64","64","0","0","64","64","64","0","64","0","Tue Oct 17 15:10:50 2023","The main experiment item","False","SternbergTask.osexp","C:\Users\Simone\Desktop","False","mono","False","18","no","white","no","yes","768","legacy","52","11","C:/Users/Simone/Documents/SD-subject-2.csv","legacy","2 4 8 5 1 3","Melodramatic Milgram","4.0.5","1","y","0","left","left","left","left","NA","612.0","3337","31193","612","NA","2","legacy","6","1024","2","48000","-16","experiment","2","even","2","415042","411797","412838","2452","107750","412840","118588","2456","76556","417044","417657","413841","5795","417044","NA","Sternberg Task","64","39523.0","65","1024"
"98","98","608","608","#000000","experiment","legacy","legacy","legacy","1","undefined","1","right","65","65","65","0","0","65","65","0","0","65","65","65","0","65","0","Tue Oct 17 15:10:50 2023","The main experiment item","False","SternbergTask.osexp","C:\Users\Simone\Desktop","False","mono","False","18","no","white","no","yes","768","legacy","53","11","C:/Users/Simone/Documents/SD-subject-2.csv","legacy","7 1 8 4 9 3","Melodramatic Milgram","4.0.5","0","n","0","right","left","left","right","NA","606.0","3337","31193","606","NA","2","legacy","6","1024","2","48000","-16","experiment","2","even","6","420921","417661","418716","2452","107750","418718","118588","2456","76556","422922","423529","419719","5795","422922","NA","Sternberg Task","65","40129.0","66","1024"
"98","98","607","607","#000000","experiment","legacy","legacy","legacy","1","undefined","1","right","66","66","66","0","0","66","66","0","0","66","66","66","0","66","0","Tue Oct 17 15:10:50 2023","The main experiment item","False","SternbergTask.osexp","C:\Users\Simone\Desktop","False","mono","False","18","no","white","no","yes","768","legacy","54","11","C:/Users/Simone/Documents/SD-subject-2.csv","legacy","9 5 3 2 8 6","Melodramatic Milgram","4.0.5","0","n","0","right","left","left","right","NA","568.0","3337","31193","568","NA","2","legacy","6","1024","2","48000","-16","experiment","2","even","7","426786","423534","424582","2452","107750","424583","118588","2456","76556","428787","429356","425585","5795","428787","NA","Sternberg Task","66","40697.0","67","1024"
"97","97","607","607","#000000","experiment","legacy","legacy","legacy","0","undefined","0","left","67","67","67","0","0","67","67","0","0","67","67","67","0","67","0","Tue Oct 17 15:10:50 2023","The main experiment item","False","SternbergTask.osexp","C:\Users\Simone\Desktop","False","mono","False","18","no","white","no","yes","768","legacy","55","11","C:/Users/Simone/Documents/SD-subject-2.csv","legacy","5 2 9 6 1 7","Melodramatic Milgram","4.0.5","3","y","0","right","left","left","right","NA","627.0","3337","31193","627","NA","2","legacy","6","1024","2","48000","-16","experiment","2","even","9","432608","429358","430404","2452","107750","430406","118588","2456","76556","434610","435238","431407","5795","434609","NA","Sternberg Task","66","41324.0","68","1024"
"97","97","606","606","#000000","experiment","legacy","legacy","legacy","1","undefined","1","left","68","68","68","0","0","68","68","0","0","68","68","68","0","68","0","Tue Oct 17 15:10:50 2023","The main experiment item","False","SternbergTask.osexp","C:\Users\Simone\Desktop","False","mono","False","18","no","white","no","yes","768","legacy","56","11","C:/Users/Simone/Documents/SD-subject-2.csv","legacy","9 3 8 2 1 4","Melodramatic Milgram","4.0.5","3","y","0","left","left","left","left","NA","534.0","3337","31193","534","NA","2","legacy","6","1024","2","48000","-16","experiment","2","even","8","438502","429358","436298","2452","107750","436300","435251","2456","76556","440503","441038","437301","5795","440503","NA","Sternberg Task","67","41858.0","69","1024"
"97","97","606","606","#000000","experiment","legacy","legacy","legacy","1","undefined","1","right","69","69","69","0","0","69","69","0","0","69","69","69","0","69","0","Tue Oct 17 15:10:50 2023","The main experiment item","False","SternbergTask.osexp","C:\Users\Simone\Desktop","False","mono","False","18","no","white","no","yes","768","legacy","57","11","C:/Users/Simone/Documents/SD-subject-2.csv","legacy","7 1","Melodramatic Milgram","4.0.5","0","n","0","right","left","left","right","NA","575.0","3337","31193","575","NA","2","legacy","2","1024","2","48000","-16","experiment","2","even","8","444288","441044","442084","2452","107750","442086","435251","2456","76556","446289","446865","443087","5795","446289","NA","Sternberg Task","68","42433.0","70","1024"
"97","97","605","605","#000000","experiment","legacy","legacy","legacy","1","undefined","1","left","70","70","70","0","0","70","70","0","0","70","70","70","0","70","0","Tue Oct 17 15:10:50 2023","The main experiment item","False","SternbergTask.osexp","C:\Users\Simone\Desktop","False","mono","False","18","no","white","no","yes","768","legacy","58","11","C:/Users/Simone/Documents/SD-subject-2.csv","legacy","6 1 2","Melodramatic Milgram","4.0.5","3","y","0","left","left","left","left","NA","538.0","3337","31193","538","NA","2","legacy","3","1024","2","48000","-16","experiment","2","even","2","450099","446867","447895","2452","107750","447896","435251","2456","76556","452100","452639","448898","5795","452100","NA","Sternberg Task","69","42971.0","71","1024"
"97","97","606","606","#000000","experiment","legacy","legacy","legacy","1","undefined","1","right","71","71","71","0","0","71","71","0","0","71","71","71","0","71","0","Tue Oct 17 15:10:50 2023","The main experiment item","False","SternbergTask.osexp","C:\Users\Simone\Desktop","False","mono","False","18","no","white","no","yes","768","legacy","59","11","C:/Users/Simone/Documents/SD-subject-2.csv","legacy","8 4 3 9","Melodramatic Milgram","4.0.5","0","n","0","right","left","left","right","NA","704.0","3337","31193","704","NA","2","legacy","4","1024","2","48000","-16","experiment","2","even","5","455882","452643","453678","2452","107750","453680","435251","2456","76556","457883","458588","454681","5795","457883","NA","Sternberg Task","70","43675.0","72","1024"
"97","97","609","609","#000000","experiment","legacy","legacy","legacy","1","undefined","1","right","72","72","72","0","0","72","72","0","0","72","72","72","0","72","0","Tue Oct 17 15:10:50 2023","The main experiment item","False","SternbergTask.osexp","C:\Users\Simone\Desktop","False","mono","False","18","no","white","no","yes","768","legacy","60","11","C:/Users/Simone/Documents/SD-subject-2.csv","legacy","1 4 9 2 5","Melodramatic Milgram","4.0.5","0","n","0","right","left","left","right","NA","786.0","3337","31193","786","NA","2","legacy","5","1024","2","48000","-16","experiment","2","even","7","461843","458599","459640","2452","107750","459641","435251","2456","76556","463845","464631","460642","5795","463845","NA","Sternberg Task","71","44461.0","73","1024"
"97","97","607","607","#000000","experiment","legacy","legacy","legacy","1","undefined","1","left","73","73","73","0","0","73","73","0","0","73","73","73","0","73","0","Tue Oct 17 15:10:50 2023","The main experiment item","False","SternbergTask.osexp","C:\Users\Simone\Desktop","False","mono","False","18","no","white","no","yes","768","legacy","61","11","C:/Users/Simone/Documents/SD-subject-2.csv","legacy","3 4 9 6 2 9","Melodramatic Milgram","4.0.5","5","y","0","left","left","left","left","NA","485.0","3337","31193","485","NA","2","legacy","6","1024","2","48000","-16","experiment","2","even","2","467871","464634","465667","2452","107750","465668","435251","2456","76556","469872","470358","466669","5795","469872","NA","Sternberg Task","72","44946.0","74","1024"
"97","97","608","608","#000000","experiment","legacy","legacy","legacy","1","undefined","1","left","74","74","74","0","0","74","74","0","0","74","74","74","0","74","0","Tue Oct 17 15:10:50 2023","The main experiment item","False","SternbergTask.osexp","C:\Users\Simone\Desktop","False","mono","False","18","no","white","no","yes","768","legacy","62","11","C:/Users/Simone/Documents/SD-subject-2.csv","legacy","9 6 2 4 1","Melodramatic Milgram","4.0.5","4","y","0","left","left","left","left","NA","710.0","3337","31193","710","NA","2","legacy","5","1024","2","48000","-16","experiment","2","even","4","473605","470362","471401","2452","107750","471402","435251","2456","76556","475606","476317","472404","5795","475606","NA","Sternberg Task","73","45656.0","75","1024"
"97","97","607","607","#000000","experiment","legacy","legacy","legacy","1","undefined","1","left","75","75","75","0","0","75","75","0","0","75","75","75","0","75","0","Tue Oct 17 15:10:50 2023","The main experiment item","False","SternbergTask.osexp","C:\Users\Simone\Desktop","False","mono","False","18","no","white","no","yes","768","legacy","63","11","C:/Users/Simone/Documents/SD-subject-2.csv","legacy","2 8 5 1","Melodramatic Milgram","4.0.5","4","y","0","left","left","left","left","NA","478.0","3337","31193","478","NA","2","legacy","4","1024","2","48000","-16","experiment","2","even","1","479565","476321","477361","2452","107750","477362","435251","2456","76556","481566","482044","478364","5795","481566","NA","Sternberg Task","74","46134.0","76","1024"
"97","97","608","608","#000000","experiment","legacy","legacy","legacy","1","undefined","1","right","76","76","76","0","0","76","76","0","0","76","76","76","0","76","0","Tue Oct 17 15:10:50 2023","The main experiment item","False","SternbergTask.osexp","C:\Users\Simone\Desktop","False","mono","False","18","no","white","no","yes","768","legacy","64","11","C:/Users/Simone/Documents/SD-subject-2.csv","legacy","7 1 5 6 3","Melodramatic Milgram","4.0.5","0","n","0","right","left","left","right","NA","703.0","3337","31193","703","NA","2","legacy","5","1024","2","48000","-16","experiment","2","even","8","485300","482049","483095","2452","107750","483097","435251","2456","76556","487303","488007","484098","5795","487302","NA","Sternberg Task","75","46837.0","77","1024"
"97","97","608","608","#000000","experiment","legacy","legacy","legacy","1","undefined","1","right","77","77","77","0","0","77","77","0","0","77","77","77","0","77","0","Tue Oct 17 15:10:50 2023","The main experiment item","False","SternbergTask.osexp","C:\Users\Simone\Desktop","False","mono","False","18","no","white","no","yes","768","legacy","65","11","C:/Users/Simone/Documents/SD-subject-2.csv","legacy","5 2","Melodramatic Milgram","4.0.5","0","n","0","right","left","left","right","NA","660.0","3337","31193","660","NA","2","legacy","2","1024","2","48000","-16","experiment","2","even","7","491249","488011","489045","2452","107750","489046","435251","2456","76556","493250","493911","490048","5795","493250","NA","Sternberg Task","76","47497.0","78","1024"
"97","97","610","610","#000000","experiment","legacy","legacy","legacy","1","undefined","1","right","78","78","78","0","0","78","78","0","0","78","78","78","0","78","0","Tue Oct 17 15:10:50 2023","The main experiment item","False","SternbergTask.osexp","C:\Users\Simone\Desktop","False","mono","False","18","no","white","no","yes","768","legacy","66","11","C:/Users/Simone/Documents/SD-subject-2.csv","legacy","1 7 8 3 9","Melodramatic Milgram","4.0.5","0","n","0","right","left","left","right","NA","758.0","3337","31193","758","NA","2","legacy","5","1024","2","48000","-16","experiment","2","even","2","497164","493914","494958","2452","107750","494960","435251","2456","76556","499165","499924","495961","5795","499165","NA","Sternberg Task","77","48255.0","79","1024"
"97","97","611","611","#000000","experiment","legacy","legacy","legacy","1","undefined","1","right","79","79","79","0","0","79","79","0","0","79","79","79","0","79","0","Tue Oct 17 15:10:50 2023","The main experiment item","False","SternbergTask.osexp","C:\Users\Simone\Desktop","False","mono","False","18","no","white","no","yes","768","legacy","67","11","C:/Users/Simone/Documents/SD-subject-2.csv","legacy","7 9","Melodramatic Milgram","4.0.5","0","n","0","right","left","left","right","NA","625.0","3337","31193","625","NA","2","legacy","2","1024","2","48000","-16","experiment","2","even","1","503162","499928","500958","2452","107750","500959","435251","2456","76556","505164","505790","501960","5795","505164","NA","Sternberg Task","78","48880.0","80","1024"
"97","97","611","611","#000000","experiment","legacy","legacy","legacy","1","undefined","1","right","80","80","80","0","0","80","80","0","0","80","80","80","0","80","0","Tue Oct 17 15:10:50 2023","The main experiment item","False","SternbergTask.osexp","C:\Users\Simone\Desktop","False","mono","False","18","no","white","no","yes","768","legacy","68","11","C:/Users/Simone/Documents/SD-subject-2.csv","legacy","2 6 4 3 9","Melodramatic Milgram","4.0.5","0","n","0","right","left","left","right","NA","686.0","3337","31193","686","NA","2","legacy","5","1024","2","48000","-16","experiment","2","even","1","509036","505794","506830","2452","107750","506832","435251","2456","76556","511037","511724","507834","5795","511037","NA","Sternberg Task","79","49566.0","81","1024"
"97","97","613","613","#000000","experiment","legacy","legacy","legacy","1","undefined","1","right","81","81","81","0","0","81","81","0","0","81","81","81","0","81","0","Tue Oct 17 15:10:50 2023","The main experiment item","False","SternbergTask.osexp","C:\Users\Simone\Desktop","False","mono","False","18","no","white","no","yes","768","legacy","69","11","C:/Users/Simone/Documents/SD-subject-2.csv","legacy","1 6 4 3 9 7","Melodramatic Milgram","4.0.5","0","n","0","right","left","left","right","NA","730.0","3337","31193","730","NA","2","legacy","6","1024","2","48000","-16","experiment","2","even","8","514968","511726","512765","2452","107750","512766","435251","2456","76556","516969","517700","513767","5795","516969","NA","Sternberg Task","80","50296.0","82","1024"
"97","97","613","613","#000000","experiment","legacy","legacy","legacy","1","undefined","1","left","82","82","82","0","0","82","82","0","0","82","82","82","0","82","0","Tue Oct 17 15:10:50 2023","The main experiment item","False","SternbergTask.osexp","C:\Users\Simone\Desktop","False","mono","False","18","no","white","no","yes","768","legacy","70","11","C:/Users/Simone/Documents/SD-subject-2.csv","legacy","5 2 6","Melodramatic Milgram","4.0.5","2","y","0","left","left","left","left","NA","616.0","3337","31193","616","NA","2","legacy","3","1024","2","48000","-16","experiment","2","even","2","520944","517704","518739","2452","107750","518741","435251","2456","76556","522945","523562","519742","5795","522945","NA","Sternberg Task","81","50912.0","83","1024"
"97","97","611","611","#000000","experiment","legacy","legacy","legacy","1","undefined","1","left","83","83","83","0","0","83","83","0","0","83","83","83","0","83","0","Tue Oct 17 15:10:50 2023","The main experiment item","False","SternbergTask.osexp","C:\Users\Simone\Desktop","False","mono","False","18","no","white","no","yes","768","legacy","71","11","C:/Users/Simone/Documents/SD-subject-2.csv","legacy","8","Melodramatic Milgram","4.0.5","1","y","0","left","left","left","left","NA","490.0","3337","31193","490","NA","2","legacy","1","1024","2","48000","-16","experiment","2","even","8","526827","523567","524624","2452","107750","524625","435251","2456","76556","528829","529320","525626","5795","528829","NA","Sternberg Task","82","51402.0","84","1024"
"97","97","611","611","#000000","experiment","legacy","legacy","legacy","1","undefined","1","left","84","84","84","0","0","84","84","0","0","84","84","84","0","84","0","Tue Oct 17 15:10:50 2023","The main experiment item","False","SternbergTask.osexp","C:\Users\Simone\Desktop","False","mono","False","18","no","white","no","yes","768","legacy","72","11","C:/Users/Simone/Documents/SD-subject-2.csv","legacy","3 2 1 4 7","Melodramatic Milgram","4.0.5","2","y","0","left","left","left","left","NA","560.0","3337","31193","560","NA","2","legacy","5","1024","2","48000","-16","experiment","2","even","2","532563","529324","530358","2452","107750","530360","435251","2456","76556","534565","535125","531361","5795","534565","NA","Sternberg Task","83","51962.0","85","1024"
"97","97","610","610","#000000","experiment","legacy","legacy","legacy","1","undefined","1","right","85","85","85","0","0","85","85","0","0","85","85","85","0","85","0","Tue Oct 17 15:10:50 2023","The main experiment item","False","SternbergTask.osexp","C:\Users\Simone\Desktop","False","mono","False","18","no","white","no","yes","768","legacy","73","11","C:/Users/Simone/Documents/SD-subject-2.csv","legacy","2 5 1 4","Melodramatic Milgram","4.0.5","0","n","0","right","left","left","right","NA","522.0","3337","31193","522","NA","2","legacy","4","1024","2","48000","-16","experiment","2","even","6","538365","535129","536161","2452","107750","536162","435251","2456","76556","540366","540889","537164","5795","540366","NA","Sternberg Task","84","52484.0","86","1024"
"97","97","610","610","#000000","experiment","legacy","legacy","legacy","1","undefined","1","right","86","86","86","0","0","86","86","0","0","86","86","86","0","86","0","Tue Oct 17 15:10:50 2023","The main experiment item","False","SternbergTask.osexp","C:\Users\Simone\Desktop","False","mono","False","18","no","white","no","yes","768","legacy","74","11","C:/Users/Simone/Documents/SD-subject-2.csv","legacy","4 2 6 9","Melodramatic Milgram","4.0.5","0","n","0","right","left","left","right","NA","628.0","3337","31193","628","NA","2","legacy","4","1024","2","48000","-16","experiment","2","even","7","544129","540893","541924","2452","107750","541925","435251","2456","76556","546130","546759","542927","5795","546130","NA","Sternberg Task","85","53112.0","87","1024"
"96","96","610","610","#000000","experiment","legacy","legacy","legacy","0","undefined","0","left","87","87","87","0","0","87","87","0","0","87","87","87","0","87","0","Tue Oct 17 15:10:50 2023","The main experiment item","False","SternbergTask.osexp","C:\Users\Simone\Desktop","False","mono","False","18","no","white","no","yes","768","legacy","75","11","C:/Users/Simone/Documents/SD-subject-2.csv","legacy","8 9 6 1","Melodramatic Milgram","4.0.5","2","y","0","right","left","left","right","NA","590.0","3337","31193","590","NA","2","legacy","4","1024","2","48000","-16","experiment","2","even","9","550001","546763","547798","2452","107750","547799","435251","2456","76556","552002","552593","548800","5795","552002","NA","Sternberg Task","85","53702.0","88","1024"
"96","96","609","609","#000000","experiment","legacy","legacy","legacy","1","undefined","1","right","88","88","88","0","0","88","88","0","0","88","88","88","0","88","0","Tue Oct 17 15:10:50 2023","The main experiment item","False","SternbergTask.osexp","C:\Users\Simone\Desktop","False","mono","False","18","no","white","no","yes","768","legacy","76","11","C:/Users/Simone/Documents/SD-subject-2.csv","legacy","8 9","Melodramatic Milgram","4.0.5","0","n","0","right","left","left","right","NA","545.0","3337","31193","545","NA","2","legacy","2","1024","2","48000","-16","experiment","2","even","5","555830","546763","553627","2452","107750","553628","552597","2456","76556","557831","558377","554629","5795","557831","NA","Sternberg Task","86","54247.0","89","1024"
"96","96","609","609","#000000","experiment","legacy","legacy","legacy","1","undefined","1","left","89","89","89","0","0","89","89","0","0","89","89","89","0","89","0","Tue Oct 17 15:10:50 2023","The main experiment item","False","SternbergTask.osexp","C:\Users\Simone\Desktop","False","mono","False","18","no","white","no","yes","768","legacy","77","11","C:/Users/Simone/Documents/SD-subject-2.csv","legacy","7 1 3","Melodramatic Milgram","4.0.5","2","y","0","left","left","left","left","NA","598.0","3337","31193","598","NA","2","legacy","3","1024","2","48000","-16","experiment","2","even","1","561621","558381","559416","2452","107750","559418","552597","2456","76556","563622","564221","560419","5795","563622","NA","Sternberg Task","87","54845.0","90","1024"
"96","96","609","609","#000000","experiment","legacy","legacy","legacy","1","undefined","1","left","90","90","90","0","0","90","90","0","0","90","90","90","0","90","0","Tue Oct 17 15:10:50 2023","The main experiment item","False","SternbergTask.osexp","C:\Users\Simone\Desktop","False","mono","False","18","no","white","no","yes","768","legacy","78","11","C:/Users/Simone/Documents/SD-subject-2.csv","legacy","3 9 7 6 4","Melodramatic Milgram","4.0.5","3","y","0","left","left","left","left","NA","662.0","3337","31193","662","NA","2","legacy","5","1024","2","48000","-16","experiment","2","even","7","567465","564225","565260","2452","107750","565262","552597","2456","76556","569466","570128","566263","5795","569466","NA","Sternberg Task","88","55507.0","91","1024"
"96","96","609","609","#000000","experiment","legacy","legacy","legacy","1","undefined","1","left","91","91","91","0","0","91","91","0","0","91","91","91","0","91","0","Tue Oct 17 15:10:50 2023","The main experiment item","False","SternbergTask.osexp","C:\Users\Simone\Desktop","False","mono","False","18","no","white","no","yes","768","legacy","79","11","C:/Users/Simone/Documents/SD-subject-2.csv","legacy","7","Melodramatic Milgram","4.0.5","1","y","0","left","left","left","left","NA","521.0","3337","31193","521","NA","2","legacy","1","1024","2","48000","-16","experiment","2","even","7","573395","570139","571191","2452","107750","571192","552597","2456","76556","575397","575919","572194","5795","575397","NA","Sternberg Task","89","56028.0","92","1024"
"96","96","610","610","#000000","experiment","legacy","legacy","legacy","1","undefined","1","right","92","92","92","0","0","92","92","0","0","92","92","92","0","92","0","Tue Oct 17 15:10:50 2023","The main experiment item","False","SternbergTask.osexp","C:\Users\Simone\Desktop","False","mono","False","18","no","white","no","yes","768","legacy","80","11","C:/Users/Simone/Documents/SD-subject-2.csv","legacy","1 4 3 6 5","Melodramatic Milgram","4.0.5","0","n","0","right","left","left","right","NA","710.0","3337","31193","710","NA","2","legacy","5","1024","2","48000","-16","experiment","2","even","8","579169","575930","576965","2452","107750","576966","552597","2456","76556","581170","581881","577968","5795","581170","NA","Sternberg Task","90","56738.0","93","1024"
"96","96","614","614","#000000","experiment","legacy","legacy","legacy","1","undefined","1","right","93","93","93","0","0","93","93","0","0","93","93","93","0","93","0","Tue Oct 17 15:10:50 2023","The main experiment item","False","SternbergTask.osexp","C:\Users\Simone\Desktop","False","mono","False","18","no","white","no","yes","768","legacy","81","11","C:/Users/Simone/Documents/SD-subject-2.csv","legacy","7 4 2 8 1 9","Melodramatic Milgram","4.0.5","0","n","0","right","left","left","right","NA","981.0","3337","31193","981","NA","2","legacy","6","1024","2","48000","-16","experiment","2","even","5","585123","581885","582919","2452","107750","582920","552597","2456","76556","587125","588107","583921","5795","587124","NA","Sternberg Task","91","57719.0","94","1024"
"96","96","614","614","#000000","experiment","legacy","legacy","legacy","1","undefined","1","left","94","94","94","0","0","94","94","0","0","94","94","94","0","94","0","Tue Oct 17 15:10:50 2023","The main experiment item","False","SternbergTask.osexp","C:\Users\Simone\Desktop","False","mono","False","18","no","white","no","yes","768","legacy","82","11","C:/Users/Simone/Documents/SD-subject-2.csv","legacy","3 5 4 7","Melodramatic Milgram","4.0.5","1","y","0","left","left","left","left","NA","632.0","3337","31193","632","NA","2","legacy","4","1024","2","48000","-16","experiment","2","even","3","591346","588111","589141","2452","107750","589142","552597","2456","76556","593347","593980","590144","5795","593347","NA","Sternberg Task","92","58351.0","95","1024"
"96","96","614","614","#000000","experiment","legacy","legacy","legacy","1","undefined","1","right","95","95","95","0","0","95","95","0","0","95","95","95","0","95","0","Tue Oct 17 15:10:50 2023","The main experiment item","False","SternbergTask.osexp","C:\Users\Simone\Desktop","False","mono","False","18","no","white","no","yes","768","legacy","83","11","C:/Users/Simone/Documents/SD-subject-2.csv","legacy","6 9 5","Melodramatic Milgram","4.0.5","0","n","0","right","left","left","right","NA","610.0","3337","31193","610","NA","2","legacy","3","1024","2","48000","-16","experiment","2","even","8","597218","593984","595015","2452","107750","595016","552597","2456","76556","599219","599830","596017","5795","599219","NA","Sternberg Task","93","58961.0","96","1024"
"96","96","616","616","#000000","experiment","legacy","legacy","legacy","1","undefined","1","left","96","96","96","0","0","96","96","0","0","96","96","96","0","96","0","Tue Oct 17 15:10:50 2023","The main experiment item","False","SternbergTask.osexp","C:\Users\Simone\Desktop","False","mono","False","18","no","white","no","yes","768","legacy","84","11","C:/Users/Simone/Documents/SD-subject-2.csv","legacy","7 8 6 3 1","Melodramatic Milgram","4.0.5","5","y","0","left","left","left","left","NA","809.0","3337","31193","809","NA","2","legacy","5","1024","2","48000","-16","experiment","2","even","1","603070","599834","600865","2452","107750","600867","552597","2456","76556","605071","605881","601868","5795","605071","NA","Sternberg Task","94","59770.0","97","1024"
"96","96","616","616","#000000","experiment","legacy","legacy","legacy","1","undefined","1","left","97","97","97","0","0","97","97","0","0","97","97","97","0","97","0","Tue Oct 17 15:10:50 2023","The main experiment item","False","SternbergTask.osexp","C:\Users\Simone\Desktop","False","mono","False","18","no","white","no","yes","768","legacy","85","11","C:/Users/Simone/Documents/SD-subject-2.csv","legacy","7 4 2 6 3 5","Melodramatic Milgram","4.0.5","6","y","0","left","left","left","left","NA","614.0","3337","31193","614","NA","2","legacy","6","1024","2","48000","-16","experiment","2","even","5","609122","605885","606917","2452","107750","606919","552597","2456","76556","611123","611738","607920","5795","611123","NA","Sternberg Task","95","60384.0","98","1024"
"96","96","616","616","#000000","experiment","legacy","legacy","legacy","1","undefined","1","left","98","98","98","0","0","98","98","0","0","98","98","98","0","98","0","Tue Oct 17 15:10:50 2023","The main experiment item","False","SternbergTask.osexp","C:\Users\Simone\Desktop","False","mono","False","18","no","white","no","yes","768","legacy","86","11","C:/Users/Simone/Documents/SD-subject-2.csv","legacy","6 7 9 3 1 2","Melodramatic Milgram","4.0.5","1","y","0","left","left","left","left","NA","693.0","3337","31193","693","NA","2","legacy","6","1024","2","48000","-16","experiment","2","even","6","614990","611742","612786","2452","107750","612788","552597","2456","76556","616992","617686","613789","5795","616992","NA","Sternberg Task","96","61077.0","99","1024"
"97","97","616","616","#000000","experiment","legacy","legacy","legacy","1","undefined","1","left","99","99","99","0","0","99","99","0","0","99","99","99","0","99","0","Tue Oct 17 15:10:50 2023","The main experiment item","False","SternbergTask.osexp","C:\Users\Simone\Desktop","False","mono","False","18","no","white","no","yes","768","legacy","87","11","C:/Users/Simone/Documents/SD-subject-2.csv","legacy","9 8 4","Melodramatic Milgram","4.0.5","1","y","0","left","left","left","left","NA","536.0","3337","31193","536","NA","2","legacy","3","1024","2","48000","-16","experiment","2","even","9","620937","617690","618732","2452","107750","618733","552597","2456","76556","622938","623474","619735","5795","622938","NA","Sternberg Task","97","61613.0","100","1024"
"97","97","619","619","#000000","experiment","legacy","legacy","legacy","1","undefined","1","right","100","100","100","0","0","100","100","0","0","100","100","100","0","100","0","Tue Oct 17 15:10:50 2023","The main experiment item","False","SternbergTask.osexp","C:\Users\Simone\Desktop","False","mono","False","18","no","white","no","yes","768","legacy","88","11","C:/Users/Simone/Documents/SD-subject-2.csv","legacy","7 6 4 8 1 2","Melodramatic Milgram","4.0.5","0","n","0","right","left","left","right","NA","965.0","3337","31193","965","NA","2","legacy","6","1024","2","48000","-16","experiment","2","even","9","626718","623479","624512","2452","107750","624514","552597","2456","76556","628719","629685","625516","5795","628719","NA","Sternberg Task","98","62578.0","101","1024"
"97","97","620","620","#000000","experiment","legacy","legacy","legacy","1","undefined","1","left","101","101","101","0","0","101","101","0","0","101","101","101","0","101","0","Tue Oct 17 15:10:50 2023","The main experiment item","False","SternbergTask.osexp","C:\Users\Simone\Desktop","False","mono","False","18","no","white","no","yes","768","legacy","89","11","C:/Users/Simone/Documents/SD-subject-2.csv","legacy","8 9 5 7 1 6","Melodramatic Milgram","4.0.5","4","y","0","left","left","left","left","NA","673.0","3337","31193","673","NA","2","legacy","6","1024","2","48000","-16","experiment","2","even","7","632926","629688","630723","2452","107750","630724","552597","2456","76556","634927","635601","631725","5795","634927","NA","Sternberg Task","99","63251.0","102","1024"
"97","97","619","619","#000000","experiment","legacy","legacy","legacy","1","undefined","1","right","102","102","102","0","0","102","102","0","0","102","102","102","0","102","0","Tue Oct 17 15:10:50 2023","The main experiment item","False","SternbergTask.osexp","C:\Users\Simone\Desktop","False","mono","False","18","no","white","no","yes","768","legacy","90","11","C:/Users/Simone/Documents/SD-subject-2.csv","legacy","3 4 2","Melodramatic Milgram","4.0.5","0","n","0","right","left","left","right","NA","531.0","3337","31193","531","NA","2","legacy","3","1024","2","48000","-16","experiment","2","even","5","638842","635604","636639","2452","107750","636640","552597","2456","76556","640845","641377","637641","5795","640844","NA","Sternberg Task","100","63782.0","103","1024"
"97","97","617","617","#000000","experiment","legacy","legacy","legacy","1","undefined","1","right","103","103","103","0","0","103","103","0","0","103","103","103","0","103","0","Tue Oct 17 15:10:50 2023","The main experiment item","False","SternbergTask.osexp","C:\Users\Simone\Desktop","False","mono","False","18","no","white","no","yes","768","legacy","91","11","C:/Users/Simone/Documents/SD-subject-2.csv","legacy","1","Melodramatic Milgram","4.0.5","0","n","0","right","left","left","right","NA","485.0","3337","31193","485","NA","2","legacy","1","1024","2","48000","-16","experiment","2","even","7","644622","641382","642418","2452","107750","642420","552597","2456","76556","646623","647108","643421","5795","646623","NA","Sternberg Task","101","64267.0","104","1024"
"97","97","618","618","#000000","experiment","legacy","legacy","legacy","1","undefined","1","right","104","104","104","0","0","104","104","0","0","104","104","104","0","104","0","Tue Oct 17 15:10:50 2023","The main experiment item","False","SternbergTask.osexp","C:\Users\Simone\Desktop","False","mono","False","18","no","white","no","yes","768","legacy","92","11","C:/Users/Simone/Documents/SD-subject-2.csv","legacy","1 7 5 2","Melodramatic Milgram","4.0.5","0","n","0","right","left","left","right","NA","636.0","3337","31193","636","NA","2","legacy","4","1024","2","48000","-16","experiment","2","even","3","650354","647114","648150","2452","107750","648151","552597","2456","76556","652355","652992","649152","5795","652355","NA","Sternberg Task","102","64903.0","105","1024"
"97","97","617","617","#000000","experiment","legacy","legacy","legacy","1","undefined","1","right","105","105","105","0","0","105","105","0","0","105","105","105","0","105","0","Tue Oct 17 15:10:50 2023","The main experiment item","False","SternbergTask.osexp","C:\Users\Simone\Desktop","False","mono","False","18","no","white","no","yes","768","legacy","93","11","C:/Users/Simone/Documents/SD-subject-2.csv","legacy","6 8","Melodramatic Milgram","4.0.5","0","n","0","right","left","left","right","NA","519.0","3337","31193","519","NA","2","legacy","2","1024","2","48000","-16","experiment","2","even","9","656235","652997","654031","2452","107750","654032","552597","2456","76556","658237","658756","655034","5795","658237","NA","Sternberg Task","103","65422.0","106","1024"
"97","97","617","617","#000000","experiment","legacy","legacy","legacy","1","undefined","1","left","106","106","106","0","0","106","106","0","0","106","106","106","0","106","0","Tue Oct 17 15:10:50 2023","The main experiment item","False","SternbergTask.osexp","C:\Users\Simone\Desktop","False","mono","False","18","no","white","no","yes","768","legacy","94","11","C:/Users/Simone/Documents/SD-subject-2.csv","legacy","3 4","Melodramatic Milgram","4.0.5","1","y","0","left","left","left","left","NA","620.0","3337","31193","620","NA","2","legacy","2","1024","2","48000","-16","experiment","2","even","3","662010","658767","659806","2452","107750","659807","552597","2456","76556","664011","664632","660808","5795","664011","NA","Sternberg Task","104","66042.0","107","1024"
"97","97","617","617","#000000","experiment","legacy","legacy","legacy","1","undefined","1","right","107","107","107","0","0","107","107","0","0","107","107","107","0","107","0","Tue Oct 17 15:10:50 2023","The main experiment item","False","SternbergTask.osexp","C:\Users\Simone\Desktop","False","mono","False","18","no","white","no","yes","768","legacy","95","11","C:/Users/Simone/Documents/SD-subject-2.csv","legacy","9 7 4 5 8","Melodramatic Milgram","4.0.5","0","n","0","right","left","left","right","NA","647.0","3337","31193","647","NA","2","legacy","5","1024","2","48000","-16","experiment","2","even","6","667871","664636","665666","2452","107750","665667","552597","2456","76556","669873","670521","666670","5795","669872","NA","Sternberg Task","105","66689.0","108","1024"
"97","97","617","617","#000000","experiment","legacy","legacy","legacy","1","undefined","1","right","108","108","108","0","0","108","108","0","0","108","108","108","0","108","0","Tue Oct 17 15:10:50 2023","The main experiment item","False","SternbergTask.osexp","C:\Users\Simone\Desktop","False","mono","False","18","no","white","no","yes","768","legacy","96","11","C:/Users/Simone/Documents/SD-subject-2.csv","legacy","2 7 5","Melodramatic Milgram","4.0.5","0","n","0","right","left","left","right","NA","593.0","3337","31193","593","NA","2","legacy","3","1024","2","48000","-16","experiment","2","even","8","673763","670525","671558","2452","107750","671560","552597","2456","76556","675764","676357","672561","5795","675764","NA","Sternberg Task","106","67282.0","109","1024"
"97","97","621","621","#000000","experiment","legacy","legacy","legacy","1","undefined","1","left","109","109","109","0","0","109","109","0","0","109","109","109","0","109","0","Tue Oct 17 15:10:50 2023","The main experiment item","False","SternbergTask.osexp","C:\Users\Simone\Desktop","False","mono","False","18","no","white","no","yes","768","legacy","97","11","C:/Users/Simone/Documents/SD-subject-2.csv","legacy","1 4 9 3 2 5","Melodramatic Milgram","4.0.5","3","y","0","left","left","left","left","NA","1048.0","3337","31193","1048","NA","2","legacy","6","1024","2","48000","-16","experiment","2","even","9","679604","676361","677400","2452","107750","677402","552597","2456","76556","681605","682654","678403","5795","681605","NA","Sternberg Task","107","68330.0","110","1024"
"97","97","622","622","#000000","experiment","legacy","legacy","legacy","1","undefined","1","right","110","110","110","0","0","110","110","0","0","110","110","110","0","110","0","Tue Oct 17 15:10:50 2023","The main experiment item","False","SternbergTask.osexp","C:\Users\Simone\Desktop","False","mono","False","18","no","white","no","yes","768","legacy","98","11","C:/Users/Simone/Documents/SD-subject-2.csv","legacy","5 7 3","Melodramatic Milgram","4.0.5","0","n","0","right","left","left","right","NA","744.0","3337","31193","744","NA","2","legacy","3","1024","2","48000","-16","experiment","2","even","9","685897","682658","683692","2452","107750","683693","552597","2456","76556","687898","688643","684695","5795","687898","NA","Sternberg Task","108","69074.0","111","1024"
"97","97","624","624","#000000","experiment","legacy","legacy","legacy","1","undefined","1","left","111","111","111","0","0","111","111","0","0","111","111","111","0","111","0","Tue Oct 17 15:10:50 2023","The main experiment item","False","SternbergTask.osexp","C:\Users\Simone\Desktop","False","mono","False","18","no","white","no","yes","768","legacy","99","11","C:/Users/Simone/Documents/SD-subject-2.csv","legacy","7 8 4 6 9 5","Melodramatic Milgram","4.0.5","4","y","0","left","left","left","left","NA","896.0","3337","31193","896","NA","2","legacy","6","1024","2","48000","-16","experiment","2","even","6","691886","688647","689683","2452","107750","689684","552597","2456","76556","693887","694784","690685","5795","693887","NA","Sternberg Task","109","69970.0","112","1024"
"97","97","626","626","#000000","experiment","legacy","legacy","legacy","1","undefined","1","left","112","112","112","0","0","112","112","0","0","112","112","112","0","112","0","Tue Oct 17 15:10:50 2023","The main experiment item","False","SternbergTask.osexp","C:\Users\Simone\Desktop","False","mono","False","18","no","white","no","yes","768","legacy","100","11","C:/Users/Simone/Documents/SD-subject-2.csv","legacy","4","Melodramatic Milgram","4.0.5","1","y","0","left","left","left","left","NA","875.0","3337","31193","875","NA","2","legacy","1","1024","2","48000","-16","experiment","2","even","4","698044","694795","695839","2452","107750","695840","552597","2456","76556","700046","700922","696841","5795","700045","NA","Sternberg Task","110","70845.0","113","1024"
"97","97","627","627","#000000","experiment","legacy","legacy","legacy","1","undefined","1","right","113","113","113","0","0","113","113","0","0","113","113","113","0","113","0","Tue Oct 17 15:10:50 2023","The main experiment item","False","SternbergTask.osexp","C:\Users\Simone\Desktop","False","mono","False","18","no","white","no","yes","768","legacy","101","11","C:/Users/Simone/Documents/SD-subject-2.csv","legacy","5 9 2 3","Melodramatic Milgram","4.0.5","0","n","0","right","left","left","right","NA","674.0","3337","31193","674","NA","2","legacy","4","1024","2","48000","-16","experiment","2","even","8","704176","700926","701972","2452","107750","701973","552597","2456","76556","706177","706852","702975","5795","706177","NA","Sternberg Task","111","71519.0","114","1024"
"97","97","627","627","#000000","experiment","legacy","legacy","legacy","1","undefined","1","left","114","114","114","0","0","114","114","0","0","114","114","114","0","114","0","Tue Oct 17 15:10:50 2023","The main experiment item","False","SternbergTask.osexp","C:\Users\Simone\Desktop","False","mono","False","18","no","white","no","yes","768","legacy","102","11","C:/Users/Simone/Documents/SD-subject-2.csv","legacy","4 9 7 8 5 3","Melodramatic Milgram","4.0.5","4","y","0","left","left","left","left","NA","595.0","3337","31193","595","NA","2","legacy","6","1024","2","48000","-16","experiment","2","even","8","710094","706856","707889","2452","107750","707891","552597","2456","76556","712095","712691","708892","5795","712095","NA","Sternberg Task","112","72114.0","115","1024"
"97","97","627","627","#000000","experiment","legacy","legacy","legacy","1","undefined","1","right","115","115","115","0","0","115","115","0","0","115","115","115","0","115","0","Tue Oct 17 15:10:50 2023","The main experiment item","False","SternbergTask.osexp","C:\Users\Simone\Desktop","False","mono","False","18","no","white","no","yes","768","legacy","103","11","C:/Users/Simone/Documents/SD-subject-2.csv","legacy","2 8 9 4 1","Melodramatic Milgram","4.0.5","0","n","0","right","left","left","right","NA","682.0","3337","31193","682","NA","2","legacy","5","1024","2","48000","-16","experiment","2","even","5","715927","712695","713723","2452","107750","713725","552597","2456","76556","717928","718610","714726","5795","717928","NA","Sternberg Task","113","72796.0","116","1024"
"97","97","629","629","#000000","experiment","legacy","legacy","legacy","1","undefined","1","right","116","116","116","0","0","116","116","0","0","116","116","116","0","116","0","Tue Oct 17 15:10:50 2023","The main experiment item","False","SternbergTask.osexp","C:\Users\Simone\Desktop","False","mono","False","18","no","white","no","yes","768","legacy","104","11","C:/Users/Simone/Documents/SD-subject-2.csv","legacy","7 8 6 1","Melodramatic Milgram","4.0.5","0","n","0","right","left","left","right","NA","845.0","3337","31193","845","NA","2","legacy","4","1024","2","48000","-16","experiment","2","even","3","721844","718614","719640","2452","107750","719641","552597","2456","76556","723845","724691","720642","5795","723845","NA","Sternberg Task","114","73641.0","117","1024"
"97","97","628","628","#000000","experiment","legacy","legacy","legacy","1","undefined","1","right","117","117","117","0","0","117","117","0","0","117","117","117","0","117","0","Tue Oct 17 15:10:50 2023","The main experiment item","False","SternbergTask.osexp","C:\Users\Simone\Desktop","False","mono","False","18","no","white","no","yes","768","legacy","105","11","C:/Users/Simone/Documents/SD-subject-2.csv","legacy","4 1","Melodramatic Milgram","4.0.5","0","n","0","right","left","left","right","NA","557.0","3337","31193","557","NA","2","legacy","2","1024","2","48000","-16","experiment","2","even","6","727937","724701","725733","2452","107750","725734","552597","2456","76556","729938","730495","726735","5795","729938","NA","Sternberg Task","115","74198.0","118","1024"
"97","97","629","629","#000000","experiment","legacy","legacy","legacy","1","undefined","1","right","118","118","118","0","0","118","118","0","0","118","118","118","0","118","0","Tue Oct 17 15:10:50 2023","The main experiment item","False","SternbergTask.osexp","C:\Users\Simone\Desktop","False","mono","False","18","no","white","no","yes","768","legacy","106","11","C:/Users/Simone/Documents/SD-subject-2.csv","legacy","4 8 1 2","Melodramatic Milgram","4.0.5","0","n","0","right","left","left","right","NA","672.0","3337","31193","672","NA","2","legacy","4","1024","2","48000","-16","experiment","2","even","7","733735","730499","731531","2452","107750","731533","552597","2456","76556","735737","736410","732534","5795","735737","NA","Sternberg Task","116","74870.0","119","1024"
"97","97","629","629","#000000","experiment","legacy","legacy","legacy","1","undefined","1","right","119","119","119","0","0","119","119","0","0","119","119","119","0","119","0","Tue Oct 17 15:10:50 2023","The main experiment item","False","SternbergTask.osexp","C:\Users\Simone\Desktop","False","mono","False","18","no","white","no","yes","768","legacy","107","11","C:/Users/Simone/Documents/SD-subject-2.csv","legacy","9","Melodramatic Milgram","4.0.5","0","n","0","right","left","left","right","NA","659.0","3337","31193","659","NA","2","legacy","1","1024","2","48000","-16","experiment","2","even","6","739647","736414","737443","2452","107750","737445","552597","2456","76556","741648","742307","738446","5795","741648","NA","Sternberg Task","117","75529.0","120","1024"
"97","97","629","629","#000000","experiment","legacy","legacy","legacy","1","undefined","1","left","120","120","120","0","0","120","120","0","0","120","120","120","0","120","0","Tue Oct 17 15:10:50 2023","The main experiment item","False","SternbergTask.osexp","C:\Users\Simone\Desktop","False","mono","False","18","no","white","no","yes","768","legacy","108","11","C:/Users/Simone/Documents/SD-subject-2.csv","legacy","7 2 3","Melodramatic Milgram","4.0.5","3","y","0","left","left","left","left","NA","615.0","3337","31193","615","NA","2","legacy","3","1024","2","48000","-16","experiment","2","even","3","745545","742311","743340","2452","107750","743342","552597","2456","76556","747546","748162","744344","5795","747546","NA","Sternberg Task","118","76144.0","121","1024"
"97","97","629","629","#000000","experiment","legacy","legacy","legacy","1","undefined","1","left","121","121","121","0","0","121","121","0","0","121","121","121","0","121","0","Tue Oct 17 15:10:50 2023","The main experiment item","False","SternbergTask.osexp","C:\Users\Simone\Desktop","False","mono","False","18","no","white","no","yes","768","legacy","109","11","C:/Users/Simone/Documents/SD-subject-2.csv","legacy","2 3 7 4","Melodramatic Milgram","4.0.5","1","y","0","left","left","left","left","NA","635.0","3337","31193","635","NA","2","legacy","4","1024","2","48000","-16","experiment","2","even","2","751410","748166","749206","2452","107750","749208","552597","2456","76556","753412","754048","750209","5795","753411","NA","Sternberg Task","119","76779.0","122","1024"
"96","96","631","631","#000000","experiment","legacy","legacy","legacy","0","undefined","0","left","122","122","122","0","0","122","122","0","0","122","122","122","0","122","0","Tue Oct 17 15:10:50 2023","The main experiment item","False","SternbergTask.osexp","C:\Users\Simone\Desktop","False","mono","False","18","no","white","no","yes","768","legacy","110","11","C:/Users/Simone/Documents/SD-subject-2.csv","legacy","6 9 7 4 5 1","Melodramatic Milgram","4.0.5","2","y","0","right","left","left","right","NA","889.0","3337","31193","889","NA","2","legacy","6","1024","2","48000","-16","experiment","2","even","9","757282","754051","755079","2452","107750","755080","552597","2456","76556","759283","760173","756081","5795","759283","NA","Sternberg Task","119","77668.0","123","1024"
"96","96","630","630","#000000","experiment","legacy","legacy","legacy","1","undefined","1","left","123","123","123","0","0","123","123","0","0","123","123","123","0","123","0","Tue Oct 17 15:10:50 2023","The main experiment item","False","SternbergTask.osexp","C:\Users\Simone\Desktop","False","mono","False","18","no","white","no","yes","768","legacy","111","11","C:/Users/Simone/Documents/SD-subject-2.csv","legacy","8 5 1 3 9","Melodramatic Milgram","4.0.5","4","y","0","left","left","left","left","NA","454.0","3337","31193","454","NA","2","legacy","5","1024","2","48000","-16","experiment","2","even","3","763410","754051","761206","2452","107750","761208","760177","2456","76556","765412","765867","762209","5795","765412","NA","Sternberg Task","120","78122.0","124","1024"
"96","96","629","629","#000000","experiment","legacy","legacy","legacy","1","undefined","1","left","124","124","124","0","0","124","124","0","0","124","124","124","0","124","0","Tue Oct 17 15:10:50 2023","The main experiment item","False","SternbergTask.osexp","C:\Users\Simone\Desktop","False","mono","False","18","no","white","no","yes","768","legacy","112","11","C:/Users/Simone/Documents/SD-subject-2.csv","legacy","4 3 2 5 8","Melodramatic Milgram","4.0.5","2","y","0","left","left","left","left","NA","539.0","3337","31193","539","NA","2","legacy","5","1024","2","48000","-16","experiment","2","even","3","769115","765870","766909","2452","107750","766911","760177","2456","76556","771116","771656","767913","5795","771116","NA","Sternberg Task","121","78661.0","125","1024"
"96","96","629","629","#000000","experiment","legacy","legacy","legacy","1","undefined","1","right","125","125","125","0","0","125","125","0","0","125","125","125","0","125","0","Tue Oct 17 15:10:50 2023","The main experiment item","False","SternbergTask.osexp","C:\Users\Simone\Desktop","False","mono","False","18","no","white","no","yes","768","legacy","113","11","C:/Users/Simone/Documents/SD-subject-2.csv","legacy","1 8 7","Melodramatic Milgram","4.0.5","0","n","0","right","left","left","right","NA","707.0","3337","31193","707","NA","2","legacy","3","1024","2","48000","-16","experiment","2","even","4","774899","771660","772695","2452","107750","772696","760177","2456","76556","776900","777608","773697","5795","776900","NA","Sternberg Task","122","79368.0","126","1024"
"96","96","630","630","#000000","experiment","legacy","legacy","legacy","1","undefined","1","right","126","126","126","0","0","126","126","0","0","126","126","126","0","126","0","Tue Oct 17 15:10:50 2023","The main experiment item","False","SternbergTask.osexp","C:\Users\Simone\Desktop","False","mono","False","18","no","white","no","yes","768","legacy","114","11","C:/Users/Simone/Documents/SD-subject-2.csv","legacy","6 8 4","Melodramatic Milgram","4.0.5","0","n","0","right","left","left","right","NA","718.0","3337","31193","718","NA","2","legacy","3","1024","2","48000","-16","experiment","2","even","1","780854","777612","778650","2452","107750","778651","760177","2456","76556","782855","783574","779652","5795","782855","NA","Sternberg Task","123","80086.0","127","1024"
