"acc","accuracy","average_response_time","avg_rt","background","block","canvas_backend","clock_backend","color_backend","correct","correct_instruction1","correct_new_keyboard_response","correct_response","count_ISI","count_correctFeedback","count_experiment","count_experimentLoop","count_expsequence","count_fixation","count_incorrectFeedback","count_instruction1","count_instructions2","count_memoryset","count_new_keyboard_response","count_new_logger","count_practiceLoop","count_probe","count_thankyou","datetime","description","disable_garbage_collection","experiment_file","experiment_path","font_bold","font_family","font_italic","font_size","font_underline","foreground","form_clicks","fullscreen","height","keyboard_backend","live_row","live_row_practiceLoop","logfile","mouse_backend","numberSet","opensesame_codename","opensesame_version","posInSet","present","repeat_cycle","response","response_instruction1","response_instructions2","response_new_keyboard_response","response_thankyou","response_time","response_time_instruction1","response_time_instructions2","response_time_new_keyboard_response","response_time_thankyou","round_decimals","sampler_backend","setSize","sound_buf_size","sound_channels","sound_freq","sound_sample_size","start","subject_nr","subject_parity","target","time_ISI","time_correctFeedback","time_experiment","time_experimentLoop","time_expsequence","time_fixation","time_incorrectFeedback","time_instruction1","time_instructions2","time_memoryset","time_new_keyboard_response","time_new_logger","time_practiceLoop","time_probe","time_thankyou","title","total_correct","total_response_time","total_responses","width"
"100","100","1262","1262","#3d3846","practice","legacy","legacy","legacy","1","undefined","1","right","0","0","0","0","0","0","0","0","0","0","0","0","0","0","0","Sat Oct 21 14:24:46 2023","The main experiment item","True","SternbergTask.osexp","C:\Users\katjo\OneDrive\Desktop","False","mono","False","18","no","white","no","yes","768","legacy","0","0","C:/Users/katjo/OneDrive/Desktop/KEJ-subject-2.csv","legacy","9 6 7 4 5","Melodramatic Milgram","4.0.5","0","n","0","right","left","NA","right","NA","1262.0","1917","NA","1262","NA","2","legacy","5","1024","2","48000","-16","experiment","2","even","3","13168","NA","6414","NA","10964","10965","NA","6419","NA","11966","15169","16432","8338","15169","NA","Sternberg Task","1","1262.0","1","1024"
"100","100","1193","1193","#3d3846","practice","legacy","legacy","legacy","1","undefined","1","left","1","1","0","0","1","1","1","0","0","1","1","1","0","1","0","Sat Oct 21 14:24:46 2023","The main experiment item","True","SternbergTask.osexp","C:\Users\katjo\OneDrive\Desktop","False","mono","False","18","no","white","no","yes","768","legacy","1","1","C:/Users/katjo/OneDrive/Desktop/KEJ-subject-2.csv","legacy","2 9 4","Melodramatic Milgram","4.0.5","3","y","0","left","left","NA","left","NA","1125.0","1917","NA","1125","NA","2","legacy","3","1024","2","48000","-16","experiment","2","even","4","19780","16526","6414","NA","17576","17578","NA","6419","NA","18579","21781","22907","8338","21781","NA","Sternberg Task","2","2387.0","2","1024"
"100","100","944","944","#3d3846","practice","legacy","legacy","legacy","1","undefined","1","right","2","2","0","0","2","2","2","0","0","2","2","2","0","2","0","Sat Oct 21 14:24:46 2023","The main experiment item","True","SternbergTask.osexp","C:\Users\katjo\OneDrive\Desktop","False","mono","False","18","no","white","no","yes","768","legacy","2","2","C:/Users/katjo/OneDrive/Desktop/KEJ-subject-2.csv","legacy","5 7 8 4 1 2","Melodramatic Milgram","4.0.5","0","n","0","right","left","NA","right","NA","445.0","1917","NA","445","NA","2","legacy","6","1024","2","48000","-16","experiment","2","even","6","26176","22910","6414","NA","23971","23973","NA","6419","NA","24975","28177","28622","8338","28176","NA","Sternberg Task","3","2832.0","3","1024"
"75","75","763","763","#3d3846","practice","legacy","legacy","legacy","0","undefined","0","left","3","3","0","0","3","3","3","0","0","3","3","3","0","3","0","Sat Oct 21 14:24:46 2023","The main experiment item","True","SternbergTask.osexp","C:\Users\katjo\OneDrive\Desktop","False","mono","False","18","no","white","no","yes","768","legacy","3","3","C:/Users/katjo/OneDrive/Desktop/KEJ-subject-2.csv","legacy","1 7 9 8 5","Melodramatic Milgram","4.0.5","4","y","0","right","left","NA","right","NA","222.0","1917","NA","222","NA","2","legacy","5","1024","2","48000","-16","experiment","2","even","8","31909","28630","6414","NA","29706","29707","NA","6419","NA","30708","33910","34132","8338","33910","NA","Sternberg Task","3","3054.0","4","1024"
"60","60","703","703","#3d3846","practice","legacy","legacy","legacy","0","undefined","0","right","4","4","0","0","4","4","4","0","0","4","4","4","0","4","0","Sat Oct 21 14:24:46 2023","The main experiment item","True","SternbergTask.osexp","C:\Users\katjo\OneDrive\Desktop","False","mono","False","18","no","white","no","yes","768","legacy","4","4","C:/Users/katjo/OneDrive/Desktop/KEJ-subject-2.csv","legacy","5","Melodramatic Milgram","4.0.5","0","n","0","left","left","NA","left","NA","462.0","1917","NA","462","NA","2","legacy","1","1024","2","48000","-16","experiment","2","even","3","37383","28630","6414","NA","35181","35182","34137","6419","NA","36182","39385","39848","8338","39385","NA","Sternberg Task","3","3516.0","5","1024"
"66","66","721","721","#3d3846","practice","legacy","legacy","legacy","1","undefined","1","right","5","5","0","0","5","5","5","0","0","5","5","5","0","5","0","Sat Oct 21 14:24:46 2023","The main experiment item","True","SternbergTask.osexp","C:\Users\katjo\OneDrive\Desktop","False","mono","False","18","no","white","no","yes","768","legacy","5","5","C:/Users/katjo/OneDrive/Desktop/KEJ-subject-2.csv","legacy","2 1","Melodramatic Milgram","4.0.5","0","n","0","right","left","NA","right","NA","813.0","1917","NA","813","NA","2","legacy","2","1024","2","48000","-16","experiment","2","even","5","43103","28630","6414","NA","40901","40902","39853","6419","NA","41903","45104","45918","8338","45103","NA","Sternberg Task","4","4329.0","6","1024"
"57","57","753","753","#3d3846","practice","legacy","legacy","legacy","0","undefined","0","left","6","6","0","0","6","6","6","0","0","6","6","6","0","6","0","Sat Oct 21 14:24:46 2023","The main experiment item","True","SternbergTask.osexp","C:\Users\katjo\OneDrive\Desktop","False","mono","False","18","no","white","no","yes","768","legacy","6","6","C:/Users/katjo/OneDrive/Desktop/KEJ-subject-2.csv","legacy","1 5 2 9","Melodramatic Milgram","4.0.5","2","y","0","right","left","NA","right","NA","945.0","1917","NA","945","NA","2","legacy","4","1024","2","48000","-16","experiment","2","even","5","49199","45944","6414","NA","46997","46998","39853","6419","NA","47998","51200","52146","8338","51200","NA","Sternberg Task","4","5274.0","7","1024"
"50","50","909","909","#3d3846","practice","legacy","legacy","legacy","0","undefined","0","right","7","7","0","0","7","7","7","0","0","7","7","7","0","7","0","Sat Oct 21 14:24:46 2023","The main experiment item","True","SternbergTask.osexp","C:\Users\katjo\OneDrive\Desktop","False","mono","False","18","no","white","no","yes","768","legacy","7","7","C:/Users/katjo/OneDrive/Desktop/KEJ-subject-2.csv","legacy","4 1 5","Melodramatic Milgram","4.0.5","0","n","0","None","left","NA","None","NA","2000.0","1917","NA","2000","NA","2","legacy","3","1024","2","48000","-16","experiment","2","even","2","55551","45944","6414","NA","53349","53350","52260","6419","NA","54351","57551","59551","8338","57551","NA","Sternberg Task","4","7274.0","8","1024"
"44","44","1002","1002","#3d3846","practice","legacy","legacy","legacy","0","undefined","0","left","8","8","0","0","8","8","8","0","0","8","8","8","0","8","0","Sat Oct 21 14:24:46 2023","The main experiment item","True","SternbergTask.osexp","C:\Users\katjo\OneDrive\Desktop","False","mono","False","18","no","white","no","yes","768","legacy","8","8","C:/Users/katjo/OneDrive/Desktop/KEJ-subject-2.csv","legacy","6","Melodramatic Milgram","4.0.5","1","y","0","right","left","NA","right","NA","1748.0","1917","NA","1748","NA","2","legacy","1","1024","2","48000","-16","experiment","2","even","6","62809","45944","6414","NA","60606","60607","59556","6419","NA","61607","64810","66558","8338","64809","NA","Sternberg Task","4","9022.0","9","1024"
"50","50","953","953","#3d3846","practice","legacy","legacy","legacy","1","undefined","1","left","9","9","0","0","9","9","9","0","0","9","9","9","0","9","0","Sat Oct 21 14:24:46 2023","The main experiment item","True","SternbergTask.osexp","C:\Users\katjo\OneDrive\Desktop","False","mono","False","18","no","white","no","yes","768","legacy","9","9","C:/Users/katjo/OneDrive/Desktop/KEJ-subject-2.csv","legacy","4 8","Melodramatic Milgram","4.0.5","1","y","0","left","left","NA","left","NA","510.0","1917","NA","510","NA","2","legacy","2","1024","2","48000","-16","experiment","2","even","4","69810","45944","6414","NA","67609","67610","66566","6419","NA","68610","71811","72321","8338","71810","NA","Sternberg Task","5","9532.0","10","1024"
"45","45","891","891","#3d3846","practice","legacy","legacy","legacy","0","undefined","0","left","10","10","0","0","10","10","10","0","0","10","10","10","0","10","0","Sat Oct 21 14:24:46 2023","The main experiment item","True","SternbergTask.osexp","C:\Users\katjo\OneDrive\Desktop","False","mono","False","18","no","white","no","yes","768","legacy","10","10","C:/Users/katjo/OneDrive/Desktop/KEJ-subject-2.csv","legacy","4 3 1 7 9 8","Melodramatic Milgram","4.0.5","1","y","0","right","left","NA","right","NA","277.0","1917","NA","277","NA","2","legacy","6","1024","2","48000","-16","experiment","2","even","4","75577","72329","6414","NA","73375","73376","66566","6419","NA","74376","77577","77855","8338","77577","NA","Sternberg Task","5","9809.0","11","1024"
"41","41","837","837","#3d3846","practice","legacy","legacy","legacy","0","undefined","0","right","11","11","0","0","11","11","11","0","0","11","11","11","0","11","0","Sat Oct 21 14:24:46 2023","The main experiment item","True","SternbergTask.osexp","C:\Users\katjo\OneDrive\Desktop","False","mono","False","18","no","white","no","yes","768","legacy","11","11","C:/Users/katjo/OneDrive/Desktop/KEJ-subject-2.csv","legacy","3 1 9 4","Melodramatic Milgram","4.0.5","0","n","0","left","left","NA","left","NA","243.0","1917","NA","243","NA","2","legacy","4","1024","2","48000","-16","experiment","2","even","6","81112","72329","6414","NA","78910","78911","77862","6419","NA","79912","83113","83357","8338","83112","NA","Sternberg Task","5","10052.0","12","1024"
"46","46","794","794","#3d3846","experiment","legacy","legacy","legacy","1","undefined","1","left","12","12","0","0","12","12","12","0","0","12","12","12","0","12","0","Sat Oct 21 14:24:46 2023","The main experiment item","True","SternbergTask.osexp","C:\Users\katjo\OneDrive\Desktop","False","mono","False","18","no","white","no","yes","768","legacy","0","11","C:/Users/katjo/OneDrive/Desktop/KEJ-subject-2.csv","legacy","2 4 6 9","Melodramatic Milgram","4.0.5","3","y","0","left","left","left","left","NA","274.0","1917","8364","274","NA","2","legacy","4","1024","2","48000","-16","experiment","2","even","6","95104","72329","6414","92750","92901","92903","83384","6419","84385","93904","97105","97380","8338","97104","NA","Sternberg Task","6","10326.0","13","1024"
"50","50","781","781","#3d3846","experiment","legacy","legacy","legacy","1","undefined","1","left","13","13","0","0","13","13","13","0","0","13","13","13","0","13","0","Sat Oct 21 14:24:46 2023","The main experiment item","True","SternbergTask.osexp","C:\Users\katjo\OneDrive\Desktop","False","mono","False","18","no","white","no","yes","768","legacy","1","11","C:/Users/katjo/OneDrive/Desktop/KEJ-subject-2.csv","legacy","3 5 7 1","Melodramatic Milgram","4.0.5","3","y","0","left","left","left","left","NA","618.0","1917","8364","618","NA","2","legacy","4","1024","2","48000","-16","experiment","2","even","7","100639","97387","6414","92750","98436","98437","83384","6419","84385","99438","102639","103258","8338","102639","NA","Sternberg Task","7","10944.0","14","1024"
"46","46","746","746","#3d3846","experiment","legacy","legacy","legacy","0","undefined","0","left","14","14","0","0","14","14","14","0","0","14","14","14","0","14","0","Sat Oct 21 14:24:46 2023","The main experiment item","True","SternbergTask.osexp","C:\Users\katjo\OneDrive\Desktop","False","mono","False","18","no","white","no","yes","768","legacy","2","11","C:/Users/katjo/OneDrive/Desktop/KEJ-subject-2.csv","legacy","8 1 6","Melodramatic Milgram","4.0.5","3","y","0","right","left","left","right","NA","259.0","1917","8364","259","NA","2","legacy","3","1024","2","48000","-16","experiment","2","even","6","106521","103266","6414","92750","104318","104319","83384","6419","84385","105319","108522","108781","8338","108522","NA","Sternberg Task","7","11203.0","15","1024"
"50","50","723","723","#3d3846","experiment","legacy","legacy","legacy","1","undefined","1","left","15","15","0","0","15","15","15","0","0","15","15","15","0","15","0","Sat Oct 21 14:24:46 2023","The main experiment item","True","SternbergTask.osexp","C:\Users\katjo\OneDrive\Desktop","False","mono","False","18","no","white","no","yes","768","legacy","3","11","C:/Users/katjo/OneDrive/Desktop/KEJ-subject-2.csv","legacy","4 3 2 5 8","Melodramatic Milgram","4.0.5","2","y","0","left","left","left","left","NA","366.0","1917","8364","366","NA","2","legacy","5","1024","2","48000","-16","experiment","2","even","3","112037","103266","6414","92750","109835","109836","108789","6419","84385","110836","114038","114405","8338","114038","NA","Sternberg Task","8","11569.0","16","1024"
"52","52","706","706","#3d3846","experiment","legacy","legacy","legacy","1","undefined","1","left","16","16","0","0","16","16","16","0","0","16","16","16","0","16","0","Sat Oct 21 14:24:46 2023","The main experiment item","True","SternbergTask.osexp","C:\Users\katjo\OneDrive\Desktop","False","mono","False","18","no","white","no","yes","768","legacy","4","11","C:/Users/katjo/OneDrive/Desktop/KEJ-subject-2.csv","legacy","4","Melodramatic Milgram","4.0.5","1","y","0","left","left","left","left","NA","445.0","1917","8364","445","NA","2","legacy","1","1024","2","48000","-16","experiment","2","even","4","117671","114412","6414","92750","115469","115470","108789","6419","84385","116470","119672","120118","8338","119671","NA","Sternberg Task","9","12014.0","17","1024"
"50","50","778","778","#3d3846","experiment","legacy","legacy","legacy","0","undefined","0","left","17","17","0","0","17","17","17","0","0","17","17","17","0","17","0","Sat Oct 21 14:24:46 2023","The main experiment item","True","SternbergTask.osexp","C:\Users\katjo\OneDrive\Desktop","False","mono","False","18","no","white","no","yes","768","legacy","5","11","C:/Users/katjo/OneDrive/Desktop/KEJ-subject-2.csv","legacy","8","Melodramatic Milgram","4.0.5","1","y","0","None","left","left","None","NA","2000.0","1917","8364","2000","NA","2","legacy","1","1024","2","48000","-16","experiment","2","even","8","123371","120125","6414","92750","121170","121171","108789","6419","84385","122171","125372","127372","8338","125371","NA","Sternberg Task","9","14014.0","18","1024"
"52","52","755","755","#3d3846","experiment","legacy","legacy","legacy","1","undefined","1","left","18","18","0","0","18","18","18","0","0","18","18","18","0","18","0","Sat Oct 21 14:24:46 2023","The main experiment item","True","SternbergTask.osexp","C:\Users\katjo\OneDrive\Desktop","False","mono","False","18","no","white","no","yes","768","legacy","6","11","C:/Users/katjo/OneDrive/Desktop/KEJ-subject-2.csv","legacy","7 8 4 6 9 5","Melodramatic Milgram","4.0.5","4","y","0","left","left","left","left","NA","344.0","1917","8364","344","NA","2","legacy","6","1024","2","48000","-16","experiment","2","even","6","130625","120125","6414","92750","128423","128424","127379","6419","84385","129424","132626","132971","8338","132625","NA","Sternberg Task","10","14358.0","19","1024"
"55","55","746","746","#3d3846","experiment","legacy","legacy","legacy","1","undefined","1","left","19","19","0","0","19","19","19","0","0","19","19","19","0","19","0","Sat Oct 21 14:24:46 2023","The main experiment item","True","SternbergTask.osexp","C:\Users\katjo\OneDrive\Desktop","False","mono","False","18","no","white","no","yes","768","legacy","7","11","C:/Users/katjo/OneDrive/Desktop/KEJ-subject-2.csv","legacy","4 1 5","Melodramatic Milgram","4.0.5","2","y","0","left","left","left","left","NA","577.0","1917","8364","577","NA","2","legacy","3","1024","2","48000","-16","experiment","2","even","1","136229","132976","6414","92750","134027","134028","127379","6419","84385","135028","138230","138808","8338","138230","NA","Sternberg Task","11","14935.0","20","1024"
"52","52","728","728","#3d3846","experiment","legacy","legacy","legacy","0","undefined","0","right","20","20","0","0","20","20","20","0","0","20","20","20","0","20","0","Sat Oct 21 14:24:46 2023","The main experiment item","True","SternbergTask.osexp","C:\Users\katjo\OneDrive\Desktop","False","mono","False","18","no","white","no","yes","768","legacy","8","11","C:/Users/katjo/OneDrive/Desktop/KEJ-subject-2.csv","legacy","2 3 8 5 6 7","Melodramatic Milgram","4.0.5","0","n","0","left","left","left","left","NA","371.0","1917","8364","371","NA","2","legacy","6","1024","2","48000","-16","experiment","2","even","1","142071","138811","6414","92750","139869","139870","127379","6419","84385","140870","144072","144444","8338","144072","NA","Sternberg Task","11","15306.0","21","1024"
"54","54","720","720","#3d3846","experiment","legacy","legacy","legacy","1","undefined","1","left","21","21","0","0","21","21","21","0","0","21","21","21","0","21","0","Sat Oct 21 14:24:46 2023","The main experiment item","True","SternbergTask.osexp","C:\Users\katjo\OneDrive\Desktop","False","mono","False","18","no","white","no","yes","768","legacy","9","11","C:/Users/katjo/OneDrive/Desktop/KEJ-subject-2.csv","legacy","2 4 8 5 1 3","Melodramatic Milgram","4.0.5","1","y","0","left","left","left","left","NA","538.0","1917","8364","538","NA","2","legacy","6","1024","2","48000","-16","experiment","2","even","2","147723","138811","6414","92750","145520","145521","144452","6419","84385","146522","149724","150263","8338","149723","NA","Sternberg Task","12","15844.0","22","1024"
"52","52","714","714","#3d3846","experiment","legacy","legacy","legacy","0","undefined","0","left","22","22","0","0","22","22","22","0","0","22","22","22","0","22","0","Sat Oct 21 14:24:46 2023","The main experiment item","True","SternbergTask.osexp","C:\Users\katjo\OneDrive\Desktop","False","mono","False","18","no","white","no","yes","768","legacy","10","11","C:/Users/katjo/OneDrive/Desktop/KEJ-subject-2.csv","legacy","3 5 9 6 2 4","Melodramatic Milgram","4.0.5","1","y","0","right","left","left","right","NA","583.0","1917","8364","583","NA","2","legacy","6","1024","2","48000","-16","experiment","2","even","3","153529","150266","6414","92750","151326","151328","144452","6419","84385","152328","155531","156115","8338","155530","NA","Sternberg Task","12","16427.0","23","1024"
"50","50","707","707","#3d3846","experiment","legacy","legacy","legacy","0","undefined","0","right","23","23","0","0","23","23","23","0","0","23","23","23","0","23","0","Sat Oct 21 14:24:46 2023","The main experiment item","True","SternbergTask.osexp","C:\Users\katjo\OneDrive\Desktop","False","mono","False","18","no","white","no","yes","768","legacy","11","11","C:/Users/katjo/OneDrive/Desktop/KEJ-subject-2.csv","legacy","9 7 4 5 8","Melodramatic Milgram","4.0.5","0","n","0","left","left","left","left","NA","555.0","1917","8364","555","NA","2","legacy","5","1024","2","48000","-16","experiment","2","even","6","159522","150266","6414","92750","157318","157320","156228","6419","84385","158320","161523","162079","8338","161522","NA","Sternberg Task","12","16982.0","24","1024"
"48","48","699","699","#3d3846","experiment","legacy","legacy","legacy","0","undefined","0","left","24","24","0","0","24","24","24","0","0","24","24","24","0","24","0","Sat Oct 21 14:24:46 2023","The main experiment item","True","SternbergTask.osexp","C:\Users\katjo\OneDrive\Desktop","False","mono","False","18","no","white","no","yes","768","legacy","12","11","C:/Users/katjo/OneDrive/Desktop/KEJ-subject-2.csv","legacy","4 7 6 8 2 3","Melodramatic Milgram","4.0.5","6","y","0","right","left","left","right","NA","512.0","1917","8364","512","NA","2","legacy","6","1024","2","48000","-16","experiment","2","even","3","165339","150266","6414","92750","163137","163138","162082","6419","84385","164139","167341","167854","8338","167341","NA","Sternberg Task","12","17494.0","25","1024"
"46","46","690","690","#3d3846","experiment","legacy","legacy","legacy","0","undefined","0","right","25","25","0","0","25","25","25","0","0","25","25","25","0","25","0","Sat Oct 21 14:24:46 2023","The main experiment item","True","SternbergTask.osexp","C:\Users\katjo\OneDrive\Desktop","False","mono","False","18","no","white","no","yes","768","legacy","13","11","C:/Users/katjo/OneDrive/Desktop/KEJ-subject-2.csv","legacy","6 7 5 9","Melodramatic Milgram","4.0.5","0","n","0","left","left","left","left","NA","447.0","1917","8364","447","NA","2","legacy","4","1024","2","48000","-16","experiment","2","even","2","171119","150266","6414","92750","168916","168917","167859","6419","84385","169917","173119","173566","8338","173119","NA","Sternberg Task","12","17941.0","26","1024"
"44","44","665","665","#3d3846","experiment","legacy","legacy","legacy","0","undefined","0","left","26","26","0","0","26","26","26","0","0","26","26","26","0","26","0","Sat Oct 21 14:24:46 2023","The main experiment item","True","SternbergTask.osexp","C:\Users\katjo\OneDrive\Desktop","False","mono","False","18","no","white","no","yes","768","legacy","14","11","C:/Users/katjo/OneDrive/Desktop/KEJ-subject-2.csv","legacy","7 1 8 5 6 2","Melodramatic Milgram","4.0.5","2","y","0","right","left","left","right","NA","34.0","1917","8364","34","NA","2","legacy","6","1024","2","48000","-16","experiment","2","even","1","176824","150266","6414","92750","174623","174624","173574","6419","84385","175624","178825","178859","8338","178825","NA","Sternberg Task","12","17975.0","27","1024"
"42","42","650","650","#3d3846","experiment","legacy","legacy","legacy","0","undefined","0","right","27","27","0","0","27","27","27","0","0","27","27","27","0","27","0","Sat Oct 21 14:24:46 2023","The main experiment item","True","SternbergTask.osexp","C:\Users\katjo\OneDrive\Desktop","False","mono","False","18","no","white","no","yes","768","legacy","15","11","C:/Users/katjo/OneDrive/Desktop/KEJ-subject-2.csv","legacy","6 9 4 5 2","Melodramatic Milgram","4.0.5","0","n","0","left","left","left","left","NA","243.0","1917","8364","243","NA","2","legacy","5","1024","2","48000","-16","experiment","2","even","1","182126","150266","6414","92750","179922","179924","178863","6419","84385","180925","184127","184371","8338","184126","NA","Sternberg Task","12","18218.0","28","1024"
"44","44","650","650","#3d3846","experiment","legacy","legacy","legacy","1","undefined","1","right","28","28","0","0","28","28","28","0","0","28","28","28","0","28","0","Sat Oct 21 14:24:46 2023","The main experiment item","True","SternbergTask.osexp","C:\Users\katjo\OneDrive\Desktop","False","mono","False","18","no","white","no","yes","768","legacy","16","11","C:/Users/katjo/OneDrive/Desktop/KEJ-subject-2.csv","legacy","5","Melodramatic Milgram","4.0.5","0","n","0","right","left","left","right","NA","659.0","1917","8364","659","NA","2","legacy","1","1024","2","48000","-16","experiment","2","even","8","187628","150266","6414","92750","185427","185428","184379","6419","84385","186428","189629","190289","8338","189629","NA","Sternberg Task","13","18877.0","29","1024"
"46","46","637","637","#3d3846","experiment","legacy","legacy","legacy","1","undefined","1","right","29","29","0","0","29","29","29","0","0","29","29","29","0","29","0","Sat Oct 21 14:24:46 2023","The main experiment item","True","SternbergTask.osexp","C:\Users\katjo\OneDrive\Desktop","False","mono","False","18","no","white","no","yes","768","legacy","17","11","C:/Users/katjo/OneDrive/Desktop/KEJ-subject-2.csv","legacy","5 3 2 6 9 8","Melodramatic Milgram","4.0.5","0","n","0","right","left","left","right","NA","240.0","1917","8364","240","NA","2","legacy","6","1024","2","48000","-16","experiment","2","even","4","193542","190296","6414","92750","191339","191340","184379","6419","84385","192341","195543","195784","8338","195542","NA","Sternberg Task","14","19117.0","30","1024"
"48","48","641","641","#3d3846","experiment","legacy","legacy","legacy","1","undefined","1","left","30","30","0","0","30","30","30","0","0","30","30","30","0","30","0","Sat Oct 21 14:24:46 2023","The main experiment item","True","SternbergTask.osexp","C:\Users\katjo\OneDrive\Desktop","False","mono","False","18","no","white","no","yes","768","legacy","18","11","C:/Users/katjo/OneDrive/Desktop/KEJ-subject-2.csv","legacy","1 4 9 3 2 5","Melodramatic Milgram","4.0.5","3","y","0","left","left","left","left","NA","754.0","1917","8364","754","NA","2","legacy","6","1024","2","48000","-16","experiment","2","even","9","199057","195788","6414","92750","196851","196853","184379","6419","84385","197857","201059","201814","8338","201059","NA","Sternberg Task","15","19871.0","31","1024"
"50","50","664","664","#3d3846","experiment","legacy","legacy","legacy","1","undefined","1","right","31","31","0","0","31","31","31","0","0","31","31","31","0","31","0","Sat Oct 21 14:24:46 2023","The main experiment item","True","SternbergTask.osexp","C:\Users\katjo\OneDrive\Desktop","False","mono","False","18","no","white","no","yes","768","legacy","19","11","C:/Users/katjo/OneDrive/Desktop/KEJ-subject-2.csv","legacy","3 9 1","Melodramatic Milgram","4.0.5","0","n","0","right","left","left","right","NA","1405.0","1917","8364","1405","NA","2","legacy","3","1024","2","48000","-16","experiment","2","even","7","205124","201831","6414","92750","202920","202922","184379","6419","84385","203923","207125","208531","8338","207125","NA","Sternberg Task","16","21276.0","32","1024"
"48","48","662","662","#3d3846","experiment","legacy","legacy","legacy","0","undefined","0","right","32","32","0","0","32","32","32","0","0","32","32","32","0","32","0","Sat Oct 21 14:24:46 2023","The main experiment item","True","SternbergTask.osexp","C:\Users\katjo\OneDrive\Desktop","False","mono","False","18","no","white","no","yes","768","legacy","20","11","C:/Users/katjo/OneDrive/Desktop/KEJ-subject-2.csv","legacy","6 9 5","Melodramatic Milgram","4.0.5","0","n","0","left","left","left","left","NA","586.0","1917","8364","586","NA","2","legacy","3","1024","2","48000","-16","experiment","2","even","8","211804","208550","6414","92750","209601","209602","184379","6419","84385","210602","213805","214392","8338","213805","NA","Sternberg Task","16","21862.0","33","1024"
"47","47","664","664","#3d3846","experiment","legacy","legacy","legacy","0","undefined","0","right","33","33","0","0","33","33","33","0","0","33","33","33","0","33","0","Sat Oct 21 14:24:46 2023","The main experiment item","True","SternbergTask.osexp","C:\Users\katjo\OneDrive\Desktop","False","mono","False","18","no","white","no","yes","768","legacy","21","11","C:/Users/katjo/OneDrive/Desktop/KEJ-subject-2.csv","legacy","6 8","Melodramatic Milgram","4.0.5","0","n","0","left","left","left","left","NA","739.0","1917","8364","739","NA","2","legacy","2","1024","2","48000","-16","experiment","2","even","9","217658","208550","6414","92750","215455","215457","214399","6419","84385","216458","219660","220399","8338","219659","NA","Sternberg Task","16","22601.0","34","1024"
"48","48","653","653","#3d3846","experiment","legacy","legacy","legacy","1","undefined","1","right","34","34","0","0","34","34","34","0","0","34","34","34","0","34","0","Sat Oct 21 14:24:46 2023","The main experiment item","True","SternbergTask.osexp","C:\Users\katjo\OneDrive\Desktop","False","mono","False","18","no","white","no","yes","768","legacy","22","11","C:/Users/katjo/OneDrive/Desktop/KEJ-subject-2.csv","legacy","8 4 3 5","Melodramatic Milgram","4.0.5","0","n","0","right","left","left","right","NA","280.0","1917","8364","280","NA","2","legacy","4","1024","2","48000","-16","experiment","2","even","6","223652","208550","6414","92750","221449","221450","220407","6419","84385","222451","225652","225933","8338","225652","NA","Sternberg Task","17","22881.0","35","1024"
"47","47","644","644","#3d3846","experiment","legacy","legacy","legacy","0","undefined","0","right","35","35","0","0","35","35","35","0","0","35","35","35","0","35","0","Sat Oct 21 14:24:46 2023","The main experiment item","True","SternbergTask.osexp","C:\Users\katjo\OneDrive\Desktop","False","mono","False","18","no","white","no","yes","768","legacy","23","11","C:/Users/katjo/OneDrive/Desktop/KEJ-subject-2.csv","legacy","7 1 5 6 3","Melodramatic Milgram","4.0.5","0","n","0","left","left","left","left","NA","319.0","1917","8364","319","NA","2","legacy","5","1024","2","48000","-16","experiment","2","even","8","229184","225937","6414","92750","226981","226982","220407","6419","84385","227983","231185","231505","8338","231184","NA","Sternberg Task","17","23200.0","36","1024"
"48","48","648","648","#3d3846","experiment","legacy","legacy","legacy","1","undefined","1","right","36","36","0","0","36","36","36","0","0","36","36","36","0","36","0","Sat Oct 21 14:24:46 2023","The main experiment item","True","SternbergTask.osexp","C:\Users\katjo\OneDrive\Desktop","False","mono","False","18","no","white","no","yes","768","legacy","24","11","C:/Users/katjo/OneDrive/Desktop/KEJ-subject-2.csv","legacy","2 8 9","Melodramatic Milgram","4.0.5","0","n","0","right","left","left","right","NA","798.0","1917","8364","798","NA","2","legacy","3","1024","2","48000","-16","experiment","2","even","6","234755","225937","6414","92750","232553","232554","231510","6419","84385","233555","236756","237554","8338","236756","NA","Sternberg Task","18","23998.0","37","1024"
"50","50","652","652","#3d3846","experiment","legacy","legacy","legacy","1","undefined","1","left","37","37","0","0","37","37","37","0","0","37","37","37","0","37","0","Sat Oct 21 14:24:46 2023","The main experiment item","True","SternbergTask.osexp","C:\Users\katjo\OneDrive\Desktop","False","mono","False","18","no","white","no","yes","768","legacy","25","11","C:/Users/katjo/OneDrive/Desktop/KEJ-subject-2.csv","legacy","2 3","Melodramatic Milgram","4.0.5","1","y","0","left","left","left","left","NA","813.0","1917","8364","813","NA","2","legacy","2","1024","2","48000","-16","experiment","2","even","2","240805","237562","6414","92750","238604","238605","231510","6419","84385","239605","242806","243620","8338","242806","NA","Sternberg Task","19","24811.0","38","1024"
"51","51","652","652","#3d3846","experiment","legacy","legacy","legacy","1","undefined","1","right","38","38","0","0","38","38","38","0","0","38","38","38","0","38","0","Sat Oct 21 14:24:46 2023","The main experiment item","True","SternbergTask.osexp","C:\Users\katjo\OneDrive\Desktop","False","mono","False","18","no","white","no","yes","768","legacy","26","11","C:/Users/katjo/OneDrive/Desktop/KEJ-subject-2.csv","legacy","1 4 9 3","Melodramatic Milgram","4.0.5","0","n","0","right","left","left","right","NA","649.0","1917","8364","649","NA","2","legacy","4","1024","2","48000","-16","experiment","2","even","5","246883","243628","6414","92750","244680","244682","231510","6419","84385","245682","248884","249534","8338","248883","NA","Sternberg Task","20","25460.0","39","1024"
"50","50","646","646","#3d3846","experiment","legacy","legacy","legacy","0","undefined","0","right","39","39","0","0","39","39","39","0","0","39","39","39","0","39","0","Sat Oct 21 14:24:46 2023","The main experiment item","True","SternbergTask.osexp","C:\Users\katjo\OneDrive\Desktop","False","mono","False","18","no","white","no","yes","768","legacy","27","11","C:/Users/katjo/OneDrive/Desktop/KEJ-subject-2.csv","legacy","7 9","Melodramatic Milgram","4.0.5","0","n","0","left","left","left","left","NA","406.0","1917","8364","406","NA","2","legacy","2","1024","2","48000","-16","experiment","2","even","1","252811","249560","6414","92750","250609","250610","231510","6419","84385","251610","254811","255217","8338","254811","NA","Sternberg Task","20","25866.0","40","1024"
"51","51","637","637","#3d3846","experiment","legacy","legacy","legacy","1","undefined","1","right","40","40","0","0","40","40","40","0","0","40","40","40","0","40","0","Sat Oct 21 14:24:46 2023","The main experiment item","True","SternbergTask.osexp","C:\Users\katjo\OneDrive\Desktop","False","mono","False","18","no","white","no","yes","768","legacy","28","11","C:/Users/katjo/OneDrive/Desktop/KEJ-subject-2.csv","legacy","7 9 1 6","Melodramatic Milgram","4.0.5","0","n","0","right","left","left","right","NA","286.0","1917","8364","286","NA","2","legacy","4","1024","2","48000","-16","experiment","2","even","4","258472","249560","6414","92750","256270","256271","255221","6419","84385","257271","260473","260760","8338","260473","NA","Sternberg Task","21","26152.0","41","1024"
"52","52","630","630","#3d3846","experiment","legacy","legacy","legacy","1","undefined","1","right","41","41","0","0","41","41","41","0","0","41","41","41","0","41","0","Sat Oct 21 14:24:46 2023","The main experiment item","True","SternbergTask.osexp","C:\Users\katjo\OneDrive\Desktop","False","mono","False","18","no","white","no","yes","768","legacy","29","11","C:/Users/katjo/OneDrive/Desktop/KEJ-subject-2.csv","legacy","1 4 9 2 5","Melodramatic Milgram","4.0.5","0","n","0","right","left","left","right","NA","344.0","1917","8364","344","NA","2","legacy","5","1024","2","48000","-16","experiment","2","even","7","264014","260763","6414","92750","261812","261813","255221","6419","84385","262814","266016","266361","8338","266015","NA","Sternberg Task","22","26496.0","42","1024"
"51","51","655","655","#3d3846","experiment","legacy","legacy","legacy","0","undefined","0","right","42","42","0","0","42","42","42","0","0","42","42","42","0","42","0","Sat Oct 21 14:24:46 2023","The main experiment item","True","SternbergTask.osexp","C:\Users\katjo\OneDrive\Desktop","False","mono","False","18","no","white","no","yes","768","legacy","30","11","C:/Users/katjo/OneDrive/Desktop/KEJ-subject-2.csv","legacy","7 4 2 8 1 9","Melodramatic Milgram","4.0.5","0","n","0","left","left","left","left","NA","1696.0","1917","8364","1696","NA","2","legacy","6","1024","2","48000","-16","experiment","2","even","5","269612","266368","6414","92750","267411","267412","255221","6419","84385","268412","271614","273311","8338","271613","NA","Sternberg Task","22","28192.0","43","1024"
"50","50","647","647","#3d3846","experiment","legacy","legacy","legacy","0","undefined","0","left","43","43","0","0","43","43","43","0","0","43","43","43","0","43","0","Sat Oct 21 14:24:46 2023","The main experiment item","True","SternbergTask.osexp","C:\Users\katjo\OneDrive\Desktop","False","mono","False","18","no","white","no","yes","768","legacy","31","11","C:/Users/katjo/OneDrive/Desktop/KEJ-subject-2.csv","legacy","8 5 4 7 3 1","Melodramatic Milgram","4.0.5","2","y","0","right","left","left","right","NA","291.0","1917","8364","291","NA","2","legacy","6","1024","2","48000","-16","experiment","2","even","5","276583","266368","6414","92750","274382","274383","273338","6419","84385","275383","278584","278876","8338","278584","NA","Sternberg Task","22","28483.0","44","1024"
"51","51","639","639","#3d3846","experiment","legacy","legacy","legacy","1","undefined","1","right","44","44","0","0","44","44","44","0","0","44","44","44","0","44","0","Sat Oct 21 14:24:46 2023","The main experiment item","True","SternbergTask.osexp","C:\Users\katjo\OneDrive\Desktop","False","mono","False","18","no","white","no","yes","768","legacy","32","11","C:/Users/katjo/OneDrive/Desktop/KEJ-subject-2.csv","legacy","1 6 4","Melodramatic Milgram","4.0.5","0","n","0","right","left","left","right","NA","278.0","1917","8364","278","NA","2","legacy","3","1024","2","48000","-16","experiment","2","even","7","282143","266368","6414","92750","279940","279941","278884","6419","84385","280942","284144","284423","8338","284143","NA","Sternberg Task","23","28761.0","45","1024"
"52","52","633","633","#3d3846","experiment","legacy","legacy","legacy","1","undefined","1","left","45","45","0","0","45","45","45","0","0","45","45","45","0","45","0","Sat Oct 21 14:24:46 2023","The main experiment item","True","SternbergTask.osexp","C:\Users\katjo\OneDrive\Desktop","False","mono","False","18","no","white","no","yes","768","legacy","33","11","C:/Users/katjo/OneDrive/Desktop/KEJ-subject-2.csv","legacy","8 5 3 7 4 6","Melodramatic Milgram","4.0.5","6","y","0","left","left","left","left","NA","377.0","1917","8364","377","NA","2","legacy","6","1024","2","48000","-16","experiment","2","even","6","287700","284449","6414","92750","285499","285500","278884","6419","84385","286500","289701","290079","8338","289701","NA","Sternberg Task","24","29138.0","46","1024"
"53","53","644","644","#3d3846","experiment","legacy","legacy","legacy","1","undefined","1","right","46","46","0","0","46","46","46","0","0","46","46","46","0","46","0","Sat Oct 21 14:24:46 2023","The main experiment item","True","SternbergTask.osexp","C:\Users\katjo\OneDrive\Desktop","False","mono","False","18","no","white","no","yes","768","legacy","34","11","C:/Users/katjo/OneDrive/Desktop/KEJ-subject-2.csv","legacy","9","Melodramatic Milgram","4.0.5","0","n","0","right","left","left","right","NA","1163.0","1917","8364","1163","NA","2","legacy","1","1024","2","48000","-16","experiment","2","even","6","293341","290087","6414","92750","291139","291140","278884","6419","84385","292141","295341","296505","8338","295341","NA","Sternberg Task","25","30301.0","47","1024"
"54","54","635","635","#3d3846","experiment","legacy","legacy","legacy","1","undefined","1","left","47","47","0","0","47","47","47","0","0","47","47","47","0","47","0","Sat Oct 21 14:24:46 2023","The main experiment item","True","SternbergTask.osexp","C:\Users\katjo\OneDrive\Desktop","False","mono","False","18","no","white","no","yes","768","legacy","35","11","C:/Users/katjo/OneDrive/Desktop/KEJ-subject-2.csv","legacy","2 6 1 7 4","Melodramatic Milgram","4.0.5","2","y","0","left","left","left","left","NA","205.0","1917","8364","205","NA","2","legacy","5","1024","2","48000","-16","experiment","2","even","6","299765","296512","6414","92750","297564","297565","278884","6419","84385","298565","301766","301971","8338","301766","NA","Sternberg Task","26","30506.0","48","1024"
"53","53","641","641","#3d3846","experiment","legacy","legacy","legacy","0","undefined","0","left","48","48","0","0","48","48","48","0","0","48","48","48","0","48","0","Sat Oct 21 14:24:46 2023","The main experiment item","True","SternbergTask.osexp","C:\Users\katjo\OneDrive\Desktop","False","mono","False","18","no","white","no","yes","768","legacy","36","11","C:/Users/katjo/OneDrive/Desktop/KEJ-subject-2.csv","legacy","5 7 3 6 2","Melodramatic Milgram","4.0.5","5","y","0","right","left","left","right","NA","922.0","1917","8364","922","NA","2","legacy","5","1024","2","48000","-16","experiment","2","even","2","305228","301976","6414","92750","303025","303026","278884","6419","84385","304026","307229","308152","8338","307228","NA","Sternberg Task","26","31428.0","49","1024"
"54","54","645","645","#3d3846","experiment","legacy","legacy","legacy","1","undefined","1","left","49","49","0","0","49","49","49","0","0","49","49","49","0","49","0","Sat Oct 21 14:24:46 2023","The main experiment item","True","SternbergTask.osexp","C:\Users\katjo\OneDrive\Desktop","False","mono","False","18","no","white","no","yes","768","legacy","37","11","C:/Users/katjo/OneDrive/Desktop/KEJ-subject-2.csv","legacy","7 1 3","Melodramatic Milgram","4.0.5","2","y","0","left","left","left","left","NA","857.0","1917","8364","857","NA","2","legacy","3","1024","2","48000","-16","experiment","2","even","1","311427","301976","6414","92750","309225","309227","308159","6419","84385","310227","313429","314287","8338","313429","NA","Sternberg Task","27","32285.0","50","1024"
"54","54","642","642","#3d3846","experiment","legacy","legacy","legacy","1","undefined","1","left","50","50","0","0","50","50","50","0","0","50","50","50","0","50","0","Sat Oct 21 14:24:46 2023","The main experiment item","True","SternbergTask.osexp","C:\Users\katjo\OneDrive\Desktop","False","mono","False","18","no","white","no","yes","768","legacy","38","11","C:/Users/katjo/OneDrive/Desktop/KEJ-subject-2.csv","legacy","9 4 2","Melodramatic Milgram","4.0.5","1","y","0","left","left","left","left","NA","472.0","1917","8364","472","NA","2","legacy","3","1024","2","48000","-16","experiment","2","even","9","317554","314292","6414","92750","315347","315349","308159","6419","84385","316350","319555","320028","8338","319555","NA","Sternberg Task","28","32757.0","51","1024"
"53","53","633","633","#3d3846","experiment","legacy","legacy","legacy","0","undefined","0","right","51","51","0","0","51","51","51","0","0","51","51","51","0","51","0","Sat Oct 21 14:24:46 2023","The main experiment item","True","SternbergTask.osexp","C:\Users\katjo\OneDrive\Desktop","False","mono","False","18","no","white","no","yes","768","legacy","39","11","C:/Users/katjo/OneDrive/Desktop/KEJ-subject-2.csv","legacy","8 6 3 4 7","Melodramatic Milgram","4.0.5","0","n","0","left","left","left","left","NA","182.0","1917","8364","182","NA","2","legacy","5","1024","2","48000","-16","experiment","2","even","1","323307","320032","6414","92750","321104","321105","308159","6419","84385","322107","325309","325492","8338","325309","NA","Sternberg Task","28","32939.0","52","1024"
"52","52","623","623","#3d3846","experiment","legacy","legacy","legacy","0","undefined","0","left","52","52","0","0","52","52","52","0","0","52","52","52","0","52","0","Sat Oct 21 14:24:46 2023","The main experiment item","True","SternbergTask.osexp","C:\Users\katjo\OneDrive\Desktop","False","mono","False","18","no","white","no","yes","768","legacy","40","11","C:/Users/katjo/OneDrive/Desktop/KEJ-subject-2.csv","legacy","4 6 2 5 1","Melodramatic Milgram","4.0.5","5","y","0","right","left","left","right","NA","90.0","1917","8364","90","NA","2","legacy","5","1024","2","48000","-16","experiment","2","even","1","328760","320032","6414","92750","326559","326560","325500","6419","84385","327560","330762","330853","8338","330762","NA","Sternberg Task","28","33029.0","53","1024"
"51","51","618","618","#3d3846","experiment","legacy","legacy","legacy","0","undefined","0","right","53","53","0","0","53","53","53","0","0","53","53","53","0","53","0","Sat Oct 21 14:24:46 2023","The main experiment item","True","SternbergTask.osexp","C:\Users\katjo\OneDrive\Desktop","False","mono","False","18","no","white","no","yes","768","legacy","41","11","C:/Users/katjo/OneDrive/Desktop/KEJ-subject-2.csv","legacy","4 1","Melodramatic Milgram","4.0.5","0","n","0","left","left","left","left","NA","371.0","1917","8364","371","NA","2","legacy","2","1024","2","48000","-16","experiment","2","even","6","334132","320032","6414","92750","331929","331930","330857","6419","84385","332931","336133","336505","8338","336132","NA","Sternberg Task","28","33400.0","54","1024"
"50","50","629","629","#3d3846","experiment","legacy","legacy","legacy","0","undefined","0","left","54","54","0","0","54","54","54","0","0","54","54","54","0","54","0","Sat Oct 21 14:24:46 2023","The main experiment item","True","SternbergTask.osexp","C:\Users\katjo\OneDrive\Desktop","False","mono","False","18","no","white","no","yes","768","legacy","42","11","C:/Users/katjo/OneDrive/Desktop/KEJ-subject-2.csv","legacy","6 9 3 1","Melodramatic Milgram","4.0.5","4","y","0","right","left","left","right","NA","1231.0","1917","8364","1231","NA","2","legacy","4","1024","2","48000","-16","experiment","2","even","1","339765","320032","6414","92750","337563","337564","336513","6419","84385","338565","341766","342998","8338","341766","NA","Sternberg Task","28","34631.0","55","1024"
"51","51","635","635","#3d3846","experiment","legacy","legacy","legacy","1","undefined","1","left","55","55","0","0","55","55","55","0","0","55","55","55","0","55","0","Sat Oct 21 14:24:46 2023","The main experiment item","True","SternbergTask.osexp","C:\Users\katjo\OneDrive\Desktop","False","mono","False","18","no","white","no","yes","768","legacy","43","11","C:/Users/katjo/OneDrive/Desktop/KEJ-subject-2.csv","legacy","7","Melodramatic Milgram","4.0.5","1","y","0","left","left","left","left","NA","955.0","1917","8364","955","NA","2","legacy","1","1024","2","48000","-16","experiment","2","even","7","346249","320032","6414","92750","344046","344047","343003","6419","84385","345048","348250","349206","8338","348249","NA","Sternberg Task","29","35586.0","56","1024"
"52","52","633","633","#3d3846","experiment","legacy","legacy","legacy","1","undefined","1","right","56","56","0","0","56","56","56","0","0","56","56","56","0","56","0","Sat Oct 21 14:24:46 2023","The main experiment item","True","SternbergTask.osexp","C:\Users\katjo\OneDrive\Desktop","False","mono","False","18","no","white","no","yes","768","legacy","44","11","C:/Users/katjo/OneDrive/Desktop/KEJ-subject-2.csv","legacy","4 8 1 2","Melodramatic Milgram","4.0.5","0","n","0","right","left","left","right","NA","499.0","1917","8364","499","NA","2","legacy","4","1024","2","48000","-16","experiment","2","even","7","352465","349213","6414","92750","350262","350263","343003","6419","84385","351263","354465","354965","8338","354465","NA","Sternberg Task","30","36085.0","57","1024"
"51","51","624","624","#3d3846","experiment","legacy","legacy","legacy","0","undefined","0","left","57","57","0","0","57","57","57","0","0","57","57","57","0","57","0","Sat Oct 21 14:24:46 2023","The main experiment item","True","SternbergTask.osexp","C:\Users\katjo\OneDrive\Desktop","False","mono","False","18","no","white","no","yes","768","legacy","45","11","C:/Users/katjo/OneDrive/Desktop/KEJ-subject-2.csv","legacy","9 6 2 4 1","Melodramatic Milgram","4.0.5","4","y","0","right","left","left","right","NA","137.0","1917","8364","137","NA","2","legacy","5","1024","2","48000","-16","experiment","2","even","4","358216","354972","6414","92750","356015","356016","343003","6419","84385","357016","360217","360355","8338","360216","NA","Sternberg Task","30","36222.0","58","1024"
"52","52","618","618","#3d3846","experiment","legacy","legacy","legacy","1","undefined","1","left","58","58","0","0","58","58","58","0","0","58","58","58","0","58","0","Sat Oct 21 14:24:46 2023","The main experiment item","True","SternbergTask.osexp","C:\Users\katjo\OneDrive\Desktop","False","mono","False","18","no","white","no","yes","768","legacy","46","11","C:/Users/katjo/OneDrive/Desktop/KEJ-subject-2.csv","legacy","6 2","Melodramatic Milgram","4.0.5","1","y","0","left","left","left","left","NA","273.0","1917","8364","273","NA","2","legacy","2","1024","2","48000","-16","experiment","2","even","6","363629","354972","6414","92750","361426","361427","360382","6419","84385","362427","365630","365904","8338","365629","NA","Sternberg Task","31","36495.0","59","1024"
"51","51","616","616","#3d3846","experiment","legacy","legacy","legacy","0","undefined","0","right","59","59","0","0","59","59","59","0","0","59","59","59","0","59","0","Sat Oct 21 14:24:46 2023","The main experiment item","True","SternbergTask.osexp","C:\Users\katjo\OneDrive\Desktop","False","mono","False","18","no","white","no","yes","768","legacy","47","11","C:/Users/katjo/OneDrive/Desktop/KEJ-subject-2.csv","legacy","8 9","Melodramatic Milgram","4.0.5","0","n","0","left","left","left","left","NA","480.0","1917","8364","480","NA","2","legacy","2","1024","2","48000","-16","experiment","2","even","5","369163","365911","6414","92750","366961","366962","360382","6419","84385","367962","371165","371646","8338","371165","NA","Sternberg Task","31","36975.0","60","1024"
"52","52","613","613","#3d3846","experiment","legacy","legacy","legacy","1","undefined","1","right","60","60","0","0","60","60","60","0","0","60","60","60","0","60","0","Sat Oct 21 14:24:46 2023","The main experiment item","True","SternbergTask.osexp","C:\Users\katjo\OneDrive\Desktop","False","mono","False","18","no","white","no","yes","768","legacy","48","11","C:/Users/katjo/OneDrive/Desktop/KEJ-subject-2.csv","legacy","2 8 9 4 1","Melodramatic Milgram","4.0.5","0","n","0","right","left","left","right","NA","447.0","1917","8364","447","NA","2","legacy","5","1024","2","48000","-16","experiment","2","even","5","374896","365911","6414","92750","372693","372694","371649","6419","84385","373695","376898","377345","8338","376897","NA","Sternberg Task","32","37422.0","61","1024"
"51","51","608","608","#3d3846","experiment","legacy","legacy","legacy","0","undefined","0","right","61","61","0","0","61","61","61","0","0","61","61","61","0","61","0","Sat Oct 21 14:24:46 2023","The main experiment item","True","SternbergTask.osexp","C:\Users\katjo\OneDrive\Desktop","False","mono","False","18","no","white","no","yes","768","legacy","49","11","C:/Users/katjo/OneDrive/Desktop/KEJ-subject-2.csv","legacy","2 8 7 9 5 3","Melodramatic Milgram","4.0.5","0","n","0","left","left","left","left","NA","316.0","1917","8364","316","NA","2","legacy","6","1024","2","48000","-16","experiment","2","even","6","380609","377353","6414","92750","378408","378409","371649","6419","84385","379409","382610","382927","8338","382609","NA","Sternberg Task","32","37738.0","62","1024"
"50","50","630","630","#3d3846","experiment","legacy","legacy","legacy","0","undefined","0","right","62","62","0","0","62","62","62","0","0","62","62","62","0","62","0","Sat Oct 21 14:24:46 2023","The main experiment item","True","SternbergTask.osexp","C:\Users\katjo\OneDrive\Desktop","False","mono","False","18","no","white","no","yes","768","legacy","50","11","C:/Users/katjo/OneDrive/Desktop/KEJ-subject-2.csv","legacy","3 4 2","Melodramatic Milgram","4.0.5","0","n","0","None","left","left","None","NA","2001.0","1917","8364","2001","NA","2","legacy","3","1024","2","48000","-16","experiment","2","even","5","386187","377353","6414","92750","383985","383986","382935","6419","84385","384986","388187","390188","8338","388187","NA","Sternberg Task","32","39739.0","63","1024"
"50","50","652","652","#3d3846","experiment","legacy","legacy","legacy","0","undefined","0","right","63","63","0","0","63","63","63","0","0","63","63","63","0","63","0","Sat Oct 21 14:24:46 2023","The main experiment item","True","SternbergTask.osexp","C:\Users\katjo\OneDrive\Desktop","False","mono","False","18","no","white","no","yes","768","legacy","51","11","C:/Users/katjo/OneDrive/Desktop/KEJ-subject-2.csv","legacy","6 3 1 7 9 8","Melodramatic Milgram","4.0.5","0","n","0","None","left","left","None","NA","2000.0","1917","8364","2000","NA","2","legacy","6","1024","2","48000","-16","experiment","2","even","4","393446","377353","6414","92750","391243","391245","390196","6419","84385","392245","395448","397448","8338","395447","NA","Sternberg Task","32","41739.0","64","1024"
"49","49","672","672","#3d3846","experiment","legacy","legacy","legacy","0","undefined","0","left","64","64","0","0","64","64","64","0","0","64","64","64","0","64","0","Sat Oct 21 14:24:46 2023","The main experiment item","True","SternbergTask.osexp","C:\Users\katjo\OneDrive\Desktop","False","mono","False","18","no","white","no","yes","768","legacy","52","11","C:/Users/katjo/OneDrive/Desktop/KEJ-subject-2.csv","legacy","9 1 7 2","Melodramatic Milgram","4.0.5","2","y","0","None","left","left","None","NA","2000.0","1917","8364","2000","NA","2","legacy","4","1024","2","48000","-16","experiment","2","even","1","400725","377353","6414","92750","398524","398525","397474","6419","84385","399525","402726","404726","8338","402725","NA","Sternberg Task","32","43739.0","65","1024"
"50","50","676","676","#3d3846","experiment","legacy","legacy","legacy","1","undefined","1","left","65","65","0","0","65","65","65","0","0","65","65","65","0","65","0","Sat Oct 21 14:24:46 2023","The main experiment item","True","SternbergTask.osexp","C:\Users\katjo\OneDrive\Desktop","False","mono","False","18","no","white","no","yes","768","legacy","53","11","C:/Users/katjo/OneDrive/Desktop/KEJ-subject-2.csv","legacy","3 4","Melodramatic Milgram","4.0.5","1","y","0","left","left","left","left","NA","935.0","1917","8364","935","NA","2","legacy","2","1024","2","48000","-16","experiment","2","even","3","407994","377353","6414","92750","405791","405792","404734","6419","84385","406792","409995","410931","8338","409995","NA","Sternberg Task","33","44674.0","66","1024"
"50","50","682","682","#3d3846","experiment","legacy","legacy","legacy","1","undefined","1","right","66","66","0","0","66","66","66","0","0","66","66","66","0","66","0","Sat Oct 21 14:24:46 2023","The main experiment item","True","SternbergTask.osexp","C:\Users\katjo\OneDrive\Desktop","False","mono","False","18","no","white","no","yes","768","legacy","54","11","C:/Users/katjo/OneDrive/Desktop/KEJ-subject-2.csv","legacy","1 7 8 3 9","Melodramatic Milgram","4.0.5","0","n","0","right","left","left","right","NA","1040.0","1917","8364","1040","NA","2","legacy","5","1024","2","48000","-16","experiment","2","even","2","414206","410939","6414","92750","412003","412004","404734","6419","84385","413005","416206","417247","8338","416206","NA","Sternberg Task","34","45714.0","67","1024"
"50","50","690","690","#3d3846","experiment","legacy","legacy","legacy","0","undefined","0","right","67","67","0","0","67","67","67","0","0","67","67","67","0","67","0","Sat Oct 21 14:24:46 2023","The main experiment item","True","SternbergTask.osexp","C:\Users\katjo\OneDrive\Desktop","False","mono","False","18","no","white","no","yes","768","legacy","55","11","C:/Users/katjo/OneDrive/Desktop/KEJ-subject-2.csv","legacy","1 8 7","Melodramatic Milgram","4.0.5","0","n","0","left","left","left","left","NA","1242.0","1917","8364","1242","NA","2","legacy","3","1024","2","48000","-16","experiment","2","even","4","420510","417255","6414","92750","418308","418309","404734","6419","84385","419309","422510","423753","8338","422510","NA","Sternberg Task","34","46956.0","68","1024"
"50","50","684","684","#3d3846","experiment","legacy","legacy","legacy","1","undefined","1","right","68","68","0","0","68","68","68","0","0","68","68","68","0","68","0","Sat Oct 21 14:24:46 2023","The main experiment item","True","SternbergTask.osexp","C:\Users\katjo\OneDrive\Desktop","False","mono","False","18","no","white","no","yes","768","legacy","56","11","C:/Users/katjo/OneDrive/Desktop/KEJ-subject-2.csv","legacy","6 8 4","Melodramatic Milgram","4.0.5","0","n","0","right","left","left","right","NA","265.0","1917","8364","265","NA","2","legacy","3","1024","2","48000","-16","experiment","2","even","1","427026","417255","6414","92750","424823","424824","423761","6419","84385","425825","429027","429293","8338","429027","NA","Sternberg Task","35","47221.0","69","1024"
"51","51","683","683","#3d3846","experiment","legacy","legacy","legacy","1","undefined","1","right","69","69","0","0","69","69","69","0","0","69","69","69","0","69","0","Sat Oct 21 14:24:46 2023","The main experiment item","True","SternbergTask.osexp","C:\Users\katjo\OneDrive\Desktop","False","mono","False","18","no","white","no","yes","768","legacy","57","11","C:/Users/katjo/OneDrive/Desktop/KEJ-subject-2.csv","legacy","9 5 3 2 8 6","Melodramatic Milgram","4.0.5","0","n","0","right","left","left","right","NA","650.0","1917","8364","650","NA","2","legacy","6","1024","2","48000","-16","experiment","2","even","7","432540","429301","6414","92750","430338","430339","423761","6419","84385","431339","434540","435191","8338","434540","NA","Sternberg Task","36","47871.0","70","1024"
"52","52","678","678","#3d3846","experiment","legacy","legacy","legacy","1","undefined","1","left","70","70","0","0","70","70","70","0","0","70","70","70","0","70","0","Sat Oct 21 14:24:46 2023","The main experiment item","True","SternbergTask.osexp","C:\Users\katjo\OneDrive\Desktop","False","mono","False","18","no","white","no","yes","768","legacy","58","11","C:/Users/katjo/OneDrive/Desktop/KEJ-subject-2.csv","legacy","3 9 6 2","Melodramatic Milgram","4.0.5","4","y","0","left","left","left","left","NA","303.0","1917","8364","303","NA","2","legacy","4","1024","2","48000","-16","experiment","2","even","2","438456","435218","6414","92750","436254","436255","423761","6419","84385","437255","440456","440760","8338","440456","NA","Sternberg Task","37","48174.0","71","1024"
"52","52","676","676","#3d3846","experiment","legacy","legacy","legacy","1","undefined","1","left","71","71","0","0","71","71","71","0","0","71","71","71","0","71","0","Sat Oct 21 14:24:46 2023","The main experiment item","True","SternbergTask.osexp","C:\Users\katjo\OneDrive\Desktop","False","mono","False","18","no","white","no","yes","768","legacy","59","11","C:/Users/katjo/OneDrive/Desktop/KEJ-subject-2.csv","legacy","9 8 4","Melodramatic Milgram","4.0.5","1","y","0","left","left","left","left","NA","543.0","1917","8364","543","NA","2","legacy","3","1024","2","48000","-16","experiment","2","even","9","444025","440768","6414","92750","441822","441823","423761","6419","84385","442824","446025","446568","8338","446025","NA","Sternberg Task","38","48717.0","72","1024"
"53","53","671","671","#3d3846","experiment","legacy","legacy","legacy","1","undefined","1","right","72","72","0","0","72","72","72","0","0","72","72","72","0","72","0","Sat Oct 21 14:24:46 2023","The main experiment item","True","SternbergTask.osexp","C:\Users\katjo\OneDrive\Desktop","False","mono","False","18","no","white","no","yes","768","legacy","60","11","C:/Users/katjo/OneDrive/Desktop/KEJ-subject-2.csv","legacy","3 9 8 1 6 4","Melodramatic Milgram","4.0.5","0","n","0","right","left","left","right","NA","333.0","1917","8364","333","NA","2","legacy","6","1024","2","48000","-16","experiment","2","even","7","449845","446596","6414","92750","447644","447645","423761","6419","84385","448645","451845","452179","8338","451845","NA","Sternberg Task","39","49050.0","73","1024"
"52","52","669","669","#3d3846","experiment","legacy","legacy","legacy","0","undefined","0","right","73","73","0","0","73","73","73","0","0","73","73","73","0","73","0","Sat Oct 21 14:24:46 2023","The main experiment item","True","SternbergTask.osexp","C:\Users\katjo\OneDrive\Desktop","False","mono","False","18","no","white","no","yes","768","legacy","61","11","C:/Users/katjo/OneDrive/Desktop/KEJ-subject-2.csv","legacy","6 9 4 5 3 2","Melodramatic Milgram","4.0.5","0","n","0","left","left","left","left","NA","520.0","1917","8364","520","NA","2","legacy","6","1024","2","48000","-16","experiment","2","even","8","455445","452182","6414","92750","453243","453244","423761","6419","84385","454245","457446","457967","8338","457445","NA","Sternberg Task","39","49570.0","74","1024"
"52","52","666","666","#3d3846","experiment","legacy","legacy","legacy","0","undefined","0","left","74","74","0","0","74","74","74","0","0","74","74","74","0","74","0","Sat Oct 21 14:24:46 2023","The main experiment item","True","SternbergTask.osexp","C:\Users\katjo\OneDrive\Desktop","False","mono","False","18","no","white","no","yes","768","legacy","62","11","C:/Users/katjo/OneDrive/Desktop/KEJ-subject-2.csv","legacy","3 2 1 4 7","Melodramatic Milgram","4.0.5","2","y","0","right","left","left","right","NA","423.0","1917","8364","423","NA","2","legacy","5","1024","2","48000","-16","experiment","2","even","2","461225","452182","6414","92750","459023","459024","457972","6419","84385","460024","463225","463649","8338","463225","NA","Sternberg Task","39","49993.0","75","1024"
"52","52","670","670","#3d3846","experiment","legacy","legacy","legacy","1","undefined","1","left","75","75","0","0","75","75","75","0","0","75","75","75","0","75","0","Sat Oct 21 14:24:46 2023","The main experiment item","True","SternbergTask.osexp","C:\Users\katjo\OneDrive\Desktop","False","mono","False","18","no","white","no","yes","768","legacy","63","11","C:/Users/katjo/OneDrive/Desktop/KEJ-subject-2.csv","legacy","9 5 8 1","Melodramatic Milgram","4.0.5","2","y","0","left","left","left","left","NA","966.0","1917","8364","966","NA","2","legacy","4","1024","2","48000","-16","experiment","2","even","5","466903","452182","6414","92750","464700","464701","463654","6419","84385","465702","468905","469872","8338","468904","NA","Sternberg Task","40","50959.0","76","1024"
"51","51","671","671","#3d3846","experiment","legacy","legacy","legacy","0","undefined","0","left","76","76","0","0","76","76","76","0","0","76","76","76","0","76","0","Sat Oct 21 14:24:46 2023","The main experiment item","True","SternbergTask.osexp","C:\Users\katjo\OneDrive\Desktop","False","mono","False","18","no","white","no","yes","768","legacy","64","11","C:/Users/katjo/OneDrive/Desktop/KEJ-subject-2.csv","legacy","7 2 3","Melodramatic Milgram","4.0.5","3","y","0","right","left","left","right","NA","730.0","1917","8364","730","NA","2","legacy","3","1024","2","48000","-16","experiment","2","even","3","473127","469877","6414","92750","470924","470925","463654","6419","84385","471926","475128","475859","8338","475127","NA","Sternberg Task","40","51689.0","77","1024"
"51","51","670","670","#3d3846","experiment","legacy","legacy","legacy","0","undefined","0","right","77","77","0","0","77","77","77","0","0","77","77","77","0","77","0","Sat Oct 21 14:24:46 2023","The main experiment item","True","SternbergTask.osexp","C:\Users\katjo\OneDrive\Desktop","False","mono","False","18","no","white","no","yes","768","legacy","65","11","C:/Users/katjo/OneDrive/Desktop/KEJ-subject-2.csv","legacy","1 4 3 6 5","Melodramatic Milgram","4.0.5","0","n","0","left","left","left","left","NA","598.0","1917","8364","598","NA","2","legacy","5","1024","2","48000","-16","experiment","2","even","8","479111","469877","6414","92750","476910","476911","475863","6419","84385","477911","481113","481712","8338","481113","NA","Sternberg Task","40","52287.0","78","1024"
"51","51","673","673","#3d3846","experiment","legacy","legacy","legacy","1","undefined","1","right","78","78","0","0","78","78","78","0","0","78","78","78","0","78","0","Sat Oct 21 14:24:46 2023","The main experiment item","True","SternbergTask.osexp","C:\Users\katjo\OneDrive\Desktop","False","mono","False","18","no","white","no","yes","768","legacy","66","11","C:/Users/katjo/OneDrive/Desktop/KEJ-subject-2.csv","legacy","7 3 2 8","Melodramatic Milgram","4.0.5","0","n","0","right","left","left","right","NA","914.0","1917","8364","914","NA","2","legacy","4","1024","2","48000","-16","experiment","2","even","4","484957","469877","6414","92750","482756","482756","481720","6419","84385","483756","486957","487872","8338","486957","NA","Sternberg Task","41","53201.0","79","1024"
"51","51","675","675","#3d3846","experiment","legacy","legacy","legacy","0","undefined","0","left","79","79","0","0","79","79","79","0","0","79","79","79","0","79","0","Sat Oct 21 14:24:46 2023","The main experiment item","True","SternbergTask.osexp","C:\Users\katjo\OneDrive\Desktop","False","mono","False","18","no","white","no","yes","768","legacy","67","11","C:/Users/katjo/OneDrive/Desktop/KEJ-subject-2.csv","legacy","8 3","Melodramatic Milgram","4.0.5","2","y","0","right","left","left","right","NA","806.0","1917","8364","806","NA","2","legacy","2","1024","2","48000","-16","experiment","2","even","3","491136","487879","6414","92750","488935","488936","481720","6419","84385","489936","493137","493945","8338","493137","NA","Sternberg Task","41","54007.0","80","1024"
"51","51","677","677","#3d3846","experiment","legacy","legacy","legacy","1","undefined","1","left","80","80","0","0","80","80","80","0","0","80","80","80","0","80","0","Sat Oct 21 14:24:46 2023","The main experiment item","True","SternbergTask.osexp","C:\Users\katjo\OneDrive\Desktop","False","mono","False","18","no","white","no","yes","768","legacy","68","11","C:/Users/katjo/OneDrive/Desktop/KEJ-subject-2.csv","legacy","4 6 5 8","Melodramatic Milgram","4.0.5","1","y","0","left","left","left","left","NA","867.0","1917","8364","867","NA","2","legacy","4","1024","2","48000","-16","experiment","2","even","4","497229","487879","6414","92750","495026","495027","493952","6419","84385","496028","499229","500097","8338","499229","NA","Sternberg Task","42","54874.0","81","1024"
"52","52","672","672","#3d3846","experiment","legacy","legacy","legacy","1","undefined","1","right","81","81","0","0","81","81","81","0","0","81","81","81","0","81","0","Sat Oct 21 14:24:46 2023","The main experiment item","True","SternbergTask.osexp","C:\Users\katjo\OneDrive\Desktop","False","mono","False","18","no","white","no","yes","768","legacy","69","11","C:/Users/katjo/OneDrive/Desktop/KEJ-subject-2.csv","legacy","2 8 6 3 1","Melodramatic Milgram","4.0.5","0","n","0","right","left","left","right","NA","243.0","1917","8364","243","NA","2","legacy","5","1024","2","48000","-16","experiment","2","even","7","503366","500124","6414","92750","501164","501165","493952","6419","84385","502165","505366","505610","8338","505366","NA","Sternberg Task","43","55117.0","82","1024"
"53","53","666","666","#3d3846","experiment","legacy","legacy","legacy","1","undefined","1","left","82","82","0","0","82","82","82","0","0","82","82","82","0","82","0","Sat Oct 21 14:24:46 2023","The main experiment item","True","SternbergTask.osexp","C:\Users\katjo\OneDrive\Desktop","False","mono","False","18","no","white","no","yes","768","legacy","70","11","C:/Users/katjo/OneDrive/Desktop/KEJ-subject-2.csv","legacy","9 3 1 2 5","Melodramatic Milgram","4.0.5","4","y","0","left","left","left","left","NA","179.0","1917","8364","179","NA","2","legacy","5","1024","2","48000","-16","experiment","2","even","2","508875","505618","6414","92750","506672","506674","493952","6419","84385","507675","510875","511056","8338","510875","NA","Sternberg Task","44","55296.0","83","1024"
"52","52","662","662","#3d3846","experiment","legacy","legacy","legacy","0","undefined","0","right","83","83","0","0","83","83","83","0","0","83","83","83","0","83","0","Sat Oct 21 14:24:46 2023","The main experiment item","True","SternbergTask.osexp","C:\Users\katjo\OneDrive\Desktop","False","mono","False","18","no","white","no","yes","768","legacy","71","11","C:/Users/katjo/OneDrive/Desktop/KEJ-subject-2.csv","legacy","2 7 5","Melodramatic Milgram","4.0.5","0","n","0","left","left","left","left","NA","384.0","1917","8364","384","NA","2","legacy","3","1024","2","48000","-16","experiment","2","even","8","514328","511064","6414","92750","512126","512127","493952","6419","84385","513127","516329","516714","8338","516329","NA","Sternberg Task","44","55680.0","84","1024"
"51","51","657","657","#3d3846","experiment","legacy","legacy","legacy","0","undefined","0","left","84","84","0","0","84","84","84","0","0","84","84","84","0","84","0","Sat Oct 21 14:24:46 2023","The main experiment item","True","SternbergTask.osexp","C:\Users\katjo\OneDrive\Desktop","False","mono","False","18","no","white","no","yes","768","legacy","72","11","C:/Users/katjo/OneDrive/Desktop/KEJ-subject-2.csv","legacy","2 5 4 8 7","Melodramatic Milgram","4.0.5","3","y","0","right","left","left","right","NA","224.0","1917","8364","224","NA","2","legacy","5","1024","2","48000","-16","experiment","2","even","4","519969","511064","6414","92750","517767","517768","516719","6419","84385","518768","521969","522194","8338","521969","NA","Sternberg Task","44","55904.0","85","1024"
"52","52","670","670","#3d3846","experiment","legacy","legacy","legacy","1","undefined","1","left","85","85","0","0","85","85","85","0","0","85","85","85","0","85","0","Sat Oct 21 14:24:46 2023","The main experiment item","True","SternbergTask.osexp","C:\Users\katjo\OneDrive\Desktop","False","mono","False","18","no","white","no","yes","768","legacy","73","11","C:/Users/katjo/OneDrive/Desktop/KEJ-subject-2.csv","legacy","2 3 7 4","Melodramatic Milgram","4.0.5","1","y","0","left","left","left","left","NA","1722.0","1917","8364","1722","NA","2","legacy","4","1024","2","48000","-16","experiment","2","even","2","525438","511064","6414","92750","523236","523237","522198","6419","84385","524237","527438","529160","8338","527438","NA","Sternberg Task","45","57626.0","86","1024"
"52","52","672","672","#3d3846","experiment","legacy","legacy","legacy","1","undefined","1","left","86","86","0","0","86","86","86","0","0","86","86","86","0","86","0","Sat Oct 21 14:24:46 2023","The main experiment item","True","SternbergTask.osexp","C:\Users\katjo\OneDrive\Desktop","False","mono","False","18","no","white","no","yes","768","legacy","74","11","C:/Users/katjo/OneDrive/Desktop/KEJ-subject-2.csv","legacy","7 4 2 6 3 5","Melodramatic Milgram","4.0.5","6","y","0","left","left","left","left","NA","856.0","1917","8364","856","NA","2","legacy","6","1024","2","48000","-16","experiment","2","even","5","532411","529169","6414","92750","530209","530210","522198","6419","84385","531210","534413","535270","8338","534413","NA","Sternberg Task","46","58482.0","87","1024"
"52","52","674","674","#3d3846","experiment","legacy","legacy","legacy","0","undefined","0","left","87","87","0","0","87","87","87","0","0","87","87","87","0","87","0","Sat Oct 21 14:24:46 2023","The main experiment item","True","SternbergTask.osexp","C:\Users\katjo\OneDrive\Desktop","False","mono","False","18","no","white","no","yes","768","legacy","75","11","C:/Users/katjo/OneDrive/Desktop/KEJ-subject-2.csv","legacy","3 5 4 7","Melodramatic Milgram","4.0.5","1","y","0","right","left","left","right","NA","866.0","1917","8364","866","NA","2","legacy","4","1024","2","48000","-16","experiment","2","even","3","538529","535278","6414","92750","536327","536328","522198","6419","84385","537328","540530","541397","8338","540530","NA","Sternberg Task","46","59348.0","88","1024"
"52","52","685","685","#3d3846","experiment","legacy","legacy","legacy","1","undefined","1","left","88","88","0","0","88","88","88","0","0","88","88","88","0","88","0","Sat Oct 21 14:24:46 2023","The main experiment item","True","SternbergTask.osexp","C:\Users\katjo\OneDrive\Desktop","False","mono","False","18","no","white","no","yes","768","legacy","76","11","C:/Users/katjo/OneDrive/Desktop/KEJ-subject-2.csv","legacy","4 1 8 7 5","Melodramatic Milgram","4.0.5","3","y","0","left","left","left","left","NA","1648.0","1917","8364","1648","NA","2","legacy","5","1024","2","48000","-16","experiment","2","even","8","544664","535278","6414","92750","542463","542463","541424","6419","84385","543463","546665","548314","8338","546664","NA","Sternberg Task","47","60996.0","89","1024"
"52","52","683","683","#3d3846","experiment","legacy","legacy","legacy","0","undefined","0","right","89","89","0","0","89","89","89","0","0","89","89","89","0","89","0","Sat Oct 21 14:24:46 2023","The main experiment item","True","SternbergTask.osexp","C:\Users\katjo\OneDrive\Desktop","False","mono","False","18","no","white","no","yes","768","legacy","77","11","C:/Users/katjo/OneDrive/Desktop/KEJ-subject-2.csv","legacy","1 7 5 2","Melodramatic Milgram","4.0.5","0","n","0","left","left","left","left","NA","561.0","1917","8364","561","NA","2","legacy","4","1024","2","48000","-16","experiment","2","even","3","551564","548322","6414","92750","549362","549363","541424","6419","84385","550363","553565","554127","8338","553564","NA","Sternberg Task","47","61557.0","90","1024"
"51","51","684","684","#3d3846","experiment","legacy","legacy","legacy","0","undefined","0","left","90","90","0","0","90","90","90","0","0","90","90","90","0","90","0","Sat Oct 21 14:24:46 2023","The main experiment item","True","SternbergTask.osexp","C:\Users\katjo\OneDrive\Desktop","False","mono","False","18","no","white","no","yes","768","legacy","78","11","C:/Users/katjo/OneDrive/Desktop/KEJ-subject-2.csv","legacy","3 9 7 6 4","Melodramatic Milgram","4.0.5","3","y","0","right","left","left","right","NA","777.0","1917","8364","777","NA","2","legacy","5","1024","2","48000","-16","experiment","2","even","7","557375","548322","6414","92750","555173","555174","554135","6419","84385","556174","559375","560153","8338","559375","NA","Sternberg Task","47","62334.0","91","1024"
"51","51","699","699","#3d3846","experiment","legacy","legacy","legacy","0","undefined","0","left","91","91","0","0","91","91","91","0","0","91","91","91","0","91","0","Sat Oct 21 14:24:46 2023","The main experiment item","True","SternbergTask.osexp","C:\Users\katjo\OneDrive\Desktop","False","mono","False","18","no","white","no","yes","768","legacy","79","11","C:/Users/katjo/OneDrive/Desktop/KEJ-subject-2.csv","legacy","8 9 6 1","Melodramatic Milgram","4.0.5","2","y","0","None","left","left","None","NA","2000.0","1917","8364","2000","NA","2","legacy","4","1024","2","48000","-16","experiment","2","even","9","563453","548322","6414","92750","561251","561252","560179","6419","84385","562252","565453","567453","8338","565453","NA","Sternberg Task","47","64334.0","92","1024"
"51","51","694","694","#3d3846","experiment","legacy","legacy","legacy","1","undefined","1","left","92","92","0","0","92","92","92","0","0","92","92","92","0","92","0","Sat Oct 21 14:24:46 2023","The main experiment item","True","SternbergTask.osexp","C:\Users\katjo\OneDrive\Desktop","False","mono","False","18","no","white","no","yes","768","legacy","80","11","C:/Users/katjo/OneDrive/Desktop/KEJ-subject-2.csv","legacy","8 9 5 6 7","Melodramatic Milgram","4.0.5","1","y","0","left","left","left","left","NA","258.0","1917","8364","258","NA","2","legacy","5","1024","2","48000","-16","experiment","2","even","8","570700","548322","6414","92750","568499","568500","567461","6419","84385","569500","572700","572959","8338","572700","NA","Sternberg Task","48","64592.0","93","1024"
"51","51","689","689","#3d3846","experiment","legacy","legacy","legacy","0","undefined","0","right","93","93","0","0","93","93","93","0","0","93","93","93","0","93","0","Sat Oct 21 14:24:46 2023","The main experiment item","True","SternbergTask.osexp","C:\Users\katjo\OneDrive\Desktop","False","mono","False","18","no","white","no","yes","768","legacy","81","11","C:/Users/katjo/OneDrive/Desktop/KEJ-subject-2.csv","legacy","9 8 2 7 4","Melodramatic Milgram","4.0.5","0","n","0","left","left","left","left","NA","177.0","1917","8364","177","NA","2","legacy","5","1024","2","48000","-16","experiment","2","even","5","576217","572967","6414","92750","574015","574016","567461","6419","84385","575017","578217","578396","8338","578217","NA","Sternberg Task","48","64769.0","94","1024"
"51","51","684","684","#3d3846","experiment","legacy","legacy","legacy","1","undefined","1","right","94","94","0","0","94","94","94","0","0","94","94","94","0","94","0","Sat Oct 21 14:24:46 2023","The main experiment item","True","SternbergTask.osexp","C:\Users\katjo\OneDrive\Desktop","False","mono","False","18","no","white","no","yes","768","legacy","82","11","C:/Users/katjo/OneDrive/Desktop/KEJ-subject-2.csv","legacy","7 1 8 4 9 3","Melodramatic Milgram","4.0.5","0","n","0","right","left","left","right","NA","290.0","1917","8364","290","NA","2","legacy","6","1024","2","48000","-16","experiment","2","even","6","581665","572967","6414","92750","579463","579465","578422","6419","84385","580465","583666","583957","8338","583666","NA","Sternberg Task","49","65059.0","95","1024"
"52","52","680","680","#3d3846","experiment","legacy","legacy","legacy","1","undefined","1","right","95","95","0","0","95","95","95","0","0","95","95","95","0","95","0","Sat Oct 21 14:24:46 2023","The main experiment item","True","SternbergTask.osexp","C:\Users\katjo\OneDrive\Desktop","False","mono","False","18","no","white","no","yes","768","legacy","83","11","C:/Users/katjo/OneDrive/Desktop/KEJ-subject-2.csv","legacy","4 2 7 6 1 3","Melodramatic Milgram","4.0.5","0","n","0","right","left","left","right","NA","262.0","1917","8364","262","NA","2","legacy","6","1024","2","48000","-16","experiment","2","even","8","587219","583965","6414","92750","585017","585018","578422","6419","84385","586018","589219","589483","8338","589219","NA","Sternberg Task","50","65321.0","96","1024"
"52","52","681","681","#3d3846","experiment","legacy","legacy","legacy","1","undefined","1","left","96","96","0","0","96","96","96","0","0","96","96","96","0","96","0","Sat Oct 21 14:24:46 2023","The main experiment item","True","SternbergTask.osexp","C:\Users\katjo\OneDrive\Desktop","False","mono","False","18","no","white","no","yes","768","legacy","84","11","C:/Users/katjo/OneDrive/Desktop/KEJ-subject-2.csv","legacy","5 7 8 2 3 8","Melodramatic Milgram","4.0.5","5","y","0","left","left","left","left","NA","769.0","1917","8364","769","NA","2","legacy","6","1024","2","48000","-16","experiment","2","even","3","592729","589486","6414","92750","590526","590527","578422","6419","84385","591528","594729","595499","8338","594729","NA","Sternberg Task","51","66090.0","97","1024"
"52","52","680","680","#3d3846","experiment","legacy","legacy","legacy","0","undefined","0","right","97","97","0","0","97","97","97","0","0","97","97","97","0","97","0","Sat Oct 21 14:24:46 2023","The main experiment item","True","SternbergTask.osexp","C:\Users\katjo\OneDrive\Desktop","False","mono","False","18","no","white","no","yes","768","legacy","85","11","C:/Users/katjo/OneDrive/Desktop/KEJ-subject-2.csv","legacy","8 5 7 3 6","Melodramatic Milgram","4.0.5","0","n","0","left","left","left","left","NA","603.0","1917","8364","603","NA","2","legacy","5","1024","2","48000","-16","experiment","2","even","9","598762","595507","6414","92750","596560","596561","578422","6419","84385","597561","600762","601366","8338","600762","NA","Sternberg Task","51","66693.0","98","1024"
"51","51","679","679","#3d3846","experiment","legacy","legacy","legacy","0","undefined","0","right","98","98","0","0","98","98","98","0","0","98","98","98","0","98","0","Sat Oct 21 14:24:46 2023","The main experiment item","True","SternbergTask.osexp","C:\Users\katjo\OneDrive\Desktop","False","mono","False","18","no","white","no","yes","768","legacy","86","11","C:/Users/katjo/OneDrive/Desktop/KEJ-subject-2.csv","legacy","7 8 6 1","Melodramatic Milgram","4.0.5","0","n","0","left","left","left","left","NA","552.0","1917","8364","552","NA","2","legacy","4","1024","2","48000","-16","experiment","2","even","3","604643","595507","6414","92750","602441","602442","601393","6419","84385","603442","606644","607197","8338","606644","NA","Sternberg Task","51","67245.0","99","1024"
"51","51","684","684","#3d3846","experiment","legacy","legacy","legacy","0","undefined","0","left","99","99","0","0","99","99","99","0","0","99","99","99","0","99","0","Sat Oct 21 14:24:46 2023","The main experiment item","True","SternbergTask.osexp","C:\Users\katjo\OneDrive\Desktop","False","mono","False","18","no","white","no","yes","768","legacy","87","11","C:/Users/katjo/OneDrive/Desktop/KEJ-subject-2.csv","legacy","6 5","Melodramatic Milgram","4.0.5","2","y","0","right","left","left","right","NA","1163.0","1917","8364","1163","NA","2","legacy","2","1024","2","48000","-16","experiment","2","even","5","610462","595507","6414","92750","608258","608259","607205","6419","84385","609260","612463","613627","8338","612463","NA","Sternberg Task","51","68408.0","100","1024"
"51","51","687","687","#3d3846","experiment","legacy","legacy","legacy","1","undefined","1","left","100","100","0","0","100","100","100","0","0","100","100","100","0","100","0","Sat Oct 21 14:24:46 2023","The main experiment item","True","SternbergTask.osexp","C:\Users\katjo\OneDrive\Desktop","False","mono","False","18","no","white","no","yes","768","legacy","88","11","C:/Users/katjo/OneDrive/Desktop/KEJ-subject-2.csv","legacy","6 9 7 4 5 1","Melodramatic Milgram","4.0.5","2","y","0","left","left","left","left","NA","1065.0","1917","8364","1065","NA","2","legacy","6","1024","2","48000","-16","experiment","2","even","9","616893","595507","6414","92750","614690","614691","613635","6419","84385","615692","618894","619960","8338","618893","NA","Sternberg Task","52","69473.0","101","1024"
"51","51","685","685","#3d3846","experiment","legacy","legacy","legacy","1","undefined","1","right","101","101","0","0","101","101","101","0","0","101","101","101","0","101","0","Sat Oct 21 14:24:46 2023","The main experiment item","True","SternbergTask.osexp","C:\Users\katjo\OneDrive\Desktop","False","mono","False","18","no","white","no","yes","768","legacy","89","11","C:/Users/katjo/OneDrive/Desktop/KEJ-subject-2.csv","legacy","8 2 1 4 5 9","Melodramatic Milgram","4.0.5","0","n","0","right","left","left","right","NA","475.0","1917","8364","475","NA","2","legacy","6","1024","2","48000","-16","experiment","2","even","7","623206","619968","6414","92750","621005","621006","613635","6419","84385","622006","625206","625682","8338","625206","NA","Sternberg Task","53","69948.0","102","1024"
"51","51","682","682","#3d3846","experiment","legacy","legacy","legacy","0","undefined","0","right","102","102","0","0","102","102","102","0","0","102","102","102","0","102","0","Sat Oct 21 14:24:46 2023","The main experiment item","True","SternbergTask.osexp","C:\Users\katjo\OneDrive\Desktop","False","mono","False","18","no","white","no","yes","768","legacy","90","11","C:/Users/katjo/OneDrive/Desktop/KEJ-subject-2.csv","legacy","1","Melodramatic Milgram","4.0.5","0","n","0","left","left","left","left","NA","388.0","1917","8364","388","NA","2","legacy","1","1024","2","48000","-16","experiment","2","even","7","628945","625690","6414","92750","626743","626744","613635","6419","84385","627744","630946","631335","8338","630946","NA","Sternberg Task","53","70336.0","103","1024"
"51","51","690","690","#3d3846","experiment","legacy","legacy","legacy","1","undefined","1","right","103","103","0","0","103","103","103","0","0","103","103","103","0","103","0","Sat Oct 21 14:24:46 2023","The main experiment item","True","SternbergTask.osexp","C:\Users\katjo\OneDrive\Desktop","False","mono","False","18","no","white","no","yes","768","legacy","91","11","C:/Users/katjo/OneDrive/Desktop/KEJ-subject-2.csv","legacy","7 6 4 8 1 2","Melodramatic Milgram","4.0.5","0","n","0","right","left","left","right","NA","1429.0","1917","8364","1429","NA","2","legacy","6","1024","2","48000","-16","experiment","2","even","9","634601","625690","6414","92750","632399","632399","631362","6419","84385","633400","636601","638031","8338","636601","NA","Sternberg Task","54","71765.0","104","1024"
"51","51","684","684","#3d3846","experiment","legacy","legacy","legacy","0","undefined","0","right","104","104","0","0","104","104","104","0","0","104","104","104","0","104","0","Sat Oct 21 14:24:46 2023","The main experiment item","True","SternbergTask.osexp","C:\Users\katjo\OneDrive\Desktop","False","mono","False","18","no","white","no","yes","768","legacy","92","11","C:/Users/katjo/OneDrive/Desktop/KEJ-subject-2.csv","legacy","1 5 3 2 8","Melodramatic Milgram","4.0.5","0","n","0","left","left","left","left","NA","106.0","1917","8364","106","NA","2","legacy","5","1024","2","48000","-16","experiment","2","even","4","641283","638040","6414","92750","639081","639082","631362","6419","84385","640082","643283","643390","8338","643283","NA","Sternberg Task","54","71871.0","105","1024"
"50","50","691","691","#3d3846","experiment","legacy","legacy","legacy","0","undefined","0","right","105","105","0","0","105","105","105","0","0","105","105","105","0","105","0","Sat Oct 21 14:24:46 2023","The main experiment item","True","SternbergTask.osexp","C:\Users\katjo\OneDrive\Desktop","False","mono","False","18","no","white","no","yes","768","legacy","93","11","C:/Users/katjo/OneDrive/Desktop/KEJ-subject-2.csv","legacy","5 3 8 7 2 4","Melodramatic Milgram","4.0.5","0","n","0","left","left","left","left","NA","1424.0","1917","8364","1424","NA","2","legacy","6","1024","2","48000","-16","experiment","2","even","9","646640","638040","6414","92750","644437","644439","643397","6419","84385","645439","648641","650066","8338","648641","NA","Sternberg Task","54","73295.0","106","1024"
"50","50","686","686","#3d3846","experiment","legacy","legacy","legacy","0","undefined","0","left","106","106","0","0","106","106","106","0","0","106","106","106","0","106","0","Sat Oct 21 14:24:46 2023","The main experiment item","True","SternbergTask.osexp","C:\Users\katjo\OneDrive\Desktop","False","mono","False","18","no","white","no","yes","768","legacy","94","11","C:/Users/katjo/OneDrive/Desktop/KEJ-subject-2.csv","legacy","8 5 1 3 9","Melodramatic Milgram","4.0.5","4","y","0","right","left","left","right","NA","181.0","1917","8364","181","NA","2","legacy","5","1024","2","48000","-16","experiment","2","even","3","653323","638040","6414","92750","651121","651122","650074","6419","84385","652122","655323","655505","8338","655323","NA","Sternberg Task","54","73476.0","107","1024"
"50","50","684","684","#3d3846","experiment","legacy","legacy","legacy","0","undefined","0","right","107","107","0","0","107","107","107","0","0","107","107","107","0","107","0","Sat Oct 21 14:24:46 2023","The main experiment item","True","SternbergTask.osexp","C:\Users\katjo\OneDrive\Desktop","False","mono","False","18","no","white","no","yes","768","legacy","95","11","C:/Users/katjo/OneDrive/Desktop/KEJ-subject-2.csv","legacy","4 2 6 9","Melodramatic Milgram","4.0.5","0","n","0","left","left","left","left","NA","439.0","1917","8364","439","NA","2","legacy","4","1024","2","48000","-16","experiment","2","even","7","658771","638040","6414","92750","656568","656569","655513","6419","84385","657570","660771","661211","8338","660771","NA","Sternberg Task","54","73915.0","108","1024"
"49","49","685","685","#3d3846","experiment","legacy","legacy","legacy","0","undefined","0","left","108","108","0","0","108","108","108","0","0","108","108","108","0","108","0","Sat Oct 21 14:24:46 2023","The main experiment item","True","SternbergTask.osexp","C:\Users\katjo\OneDrive\Desktop","False","mono","False","18","no","white","no","yes","768","legacy","96","11","C:/Users/katjo/OneDrive/Desktop/KEJ-subject-2.csv","legacy","4 9 7 8 5 3","Melodramatic Milgram","4.0.5","4","y","0","right","left","left","right","NA","831.0","1917","8364","831","NA","2","legacy","6","1024","2","48000","-16","experiment","2","even","8","664460","638040","6414","92750","662258","662259","661218","6419","84385","663259","666461","667293","8338","666461","NA","Sternberg Task","54","74746.0","109","1024"
"50","50","685","685","#3d3846","experiment","legacy","legacy","legacy","1","undefined","1","left","109","109","0","0","109","109","109","0","0","109","109","109","0","109","0","Sat Oct 21 14:24:46 2023","The main experiment item","True","SternbergTask.osexp","C:\Users\katjo\OneDrive\Desktop","False","mono","False","18","no","white","no","yes","768","legacy","97","11","C:/Users/katjo/OneDrive/Desktop/KEJ-subject-2.csv","legacy","6 7 8 5","Melodramatic Milgram","4.0.5","3","y","0","left","left","left","left","NA","666.0","1917","8364","666","NA","2","legacy","4","1024","2","48000","-16","experiment","2","even","8","670560","638040","6414","92750","668358","668359","667319","6419","84385","669359","672561","673228","8338","672560","NA","Sternberg Task","55","75412.0","110","1024"
"49","49","686","686","#3d3846","experiment","legacy","legacy","legacy","0","undefined","0","right","110","110","0","0","110","110","110","0","0","110","110","110","0","110","0","Sat Oct 21 14:24:46 2023","The main experiment item","True","SternbergTask.osexp","C:\Users\katjo\OneDrive\Desktop","False","mono","False","18","no","white","no","yes","768","legacy","98","11","C:/Users/katjo/OneDrive/Desktop/KEJ-subject-2.csv","legacy","5 2","Melodramatic Milgram","4.0.5","0","n","0","left","left","left","left","NA","744.0","1917","8364","744","NA","2","legacy","2","1024","2","48000","-16","experiment","2","even","7","676497","673255","6414","92750","674295","674296","667319","6419","84385","675296","678498","679244","8338","678498","NA","Sternberg Task","55","76156.0","111","1024"
"49","49","684","684","#3d3846","experiment","legacy","legacy","legacy","0","undefined","0","left","111","111","0","0","111","111","111","0","0","111","111","111","0","111","0","Sat Oct 21 14:24:46 2023","The main experiment item","True","SternbergTask.osexp","C:\Users\katjo\OneDrive\Desktop","False","mono","False","18","no","white","no","yes","768","legacy","99","11","C:/Users/katjo/OneDrive/Desktop/KEJ-subject-2.csv","legacy","5 2 6","Melodramatic Milgram","4.0.5","2","y","0","right","left","left","right","NA","508.0","1917","8364","508","NA","2","legacy","3","1024","2","48000","-16","experiment","2","even","2","682493","673255","6414","92750","680290","680291","679252","6419","84385","681292","684494","685003","8338","684493","NA","Sternberg Task","55","76664.0","112","1024"
"49","49","684","684","#3d3846","experiment","legacy","legacy","legacy","1","undefined","1","left","112","112","0","0","112","112","112","0","0","112","112","112","0","112","0","Sat Oct 21 14:24:46 2023","The main experiment item","True","SternbergTask.osexp","C:\Users\katjo\OneDrive\Desktop","False","mono","False","18","no","white","no","yes","768","legacy","100","11","C:/Users/katjo/OneDrive/Desktop/KEJ-subject-2.csv","legacy","8 9 5 7 1 6","Melodramatic Milgram","4.0.5","4","y","0","left","left","left","left","NA","638.0","1917","8364","638","NA","2","legacy","6","1024","2","48000","-16","experiment","2","even","7","688250","673255","6414","92750","686047","686048","685010","6419","84385","687049","690250","690889","8338","690250","NA","Sternberg Task","56","77302.0","113","1024"
"49","49","683","683","#3d3846","experiment","legacy","legacy","legacy","0","undefined","0","left","113","113","0","0","113","113","113","0","0","113","113","113","0","113","0","Sat Oct 21 14:24:46 2023","The main experiment item","True","SternbergTask.osexp","C:\Users\katjo\OneDrive\Desktop","False","mono","False","18","no","white","no","yes","768","legacy","101","11","C:/Users/katjo/OneDrive/Desktop/KEJ-subject-2.csv","legacy","6 1 2","Melodramatic Milgram","4.0.5","3","y","0","right","left","left","right","NA","566.0","1917","8364","566","NA","2","legacy","3","1024","2","48000","-16","experiment","2","even","2","694146","690894","6414","92750","691944","691945","685010","6419","84385","692945","696146","696713","8338","696146","NA","Sternberg Task","56","77868.0","114","1024"
"48","48","679","679","#3d3846","experiment","legacy","legacy","legacy","0","undefined","0","right","114","114","0","0","114","114","114","0","0","114","114","114","0","114","0","Sat Oct 21 14:24:46 2023","The main experiment item","True","SternbergTask.osexp","C:\Users\katjo\OneDrive\Desktop","False","mono","False","18","no","white","no","yes","768","legacy","102","11","C:/Users/katjo/OneDrive/Desktop/KEJ-subject-2.csv","legacy","2 5 1 4","Melodramatic Milgram","4.0.5","0","n","0","left","left","left","left","NA","260.0","1917","8364","260","NA","2","legacy","4","1024","2","48000","-16","experiment","2","even","6","699977","690894","6414","92750","697775","697776","696721","6419","84385","698776","701978","702239","8338","701978","NA","Sternberg Task","56","78128.0","115","1024"
"49","49","676","676","#3d3846","experiment","legacy","legacy","legacy","1","undefined","1","left","115","115","0","0","115","115","115","0","0","115","115","115","0","115","0","Sat Oct 21 14:24:46 2023","The main experiment item","True","SternbergTask.osexp","C:\Users\katjo\OneDrive\Desktop","False","mono","False","18","no","white","no","yes","768","legacy","103","11","C:/Users/katjo/OneDrive/Desktop/KEJ-subject-2.csv","legacy","9 1 6 7 8","Melodramatic Milgram","4.0.5","1","y","0","left","left","left","left","NA","399.0","1917","8364","399","NA","2","legacy","5","1024","2","48000","-16","experiment","2","even","9","705486","690894","6414","92750","703285","703286","702246","6419","84385","704286","707486","707887","8338","707486","NA","Sternberg Task","57","78527.0","116","1024"
"48","48","673","673","#3d3846","experiment","legacy","legacy","legacy","0","undefined","0","left","116","116","0","0","116","116","116","0","0","116","116","116","0","116","0","Sat Oct 21 14:24:46 2023","The main experiment item","True","SternbergTask.osexp","C:\Users\katjo\OneDrive\Desktop","False","mono","False","18","no","white","no","yes","768","legacy","104","11","C:/Users/katjo/OneDrive/Desktop/KEJ-subject-2.csv","legacy","9 3 8 2 1 4","Melodramatic Milgram","4.0.5","3","y","0","right","left","left","right","NA","257.0","1917","8364","257","NA","2","legacy","6","1024","2","48000","-16","experiment","2","even","8","711142","707894","6414","92750","708939","708940","702246","6419","84385","709941","713142","713401","8338","713142","NA","Sternberg Task","57","78784.0","117","1024"
"49","49","671","671","#3d3846","experiment","legacy","legacy","legacy","1","undefined","1","left","117","117","0","0","117","117","117","0","0","117","117","117","0","117","0","Sat Oct 21 14:24:46 2023","The main experiment item","True","SternbergTask.osexp","C:\Users\katjo\OneDrive\Desktop","False","mono","False","18","no","white","no","yes","768","legacy","105","11","C:/Users/katjo/OneDrive/Desktop/KEJ-subject-2.csv","legacy","3 4 9 6 2 9","Melodramatic Milgram","4.0.5","5","y","0","left","left","left","left","NA","476.0","1917","8364","476","NA","2","legacy","6","1024","2","48000","-16","experiment","2","even","2","716655","707894","6414","92750","714453","714454","713404","6419","84385","715454","718656","719133","8338","718655","NA","Sternberg Task","58","79260.0","118","1024"
"49","49","668","668","#3d3846","experiment","legacy","legacy","legacy","1","undefined","1","right","118","118","0","0","118","118","118","0","0","118","118","118","0","118","0","Sat Oct 21 14:24:46 2023","The main experiment item","True","SternbergTask.osexp","C:\Users\katjo\OneDrive\Desktop","False","mono","False","18","no","white","no","yes","768","legacy","106","11","C:/Users/katjo/OneDrive/Desktop/KEJ-subject-2.csv","legacy","1 3 2 6 9","Melodramatic Milgram","4.0.5","0","n","0","right","left","left","right","NA","286.0","1917","8364","286","NA","2","legacy","5","1024","2","48000","-16","experiment","2","even","5","722380","719138","6414","92750","720177","720178","713404","6419","84385","721179","724380","724667","8338","724380","NA","Sternberg Task","59","79546.0","119","1024"
"49","49","665","665","#3d3846","experiment","legacy","legacy","legacy","0","undefined","0","right","119","119","0","0","119","119","119","0","0","119","119","119","0","119","0","Sat Oct 21 14:24:46 2023","The main experiment item","True","SternbergTask.osexp","C:\Users\katjo\OneDrive\Desktop","False","mono","False","18","no","white","no","yes","768","legacy","107","11","C:/Users/katjo/OneDrive/Desktop/KEJ-subject-2.csv","legacy","3 4 9 6 7 8","Melodramatic Milgram","4.0.5","0","n","0","left","left","left","left","NA","348.0","1917","8364","348","NA","2","legacy","6","1024","2","48000","-16","experiment","2","even","2","727913","724672","6414","92750","725712","725712","713404","6419","84385","726712","729914","730263","8338","729914","NA","Sternberg Task","59","79894.0","120","1024"
"48","48","674","674","#3d3846","experiment","legacy","legacy","legacy","0","undefined","0","left","120","120","0","0","120","120","120","0","0","120","120","120","0","120","0","Sat Oct 21 14:24:46 2023","The main experiment item","True","SternbergTask.osexp","C:\Users\katjo\OneDrive\Desktop","False","mono","False","18","no","white","no","yes","768","legacy","108","11","C:/Users/katjo/OneDrive/Desktop/KEJ-subject-2.csv","legacy","9 5 3 8 4","Melodramatic Milgram","4.0.5","1","y","0","right","left","left","right","NA","1740.0","1917","8364","1740","NA","2","legacy","5","1024","2","48000","-16","experiment","2","even","9","733516","724672","6414","92750","731313","731314","730271","6419","84385","732314","735516","737258","8338","735516","NA","Sternberg Task","59","81634.0","121","1024"
"49","49","682","682","#3d3846","experiment","legacy","legacy","legacy","1","undefined","1","right","121","121","0","0","121","121","121","0","0","121","121","121","0","121","0","Sat Oct 21 14:24:46 2023","The main experiment item","True","SternbergTask.osexp","C:\Users\katjo\OneDrive\Desktop","False","mono","False","18","no","white","no","yes","768","legacy","109","11","C:/Users/katjo/OneDrive/Desktop/KEJ-subject-2.csv","legacy","8 5 4 2 9 6","Melodramatic Milgram","4.0.5","0","n","0","right","left","left","right","NA","1581.0","1917","8364","1581","NA","2","legacy","6","1024","2","48000","-16","experiment","2","even","3","740513","724672","6414","92750","738310","738311","737265","6419","84385","739311","742513","744095","8338","742513","NA","Sternberg Task","60","83215.0","122","1024"
"49","49","679","679","#3d3846","experiment","legacy","legacy","legacy","1","undefined","1","left","122","122","0","0","122","122","122","0","0","122","122","122","0","122","0","Sat Oct 21 14:24:46 2023","The main experiment item","True","SternbergTask.osexp","C:\Users\katjo\OneDrive\Desktop","False","mono","False","18","no","white","no","yes","768","legacy","110","11","C:/Users/katjo/OneDrive/Desktop/KEJ-subject-2.csv","legacy","6 8 9 3 4 9","Melodramatic Milgram","4.0.5","5","y","0","left","left","left","left","NA","339.0","1917","8364","339","NA","2","legacy","6","1024","2","48000","-16","experiment","2","even","4","747364","744122","6414","92750","745161","745162","737265","6419","84385","746163","749365","749706","8338","749365","NA","Sternberg Task","61","83554.0","123","1024"
"49","49","675","675","#3d3846","experiment","legacy","legacy","legacy","0","undefined","0","left","123","123","0","0","123","123","123","0","0","123","123","123","0","123","0","Sat Oct 21 14:24:46 2023","The main experiment item","True","SternbergTask.osexp","C:\Users\katjo\OneDrive\Desktop","False","mono","False","18","no","white","no","yes","768","legacy","111","11","C:/Users/katjo/OneDrive/Desktop/KEJ-subject-2.csv","legacy","7 6","Melodramatic Milgram","4.0.5","2","y","0","right","left","left","right","NA","224.0","1917","8364","224","NA","2","legacy","2","1024","2","48000","-16","experiment","2","even","6","752954","749715","6414","92750","750752","750753","737265","6419","84385","751754","754957","755182","8338","754956","NA","Sternberg Task","61","83778.0","124","1024"
"48","48","674","674","#3d3846","experiment","legacy","legacy","legacy","0","undefined","0","right","124","124","0","0","124","124","124","0","0","124","124","124","0","124","0","Sat Oct 21 14:24:46 2023","The main experiment item","True","SternbergTask.osexp","C:\Users\katjo\OneDrive\Desktop","False","mono","False","18","no","white","no","yes","768","legacy","112","11","C:/Users/katjo/OneDrive/Desktop/KEJ-subject-2.csv","legacy","5 9 2 3","Melodramatic Milgram","4.0.5","0","n","0","left","left","left","left","NA","589.0","1917","8364","589","NA","2","legacy","4","1024","2","48000","-16","experiment","2","even","8","758439","749715","6414","92750","756237","756238","755190","6419","84385","757238","760440","761031","8338","760439","NA","Sternberg Task","61","84367.0","125","1024"
