"acc","accuracy","average_response_time","avg_rt","background","block","canvas_backend","clock_backend","color_backend","compensation","coordinates","correct","correct_instruction1","correct_keyboard_response","correct_response","count_ISI","count_correctFeedback","count_expSequence","count_experiment","count_experimentLoop","count_fixation","count_incorrectFeedback","count_instruction1","count_instructions2","count_keyboard_response","count_memorySet","count_new_logger","count_practiceLoop","count_probe","count_thankYou","datetime","description","disable_garbage_collection","experiment_file","experiment_path","expyriment_opengl","font_bold","font_family","font_italic","font_size","font_underline","foreground","form_clicks","fullscreen","height","keyboard_backend","live_row","live_row_practiceLoop","logfile","mouse_backend","numberSet","opensesame_codename","opensesame_version","posInSet","present","repeat_cycle","response","response_instruction1","response_instructions2","response_keyboard_response","response_thankYou","response_time","response_time_instruction1","response_time_instructions2","response_time_keyboard_response","response_time_thankYou","round_decimals","sampler_backend","setSize","sound_buf_size","sound_channels","sound_freq","sound_sample_size","start","subject_nr","subject_parity","target","time_ISI","time_correctFeedback","time_expSequence","time_experiment","time_experimentLoop","time_fixation","time_incorrectFeedback","time_instruction1","time_instructions2","time_keyboard_response","time_memorySet","time_new_logger","time_practiceLoop","time_probe","time_thankYou","title","total_correct","total_response_time","total_responses","uniform_coordinates","width"
"0","0","2000","2000","black","practice","legacy","legacy","legacy","0","uniform","0","undefined","0","left","0","0","0","0","0","0","0","0","0","0","0","0","0","0","0","10/22/21 17:59:02","The main experiment item","yes","Sternbergtask.osexp","C:\Users\Brian\Desktop\College - Graduate\Graduate Work\Advanced Quant\Lab 3","yes","no","mono","no","18","no","white","no","yes","768","legacy","0","0","C:/Users/Brian/Desktop/College - Graduate/Graduate Work/Advanced Quant/Lab 3/BK-subject-3.csv","legacy","4 3 1 7 9 8","Kafkaesque Koffka","3.2.8","1","y","0","None","right","NA","None","NA","2000","32449","NA","2000","NA","2","legacy","6","1024","2","48000","-16","experiment","3","odd","4","43850","NA","41641","4117","NA","41644","NA","4129","NA","45853","42647","47853","36580","45853","NA","Sternberg task","0","2000","1","yes","1024"
"0","0","1339","1339","black","practice","legacy","legacy","legacy","0","uniform","0","undefined","0","left","1","1","1","0","0","1","1","0","0","1","1","1","0","1","0","10/22/21 17:59:02","The main experiment item","yes","Sternbergtask.osexp","C:\Users\Brian\Desktop\College - Graduate\Graduate Work\Advanced Quant\Lab 3","yes","no","mono","no","18","no","white","no","yes","768","legacy","1","1","C:/Users/Brian/Desktop/College - Graduate/Graduate Work/Advanced Quant/Lab 3/BK-subject-3.csv","legacy","4 8","Kafkaesque Koffka","3.2.8","1","y","0","right","right","NA","right","NA","678","32449","NA","678","NA","2","legacy","2","1024","2","48000","-16","experiment","3","odd","4","51326","NA","49117","4117","NA","49120","47938","4129","NA","53330","50123","54009","36580","53329","NA","Sternberg task","0","2678","2","yes","1024"
"0","0","1278.66666667","1278.66666667","black","practice","legacy","legacy","legacy","0","uniform","0","undefined","0","left","2","2","2","0","0","2","2","0","0","2","2","2","0","2","0","10/22/21 17:59:02","The main experiment item","yes","Sternbergtask.osexp","C:\Users\Brian\Desktop\College - Graduate\Graduate Work\Advanced Quant\Lab 3","yes","no","mono","no","18","no","white","no","yes","768","legacy","2","2","C:/Users/Brian/Desktop/College - Graduate/Graduate Work/Advanced Quant/Lab 3/BK-subject-3.csv","legacy","1 5 2 9","Kafkaesque Koffka","3.2.8","2","y","0","right","right","NA","right","NA","1158","32449","NA","1158","NA","2","legacy","4","1024","2","48000","-16","experiment","3","odd","5","57413","NA","55204","4117","NA","55207","54016","4129","NA","59417","56210","60576","36580","59416","NA","Sternberg task","0","3836","3","yes","1024"
"0","0","1057.5","1057.5","black","practice","legacy","legacy","legacy","0","uniform","0","undefined","0","right","3","3","3","0","0","3","3","0","0","3","3","3","0","3","0","10/22/21 17:59:02","The main experiment item","yes","Sternbergtask.osexp","C:\Users\Brian\Desktop\College - Graduate\Graduate Work\Advanced Quant\Lab 3","yes","no","mono","no","18","no","white","no","yes","768","legacy","3","3","C:/Users/Brian/Desktop/College - Graduate/Graduate Work/Advanced Quant/Lab 3/BK-subject-3.csv","legacy","9 6 7 4 5","Kafkaesque Koffka","3.2.8","0","n","0","left","right","NA","left","NA","394","32449","NA","394","NA","2","legacy","5","1024","2","48000","-16","experiment","3","odd","3","63959","NA","61749","4117","NA","61752","60589","4129","NA","65962","62756","66357","36580","65962","NA","Sternberg task","0","4230","4","yes","1024"
"0","0","1120.6","1120.6","black","practice","legacy","legacy","legacy","0","uniform","0","undefined","0","right","4","4","4","0","0","4","4","0","0","4","4","4","0","4","0","10/22/21 17:59:02","The main experiment item","yes","Sternbergtask.osexp","C:\Users\Brian\Desktop\College - Graduate\Graduate Work\Advanced Quant\Lab 3","yes","no","mono","no","18","no","white","no","yes","768","legacy","4","4","C:/Users/Brian/Desktop/College - Graduate/Graduate Work/Advanced Quant/Lab 3/BK-subject-3.csv","legacy","4 1 5","Kafkaesque Koffka","3.2.8","0","n","0","left","right","NA","left","NA","1373","32449","NA","1373","NA","2","legacy","3","1024","2","48000","-16","experiment","3","odd","2","69735","NA","67526","4117","NA","67529","66362","4129","NA","71740","68532","73114","36580","71739","NA","Sternberg task","0","5603","5","yes","1024"
"16.6666666667","16.6666666667","1193.66666667","1193.66666667","black","practice","legacy","legacy","legacy","0","uniform","1","undefined","1","left","5","5","5","0","0","5","5","0","0","5","5","5","0","5","0","10/22/21 17:59:02","The main experiment item","yes","Sternbergtask.osexp","C:\Users\Brian\Desktop\College - Graduate\Graduate Work\Advanced Quant\Lab 3","yes","no","mono","no","18","no","white","no","yes","768","legacy","5","5","C:/Users/Brian/Desktop/College - Graduate/Graduate Work/Advanced Quant/Lab 3/BK-subject-3.csv","legacy","2 9 4","Kafkaesque Koffka","3.2.8","3","y","0","left","right","NA","left","NA","1559","32449","NA","1559","NA","2","legacy","3","1024","2","48000","-16","experiment","3","odd","4","76496","NA","74287","4117","NA","74290","73125","4129","NA","78500","75293","80060","36580","78499","NA","Sternberg task","1","7162","6","yes","1024"
"28.5714285714","28.5714285714","1198","1198","black","practice","legacy","legacy","legacy","0","uniform","1","undefined","1","right","6","6","6","0","0","6","6","0","0","6","6","6","0","6","0","10/22/21 17:59:02","The main experiment item","yes","Sternbergtask.osexp","C:\Users\Brian\Desktop\College - Graduate\Graduate Work\Advanced Quant\Lab 3","yes","no","mono","no","18","no","white","no","yes","768","legacy","6","6","C:/Users/Brian/Desktop/College - Graduate/Graduate Work/Advanced Quant/Lab 3/BK-subject-3.csv","legacy","3 1 9 4","Kafkaesque Koffka","3.2.8","0","n","0","right","right","NA","right","NA","1224","32449","NA","1224","NA","2","legacy","4","1024","2","48000","-16","experiment","3","odd","6","83434","80069","81225","4117","NA","81228","73125","4129","NA","85437","82231","86662","36580","85437","NA","Sternberg task","2","8386","7","yes","1024"
"37.5","37.5","1179.625","1179.625","black","practice","legacy","legacy","legacy","0","uniform","1","undefined","1","left","7","7","7","0","0","7","7","0","0","7","7","7","0","7","0","10/22/21 17:59:02","The main experiment item","yes","Sternbergtask.osexp","C:\Users\Brian\Desktop\College - Graduate\Graduate Work\Advanced Quant\Lab 3","yes","no","mono","no","18","no","white","no","yes","768","legacy","7","7","C:/Users/Brian/Desktop/College - Graduate/Graduate Work/Advanced Quant/Lab 3/BK-subject-3.csv","legacy","1 7 9 8 5","Kafkaesque Koffka","3.2.8","4","y","0","left","right","NA","left","NA","1051","32449","NA","1051","NA","2","legacy","5","1024","2","48000","-16","experiment","3","odd","8","90030","86672","87821","4117","NA","87824","73125","4129","NA","92033","88827","93085","36580","92033","NA","Sternberg task","3","9437","8","yes","1024"
"44.4444444444","44.4444444444","1112.55555556","1112.55555556","black","practice","legacy","legacy","legacy","0","uniform","1","undefined","1","right","8","8","8","0","0","8","8","0","0","8","8","8","0","8","0","10/22/21 17:59:02","The main experiment item","yes","Sternbergtask.osexp","C:\Users\Brian\Desktop\College - Graduate\Graduate Work\Advanced Quant\Lab 3","yes","no","mono","no","18","no","white","no","yes","768","legacy","8","8","C:/Users/Brian/Desktop/College - Graduate/Graduate Work/Advanced Quant/Lab 3/BK-subject-3.csv","legacy","2 1","Kafkaesque Koffka","3.2.8","0","n","0","right","right","NA","right","NA","576","32449","NA","576","NA","2","legacy","2","1024","2","48000","-16","experiment","3","odd","5","96459","93093","94250","4117","NA","94253","73125","4129","NA","98462","95256","99039","36580","98462","NA","Sternberg task","4","10013","9","yes","1024"
"50","50","1013.8","1013.8","black","practice","legacy","legacy","legacy","0","uniform","1","undefined","1","left","9","9","9","0","0","9","9","0","0","9","9","9","0","9","0","10/22/21 17:59:02","The main experiment item","yes","Sternbergtask.osexp","C:\Users\Brian\Desktop\College - Graduate\Graduate Work\Advanced Quant\Lab 3","yes","no","mono","no","18","no","white","no","yes","768","legacy","9","9","C:/Users/Brian/Desktop/College - Graduate/Graduate Work/Advanced Quant/Lab 3/BK-subject-3.csv","legacy","6","Kafkaesque Koffka","3.2.8","1","y","0","left","right","NA","left","NA","125","32449","NA","125","NA","2","legacy","1","1024","2","48000","-16","experiment","3","odd","6","102406","99050","100198","4117","NA","100201","73125","4129","NA","104409","101204","104535","36580","104409","NA","Sternberg task","5","10138","10","yes","1024"
"45.4545454545","45.4545454545","1042.45454545","1042.45454545","black","practice","legacy","legacy","legacy","0","uniform","0","undefined","0","right","10","10","10","0","0","10","10","0","0","10","10","10","0","10","0","10/22/21 17:59:02","The main experiment item","yes","Sternbergtask.osexp","C:\Users\Brian\Desktop\College - Graduate\Graduate Work\Advanced Quant\Lab 3","yes","no","mono","no","18","no","white","no","yes","768","legacy","10","10","C:/Users/Brian/Desktop/College - Graduate/Graduate Work/Advanced Quant/Lab 3/BK-subject-3.csv","legacy","5 7 8 4 1 2","Kafkaesque Koffka","3.2.8","0","n","0","left","right","NA","left","NA","1329","32449","NA","1329","NA","2","legacy","6","1024","2","48000","-16","experiment","3","odd","6","107908","104545","105700","4117","NA","105702","73125","4129","NA","109911","106705","111242","36580","109911","NA","Sternberg task","5","11467","11","yes","1024"
"41.6666666667","41.6666666667","1122.25","1122.25","black","practice","legacy","legacy","legacy","0","uniform","0","undefined","0","right","11","11","11","0","0","11","11","0","0","11","11","11","0","11","0","10/22/21 17:59:02","The main experiment item","yes","Sternbergtask.osexp","C:\Users\Brian\Desktop\College - Graduate\Graduate Work\Advanced Quant\Lab 3","yes","no","mono","no","18","no","white","no","yes","768","legacy","11","11","C:/Users/Brian/Desktop/College - Graduate/Graduate Work/Advanced Quant/Lab 3/BK-subject-3.csv","legacy","5","Kafkaesque Koffka","3.2.8","0","n","0","None","right","NA","None","NA","2000","32449","NA","2000","NA","2","legacy","1","1024","2","48000","-16","experiment","3","odd","3","114613","104545","112405","4117","NA","112407","111253","4129","NA","116617","113410","118617","36580","116616","NA","Sternberg task","5","13467","12","yes","1024"
"46.1538461538","46.1538461538","1078.46153846","1078.46153846","black","experiment","legacy","legacy","legacy","0","uniform","1","undefined","1","right","12","12","12","0","0","12","12","0","0","12","12","12","0","12","0","10/22/21 17:59:02","The main experiment item","yes","Sternbergtask.osexp","C:\Users\Brian\Desktop\College - Graduate\Graduate Work\Advanced Quant\Lab 3","yes","no","mono","no","18","no","white","no","yes","768","legacy","0","11","C:/Users/Brian/Desktop/College - Graduate/Graduate Work/Advanced Quant/Lab 3/BK-subject-3.csv","legacy","4 1","Kafkaesque Koffka","3.2.8","0","n","0","right","right","right","right","NA","553","32449","18075","553","NA","2","legacy","2","1024","2","48000","-16","experiment","3","odd","6","140130","104545","137921","4117","137749","137924","118629","4129","119673","142133","138927","142687","36580","142133","NA","Sternberg task","6","14020","13","yes","1024"
"42.8571428571","42.8571428571","1096.14285714","1096.14285714","black","experiment","legacy","legacy","legacy","0","uniform","0","undefined","0","left","13","13","13","0","0","13","13","0","0","13","13","13","0","13","0","10/22/21 17:59:02","The main experiment item","yes","Sternbergtask.osexp","C:\Users\Brian\Desktop\College - Graduate\Graduate Work\Advanced Quant\Lab 3","yes","no","mono","no","18","no","white","no","yes","768","legacy","1","11","C:/Users/Brian/Desktop/College - Graduate/Graduate Work/Advanced Quant/Lab 3/BK-subject-3.csv","legacy","7 1 8 5 6 2","Kafkaesque Koffka","3.2.8","2","y","0","right","right","right","right","NA","1326","32449","18075","1326","NA","2","legacy","6","1024","2","48000","-16","experiment","3","odd","1","146058","142696","143850","4117","137749","143852","118629","4129","119673","148061","144855","149388","36580","148061","NA","Sternberg task","6","15346","14","yes","1024"
"40","40","1064.33333333","1064.33333333","black","experiment","legacy","legacy","legacy","0","uniform","0","undefined","0","right","14","14","14","0","0","14","14","0","0","14","14","14","0","14","0","10/22/21 17:59:02","The main experiment item","yes","Sternbergtask.osexp","C:\Users\Brian\Desktop\College - Graduate\Graduate Work\Advanced Quant\Lab 3","yes","no","mono","no","18","no","white","no","yes","768","legacy","2","11","C:/Users/Brian/Desktop/College - Graduate/Graduate Work/Advanced Quant/Lab 3/BK-subject-3.csv","legacy","6 9 7 3 8 2","Kafkaesque Koffka","3.2.8","0","n","0","left","right","right","left","NA","619","32449","18075","619","NA","2","legacy","6","1024","2","48000","-16","experiment","3","odd","5","152762","142696","150554","4117","137749","150557","149399","4129","119673","154766","151560","155387","36580","154766","NA","Sternberg task","6","15965","15","yes","1024"
"37.5","37.5","1028.3125","1028.3125","black","experiment","legacy","legacy","legacy","0","uniform","0","undefined","0","left","15","15","15","0","0","15","15","0","0","15","15","15","0","15","0","10/22/21 17:59:02","The main experiment item","yes","Sternbergtask.osexp","C:\Users\Brian\Desktop\College - Graduate\Graduate Work\Advanced Quant\Lab 3","yes","no","mono","no","18","no","white","no","yes","768","legacy","3","11","C:/Users/Brian/Desktop/College - Graduate/Graduate Work/Advanced Quant/Lab 3/BK-subject-3.csv","legacy","9 3 8 2 1 4","Kafkaesque Koffka","3.2.8","3","y","0","right","right","right","right","NA","488","32449","18075","488","NA","2","legacy","6","1024","2","48000","-16","experiment","3","odd","8","158760","142696","156551","4117","137749","156554","155399","4129","119673","160763","157557","161252","36580","160763","NA","Sternberg task","6","16453","16","yes","1024"
"35.2941176471","35.2941176471","1000.58823529","1000.58823529","black","experiment","legacy","legacy","legacy","0","uniform","0","undefined","0","right","16","16","16","0","0","16","16","0","0","16","16","16","0","16","0","10/22/21 17:59:02","The main experiment item","yes","Sternbergtask.osexp","C:\Users\Brian\Desktop\College - Graduate\Graduate Work\Advanced Quant\Lab 3","yes","no","mono","no","18","no","white","no","yes","768","legacy","4","11","C:/Users/Brian/Desktop/College - Graduate/Graduate Work/Advanced Quant/Lab 3/BK-subject-3.csv","legacy","4 2 6 9","Kafkaesque Koffka","3.2.8","0","n","0","left","right","right","left","NA","557","32449","18075","557","NA","2","legacy","4","1024","2","48000","-16","experiment","3","odd","7","164629","142696","162420","4117","137749","162423","161264","4129","119673","166632","163426","167191","36580","166632","NA","Sternberg task","6","17010","17","yes","1024"
"33.3333333333","33.3333333333","992.777777778","992.777777778","black","experiment","legacy","legacy","legacy","0","uniform","0","undefined","0","right","17","17","17","0","0","17","17","0","0","17","17","17","0","17","0","10/22/21 17:59:02","The main experiment item","yes","Sternbergtask.osexp","C:\Users\Brian\Desktop\College - Graduate\Graduate Work\Advanced Quant\Lab 3","yes","no","mono","no","18","no","white","no","yes","768","legacy","5","11","C:/Users/Brian/Desktop/College - Graduate/Graduate Work/Advanced Quant/Lab 3/BK-subject-3.csv","legacy","2 8 9 4 1","Kafkaesque Koffka","3.2.8","0","n","0","left","right","right","left","NA","860","32449","18075","860","NA","2","legacy","5","1024","2","48000","-16","experiment","3","odd","5","170569","142696","168360","4117","137749","168363","167202","4129","119673","172572","169366","173433","36580","172572","NA","Sternberg task","6","17870","18","yes","1024"
"31.5789473684","31.5789473684","972.315789474","972.315789474","black","experiment","legacy","legacy","legacy","0","uniform","0","undefined","0","left","18","18","18","0","0","18","18","0","0","18","18","18","0","18","0","10/22/21 17:59:02","The main experiment item","yes","Sternbergtask.osexp","C:\Users\Brian\Desktop\College - Graduate\Graduate Work\Advanced Quant\Lab 3","yes","no","mono","no","18","no","white","no","yes","768","legacy","6","11","C:/Users/Brian/Desktop/College - Graduate/Graduate Work/Advanced Quant/Lab 3/BK-subject-3.csv","legacy","5 7 8 2 3 8","Kafkaesque Koffka","3.2.8","5","y","0","right","right","right","right","NA","604","32449","18075","604","NA","2","legacy","6","1024","2","48000","-16","experiment","3","odd","3","176819","142696","174610","4117","137749","174613","173443","4129","119673","178822","175616","179427","36580","178822","NA","Sternberg task","6","18474","19","yes","1024"
"30","30","1023.7","1023.7","black","experiment","legacy","legacy","legacy","0","uniform","0","undefined","0","right","19","19","19","0","0","19","19","0","0","19","19","19","0","19","0","10/22/21 17:59:02","The main experiment item","yes","Sternbergtask.osexp","C:\Users\Brian\Desktop\College - Graduate\Graduate Work\Advanced Quant\Lab 3","yes","no","mono","no","18","no","white","no","yes","768","legacy","7","11","C:/Users/Brian/Desktop/College - Graduate/Graduate Work/Advanced Quant/Lab 3/BK-subject-3.csv","legacy","6 9 4 5 3 2","Kafkaesque Koffka","3.2.8","0","n","0","None","right","right","None","NA","2000","32449","18075","2000","NA","2","legacy","6","1024","2","48000","-16","experiment","3","odd","8","182802","142696","180593","4117","137749","180596","179440","4129","119673","184805","181599","186806","36580","184805","NA","Sternberg task","6","20474","20","yes","1024"
"33.3333333333","33.3333333333","1014.76190476","1014.76190476","black","experiment","legacy","legacy","legacy","0","uniform","1","undefined","1","right","20","20","20","0","0","20","20","0","0","20","20","20","0","20","0","10/22/21 17:59:02","The main experiment item","yes","Sternbergtask.osexp","C:\Users\Brian\Desktop\College - Graduate\Graduate Work\Advanced Quant\Lab 3","yes","no","mono","no","18","no","white","no","yes","768","legacy","8","11","C:/Users/Brian/Desktop/College - Graduate/Graduate Work/Advanced Quant/Lab 3/BK-subject-3.csv","legacy","2 8 7 9 5 3","Kafkaesque Koffka","3.2.8","0","n","0","right","right","right","right","NA","836","32449","18075","836","NA","2","legacy","6","1024","2","48000","-16","experiment","3","odd","6","190199","142696","187988","4117","137749","187993","186818","4129","119673","192202","188996","193039","36580","192202","NA","Sternberg task","7","21310","21","yes","1024"
"31.8181818182","31.8181818182","989.227272727","989.227272727","black","experiment","legacy","legacy","legacy","0","uniform","0","undefined","0","left","21","21","21","0","0","21","21","0","0","21","21","21","0","21","0","10/22/21 17:59:02","The main experiment item","yes","Sternbergtask.osexp","C:\Users\Brian\Desktop\College - Graduate\Graduate Work\Advanced Quant\Lab 3","yes","no","mono","no","18","no","white","no","yes","768","legacy","9","11","C:/Users/Brian/Desktop/College - Graduate/Graduate Work/Advanced Quant/Lab 3/BK-subject-3.csv","legacy","6 9 3 1","Kafkaesque Koffka","3.2.8","4","y","0","right","right","right","right","NA","453","32449","18075","453","NA","2","legacy","4","1024","2","48000","-16","experiment","3","odd","1","196421","193049","194212","4117","137749","194215","186818","4129","119673","198424","195218","198878","36580","198424","NA","Sternberg task","7","21763","22","yes","1024"
"34.7826086957","34.7826086957","980.086956522","980.086956522","black","experiment","legacy","legacy","legacy","0","uniform","1","undefined","1","right","22","22","22","0","0","22","22","0","0","22","22","22","0","22","0","10/22/21 17:59:02","The main experiment item","yes","Sternbergtask.osexp","C:\Users\Brian\Desktop\College - Graduate\Graduate Work\Advanced Quant\Lab 3","yes","no","mono","no","18","no","white","no","yes","768","legacy","10","11","C:/Users/Brian/Desktop/College - Graduate/Graduate Work/Advanced Quant/Lab 3/BK-subject-3.csv","legacy","6 2 9 3 8 4","Kafkaesque Koffka","3.2.8","0","n","0","right","right","right","right","NA","779","32449","18075","779","NA","2","legacy","6","1024","2","48000","-16","experiment","3","odd","1","202253","193049","200044","4117","137749","200047","198890","4129","119673","204256","201050","205037","36580","204256","NA","Sternberg task","8","22542","23","yes","1024"
"33.3333333333","33.3333333333","970.666666667","970.666666667","black","experiment","legacy","legacy","legacy","0","uniform","0","undefined","0","left","23","23","23","0","0","23","23","0","0","23","23","23","0","23","0","10/22/21 17:59:02","The main experiment item","yes","Sternbergtask.osexp","C:\Users\Brian\Desktop\College - Graduate\Graduate Work\Advanced Quant\Lab 3","yes","no","mono","no","18","no","white","no","yes","768","legacy","11","11","C:/Users/Brian/Desktop/College - Graduate/Graduate Work/Advanced Quant/Lab 3/BK-subject-3.csv","legacy","3 2 1 4 7","Kafkaesque Koffka","3.2.8","2","y","0","right","right","right","right","NA","754","32449","18075","754","NA","2","legacy","5","1024","2","48000","-16","experiment","3","odd","2","208416","205042","206205","4117","137749","206209","198890","4129","119673","210419","207213","211174","36580","210419","NA","Sternberg task","8","23296","24","yes","1024"
"36","36","964.16","964.16","black","experiment","legacy","legacy","legacy","0","uniform","1","undefined","1","left","24","24","24","0","0","24","24","0","0","24","24","24","0","24","0","10/22/21 17:59:02","The main experiment item","yes","Sternbergtask.osexp","C:\Users\Brian\Desktop\College - Graduate\Graduate Work\Advanced Quant\Lab 3","yes","no","mono","no","18","no","white","no","yes","768","legacy","12","11","C:/Users/Brian/Desktop/College - Graduate/Graduate Work/Advanced Quant/Lab 3/BK-subject-3.csv","legacy","7","Kafkaesque Koffka","3.2.8","1","y","0","left","right","right","left","NA","808","32449","18075","808","NA","2","legacy","1","1024","2","48000","-16","experiment","3","odd","7","214573","205042","212364","4117","137749","212366","211185","4129","119673","216577","213370","217387","36580","216576","NA","Sternberg task","9","24104","25","yes","1024"
"38.4615384615","38.4615384615","957.076923077","957.076923077","black","experiment","legacy","legacy","legacy","0","uniform","1","undefined","1","right","25","25","25","0","0","25","25","0","0","25","25","25","0","25","0","10/22/21 17:59:02","The main experiment item","yes","Sternbergtask.osexp","C:\Users\Brian\Desktop\College - Graduate\Graduate Work\Advanced Quant\Lab 3","yes","no","mono","no","18","no","white","no","yes","768","legacy","13","11","C:/Users/Brian/Desktop/College - Graduate/Graduate Work/Advanced Quant/Lab 3/BK-subject-3.csv","legacy","1 7 8 3 9","Kafkaesque Koffka","3.2.8","0","n","0","right","right","right","right","NA","780","32449","18075","780","NA","2","legacy","5","1024","2","48000","-16","experiment","3","odd","2","220781","217400","218570","4117","137749","218574","211185","4129","119673","222784","219578","223565","36580","222784","NA","Sternberg task","10","24884","26","yes","1024"
"37.037037037","37.037037037","942.296296296","942.296296296","black","experiment","legacy","legacy","legacy","0","uniform","0","undefined","0","right","26","26","26","0","0","26","26","0","0","26","26","26","0","26","0","10/22/21 17:59:02","The main experiment item","yes","Sternbergtask.osexp","C:\Users\Brian\Desktop\College - Graduate\Graduate Work\Advanced Quant\Lab 3","yes","no","mono","no","18","no","white","no","yes","768","legacy","14","11","C:/Users/Brian/Desktop/College - Graduate/Graduate Work/Advanced Quant/Lab 3/BK-subject-3.csv","legacy","7 1 5 6 3","Kafkaesque Koffka","3.2.8","0","n","0","left","right","right","left","NA","558","32449","18075","558","NA","2","legacy","5","1024","2","48000","-16","experiment","3","odd","8","226936","223576","224727","4117","137749","224730","211185","4129","119673","228939","225733","229499","36580","228939","NA","Sternberg task","10","25442","27","yes","1024"
"39.2857142857","39.2857142857","932.714285714","932.714285714","black","experiment","legacy","legacy","legacy","0","uniform","1","undefined","1","right","27","27","27","0","0","27","27","0","0","27","27","27","0","27","0","10/22/21 17:59:02","The main experiment item","yes","Sternbergtask.osexp","C:\Users\Brian\Desktop\College - Graduate\Graduate Work\Advanced Quant\Lab 3","yes","no","mono","no","18","no","white","no","yes","768","legacy","15","11","C:/Users/Brian/Desktop/College - Graduate/Graduate Work/Advanced Quant/Lab 3/BK-subject-3.csv","legacy","8 5 4 2 9 6","Kafkaesque Koffka","3.2.8","0","n","0","right","right","right","right","NA","674","32449","18075","674","NA","2","legacy","6","1024","2","48000","-16","experiment","3","odd","3","232873","223576","230664","4117","137749","230667","229508","4129","119673","234876","231670","235552","36580","234876","NA","Sternberg task","11","26116","28","yes","1024"
"37.9310344828","37.9310344828","929.034482759","929.034482759","black","experiment","legacy","legacy","legacy","0","uniform","0","undefined","0","left","28","28","28","0","0","28","28","0","0","28","28","28","0","28","0","10/22/21 17:59:02","The main experiment item","yes","Sternbergtask.osexp","C:\Users\Brian\Desktop\College - Graduate\Graduate Work\Advanced Quant\Lab 3","yes","no","mono","no","18","no","white","no","yes","768","legacy","16","11","C:/Users/Brian/Desktop/College - Graduate/Graduate Work/Advanced Quant/Lab 3/BK-subject-3.csv","legacy","9 4 2","Kafkaesque Koffka","3.2.8","1","y","0","right","right","right","right","NA","826","32449","18075","826","NA","2","legacy","3","1024","2","48000","-16","experiment","3","odd","9","238924","235563","236715","4117","137749","236718","229508","4129","119673","240927","237721","241754","36580","240927","NA","Sternberg task","11","26942","29","yes","1024"
"40","40","926.833333333","926.833333333","black","experiment","legacy","legacy","legacy","0","uniform","1","undefined","1","left","29","29","29","0","0","29","29","0","0","29","29","29","0","29","0","10/22/21 17:59:02","The main experiment item","yes","Sternbergtask.osexp","C:\Users\Brian\Desktop\College - Graduate\Graduate Work\Advanced Quant\Lab 3","yes","no","mono","no","18","no","white","no","yes","768","legacy","17","11","C:/Users/Brian/Desktop/College - Graduate/Graduate Work/Advanced Quant/Lab 3/BK-subject-3.csv","legacy","8 9 5 6 7","Kafkaesque Koffka","3.2.8","1","y","0","left","right","right","left","NA","863","32449","18075","863","NA","2","legacy","5","1024","2","48000","-16","experiment","3","odd","8","245130","235563","242921","4117","137749","242924","241764","4129","119673","247133","243927","247997","36580","247133","NA","Sternberg task","12","27805","30","yes","1024"
"41.935483871","41.935483871","923.548387097","923.548387097","black","experiment","legacy","legacy","legacy","0","uniform","1","undefined","1","left","30","30","30","0","0","30","30","0","0","30","30","30","0","30","0","10/22/21 17:59:02","The main experiment item","yes","Sternbergtask.osexp","C:\Users\Brian\Desktop\College - Graduate\Graduate Work\Advanced Quant\Lab 3","yes","no","mono","no","18","no","white","no","yes","768","legacy","18","11","C:/Users/Brian/Desktop/College - Graduate/Graduate Work/Advanced Quant/Lab 3/BK-subject-3.csv","legacy","9 8 4","Kafkaesque Koffka","3.2.8","1","y","0","left","right","right","left","NA","825","32449","18075","825","NA","2","legacy","3","1024","2","48000","-16","experiment","3","odd","9","251366","248009","249157","4117","137749","249160","241764","4129","119673","253369","250163","254196","36580","253369","NA","Sternberg task","13","28630","31","yes","1024"
"43.75","43.75","910.0625","910.0625","black","experiment","legacy","legacy","legacy","0","uniform","1","undefined","1","left","31","31","31","0","0","31","31","0","0","31","31","31","0","31","0","10/22/21 17:59:02","The main experiment item","yes","Sternbergtask.osexp","C:\Users\Brian\Desktop\College - Graduate\Graduate Work\Advanced Quant\Lab 3","yes","no","mono","no","18","no","white","no","yes","768","legacy","19","11","C:/Users/Brian/Desktop/College - Graduate/Graduate Work/Advanced Quant/Lab 3/BK-subject-3.csv","legacy","8","Kafkaesque Koffka","3.2.8","1","y","0","left","right","right","left","NA","492","32449","18075","492","NA","2","legacy","1","1024","2","48000","-16","experiment","3","odd","8","257573","254207","255364","4117","137749","255367","241764","4129","119673","259576","256370","260069","36580","259576","NA","Sternberg task","14","29122","32","yes","1024"
"45.4545454545","45.4545454545","910.454545455","910.454545455","black","experiment","legacy","legacy","legacy","0","uniform","1","undefined","1","left","32","32","32","0","0","32","32","0","0","32","32","32","0","32","0","10/22/21 17:59:02","The main experiment item","yes","Sternbergtask.osexp","C:\Users\Brian\Desktop\College - Graduate\Graduate Work\Advanced Quant\Lab 3","yes","no","mono","no","18","no","white","no","yes","768","legacy","20","11","C:/Users/Brian/Desktop/College - Graduate/Graduate Work/Advanced Quant/Lab 3/BK-subject-3.csv","legacy","3 9 6 2","Kafkaesque Koffka","3.2.8","4","y","0","left","right","right","left","NA","923","32449","18075","923","NA","2","legacy","4","1024","2","48000","-16","experiment","3","odd","2","263448","260079","261239","4117","137749","261242","241764","4129","119673","265451","262245","266376","36580","265451","NA","Sternberg task","15","30045","33","yes","1024"
"47.0588235294","47.0588235294","906.147058824","906.147058824","black","experiment","legacy","legacy","legacy","0","uniform","1","undefined","1","left","33","33","33","0","0","33","33","0","0","33","33","33","0","33","0","10/22/21 17:59:02","The main experiment item","yes","Sternbergtask.osexp","C:\Users\Brian\Desktop\College - Graduate\Graduate Work\Advanced Quant\Lab 3","yes","no","mono","no","18","no","white","no","yes","768","legacy","21","11","C:/Users/Brian/Desktop/College - Graduate/Graduate Work/Advanced Quant/Lab 3/BK-subject-3.csv","legacy","2 3","Kafkaesque Koffka","3.2.8","1","y","0","left","right","right","left","NA","764","32449","18075","764","NA","2","legacy","2","1024","2","48000","-16","experiment","3","odd","2","269746","266386","267537","4117","137749","267540","241764","4129","119673","271749","268543","272515","36580","271749","NA","Sternberg task","16","30809","34","yes","1024"
"48.5714285714","48.5714285714","896.771428571","896.771428571","black","experiment","legacy","legacy","legacy","0","uniform","1","undefined","1","right","34","34","34","0","0","34","34","0","0","34","34","34","0","34","0","10/22/21 17:59:02","The main experiment item","yes","Sternbergtask.osexp","C:\Users\Brian\Desktop\College - Graduate\Graduate Work\Advanced Quant\Lab 3","yes","no","mono","no","18","no","white","no","yes","768","legacy","22","11","C:/Users/Brian/Desktop/College - Graduate/Graduate Work/Advanced Quant/Lab 3/BK-subject-3.csv","legacy","6 8","Kafkaesque Koffka","3.2.8","0","n","0","right","right","right","right","NA","578","32449","18075","578","NA","2","legacy","2","1024","2","48000","-16","experiment","3","odd","9","275890","272526","273681","4117","137749","273684","241764","4129","119673","277893","274687","278473","36580","277893","NA","Sternberg task","17","31387","35","yes","1024"
"50","50","886.5","886.5","black","experiment","legacy","legacy","legacy","0","uniform","1","undefined","1","left","35","35","35","0","0","35","35","0","0","35","35","35","0","35","0","10/22/21 17:59:02","The main experiment item","yes","Sternbergtask.osexp","C:\Users\Brian\Desktop\College - Graduate\Graduate Work\Advanced Quant\Lab 3","yes","no","mono","no","18","no","white","no","yes","768","legacy","23","11","C:/Users/Brian/Desktop/College - Graduate/Graduate Work/Advanced Quant/Lab 3/BK-subject-3.csv","legacy","3 4 9 6 2 9","Kafkaesque Koffka","3.2.8","5","y","0","left","right","right","left","NA","527","32449","18075","527","NA","2","legacy","6","1024","2","48000","-16","experiment","3","odd","2","281849","278486","279640","4117","137749","279642","241764","4129","119673","283852","280646","284381","36580","283852","NA","Sternberg task","18","31914","36","yes","1024"
"51.3513513514","51.3513513514","880.783783784","880.783783784","black","experiment","legacy","legacy","legacy","0","uniform","1","undefined","1","right","36","36","36","0","0","36","36","0","0","36","36","36","0","36","0","10/22/21 17:59:02","The main experiment item","yes","Sternbergtask.osexp","C:\Users\Brian\Desktop\College - Graduate\Graduate Work\Advanced Quant\Lab 3","yes","no","mono","no","18","no","white","no","yes","768","legacy","24","11","C:/Users/Brian/Desktop/College - Graduate/Graduate Work/Advanced Quant/Lab 3/BK-subject-3.csv","legacy","1 5 3 2 8","Kafkaesque Koffka","3.2.8","0","n","0","right","right","right","right","NA","675","32449","18075","675","NA","2","legacy","5","1024","2","48000","-16","experiment","3","odd","4","287770","284392","285561","4117","137749","285563","241764","4129","119673","289773","286567","290449","36580","289773","NA","Sternberg task","19","32589","37","yes","1024"
"52.6315789474","52.6315789474","878.947368421","878.947368421","black","experiment","legacy","legacy","legacy","0","uniform","1","undefined","1","left","37","37","37","0","0","37","37","0","0","37","37","37","0","37","0","10/22/21 17:59:02","The main experiment item","yes","Sternbergtask.osexp","C:\Users\Brian\Desktop\College - Graduate\Graduate Work\Advanced Quant\Lab 3","yes","no","mono","no","18","no","white","no","yes","768","legacy","25","11","C:/Users/Brian/Desktop/College - Graduate/Graduate Work/Advanced Quant/Lab 3/BK-subject-3.csv","legacy","8 9 5 7 1 6","Kafkaesque Koffka","3.2.8","4","y","0","left","right","right","left","NA","811","32449","18075","811","NA","2","legacy","6","1024","2","48000","-16","experiment","3","odd","7","293822","290460","291613","4117","137749","291615","241764","4129","119673","295825","292619","296638","36580","295825","NA","Sternberg task","20","33400","38","yes","1024"
"53.8461538462","53.8461538462","873.128205128","873.128205128","black","experiment","legacy","legacy","legacy","0","uniform","1","undefined","1","left","38","38","38","0","0","38","38","0","0","38","38","38","0","38","0","10/22/21 17:59:02","The main experiment item","yes","Sternbergtask.osexp","C:\Users\Brian\Desktop\College - Graduate\Graduate Work\Advanced Quant\Lab 3","yes","no","mono","no","18","no","white","no","yes","768","legacy","26","11","C:/Users/Brian/Desktop/College - Graduate/Graduate Work/Advanced Quant/Lab 3/BK-subject-3.csv","legacy","3 5 4 7","Kafkaesque Koffka","3.2.8","1","y","0","left","right","right","left","NA","652","32449","18075","652","NA","2","legacy","4","1024","2","48000","-16","experiment","3","odd","3","300024","296649","297815","4117","137749","297818","241764","4129","119673","302027","298821","302680","36580","302027","NA","Sternberg task","21","34052","39","yes","1024"
"55","55","867.475","867.475","black","experiment","legacy","legacy","legacy","0","uniform","1","undefined","1","left","39","39","39","0","0","39","39","0","0","39","39","39","0","39","0","10/22/21 17:59:02","The main experiment item","yes","Sternbergtask.osexp","C:\Users\Brian\Desktop\College - Graduate\Graduate Work\Advanced Quant\Lab 3","yes","no","mono","no","18","no","white","no","yes","768","legacy","27","11","C:/Users/Brian/Desktop/College - Graduate/Graduate Work/Advanced Quant/Lab 3/BK-subject-3.csv","legacy","3 5 9 6 2 4","Kafkaesque Koffka","3.2.8","1","y","0","left","right","right","left","NA","647","32449","18075","647","NA","2","legacy","6","1024","2","48000","-16","experiment","3","odd","3","306061","302691","303852","4117","137749","303855","241764","4129","119673","308064","304858","308714","36580","308064","NA","Sternberg task","22","34699","40","yes","1024"
"56.0975609756","56.0975609756","862.902439024","862.902439024","black","experiment","legacy","legacy","legacy","0","uniform","1","undefined","1","right","40","40","40","0","0","40","40","0","0","40","40","40","0","40","0","10/22/21 17:59:02","The main experiment item","yes","Sternbergtask.osexp","C:\Users\Brian\Desktop\College - Graduate\Graduate Work\Advanced Quant\Lab 3","yes","no","mono","no","18","no","white","no","yes","768","legacy","28","11","C:/Users/Brian/Desktop/College - Graduate/Graduate Work/Advanced Quant/Lab 3/BK-subject-3.csv","legacy","8 9","Kafkaesque Koffka","3.2.8","0","n","0","right","right","right","right","NA","680","32449","18075","680","NA","2","legacy","2","1024","2","48000","-16","experiment","3","odd","5","312091","308725","309883","4117","137749","309886","241764","4129","119673","314094","310889","314775","36580","314094","NA","Sternberg task","23","35379","41","yes","1024"
"57.1428571429","57.1428571429","858.452380952","858.452380952","black","experiment","legacy","legacy","legacy","0","uniform","1","undefined","1","right","41","41","41","0","0","41","41","0","0","41","41","41","0","41","0","10/22/21 17:59:02","The main experiment item","yes","Sternbergtask.osexp","C:\Users\Brian\Desktop\College - Graduate\Graduate Work\Advanced Quant\Lab 3","yes","no","mono","no","18","no","white","no","yes","768","legacy","29","11","C:/Users/Brian/Desktop/College - Graduate/Graduate Work/Advanced Quant/Lab 3/BK-subject-3.csv","legacy","2 7 5","Kafkaesque Koffka","3.2.8","0","n","0","right","right","right","right","NA","676","32449","18075","676","NA","2","legacy","3","1024","2","48000","-16","experiment","3","odd","8","318159","314785","315950","4117","137749","315953","241764","4129","119673","320162","316956","320840","36580","320162","NA","Sternberg task","24","36055","42","yes","1024"
"58.1395348837","58.1395348837","857.465116279","857.465116279","black","experiment","legacy","legacy","legacy","0","uniform","1","undefined","1","right","42","42","42","0","0","42","42","0","0","42","42","42","0","42","0","10/22/21 17:59:02","The main experiment item","yes","Sternbergtask.osexp","C:\Users\Brian\Desktop\College - Graduate\Graduate Work\Advanced Quant\Lab 3","yes","no","mono","no","18","no","white","no","yes","768","legacy","30","11","C:/Users/Brian/Desktop/College - Graduate/Graduate Work/Advanced Quant/Lab 3/BK-subject-3.csv","legacy","6 9 5","Kafkaesque Koffka","3.2.8","0","n","0","right","right","right","right","NA","816","32449","18075","816","NA","2","legacy","3","1024","2","48000","-16","experiment","3","odd","8","324206","320851","321998","4117","137749","322000","241764","4129","119673","326209","323003","327027","36580","326209","NA","Sternberg task","25","36871","43","yes","1024"
"56.8181818182","56.8181818182","858.818181818","858.818181818","black","experiment","legacy","legacy","legacy","0","uniform","0","undefined","0","left","43","43","43","0","0","43","43","0","0","43","43","43","0","43","0","10/22/21 17:59:02","The main experiment item","yes","Sternbergtask.osexp","C:\Users\Brian\Desktop\College - Graduate\Graduate Work\Advanced Quant\Lab 3","yes","no","mono","no","18","no","white","no","yes","768","legacy","31","11","C:/Users/Brian/Desktop/College - Graduate/Graduate Work/Advanced Quant/Lab 3/BK-subject-3.csv","legacy","6 9 7 4 5 1","Kafkaesque Koffka","3.2.8","2","y","0","right","right","right","right","NA","917","32449","18075","917","NA","2","legacy","6","1024","2","48000","-16","experiment","3","odd","9","330398","327036","328189","4117","137749","328192","241764","4129","119673","332401","329195","333319","36580","332401","NA","Sternberg task","25","37788","44","yes","1024"
"57.7777777778","57.7777777778","854.911111111","854.911111111","black","experiment","legacy","legacy","legacy","0","uniform","1","undefined","1","left","44","44","44","0","0","44","44","0","0","44","44","44","0","44","0","10/22/21 17:59:02","The main experiment item","yes","Sternbergtask.osexp","C:\Users\Brian\Desktop\College - Graduate\Graduate Work\Advanced Quant\Lab 3","yes","no","mono","no","18","no","white","no","yes","768","legacy","32","11","C:/Users/Brian/Desktop/College - Graduate/Graduate Work/Advanced Quant/Lab 3/BK-subject-3.csv","legacy","8 7 3","Kafkaesque Koffka","3.2.8","1","y","0","left","right","right","left","NA","683","32449","18075","683","NA","2","legacy","3","1024","2","48000","-16","experiment","3","odd","8","336700","327036","334491","4117","137749","334494","333329","4129","119673","338703","335497","339388","36580","338703","NA","Sternberg task","26","38471","45","yes","1024"
"58.6956521739","58.6956521739","852.565217391","852.565217391","black","experiment","legacy","legacy","legacy","0","uniform","1","undefined","1","right","45","45","45","0","0","45","45","0","0","45","45","45","0","45","0","10/22/21 17:59:02","The main experiment item","yes","Sternbergtask.osexp","C:\Users\Brian\Desktop\College - Graduate\Graduate Work\Advanced Quant\Lab 3","yes","no","mono","no","18","no","white","no","yes","768","legacy","33","11","C:/Users/Brian/Desktop/College - Graduate/Graduate Work/Advanced Quant/Lab 3/BK-subject-3.csv","legacy","1 8 7","Kafkaesque Koffka","3.2.8","0","n","0","right","right","right","right","NA","747","32449","18075","747","NA","2","legacy","3","1024","2","48000","-16","experiment","3","odd","4","342784","339399","340575","4117","137749","340578","333329","4129","119673","344787","341581","345536","36580","344787","NA","Sternberg task","27","39218","46","yes","1024"
"59.5744680851","59.5744680851","852.021276596","852.021276596","black","experiment","legacy","legacy","legacy","0","uniform","1","undefined","1","right","46","46","46","0","0","46","46","0","0","46","46","46","0","46","0","10/22/21 17:59:02","The main experiment item","yes","Sternbergtask.osexp","C:\Users\Brian\Desktop\College - Graduate\Graduate Work\Advanced Quant\Lab 3","yes","no","mono","no","18","no","white","no","yes","768","legacy","34","11","C:/Users/Brian/Desktop/College - Graduate/Graduate Work/Advanced Quant/Lab 3/BK-subject-3.csv","legacy","1 4 9 2 5","Kafkaesque Koffka","3.2.8","0","n","0","right","right","right","right","NA","827","32449","18075","827","NA","2","legacy","5","1024","2","48000","-16","experiment","3","odd","7","348935","345547","346726","4117","137749","346729","333329","4129","119673","350938","347732","351766","36580","350938","NA","Sternberg task","28","40045","47","yes","1024"
"60.4166666667","60.4166666667","848.541666667","848.541666667","black","experiment","legacy","legacy","legacy","0","uniform","1","undefined","1","right","47","47","47","0","0","47","47","0","0","47","47","47","0","47","0","10/22/21 17:59:02","The main experiment item","yes","Sternbergtask.osexp","C:\Users\Brian\Desktop\College - Graduate\Graduate Work\Advanced Quant\Lab 3","yes","no","mono","no","18","no","white","no","yes","768","legacy","35","11","C:/Users/Brian/Desktop/College - Graduate/Graduate Work/Advanced Quant/Lab 3/BK-subject-3.csv","legacy","5 7 3","Kafkaesque Koffka","3.2.8","0","n","0","right","right","right","right","NA","685","32449","18075","685","NA","2","legacy","3","1024","2","48000","-16","experiment","3","odd","9","355140","351776","352931","4117","137749","352934","333329","4129","119673","357143","353937","357830","36580","357143","NA","Sternberg task","29","40730","48","yes","1024"
"61.2244897959","61.2244897959","852.306122449","852.306122449","black","experiment","legacy","legacy","legacy","0","uniform","1","undefined","1","left","48","48","48","0","0","48","48","0","0","48","48","48","0","48","0","10/22/21 17:59:02","The main experiment item","yes","Sternbergtask.osexp","C:\Users\Brian\Desktop\College - Graduate\Graduate Work\Advanced Quant\Lab 3","yes","no","mono","no","18","no","white","no","yes","768","legacy","36","11","C:/Users/Brian/Desktop/College - Graduate/Graduate Work/Advanced Quant/Lab 3/BK-subject-3.csv","legacy","8 5 1 3 9","Kafkaesque Koffka","3.2.8","4","y","0","left","right","right","left","NA","1033","32449","18075","1033","NA","2","legacy","5","1024","2","48000","-16","experiment","3","odd","3","361208","357847","358999","4117","137749","359002","333329","4129","119673","363211","360005","364245","36580","363211","NA","Sternberg task","30","41763","49","yes","1024"
"62","62","851.74","851.74","black","experiment","legacy","legacy","legacy","0","uniform","1","undefined","1","left","49","49","49","0","0","49","49","0","0","49","49","49","0","49","0","10/22/21 17:59:02","The main experiment item","yes","Sternbergtask.osexp","C:\Users\Brian\Desktop\College - Graduate\Graduate Work\Advanced Quant\Lab 3","yes","no","mono","no","18","no","white","no","yes","768","legacy","37","11","C:/Users/Brian/Desktop/College - Graduate/Graduate Work/Advanced Quant/Lab 3/BK-subject-3.csv","legacy","7 6","Kafkaesque Koffka","3.2.8","2","y","0","left","right","right","left","NA","824","32449","18075","824","NA","2","legacy","2","1024","2","48000","-16","experiment","3","odd","6","367610","364255","365401","4117","137749","365404","333329","4129","119673","369613","366407","370439","36580","369613","NA","Sternberg task","31","42587","50","yes","1024"
"62.7450980392","62.7450980392","847.509803922","847.509803922","black","experiment","legacy","legacy","legacy","0","uniform","1","undefined","1","left","50","50","50","0","0","50","50","0","0","50","50","50","0","50","0","10/22/21 17:59:02","The main experiment item","yes","Sternbergtask.osexp","C:\Users\Brian\Desktop\College - Graduate\Graduate Work\Advanced Quant\Lab 3","yes","no","mono","no","18","no","white","no","yes","768","legacy","38","11","C:/Users/Brian/Desktop/College - Graduate/Graduate Work/Advanced Quant/Lab 3/BK-subject-3.csv","legacy","6 1 2","Kafkaesque Koffka","3.2.8","3","y","0","left","right","right","left","NA","636","32449","18075","636","NA","2","legacy","3","1024","2","48000","-16","experiment","3","odd","2","373815","370448","371606","4117","137749","371609","333329","4129","119673","375818","372612","376455","36580","375818","NA","Sternberg task","32","43223","51","yes","1024"
"63.4615384615","63.4615384615","840.25","840.25","black","experiment","legacy","legacy","legacy","0","uniform","1","undefined","1","left","51","51","51","0","0","51","51","0","0","51","51","51","0","51","0","10/22/21 17:59:02","The main experiment item","yes","Sternbergtask.osexp","C:\Users\Brian\Desktop\College - Graduate\Graduate Work\Advanced Quant\Lab 3","yes","no","mono","no","18","no","white","no","yes","768","legacy","39","11","C:/Users/Brian/Desktop/College - Graduate/Graduate Work/Advanced Quant/Lab 3/BK-subject-3.csv","legacy","2 6 1 7 4","Kafkaesque Koffka","3.2.8","2","y","0","left","right","right","left","NA","470","32449","18075","470","NA","2","legacy","5","1024","2","48000","-16","experiment","3","odd","6","379830","376465","377622","4117","137749","377625","333329","4129","119673","381833","378628","382304","36580","381833","NA","Sternberg task","33","43693","52","yes","1024"
"64.1509433962","64.1509433962","840.509433962","840.509433962","black","experiment","legacy","legacy","legacy","0","uniform","1","undefined","1","right","52","52","52","0","0","52","52","0","0","52","52","52","0","52","0","10/22/21 17:59:02","The main experiment item","yes","Sternbergtask.osexp","C:\Users\Brian\Desktop\College - Graduate\Graduate Work\Advanced Quant\Lab 3","yes","no","mono","no","18","no","white","no","yes","768","legacy","40","11","C:/Users/Brian/Desktop/College - Graduate/Graduate Work/Advanced Quant/Lab 3/BK-subject-3.csv","legacy","4 2 7 6 1 3","Kafkaesque Koffka","3.2.8","0","n","0","right","right","right","right","NA","854","32449","18075","854","NA","2","legacy","6","1024","2","48000","-16","experiment","3","odd","8","385682","382310","383472","4117","137749","383476","333329","4129","119673","387685","384479","388541","36580","387685","NA","Sternberg task","34","44547","53","yes","1024"
"64.8148148148","64.8148148148","843.037037037","843.037037037","black","experiment","legacy","legacy","legacy","0","uniform","1","undefined","1","left","53","53","53","0","0","53","53","0","0","53","53","53","0","53","0","10/22/21 17:59:02","The main experiment item","yes","Sternbergtask.osexp","C:\Users\Brian\Desktop\College - Graduate\Graduate Work\Advanced Quant\Lab 3","yes","no","mono","no","18","no","white","no","yes","768","legacy","41","11","C:/Users/Brian/Desktop/College - Graduate/Graduate Work/Advanced Quant/Lab 3/BK-subject-3.csv","legacy","7 8 6 3 1","Kafkaesque Koffka","3.2.8","5","y","0","left","right","right","left","NA","977","32449","18075","977","NA","2","legacy","5","1024","2","48000","-16","experiment","3","odd","1","391915","388550","389706","4117","137749","389709","333329","4129","119673","393918","390712","394897","36580","393918","NA","Sternberg task","35","45524","54","yes","1024"
"63.6363636364","63.6363636364","842.236363636","842.236363636","black","experiment","legacy","legacy","legacy","0","uniform","0","undefined","0","right","54","54","54","0","0","54","54","0","0","54","54","54","0","54","0","10/22/21 17:59:02","The main experiment item","yes","Sternbergtask.osexp","C:\Users\Brian\Desktop\College - Graduate\Graduate Work\Advanced Quant\Lab 3","yes","no","mono","no","18","no","white","no","yes","768","legacy","42","11","C:/Users/Brian/Desktop/College - Graduate/Graduate Work/Advanced Quant/Lab 3/BK-subject-3.csv","legacy","1 7 5 2 9","Kafkaesque Koffka","3.2.8","0","n","0","left","right","right","left","NA","799","32449","18075","799","NA","2","legacy","5","1024","2","48000","-16","experiment","3","odd","3","398306","394907","396097","4117","137749","396100","333329","4129","119673","400308","397103","401109","36580","400308","NA","Sternberg task","35","46323","55","yes","1024"
"64.2857142857","64.2857142857","845.142857143","845.142857143","black","experiment","legacy","legacy","legacy","0","uniform","1","undefined","1","left","55","55","55","0","0","55","55","0","0","55","55","55","0","55","0","10/22/21 17:59:02","The main experiment item","yes","Sternbergtask.osexp","C:\Users\Brian\Desktop\College - Graduate\Graduate Work\Advanced Quant\Lab 3","yes","no","mono","no","18","no","white","no","yes","768","legacy","43","11","C:/Users/Brian/Desktop/College - Graduate/Graduate Work/Advanced Quant/Lab 3/BK-subject-3.csv","legacy","9 6 2 4 1","Kafkaesque Koffka","3.2.8","4","y","0","left","right","right","left","NA","1005","32449","18075","1005","NA","2","legacy","5","1024","2","48000","-16","experiment","3","odd","4","404490","394907","402282","4117","137749","402285","401121","4129","119673","406494","403288","407501","36580","406494","NA","Sternberg task","36","47328","56","yes","1024"
"64.9122807018","64.9122807018","844.421052632","844.421052632","black","experiment","legacy","legacy","legacy","0","uniform","1","undefined","1","left","56","56","56","0","0","56","56","0","0","56","56","56","0","56","0","10/22/21 17:59:02","The main experiment item","yes","Sternbergtask.osexp","C:\Users\Brian\Desktop\College - Graduate\Graduate Work\Advanced Quant\Lab 3","yes","no","mono","no","18","no","white","no","yes","768","legacy","44","11","C:/Users/Brian/Desktop/College - Graduate/Graduate Work/Advanced Quant/Lab 3/BK-subject-3.csv","legacy","4 1 8 7 5","Kafkaesque Koffka","3.2.8","3","y","0","left","right","right","left","NA","804","32449","18075","804","NA","2","legacy","5","1024","2","48000","-16","experiment","3","odd","8","410868","407512","408659","4117","137749","408662","401121","4129","119673","412871","409665","413677","36580","412871","NA","Sternberg task","37","48132","57","yes","1024"
"65.5172413793","65.5172413793","850.793103448","850.793103448","black","experiment","legacy","legacy","legacy","0","uniform","1","undefined","1","left","57","57","57","0","0","57","57","0","0","57","57","57","0","57","0","10/22/21 17:59:02","The main experiment item","yes","Sternbergtask.osexp","C:\Users\Brian\Desktop\College - Graduate\Graduate Work\Advanced Quant\Lab 3","yes","no","mono","no","18","no","white","no","yes","768","legacy","45","11","C:/Users/Brian/Desktop/College - Graduate/Graduate Work/Advanced Quant/Lab 3/BK-subject-3.csv","legacy","8 5 4 7 3 1","Kafkaesque Koffka","3.2.8","2","y","0","left","right","right","left","NA","1214","32449","18075","1214","NA","2","legacy","6","1024","2","48000","-16","experiment","3","odd","5","417048","413687","414840","4117","137749","414843","401121","4129","119673","419052","415846","420268","36580","419052","NA","Sternberg task","38","49346","58","yes","1024"
"66.1016949153","66.1016949153","850.627118644","850.627118644","black","experiment","legacy","legacy","legacy","0","uniform","1","undefined","1","left","58","58","58","0","0","58","58","0","0","58","58","58","0","58","0","10/22/21 17:59:02","The main experiment item","yes","Sternbergtask.osexp","C:\Users\Brian\Desktop\College - Graduate\Graduate Work\Advanced Quant\Lab 3","yes","no","mono","no","18","no","white","no","yes","768","legacy","46","11","C:/Users/Brian/Desktop/College - Graduate/Graduate Work/Advanced Quant/Lab 3/BK-subject-3.csv","legacy","3 9 7 6 4","Kafkaesque Koffka","3.2.8","3","y","0","left","right","right","left","NA","841","32449","18075","841","NA","2","legacy","5","1024","2","48000","-16","experiment","3","odd","7","423643","420277","421434","4117","137749","421437","401121","4129","119673","425646","422440","426489","36580","425646","NA","Sternberg task","39","50187","59","yes","1024"
"66.6666666667","66.6666666667","846.266666667","846.266666667","black","experiment","legacy","legacy","legacy","0","uniform","1","undefined","1","right","59","59","59","0","0","59","59","0","0","59","59","59","0","59","0","10/22/21 17:59:02","The main experiment item","yes","Sternbergtask.osexp","C:\Users\Brian\Desktop\College - Graduate\Graduate Work\Advanced Quant\Lab 3","yes","no","mono","no","18","no","white","no","yes","768","legacy","47","11","C:/Users/Brian/Desktop/College - Graduate/Graduate Work/Advanced Quant/Lab 3/BK-subject-3.csv","legacy","7 9","Kafkaesque Koffka","3.2.8","0","n","0","right","right","right","right","NA","589","32449","18075","589","NA","2","legacy","2","1024","2","48000","-16","experiment","3","odd","1","429878","426500","427669","4117","137749","427672","401121","4129","119673","431881","428675","432472","36580","431881","NA","Sternberg task","40","50776","60","yes","1024"
"67.2131147541","67.2131147541","844.68852459","844.68852459","black","experiment","legacy","legacy","legacy","0","uniform","1","undefined","1","left","60","60","60","0","0","60","60","0","0","60","60","60","0","60","0","10/22/21 17:59:02","The main experiment item","yes","Sternbergtask.osexp","C:\Users\Brian\Desktop\College - Graduate\Graduate Work\Advanced Quant\Lab 3","yes","no","mono","no","18","no","white","no","yes","768","legacy","48","11","C:/Users/Brian/Desktop/College - Graduate/Graduate Work/Advanced Quant/Lab 3/BK-subject-3.csv","legacy","3 5 7 1","Kafkaesque Koffka","3.2.8","3","y","0","left","right","right","left","NA","750","32449","18075","750","NA","2","legacy","4","1024","2","48000","-16","experiment","3","odd","7","435838","432483","433630","4117","137749","433632","401121","4129","119673","437842","434635","438594","36580","437842","NA","Sternberg task","41","51526","61","yes","1024"
"67.7419354839","67.7419354839","844.580645161","844.580645161","black","experiment","legacy","legacy","legacy","0","uniform","1","undefined","1","left","61","61","61","0","0","61","61","0","0","61","61","61","0","61","0","10/22/21 17:59:02","The main experiment item","yes","Sternbergtask.osexp","C:\Users\Brian\Desktop\College - Graduate\Graduate Work\Advanced Quant\Lab 3","yes","no","mono","no","18","no","white","no","yes","768","legacy","49","11","C:/Users/Brian/Desktop/College - Graduate/Graduate Work/Advanced Quant/Lab 3/BK-subject-3.csv","legacy","4 7 6 8 2 3","Kafkaesque Koffka","3.2.8","6","y","0","left","right","right","left","NA","838","32449","18075","838","NA","2","legacy","6","1024","2","48000","-16","experiment","3","odd","3","441968","438603","439759","4117","137749","439761","401121","4129","119673","443971","440765","444810","36580","443971","NA","Sternberg task","42","52364","62","yes","1024"
"68.253968254","68.253968254","842.46031746","842.46031746","black","experiment","legacy","legacy","legacy","0","uniform","1","undefined","1","left","62","62","62","0","0","62","62","0","0","62","62","62","0","62","0","10/22/21 17:59:02","The main experiment item","yes","Sternbergtask.osexp","C:\Users\Brian\Desktop\College - Graduate\Graduate Work\Advanced Quant\Lab 3","yes","no","mono","no","18","no","white","no","yes","768","legacy","50","11","C:/Users/Brian/Desktop/College - Graduate/Graduate Work/Advanced Quant/Lab 3/BK-subject-3.csv","legacy","1 4 9 3 2 5","Kafkaesque Koffka","3.2.8","3","y","0","left","right","right","left","NA","711","32449","18075","711","NA","2","legacy","6","1024","2","48000","-16","experiment","3","odd","9","448197","444820","445988","4117","137749","445991","401121","4129","119673","450200","446994","450914","36580","450200","NA","Sternberg task","43","53075","63","yes","1024"
"67.1875","67.1875","844.90625","844.90625","black","experiment","legacy","legacy","legacy","0","uniform","0","undefined","0","right","63","63","63","0","0","63","63","0","0","63","63","63","0","63","0","10/22/21 17:59:02","The main experiment item","yes","Sternbergtask.osexp","C:\Users\Brian\Desktop\College - Graduate\Graduate Work\Advanced Quant\Lab 3","yes","no","mono","no","18","no","white","no","yes","768","legacy","51","11","C:/Users/Brian/Desktop/College - Graduate/Graduate Work/Advanced Quant/Lab 3/BK-subject-3.csv","legacy","3 4 9 6 7 8","Kafkaesque Koffka","3.2.8","0","n","0","left","right","right","left","NA","999","32449","18075","999","NA","2","legacy","6","1024","2","48000","-16","experiment","3","odd","2","454295","450927","452086","4117","137749","452088","401121","4129","119673","456298","453092","457298","36580","456298","NA","Sternberg task","43","54074","64","yes","1024"
"67.6923076923","67.6923076923","845.615384615","845.615384615","black","experiment","legacy","legacy","legacy","0","uniform","1","undefined","1","left","64","64","64","0","0","64","64","0","0","64","64","64","0","64","0","10/22/21 17:59:02","The main experiment item","yes","Sternbergtask.osexp","C:\Users\Brian\Desktop\College - Graduate\Graduate Work\Advanced Quant\Lab 3","yes","no","mono","no","18","no","white","no","yes","768","legacy","52","11","C:/Users/Brian/Desktop/College - Graduate/Graduate Work/Advanced Quant/Lab 3/BK-subject-3.csv","legacy","5 7 3 6 2","Kafkaesque Koffka","3.2.8","5","y","0","left","right","right","left","NA","891","32449","18075","891","NA","2","legacy","5","1024","2","48000","-16","experiment","3","odd","2","460679","450927","458471","4117","137749","458474","457310","4129","119673","462682","459477","463575","36580","462682","NA","Sternberg task","44","54965","65","yes","1024"
"68.1818181818","68.1818181818","844.484848485","844.484848485","black","experiment","legacy","legacy","legacy","0","uniform","1","undefined","1","right","65","65","65","0","0","65","65","0","0","65","65","65","0","65","0","10/22/21 17:59:02","The main experiment item","yes","Sternbergtask.osexp","C:\Users\Brian\Desktop\College - Graduate\Graduate Work\Advanced Quant\Lab 3","yes","no","mono","no","18","no","white","no","yes","768","legacy","53","11","C:/Users/Brian/Desktop/College - Graduate/Graduate Work/Advanced Quant/Lab 3/BK-subject-3.csv","legacy","7 4 2 8 1 9","Kafkaesque Koffka","3.2.8","0","n","0","right","right","right","right","NA","771","32449","18075","771","NA","2","legacy","6","1024","2","48000","-16","experiment","3","odd","5","466941","463586","464732","4117","137749","464735","457310","4129","119673","468944","465738","469717","36580","468944","NA","Sternberg task","45","55736","66","yes","1024"
"67.1641791045","67.1641791045","851.089552239","851.089552239","black","experiment","legacy","legacy","legacy","0","uniform","0","undefined","0","right","66","66","66","0","0","66","66","0","0","66","66","66","0","66","0","10/22/21 17:59:02","The main experiment item","yes","Sternbergtask.osexp","C:\Users\Brian\Desktop\College - Graduate\Graduate Work\Advanced Quant\Lab 3","yes","no","mono","no","18","no","white","no","yes","768","legacy","54","11","C:/Users/Brian/Desktop/College - Graduate/Graduate Work/Advanced Quant/Lab 3/BK-subject-3.csv","legacy","1 6 4 3 9 7","Kafkaesque Koffka","3.2.8","0","n","0","left","right","right","left","NA","1287","32449","18075","1287","NA","2","legacy","6","1024","2","48000","-16","experiment","3","odd","8","473090","469727","470881","4117","137749","470884","457310","4129","119673","475093","471887","476382","36580","475093","NA","Sternberg task","45","57023","67","yes","1024"
"66.1764705882","66.1764705882","845.661764706","845.661764706","black","experiment","legacy","legacy","legacy","0","uniform","0","undefined","0","right","67","67","67","0","0","67","67","0","0","67","67","67","0","67","0","10/22/21 17:59:02","The main experiment item","yes","Sternbergtask.osexp","C:\Users\Brian\Desktop\College - Graduate\Graduate Work\Advanced Quant\Lab 3","yes","no","mono","no","18","no","white","no","yes","768","legacy","55","11","C:/Users/Brian/Desktop/College - Graduate/Graduate Work/Advanced Quant/Lab 3/BK-subject-3.csv","legacy","6 3 1 7 9 8","Kafkaesque Koffka","3.2.8","0","n","0","left","right","right","left","NA","482","32449","18075","482","NA","2","legacy","6","1024","2","48000","-16","experiment","3","odd","4","479762","469727","477553","4117","137749","477556","476395","4129","119673","481765","478559","482250","36580","481765","NA","Sternberg task","45","57505","68","yes","1024"
"65.2173913043","65.2173913043","847.420289855","847.420289855","black","experiment","legacy","legacy","legacy","0","uniform","0","undefined","0","right","68","68","68","0","0","68","68","0","0","68","68","68","0","68","0","10/22/21 17:59:02","The main experiment item","yes","Sternbergtask.osexp","C:\Users\Brian\Desktop\College - Graduate\Graduate Work\Advanced Quant\Lab 3","yes","no","mono","no","18","no","white","no","yes","768","legacy","56","11","C:/Users/Brian/Desktop/College - Graduate/Graduate Work/Advanced Quant/Lab 3/BK-subject-3.csv","legacy","9 5 3 2 8 6","Kafkaesque Koffka","3.2.8","0","n","0","left","right","right","left","NA","967","32449","18075","967","NA","2","legacy","6","1024","2","48000","-16","experiment","3","odd","7","485629","469727","483420","4117","137749","483423","482257","4129","119673","487632","484426","488601","36580","487632","NA","Sternberg task","45","58472","69","yes","1024"
"65.7142857143","65.7142857143","846.128571429","846.128571429","black","experiment","legacy","legacy","legacy","0","uniform","1","undefined","1","left","69","69","69","0","0","69","69","0","0","69","69","69","0","69","0","10/22/21 17:59:02","The main experiment item","yes","Sternbergtask.osexp","C:\Users\Brian\Desktop\College - Graduate\Graduate Work\Advanced Quant\Lab 3","yes","no","mono","no","18","no","white","no","yes","768","legacy","57","11","C:/Users/Brian/Desktop/College - Graduate/Graduate Work/Advanced Quant/Lab 3/BK-subject-3.csv","legacy","5 2 9 6 1 7","Kafkaesque Koffka","3.2.8","3","y","0","left","right","right","left","NA","757","32449","18075","757","NA","2","legacy","6","1024","2","48000","-16","experiment","3","odd","9","491996","469727","489788","4117","137749","489790","488608","4129","119673","493999","490794","494758","36580","493999","NA","Sternberg task","46","59229","70","yes","1024"
"66.1971830986","66.1971830986","846.112676056","846.112676056","black","experiment","legacy","legacy","legacy","0","uniform","1","undefined","1","left","70","70","70","0","0","70","70","0","0","70","70","70","0","70","0","10/22/21 17:59:02","The main experiment item","yes","Sternbergtask.osexp","C:\Users\Brian\Desktop\College - Graduate\Graduate Work\Advanced Quant\Lab 3","yes","no","mono","no","18","no","white","no","yes","768","legacy","58","11","C:/Users/Brian/Desktop/College - Graduate/Graduate Work/Advanced Quant/Lab 3/BK-subject-3.csv","legacy","7 8 4 6 9 5","Kafkaesque Koffka","3.2.8","4","y","0","left","right","right","left","NA","845","32449","18075","845","NA","2","legacy","6","1024","2","48000","-16","experiment","3","odd","6","498149","494767","495940","4117","137749","495943","488608","4129","119673","500152","496946","500999","36580","500152","NA","Sternberg task","47","60074","71","yes","1024"
"66.6666666667","66.6666666667","845.763888889","845.763888889","black","experiment","legacy","legacy","legacy","0","uniform","1","undefined","1","right","71","71","71","0","0","71","71","0","0","71","71","71","0","71","0","10/22/21 17:59:02","The main experiment item","yes","Sternbergtask.osexp","C:\Users\Brian\Desktop\College - Graduate\Graduate Work\Advanced Quant\Lab 3","yes","no","mono","no","18","no","white","no","yes","768","legacy","59","11","C:/Users/Brian/Desktop/College - Graduate/Graduate Work/Advanced Quant/Lab 3/BK-subject-3.csv","legacy","2 3 8 5 6 7","Kafkaesque Koffka","3.2.8","0","n","0","right","right","right","right","NA","821","32449","18075","821","NA","2","legacy","6","1024","2","48000","-16","experiment","3","odd","1","504385","501011","502176","4117","137749","502179","488608","4129","119673","506388","503182","507211","36580","506388","NA","Sternberg task","48","60895","72","yes","1024"
"67.1232876712","67.1232876712","847.273972603","847.273972603","black","experiment","legacy","legacy","legacy","0","uniform","1","undefined","1","left","72","72","72","0","0","72","72","0","0","72","72","72","0","72","0","10/22/21 17:59:02","The main experiment item","yes","Sternbergtask.osexp","C:\Users\Brian\Desktop\College - Graduate\Graduate Work\Advanced Quant\Lab 3","yes","no","mono","no","18","no","white","no","yes","768","legacy","60","11","C:/Users/Brian/Desktop/College - Graduate/Graduate Work/Advanced Quant/Lab 3/BK-subject-3.csv","legacy","2 4 8 5 1 3","Kafkaesque Koffka","3.2.8","1","y","0","left","right","right","left","NA","956","32449","18075","956","NA","2","legacy","6","1024","2","48000","-16","experiment","3","odd","2","510580","507218","508371","4117","137749","508373","488608","4129","119673","512583","509377","513541","36580","512583","NA","Sternberg task","49","61851","73","yes","1024"
"67.5675675676","67.5675675676","848.162162162","848.162162162","black","experiment","legacy","legacy","legacy","0","uniform","1","undefined","1","right","73","73","73","0","0","73","73","0","0","73","73","73","0","73","0","10/22/21 17:59:02","The main experiment item","yes","Sternbergtask.osexp","C:\Users\Brian\Desktop\College - Graduate\Graduate Work\Advanced Quant\Lab 3","yes","no","mono","no","18","no","white","no","yes","768","legacy","61","11","C:/Users/Brian/Desktop/College - Graduate/Graduate Work/Advanced Quant/Lab 3/BK-subject-3.csv","legacy","1 7 5 2","Kafkaesque Koffka","3.2.8","0","n","0","right","right","right","right","NA","913","32449","18075","913","NA","2","legacy","4","1024","2","48000","-16","experiment","3","odd","3","516926","513551","514717","4117","137749","514720","488608","4129","119673","518929","515723","519845","36580","518929","NA","Sternberg task","50","62764","74","yes","1024"
"68","68","845.826666667","845.826666667","black","experiment","legacy","legacy","legacy","0","uniform","1","undefined","1","left","74","74","74","0","0","74","74","0","0","74","74","74","0","74","0","10/22/21 17:59:02","The main experiment item","yes","Sternbergtask.osexp","C:\Users\Brian\Desktop\College - Graduate\Graduate Work\Advanced Quant\Lab 3","yes","no","mono","no","18","no","white","no","yes","768","legacy","62","11","C:/Users/Brian/Desktop/College - Graduate/Graduate Work/Advanced Quant/Lab 3/BK-subject-3.csv","legacy","2 5 4 8 7","Kafkaesque Koffka","3.2.8","3","y","0","left","right","right","left","NA","673","32449","18075","673","NA","2","legacy","5","1024","2","48000","-16","experiment","3","odd","4","523217","519857","521009","4117","137749","521011","488608","4129","119673","525220","522014","525895","36580","525220","NA","Sternberg task","51","63437","75","yes","1024"
"68.4210526316","68.4210526316","844.947368421","844.947368421","black","experiment","legacy","legacy","legacy","0","uniform","1","undefined","1","left","75","75","75","0","0","75","75","0","0","75","75","75","0","75","0","10/22/21 17:59:02","The main experiment item","yes","Sternbergtask.osexp","C:\Users\Brian\Desktop\College - Graduate\Graduate Work\Advanced Quant\Lab 3","yes","no","mono","no","18","no","white","no","yes","768","legacy","63","11","C:/Users/Brian/Desktop/College - Graduate/Graduate Work/Advanced Quant/Lab 3/BK-subject-3.csv","legacy","7 4 2 6 3 5","Kafkaesque Koffka","3.2.8","6","y","0","left","right","right","left","NA","779","32449","18075","779","NA","2","legacy","6","1024","2","48000","-16","experiment","3","odd","5","529278","525904","527070","4117","137749","527072","488608","4129","119673","531281","528075","532063","36580","531281","NA","Sternberg task","52","64216","76","yes","1024"
"68.8311688312","68.8311688312","843.363636364","843.363636364","black","experiment","legacy","legacy","legacy","0","uniform","1","undefined","1","right","76","76","76","0","0","76","76","0","0","76","76","76","0","76","0","10/22/21 17:59:02","The main experiment item","yes","Sternbergtask.osexp","C:\Users\Brian\Desktop\College - Graduate\Graduate Work\Advanced Quant\Lab 3","yes","no","mono","no","18","no","white","no","yes","768","legacy","64","11","C:/Users/Brian/Desktop/College - Graduate/Graduate Work/Advanced Quant/Lab 3/BK-subject-3.csv","legacy","3 9 1","Kafkaesque Koffka","3.2.8","0","n","0","right","right","right","right","NA","723","32449","18075","723","NA","2","legacy","3","1024","2","48000","-16","experiment","3","odd","7","535435","532074","533227","4117","137749","533229","488608","4129","119673","537438","534232","538163","36580","537438","NA","Sternberg task","53","64939","77","yes","1024"
"69.2307692308","69.2307692308","840.833333333","840.833333333","black","experiment","legacy","legacy","legacy","0","uniform","1","undefined","1","left","77","77","77","0","0","77","77","0","0","77","77","77","0","77","0","10/22/21 17:59:02","The main experiment item","yes","Sternbergtask.osexp","C:\Users\Brian\Desktop\College - Graduate\Graduate Work\Advanced Quant\Lab 3","yes","no","mono","no","18","no","white","no","yes","768","legacy","65","11","C:/Users/Brian/Desktop/College - Graduate/Graduate Work/Advanced Quant/Lab 3/BK-subject-3.csv","legacy","6 7 9 3 1 2","Kafkaesque Koffka","3.2.8","1","y","0","left","right","right","left","NA","646","32449","18075","646","NA","2","legacy","6","1024","2","48000","-16","experiment","3","odd","6","541549","538173","539340","4117","137749","539343","488608","4129","119673","543552","540346","544201","36580","543552","NA","Sternberg task","54","65585","78","yes","1024"
"69.6202531646","69.6202531646","838.607594937","838.607594937","black","experiment","legacy","legacy","legacy","0","uniform","1","undefined","1","right","78","78","78","0","0","78","78","0","0","78","78","78","0","78","0","10/22/21 17:59:02","The main experiment item","yes","Sternbergtask.osexp","C:\Users\Brian\Desktop\College - Graduate\Graduate Work\Advanced Quant\Lab 3","yes","no","mono","no","18","no","white","no","yes","768","legacy","66","11","C:/Users/Brian/Desktop/College - Graduate/Graduate Work/Advanced Quant/Lab 3/BK-subject-3.csv","legacy","5 9 2 3","Kafkaesque Koffka","3.2.8","0","n","0","right","right","right","right","NA","665","32449","18075","665","NA","2","legacy","4","1024","2","48000","-16","experiment","3","odd","8","547572","544213","545363","4117","137749","545366","488608","4129","119673","549575","546369","550242","36580","549575","NA","Sternberg task","55","66250","79","yes","1024"
"70","70","836.1","836.1","black","experiment","legacy","legacy","legacy","0","uniform","1","undefined","1","left","79","79","79","0","0","79","79","0","0","79","79","79","0","79","0","10/22/21 17:59:02","The main experiment item","yes","Sternbergtask.osexp","C:\Users\Brian\Desktop\College - Graduate\Graduate Work\Advanced Quant\Lab 3","yes","no","mono","no","18","no","white","no","yes","768","legacy","67","11","C:/Users/Brian/Desktop/College - Graduate/Graduate Work/Advanced Quant/Lab 3/BK-subject-3.csv","legacy","7 1 3","Kafkaesque Koffka","3.2.8","2","y","0","left","right","right","left","NA","638","32449","18075","638","NA","2","legacy","3","1024","2","48000","-16","experiment","3","odd","1","553616","550251","551407","4117","137749","551410","488608","4129","119673","555619","552413","556259","36580","555619","NA","Sternberg task","56","66888","80","yes","1024"
"70.3703703704","70.3703703704","834.24691358","834.24691358","black","experiment","legacy","legacy","legacy","0","uniform","1","undefined","1","left","80","80","80","0","0","80","80","0","0","80","80","80","0","80","0","10/22/21 17:59:02","The main experiment item","yes","Sternbergtask.osexp","C:\Users\Brian\Desktop\College - Graduate\Graduate Work\Advanced Quant\Lab 3","yes","no","mono","no","18","no","white","no","yes","768","legacy","68","11","C:/Users/Brian/Desktop/College - Graduate/Graduate Work/Advanced Quant/Lab 3/BK-subject-3.csv","legacy","9 5 3 8 4","Kafkaesque Koffka","3.2.8","1","y","0","left","right","right","left","NA","686","32449","18075","686","NA","2","legacy","5","1024","2","48000","-16","experiment","3","odd","9","559630","556268","557421","4117","137749","557424","488608","4129","119673","561633","558427","562321","36580","561633","NA","Sternberg task","57","67574","81","yes","1024"
"70.7317073171","70.7317073171","831.670731707","831.670731707","black","experiment","legacy","legacy","legacy","0","uniform","1","undefined","1","right","81","81","81","0","0","81","81","0","0","81","81","81","0","81","0","10/22/21 17:59:02","The main experiment item","yes","Sternbergtask.osexp","C:\Users\Brian\Desktop\College - Graduate\Graduate Work\Advanced Quant\Lab 3","yes","no","mono","no","18","no","white","no","yes","768","legacy","69","11","C:/Users/Brian/Desktop/College - Graduate/Graduate Work/Advanced Quant/Lab 3/BK-subject-3.csv","legacy","2 5 1 4","Kafkaesque Koffka","3.2.8","0","n","0","right","right","right","right","NA","623","32449","18075","623","NA","2","legacy","4","1024","2","48000","-16","experiment","3","odd","6","565690","562333","563481","4117","137749","563484","488608","4129","119673","567693","564487","568318","36580","567693","NA","Sternberg task","58","68197","82","yes","1024"
"71.0843373494","71.0843373494","831","831","black","experiment","legacy","legacy","legacy","0","uniform","1","undefined","1","right","82","82","82","0","0","82","82","0","0","82","82","82","0","82","0","10/22/21 17:59:02","The main experiment item","yes","Sternbergtask.osexp","C:\Users\Brian\Desktop\College - Graduate\Graduate Work\Advanced Quant\Lab 3","yes","no","mono","no","18","no","white","no","yes","768","legacy","70","11","C:/Users/Brian/Desktop/College - Graduate/Graduate Work/Advanced Quant/Lab 3/BK-subject-3.csv","legacy","2 8 6 3 1","Kafkaesque Koffka","3.2.8","0","n","0","right","right","right","right","NA","776","32449","18075","776","NA","2","legacy","5","1024","2","48000","-16","experiment","3","odd","7","571693","568327","569484","4117","137749","569486","488608","4129","119673","573696","570490","574476","36580","573696","NA","Sternberg task","59","68973","83","yes","1024"
"71.4285714286","71.4285714286","834.321428571","834.321428571","black","experiment","legacy","legacy","legacy","0","uniform","1","undefined","1","right","83","83","83","0","0","83","83","0","0","83","83","83","0","83","0","10/22/21 17:59:02","The main experiment item","yes","Sternbergtask.osexp","C:\Users\Brian\Desktop\College - Graduate\Graduate Work\Advanced Quant\Lab 3","yes","no","mono","no","18","no","white","no","yes","768","legacy","71","11","C:/Users/Brian/Desktop/College - Graduate/Graduate Work/Advanced Quant/Lab 3/BK-subject-3.csv","legacy","5 2","Kafkaesque Koffka","3.2.8","0","n","0","right","right","right","right","NA","1110","32449","18075","1110","NA","2","legacy","2","1024","2","48000","-16","experiment","3","odd","7","577845","574488","575636","4117","137749","575639","488608","4129","119673","579848","576642","580960","36580","579848","NA","Sternberg task","60","70083","84","yes","1024"
"71.7647058824","71.7647058824","834.835294118","834.835294118","black","experiment","legacy","legacy","legacy","0","uniform","1","undefined","1","right","84","84","84","0","0","84","84","0","0","84","84","84","0","84","0","10/22/21 17:59:02","The main experiment item","yes","Sternbergtask.osexp","C:\Users\Brian\Desktop\College - Graduate\Graduate Work\Advanced Quant\Lab 3","yes","no","mono","no","18","no","white","no","yes","768","legacy","72","11","C:/Users/Brian/Desktop/College - Graduate/Graduate Work/Advanced Quant/Lab 3/BK-subject-3.csv","legacy","1 3 2 6 9","Kafkaesque Koffka","3.2.8","0","n","0","right","right","right","right","NA","878","32449","18075","878","NA","2","legacy","5","1024","2","48000","-16","experiment","3","odd","5","584328","580969","582119","4117","137749","582122","488608","4129","119673","586331","583125","587211","36580","586331","NA","Sternberg task","61","70961","85","yes","1024"
"70.9302325581","70.9302325581","840.720930233","840.720930233","black","experiment","legacy","legacy","legacy","0","uniform","0","undefined","0","left","85","85","85","0","0","85","85","0","0","85","85","85","0","85","0","10/22/21 17:59:02","The main experiment item","yes","Sternbergtask.osexp","C:\Users\Brian\Desktop\College - Graduate\Graduate Work\Advanced Quant\Lab 3","yes","no","mono","no","18","no","white","no","yes","768","legacy","73","11","C:/Users/Brian/Desktop/College - Graduate/Graduate Work/Advanced Quant/Lab 3/BK-subject-3.csv","legacy","8 1 6","Kafkaesque Koffka","3.2.8","3","y","0","right","right","right","right","NA","1341","32449","18075","1341","NA","2","legacy","3","1024","2","48000","-16","experiment","3","odd","6","590595","587221","588386","4117","137749","588389","488608","4129","119673","592598","589392","593942","36580","592598","NA","Sternberg task","61","72302","86","yes","1024"
"70.1149425287","70.1149425287","844.781609195","844.781609195","black","experiment","legacy","legacy","legacy","0","uniform","0","undefined","0","right","86","86","86","0","0","86","86","0","0","86","86","86","0","86","0","10/22/21 17:59:02","The main experiment item","yes","Sternbergtask.osexp","C:\Users\Brian\Desktop\College - Graduate\Graduate Work\Advanced Quant\Lab 3","yes","no","mono","no","18","no","white","no","yes","768","legacy","74","11","C:/Users/Brian/Desktop/College - Graduate/Graduate Work/Advanced Quant/Lab 3/BK-subject-3.csv","legacy","8 6 3 4 7","Kafkaesque Koffka","3.2.8","0","n","0","left","right","right","left","NA","1194","32449","18075","1194","NA","2","legacy","5","1024","2","48000","-16","experiment","3","odd","1","597313","587221","595104","4117","137749","595107","593953","4129","119673","599316","596110","600513","36580","599316","NA","Sternberg task","61","73496","87","yes","1024"
"69.3181818182","69.3181818182","844.897727273","844.897727273","black","experiment","legacy","legacy","legacy","0","uniform","0","undefined","0","right","87","87","87","0","0","87","87","0","0","87","87","87","0","87","0","10/22/21 17:59:02","The main experiment item","yes","Sternbergtask.osexp","C:\Users\Brian\Desktop\College - Graduate\Graduate Work\Advanced Quant\Lab 3","yes","no","mono","no","18","no","white","no","yes","768","legacy","75","11","C:/Users/Brian/Desktop/College - Graduate/Graduate Work/Advanced Quant/Lab 3/BK-subject-3.csv","legacy","9 7 4 5 8","Kafkaesque Koffka","3.2.8","0","n","0","left","right","right","left","NA","855","32449","18075","855","NA","2","legacy","5","1024","2","48000","-16","experiment","3","odd","6","603898","587221","601689","4117","137749","601692","600525","4129","119673","605901","602695","606758","36580","605901","NA","Sternberg task","61","74351","88","yes","1024"
"69.6629213483","69.6629213483","843.97752809","843.97752809","black","experiment","legacy","legacy","legacy","0","uniform","1","undefined","1","right","88","88","88","0","0","88","88","0","0","88","88","88","0","88","0","10/22/21 17:59:02","The main experiment item","yes","Sternbergtask.osexp","C:\Users\Brian\Desktop\College - Graduate\Graduate Work\Advanced Quant\Lab 3","yes","no","mono","no","18","no","white","no","yes","768","legacy","76","11","C:/Users/Brian/Desktop/College - Graduate/Graduate Work/Advanced Quant/Lab 3/BK-subject-3.csv","legacy","7 3 2 8","Kafkaesque Koffka","3.2.8","0","n","0","right","right","right","right","NA","763","32449","18075","763","NA","2","legacy","4","1024","2","48000","-16","experiment","3","odd","4","610151","587221","607942","4117","137749","607945","606768","4129","119673","612154","608948","612919","36580","612154","NA","Sternberg task","62","75114","89","yes","1024"
"70","70","845.177777778","845.177777778","black","experiment","legacy","legacy","legacy","0","uniform","1","undefined","1","left","89","89","89","0","0","89","89","0","0","89","89","89","0","89","0","10/22/21 17:59:02","The main experiment item","yes","Sternbergtask.osexp","C:\Users\Brian\Desktop\College - Graduate\Graduate Work\Advanced Quant\Lab 3","yes","no","mono","no","18","no","white","no","yes","768","legacy","77","11","C:/Users/Brian/Desktop/College - Graduate/Graduate Work/Advanced Quant/Lab 3/BK-subject-3.csv","legacy","7 2 3","Kafkaesque Koffka","3.2.8","3","y","0","left","right","right","left","NA","952","32449","18075","952","NA","2","legacy","3","1024","2","48000","-16","experiment","3","odd","3","616292","612930","614083","4117","137749","614086","606768","4129","119673","618295","615089","619251","36580","618295","NA","Sternberg task","63","76066","90","yes","1024"
"70.3296703297","70.3296703297","844.758241758","844.758241758","black","experiment","legacy","legacy","legacy","0","uniform","1","undefined","1","right","90","90","90","0","0","90","90","0","0","90","90","90","0","90","0","10/22/21 17:59:02","The main experiment item","yes","Sternbergtask.osexp","C:\Users\Brian\Desktop\College - Graduate\Graduate Work\Advanced Quant\Lab 3","yes","no","mono","no","18","no","white","no","yes","768","legacy","78","11","C:/Users/Brian/Desktop/College - Graduate/Graduate Work/Advanced Quant/Lab 3/BK-subject-3.csv","legacy","1 4 9 3","Kafkaesque Koffka","3.2.8","0","n","0","right","right","right","right","NA","807","32449","18075","807","NA","2","legacy","4","1024","2","48000","-16","experiment","3","odd","5","622636","619264","620427","4117","137749","620430","606768","4129","119673","624639","621433","625449","36580","624639","NA","Sternberg task","64","76873","91","yes","1024"
"70.652173913","70.652173913","841.510869565","841.510869565","black","experiment","legacy","legacy","legacy","0","uniform","1","undefined","1","left","91","91","91","0","0","91","91","0","0","91","91","91","0","91","0","10/22/21 17:59:02","The main experiment item","yes","Sternbergtask.osexp","C:\Users\Brian\Desktop\College - Graduate\Graduate Work\Advanced Quant\Lab 3","yes","no","mono","no","18","no","white","no","yes","768","legacy","79","11","C:/Users/Brian/Desktop/College - Graduate/Graduate Work/Advanced Quant/Lab 3/BK-subject-3.csv","legacy","4 9 7 8 5 3","Kafkaesque Koffka","3.2.8","4","y","0","left","right","right","left","NA","546","32449","18075","546","NA","2","legacy","6","1024","2","48000","-16","experiment","3","odd","8","628827","625461","626618","4117","137749","626621","606768","4129","119673","630830","627624","631378","36580","630830","NA","Sternberg task","65","77419","92","yes","1024"
"70.9677419355","70.9677419355","840.204301075","840.204301075","black","experiment","legacy","legacy","legacy","0","uniform","1","undefined","1","right","92","92","92","0","0","92","92","0","0","92","92","92","0","92","0","10/22/21 17:59:02","The main experiment item","yes","Sternbergtask.osexp","C:\Users\Brian\Desktop\College - Graduate\Graduate Work\Advanced Quant\Lab 3","yes","no","mono","no","18","no","white","no","yes","768","legacy","80","11","C:/Users/Brian/Desktop/College - Graduate/Graduate Work/Advanced Quant/Lab 3/BK-subject-3.csv","legacy","8 4 3 5","Kafkaesque Koffka","3.2.8","0","n","0","right","right","right","right","NA","720","32449","18075","720","NA","2","legacy","4","1024","2","48000","-16","experiment","3","odd","6","634776","631387","632567","4117","137749","632570","606768","4129","119673","636779","633573","637501","36580","636779","NA","Sternberg task","66","78139","93","yes","1024"
"71.2765957447","71.2765957447","839.627659574","839.627659574","black","experiment","legacy","legacy","legacy","0","uniform","1","undefined","1","left","93","93","93","0","0","93","93","0","0","93","93","93","0","93","0","10/22/21 17:59:02","The main experiment item","yes","Sternbergtask.osexp","C:\Users\Brian\Desktop\College - Graduate\Graduate Work\Advanced Quant\Lab 3","yes","no","mono","no","18","no","white","no","yes","768","legacy","81","11","C:/Users/Brian/Desktop/College - Graduate/Graduate Work/Advanced Quant/Lab 3/BK-subject-3.csv","legacy","9 1 6 7 8","Kafkaesque Koffka","3.2.8","1","y","0","left","right","right","left","NA","786","32449","18075","786","NA","2","legacy","5","1024","2","48000","-16","experiment","3","odd","9","640911","637511","638702","4117","137749","638705","606768","4129","119673","642914","639708","643702","36580","642914","NA","Sternberg task","67","78925","94","yes","1024"
"71.5789473684","71.5789473684","838.389473684","838.389473684","black","experiment","legacy","legacy","legacy","0","uniform","1","undefined","1","right","94","94","94","0","0","94","94","0","0","94","94","94","0","94","0","10/22/21 17:59:02","The main experiment item","yes","Sternbergtask.osexp","C:\Users\Brian\Desktop\College - Graduate\Graduate Work\Advanced Quant\Lab 3","yes","no","mono","no","18","no","white","no","yes","768","legacy","82","11","C:/Users/Brian/Desktop/College - Graduate/Graduate Work/Advanced Quant/Lab 3/BK-subject-3.csv","legacy","2 8 9","Kafkaesque Koffka","3.2.8","0","n","0","right","right","right","right","NA","722","32449","18075","722","NA","2","legacy","3","1024","2","48000","-16","experiment","3","odd","6","647093","643713","644883","4117","137749","644888","606768","4129","119673","649096","645891","649820","36580","649096","NA","Sternberg task","68","79647","95","yes","1024"
"71.875","71.875","837.541666667","837.541666667","black","experiment","legacy","legacy","legacy","0","uniform","1","undefined","1","left","95","95","95","0","0","95","95","0","0","95","95","95","0","95","0","10/22/21 17:59:02","The main experiment item","yes","Sternbergtask.osexp","C:\Users\Brian\Desktop\College - Graduate\Graduate Work\Advanced Quant\Lab 3","yes","no","mono","no","18","no","white","no","yes","768","legacy","83","11","C:/Users/Brian/Desktop/College - Graduate/Graduate Work/Advanced Quant/Lab 3/BK-subject-3.csv","legacy","4 1 5","Kafkaesque Koffka","3.2.8","2","y","0","left","right","right","left","NA","757","32449","18075","757","NA","2","legacy","3","1024","2","48000","-16","experiment","3","odd","1","653188","649829","650980","4117","137749","650982","606768","4129","119673","655192","651985","655952","36580","655192","NA","Sternberg task","69","80404","96","yes","1024"
"72.1649484536","72.1649484536","838.865979381","838.865979381","black","experiment","legacy","legacy","legacy","0","uniform","1","undefined","1","right","96","96","96","0","0","96","96","0","0","96","96","96","0","96","0","10/22/21 17:59:02","The main experiment item","yes","Sternbergtask.osexp","C:\Users\Brian\Desktop\College - Graduate\Graduate Work\Advanced Quant\Lab 3","yes","no","mono","no","18","no","white","no","yes","768","legacy","84","11","C:/Users/Brian/Desktop/College - Graduate/Graduate Work/Advanced Quant/Lab 3/BK-subject-3.csv","legacy","2 6 4 3 9","Kafkaesque Koffka","3.2.8","0","n","0","right","right","right","right","NA","966","32449","18075","966","NA","2","legacy","5","1024","2","48000","-16","experiment","3","odd","1","659322","655964","657113","4117","137749","657116","606768","4129","119673","661325","658119","662293","36580","661325","NA","Sternberg task","70","81370","97","yes","1024"
"72.4489795918","72.4489795918","841.102040816","841.102040816","black","experiment","legacy","legacy","legacy","0","uniform","1","undefined","1","left","97","97","97","0","0","97","97","0","0","97","97","97","0","97","0","10/22/21 17:59:02","The main experiment item","yes","Sternbergtask.osexp","C:\Users\Brian\Desktop\College - Graduate\Graduate Work\Advanced Quant\Lab 3","yes","no","mono","no","18","no","white","no","yes","768","legacy","85","11","C:/Users/Brian/Desktop/College - Graduate/Graduate Work/Advanced Quant/Lab 3/BK-subject-3.csv","legacy","8 5 3 7 4 6","Kafkaesque Koffka","3.2.8","6","y","0","left","right","right","left","NA","1058","32449","18075","1058","NA","2","legacy","6","1024","2","48000","-16","experiment","3","odd","6","665669","662302","663460","4117","137749","663463","606768","4129","119673","667672","664466","668734","36580","667672","NA","Sternberg task","71","82428","98","yes","1024"
"72.7272727273","72.7272727273","839.818181818","839.818181818","black","experiment","legacy","legacy","legacy","0","uniform","1","undefined","1","right","98","98","98","0","0","98","98","0","0","98","98","98","0","98","0","10/22/21 17:59:02","The main experiment item","yes","Sternbergtask.osexp","C:\Users\Brian\Desktop\College - Graduate\Graduate Work\Advanced Quant\Lab 3","yes","no","mono","no","18","no","white","no","yes","768","legacy","86","11","C:/Users/Brian/Desktop/College - Graduate/Graduate Work/Advanced Quant/Lab 3/BK-subject-3.csv","legacy","7 6 4 8 1 2","Kafkaesque Koffka","3.2.8","0","n","0","right","right","right","right","NA","714","32449","18075","714","NA","2","legacy","6","1024","2","48000","-16","experiment","3","odd","9","672105","668745","669897","4117","137749","669899","606768","4129","119673","674108","670902","674824","36580","674108","NA","Sternberg task","72","83142","99","yes","1024"
"73","73","838.77","838.77","black","experiment","legacy","legacy","legacy","0","uniform","1","undefined","1","right","99","99","99","0","0","99","99","0","0","99","99","99","0","99","0","10/22/21 17:59:02","The main experiment item","yes","Sternbergtask.osexp","C:\Users\Brian\Desktop\College - Graduate\Graduate Work\Advanced Quant\Lab 3","yes","no","mono","no","18","no","white","no","yes","768","legacy","87","11","C:/Users/Brian/Desktop/College - Graduate/Graduate Work/Advanced Quant/Lab 3/BK-subject-3.csv","legacy","1","Kafkaesque Koffka","3.2.8","0","n","0","right","right","right","right","NA","735","32449","18075","735","NA","2","legacy","1","1024","2","48000","-16","experiment","3","odd","7","678221","674835","676012","4117","137749","676015","606768","4129","119673","680224","677018","680963","36580","680224","NA","Sternberg task","73","83877","100","yes","1024"
"73.2673267327","73.2673267327","836.752475248","836.752475248","black","experiment","legacy","legacy","legacy","0","uniform","1","undefined","1","right","100","100","100","0","0","100","100","0","0","100","100","100","0","100","0","10/22/21 17:59:02","The main experiment item","yes","Sternbergtask.osexp","C:\Users\Brian\Desktop\College - Graduate\Graduate Work\Advanced Quant\Lab 3","yes","no","mono","no","18","no","white","no","yes","768","legacy","88","11","C:/Users/Brian/Desktop/College - Graduate/Graduate Work/Advanced Quant/Lab 3/BK-subject-3.csv","legacy","6 8 4","Kafkaesque Koffka","3.2.8","0","n","0","right","right","right","right","NA","635","32449","18075","635","NA","2","legacy","3","1024","2","48000","-16","experiment","3","odd","1","684338","680975","682129","4117","137749","682132","606768","4129","119673","686341","683135","686980","36580","686341","NA","Sternberg task","74","84512","101","yes","1024"
"73.5294117647","73.5294117647","835.852941176","835.852941176","black","experiment","legacy","legacy","legacy","0","uniform","1","undefined","1","left","101","101","101","0","0","101","101","0","0","101","101","101","0","101","0","10/22/21 17:59:02","The main experiment item","yes","Sternbergtask.osexp","C:\Users\Brian\Desktop\College - Graduate\Graduate Work\Advanced Quant\Lab 3","yes","no","mono","no","18","no","white","no","yes","768","legacy","89","11","C:/Users/Brian/Desktop/College - Graduate/Graduate Work/Advanced Quant/Lab 3/BK-subject-3.csv","legacy","6 2","Kafkaesque Koffka","3.2.8","1","y","0","left","right","right","left","NA","745","32449","18075","745","NA","2","legacy","2","1024","2","48000","-16","experiment","3","odd","6","690385","686993","688174","4117","137749","688179","606768","4129","119673","692388","689182","693136","36580","692388","NA","Sternberg task","75","85257","102","yes","1024"
"73.786407767","73.786407767","833.40776699","833.40776699","black","experiment","legacy","legacy","legacy","0","uniform","1","undefined","1","left","102","102","102","0","0","102","102","0","0","102","102","102","0","102","0","10/22/21 17:59:02","The main experiment item","yes","Sternbergtask.osexp","C:\Users\Brian\Desktop\College - Graduate\Graduate Work\Advanced Quant\Lab 3","yes","no","mono","no","18","no","white","no","yes","768","legacy","90","11","C:/Users/Brian/Desktop/College - Graduate/Graduate Work/Advanced Quant/Lab 3/BK-subject-3.csv","legacy","3 4","Kafkaesque Koffka","3.2.8","1","y","0","left","right","right","left","NA","584","32449","18075","584","NA","2","legacy","2","1024","2","48000","-16","experiment","3","odd","3","696504","693145","694295","4117","137749","694298","606768","4129","119673","698507","695301","699094","36580","698507","NA","Sternberg task","76","85841","103","yes","1024"
"74.0384615385","74.0384615385","832.413461538","832.413461538","black","experiment","legacy","legacy","legacy","0","uniform","1","undefined","1","right","103","103","103","0","0","103","103","0","0","103","103","103","0","103","0","10/22/21 17:59:02","The main experiment item","yes","Sternbergtask.osexp","C:\Users\Brian\Desktop\College - Graduate\Graduate Work\Advanced Quant\Lab 3","yes","no","mono","no","18","no","white","no","yes","768","legacy","91","11","C:/Users/Brian/Desktop/College - Graduate/Graduate Work/Advanced Quant/Lab 3/BK-subject-3.csv","legacy","8 4 3 9","Kafkaesque Koffka","3.2.8","0","n","0","right","right","right","right","NA","730","32449","18075","730","NA","2","legacy","4","1024","2","48000","-16","experiment","3","odd","5","702463","699105","700254","4117","137749","700257","606768","4129","119673","704467","701260","705199","36580","704466","NA","Sternberg task","77","86571","104","yes","1024"
"74.2857142857","74.2857142857","831.676190476","831.676190476","black","experiment","legacy","legacy","legacy","0","uniform","1","undefined","1","right","104","104","104","0","0","104","104","0","0","104","104","104","0","104","0","10/22/21 17:59:02","The main experiment item","yes","Sternbergtask.osexp","C:\Users\Brian\Desktop\College - Graduate\Graduate Work\Advanced Quant\Lab 3","yes","no","mono","no","18","no","white","no","yes","768","legacy","92","11","C:/Users/Brian/Desktop/College - Graduate/Graduate Work/Advanced Quant/Lab 3/BK-subject-3.csv","legacy","8 5 7 3 6","Kafkaesque Koffka","3.2.8","0","n","0","right","right","right","right","NA","755","32449","18075","755","NA","2","legacy","5","1024","2","48000","-16","experiment","3","odd","9","708605","705208","706397","4117","137749","706399","606768","4129","119673","710608","707402","711366","36580","710608","NA","Sternberg task","78","87326","105","yes","1024"
"74.5283018868","74.5283018868","830.594339623","830.594339623","black","experiment","legacy","legacy","legacy","0","uniform","1","undefined","1","left","105","105","105","0","0","105","105","0","0","105","105","105","0","105","0","10/22/21 17:59:02","The main experiment item","yes","Sternbergtask.osexp","C:\Users\Brian\Desktop\College - Graduate\Graduate Work\Advanced Quant\Lab 3","yes","no","mono","no","18","no","white","no","yes","768","legacy","93","11","C:/Users/Brian/Desktop/College - Graduate/Graduate Work/Advanced Quant/Lab 3/BK-subject-3.csv","legacy","4 6 5 8","Kafkaesque Koffka","3.2.8","1","y","0","left","right","right","left","NA","717","32449","18075","717","NA","2","legacy","4","1024","2","48000","-16","experiment","3","odd","4","714731","711375","712522","4117","137749","712525","606768","4129","119673","716734","713528","717453","36580","716734","NA","Sternberg task","79","88043","106","yes","1024"
"74.7663551402","74.7663551402","830.691588785","830.691588785","black","experiment","legacy","legacy","legacy","0","uniform","1","undefined","1","left","106","106","106","0","0","106","106","0","0","106","106","106","0","106","0","10/22/21 17:59:02","The main experiment item","yes","Sternbergtask.osexp","C:\Users\Brian\Desktop\College - Graduate\Graduate Work\Advanced Quant\Lab 3","yes","no","mono","no","18","no","white","no","yes","768","legacy","94","11","C:/Users/Brian/Desktop/College - Graduate/Graduate Work/Advanced Quant/Lab 3/BK-subject-3.csv","legacy","5 2 6","Kafkaesque Koffka","3.2.8","2","y","0","left","right","right","left","NA","841","32449","18075","841","NA","2","legacy","3","1024","2","48000","-16","experiment","3","odd","2","720837","717464","718628","4117","137749","718631","606768","4129","119673","722840","719634","723684","36580","722840","NA","Sternberg task","80","88884","107","yes","1024"
