"acc","accuracy","average_response_time","avg_rt","background","block","canvas_backend","clock_backend","color_backend","compensation","coordinates","correct","correct_instruction1","correct_keyboard_response","correct_response","count_ISI","count_PracticeLoop","count_correctFeedback","count_expSequence","count_experiment","count_experimentLoop","count_fixation","count_incorrectFeedback","count_instruction1","count_instructions2","count_keyboard_response","count_memorySet","count_new_logger","count_probe","count_thankYou","datetime","description","disable_garbage_collection","experiment_file","experiment_path","font_bold","font_family","font_italic","font_size","font_underline","foreground","form_clicks","fullscreen","height","keyboard_backend","live_row","live_row_PracticeLoop","logfile","mouse_backend","numberSet","opensesame_codename","opensesame_version","posInSet","present","repeat_cycle","response","response_instruction1","response_instructions2","response_keyboard_response","response_thankYou","response_time","response_time_instruction1","response_time_instructions2","response_time_keyboard_response","response_time_thankYou","round_decimals","sampler_backend","setSize","sound_buf_size","sound_channels","sound_freq","sound_sample_size","start","subject_nr","subject_parity","target","time_ISI","time_PracticeLoop","time_correctFeedback","time_expSequence","time_experiment","time_experimentLoop","time_fixation","time_incorrectFeedback","time_instruction1","time_instructions2","time_keyboard_response","time_memorySet","time_new_logger","time_probe","time_thankYou","title","total_correct","total_response_time","total_responses","uniform_coordinates","width"
"100","100","1535","1535","black","practice","legacy","legacy","legacy","0","uniform","1","undefined","1","left","0","0","0","0","0","0","0","0","0","0","0","0","0","0","0","10/21/21 17:24:17","The main experiment item","yes","SternbergTask.osexp","C:\Users\bryan\OneDrive\Documents\School\PSYC 5316  (Quant Methods)\Lab 3","no","mono","no","18","no","white","no","yes","768","legacy","0","0","C:/Users/bryan/OneDrive/Documents/School/PSYC 5316  (Quant Methods)/Lab 3/BS-subject-4.csv","legacy","4 3 1 7 9 8","Lentiform Loewenfeld","3.3.9","1","y","0","left","left","NA","left","NA","1535","46269","NA","1535","NA","2","legacy","6","1024","2","48000","-16","experiment","4","even","4","52354","49027","NA","50134","2748","NA","50137","NA","2756","NA","54362","51146","55898","54362","NA","Sternberg Task","1","1535","1","yes","1024"
"100","100","1286.5","1286.5","black","practice","legacy","legacy","legacy","0","uniform","1","undefined","1","right","1","0","1","1","0","0","1","1","0","0","1","1","1","1","0","10/21/21 17:24:17","The main experiment item","yes","SternbergTask.osexp","C:\Users\bryan\OneDrive\Documents\School\PSYC 5316  (Quant Methods)\Lab 3","no","mono","no","18","no","white","no","yes","768","legacy","1","1","C:/Users/bryan/OneDrive/Documents/School/PSYC 5316  (Quant Methods)/Lab 3/BS-subject-4.csv","legacy","5 7 8 4 1 2","Lentiform Loewenfeld","3.3.9","0","n","0","right","left","NA","right","NA","1038","46269","NA","1038","NA","2","legacy","6","1024","2","48000","-16","experiment","4","even","6","59392","49027","55981","57172","2748","NA","57176","NA","2756","NA","61401","58184","62440","61400","NA","Sternberg Task","2","2573","2","yes","1024"
"100","100","1295.33333333","1295.33333333","black","practice","legacy","legacy","legacy","0","uniform","1","undefined","1","right","2","0","2","2","0","0","2","2","0","0","2","2","2","2","0","10/21/21 17:24:17","The main experiment item","yes","SternbergTask.osexp","C:\Users\bryan\OneDrive\Documents\School\PSYC 5316  (Quant Methods)\Lab 3","no","mono","no","18","no","white","no","yes","768","legacy","2","2","C:/Users/bryan/OneDrive/Documents/School/PSYC 5316  (Quant Methods)/Lab 3/BS-subject-4.csv","legacy","3 1 9 4","Lentiform Loewenfeld","3.3.9","0","n","0","right","left","NA","right","NA","1313","46269","NA","1313","NA","2","legacy","4","1024","2","48000","-16","experiment","4","even","6","65805","49027","62449","63585","2748","NA","63589","NA","2756","NA","67813","64597","69127","67813","NA","Sternberg Task","3","3886","3","yes","1024"
"100","100","1252.25","1252.25","black","practice","legacy","legacy","legacy","0","uniform","1","undefined","1","left","3","0","3","3","0","0","3","3","0","0","3","3","3","3","0","10/21/21 17:24:17","The main experiment item","yes","SternbergTask.osexp","C:\Users\bryan\OneDrive\Documents\School\PSYC 5316  (Quant Methods)\Lab 3","no","mono","no","18","no","white","no","yes","768","legacy","3","3","C:/Users/bryan/OneDrive/Documents/School/PSYC 5316  (Quant Methods)/Lab 3/BS-subject-4.csv","legacy","2 9 4","Lentiform Loewenfeld","3.3.9","3","y","0","left","left","NA","left","NA","1123","46269","NA","1123","NA","2","legacy","3","1024","2","48000","-16","experiment","4","even","4","72495","49027","69136","70275","2748","NA","70278","NA","2756","NA","74503","71287","75627","74503","NA","Sternberg Task","4","5009","4","yes","1024"
"100","100","1229.2","1229.2","black","practice","legacy","legacy","legacy","0","uniform","1","undefined","1","right","4","0","4","4","0","0","4","4","0","0","4","4","4","4","0","10/21/21 17:24:17","The main experiment item","yes","SternbergTask.osexp","C:\Users\bryan\OneDrive\Documents\School\PSYC 5316  (Quant Methods)\Lab 3","no","mono","no","18","no","white","no","yes","768","legacy","4","4","C:/Users/bryan/OneDrive/Documents/School/PSYC 5316  (Quant Methods)/Lab 3/BS-subject-4.csv","legacy","5","Lentiform Loewenfeld","3.3.9","0","n","0","right","left","NA","right","NA","1137","46269","NA","1137","NA","2","legacy","1","1024","2","48000","-16","experiment","4","even","3","78999","49027","75633","76779","2748","NA","76783","NA","2756","NA","81008","77791","82146","81007","NA","Sternberg Task","5","6146","5","yes","1024"
"83.3333333333","83.3333333333","1216.16666667","1216.16666667","black","practice","legacy","legacy","legacy","0","uniform","0","undefined","0","left","5","0","5","5","0","0","5","5","0","0","5","5","5","5","0","10/21/21 17:24:17","The main experiment item","yes","SternbergTask.osexp","C:\Users\bryan\OneDrive\Documents\School\PSYC 5316  (Quant Methods)\Lab 3","no","mono","no","18","no","white","no","yes","768","legacy","5","5","C:/Users/bryan/OneDrive/Documents/School/PSYC 5316  (Quant Methods)/Lab 3/BS-subject-4.csv","legacy","4 8","Lentiform Loewenfeld","3.3.9","1","y","0","right","left","NA","right","NA","1151","46269","NA","1151","NA","2","legacy","2","1024","2","48000","-16","experiment","4","even","4","85515","49027","82155","83295","2748","NA","83299","NA","2756","NA","87523","84307","88674","87523","NA","Sternberg Task","5","7297","6","yes","1024"
"85.7142857143","85.7142857143","1324.71428571","1324.71428571","black","practice","legacy","legacy","legacy","0","uniform","1","undefined","1","right","6","0","6","6","0","0","6","6","0","0","6","6","6","6","0","10/21/21 17:24:17","The main experiment item","yes","SternbergTask.osexp","C:\Users\bryan\OneDrive\Documents\School\PSYC 5316  (Quant Methods)\Lab 3","no","mono","no","18","no","white","no","yes","768","legacy","6","6","C:/Users/bryan/OneDrive/Documents/School/PSYC 5316  (Quant Methods)/Lab 3/BS-subject-4.csv","legacy","9 6 7 4 5","Lentiform Loewenfeld","3.3.9","0","n","0","right","left","NA","right","NA","1976","46269","NA","1976","NA","2","legacy","5","1024","2","48000","-16","experiment","4","even","3","92044","49027","82155","89828","2748","NA","89832","88683","2756","NA","94052","90836","96028","94052","NA","Sternberg Task","6","9273","7","yes","1024"
"87.5","87.5","1331","1331","black","practice","legacy","legacy","legacy","0","uniform","1","undefined","1","left","7","0","7","7","0","0","7","7","0","0","7","7","7","7","0","10/21/21 17:24:17","The main experiment item","yes","SternbergTask.osexp","C:\Users\bryan\OneDrive\Documents\School\PSYC 5316  (Quant Methods)\Lab 3","no","mono","no","18","no","white","no","yes","768","legacy","7","7","C:/Users/bryan/OneDrive/Documents/School/PSYC 5316  (Quant Methods)/Lab 3/BS-subject-4.csv","legacy","1 5 2 9","Lentiform Loewenfeld","3.3.9","2","y","0","left","left","NA","left","NA","1375","46269","NA","1375","NA","2","legacy","4","1024","2","48000","-16","experiment","4","even","5","99404","49027","96037","97184","2748","NA","97188","88683","2756","NA","101412","98196","102787","101412","NA","Sternberg Task","7","10648","8","yes","1024"
"88.8888888889","88.8888888889","1303","1303","black","practice","legacy","legacy","legacy","0","uniform","1","undefined","1","right","8","0","8","8","0","0","8","8","0","0","8","8","8","8","0","10/21/21 17:24:17","The main experiment item","yes","SternbergTask.osexp","C:\Users\bryan\OneDrive\Documents\School\PSYC 5316  (Quant Methods)\Lab 3","no","mono","no","18","no","white","no","yes","768","legacy","8","8","C:/Users/bryan/OneDrive/Documents/School/PSYC 5316  (Quant Methods)/Lab 3/BS-subject-4.csv","legacy","2 1","Lentiform Loewenfeld","3.3.9","0","n","0","right","left","NA","right","NA","1079","46269","NA","1079","NA","2","legacy","2","1024","2","48000","-16","experiment","4","even","5","106155","49027","102796","103935","2748","NA","103939","88683","2756","NA","108163","104947","109243","108163","NA","Sternberg Task","8","11727","9","yes","1024"
"90","90","1331","1331","black","practice","legacy","legacy","legacy","0","uniform","1","undefined","1","left","9","0","9","9","0","0","9","9","0","0","9","9","9","9","0","10/21/21 17:24:17","The main experiment item","yes","SternbergTask.osexp","C:\Users\bryan\OneDrive\Documents\School\PSYC 5316  (Quant Methods)\Lab 3","no","mono","no","18","no","white","no","yes","768","legacy","9","9","C:/Users/bryan/OneDrive/Documents/School/PSYC 5316  (Quant Methods)/Lab 3/BS-subject-4.csv","legacy","6","Lentiform Loewenfeld","3.3.9","1","y","0","left","left","NA","left","NA","1583","46269","NA","1583","NA","2","legacy","1","1024","2","48000","-16","experiment","4","even","6","112623","49027","109252","110403","2748","NA","110407","88683","2756","NA","114631","111415","116215","114631","NA","Sternberg Task","9","13310","10","yes","1024"
"90.9090909091","90.9090909091","1356.27272727","1356.27272727","black","practice","legacy","legacy","legacy","0","uniform","1","undefined","1","left","10","0","10","10","0","0","10","10","0","0","10","10","10","10","0","10/21/21 17:24:17","The main experiment item","yes","SternbergTask.osexp","C:\Users\bryan\OneDrive\Documents\School\PSYC 5316  (Quant Methods)\Lab 3","no","mono","no","18","no","white","no","yes","768","legacy","10","10","C:/Users/bryan/OneDrive/Documents/School/PSYC 5316  (Quant Methods)/Lab 3/BS-subject-4.csv","legacy","1 7 9 8 5","Lentiform Loewenfeld","3.3.9","4","y","0","left","left","NA","left","NA","1609","46269","NA","1609","NA","2","legacy","5","1024","2","48000","-16","experiment","4","even","8","119590","49027","116224","117370","2748","NA","117374","88683","2756","NA","121599","118382","123209","121598","NA","Sternberg Task","10","14919","11","yes","1024"
"91.6666666667","91.6666666667","1340.25","1340.25","black","practice","legacy","legacy","legacy","0","uniform","1","undefined","1","right","11","0","11","11","0","0","11","11","0","0","11","11","11","11","0","10/21/21 17:24:17","The main experiment item","yes","SternbergTask.osexp","C:\Users\bryan\OneDrive\Documents\School\PSYC 5316  (Quant Methods)\Lab 3","no","mono","no","18","no","white","no","yes","768","legacy","11","11","C:/Users/bryan/OneDrive/Documents/School/PSYC 5316  (Quant Methods)/Lab 3/BS-subject-4.csv","legacy","4 1 5","Lentiform Loewenfeld","3.3.9","0","n","0","right","left","NA","right","NA","1164","46269","NA","1164","NA","2","legacy","3","1024","2","48000","-16","experiment","4","even","2","126576","49027","123218","124361","2748","NA","124364","88683","2756","NA","128584","125368","129749","128584","NA","Sternberg Task","11","16083","12","yes","1024"
"92.3076923077","92.3076923077","1317.07692308","1317.07692308","black","experiment","legacy","legacy","legacy","0","uniform","1","undefined","1","left","12","0","12","12","0","0","12","12","0","0","12","12","12","12","0","10/21/21 17:24:17","The main experiment item","yes","SternbergTask.osexp","C:\Users\bryan\OneDrive\Documents\School\PSYC 5316  (Quant Methods)\Lab 3","no","mono","no","18","no","white","no","yes","768","legacy","0","11","C:/Users/bryan/OneDrive/Documents/School/PSYC 5316  (Quant Methods)/Lab 3/BS-subject-4.csv","legacy","7 1 8 5 6 2","Lentiform Loewenfeld","3.3.9","2","y","0","left","left","left","left","NA","1039","46269","56176","1039","NA","2","legacy","6","1024","2","48000","-16","experiment","4","even","1","189361","49027","129758","187141","2748","186984","187145","88683","2756","130807","191370","188153","192410","191369","NA","Sternberg Task","12","17122","13","yes","1024"
"92.8571428571","92.8571428571","1261.78571429","1261.78571429","black","experiment","legacy","legacy","legacy","0","uniform","1","undefined","1","left","13","0","13","13","0","0","13","13","0","0","13","13","13","13","0","10/21/21 17:24:17","The main experiment item","yes","SternbergTask.osexp","C:\Users\bryan\OneDrive\Documents\School\PSYC 5316  (Quant Methods)\Lab 3","no","mono","no","18","no","white","no","yes","768","legacy","1","11","C:/Users/bryan/OneDrive/Documents/School/PSYC 5316  (Quant Methods)/Lab 3/BS-subject-4.csv","legacy","6 2","Lentiform Loewenfeld","3.3.9","1","y","0","left","left","left","left","NA","543","46269","56176","543","NA","2","legacy","2","1024","2","48000","-16","experiment","4","even","6","195787","49027","192419","193567","2748","186984","193571","88683","2756","130807","197795","194579","198338","197795","NA","Sternberg Task","13","17665","14","yes","1024"
"93.3333333333","93.3333333333","1241.4","1241.4","black","experiment","legacy","legacy","legacy","0","uniform","1","undefined","1","right","14","0","14","14","0","0","14","14","0","0","14","14","14","14","0","10/21/21 17:24:17","The main experiment item","yes","SternbergTask.osexp","C:\Users\bryan\OneDrive\Documents\School\PSYC 5316  (Quant Methods)\Lab 3","no","mono","no","18","no","white","no","yes","768","legacy","2","11","C:/Users/bryan/OneDrive/Documents/School/PSYC 5316  (Quant Methods)/Lab 3/BS-subject-4.csv","legacy","6 9 5","Lentiform Loewenfeld","3.3.9","0","n","0","right","left","left","right","NA","956","46269","56176","956","NA","2","legacy","3","1024","2","48000","-16","experiment","4","even","8","201704","49027","198345","199484","2748","186984","199488","88683","2756","130807","203712","200496","204669","203712","NA","Sternberg Task","14","18621","15","yes","1024"
"93.75","93.75","1211","1211","black","experiment","legacy","legacy","legacy","0","uniform","1","undefined","1","left","15","0","15","15","0","0","15","15","0","0","15","15","15","15","0","10/21/21 17:24:17","The main experiment item","yes","SternbergTask.osexp","C:\Users\bryan\OneDrive\Documents\School\PSYC 5316  (Quant Methods)\Lab 3","no","mono","no","18","no","white","no","yes","768","legacy","3","11","C:/Users/bryan/OneDrive/Documents/School/PSYC 5316  (Quant Methods)/Lab 3/BS-subject-4.csv","legacy","5 7 8 2 3 8","Lentiform Loewenfeld","3.3.9","5","y","0","left","left","left","left","NA","755","46269","56176","755","NA","2","legacy","6","1024","2","48000","-16","experiment","4","even","3","208036","49027","204678","205816","2748","186984","205820","88683","2756","130807","210044","206828","210800","210044","NA","Sternberg Task","15","19376","16","yes","1024"
"88.2352941176","88.2352941176","1219.94117647","1219.94117647","black","experiment","legacy","legacy","legacy","0","uniform","0","undefined","0","right","16","0","16","16","0","0","16","16","0","0","16","16","16","16","0","10/21/21 17:24:17","The main experiment item","yes","SternbergTask.osexp","C:\Users\bryan\OneDrive\Documents\School\PSYC 5316  (Quant Methods)\Lab 3","no","mono","no","18","no","white","no","yes","768","legacy","4","11","C:/Users/bryan/OneDrive/Documents/School/PSYC 5316  (Quant Methods)/Lab 3/BS-subject-4.csv","legacy","4 2 7 6 1 3","Lentiform Loewenfeld","3.3.9","0","n","0","left","left","left","left","NA","1363","46269","56176","1363","NA","2","legacy","6","1024","2","48000","-16","experiment","4","even","8","214176","49027","210809","211956","2748","186984","211960","88683","2756","130807","216184","212968","217548","216184","NA","Sternberg Task","15","20739","17","yes","1024"
"88.8888888889","88.8888888889","1199.27777778","1199.27777778","black","experiment","legacy","legacy","legacy","0","uniform","1","undefined","1","right","17","0","17","17","0","0","17","17","0","0","17","17","17","17","0","10/21/21 17:24:17","The main experiment item","yes","SternbergTask.osexp","C:\Users\bryan\OneDrive\Documents\School\PSYC 5316  (Quant Methods)\Lab 3","no","mono","no","18","no","white","no","yes","768","legacy","5","11","C:/Users/bryan/OneDrive/Documents/School/PSYC 5316  (Quant Methods)/Lab 3/BS-subject-4.csv","legacy","4 8 1 2","Lentiform Loewenfeld","3.3.9","0","n","0","right","left","left","right","NA","848","46269","56176","848","NA","2","legacy","4","1024","2","48000","-16","experiment","4","even","7","220924","49027","210809","218704","2748","186984","218708","217558","2756","130807","222932","219716","223781","222932","NA","Sternberg Task","16","21587","18","yes","1024"
"89.4736842105","89.4736842105","1191.10526316","1191.10526316","black","experiment","legacy","legacy","legacy","0","uniform","1","undefined","1","left","18","0","18","18","0","0","18","18","0","0","18","18","18","18","0","10/21/21 17:24:17","The main experiment item","yes","SternbergTask.osexp","C:\Users\bryan\OneDrive\Documents\School\PSYC 5316  (Quant Methods)\Lab 3","no","mono","no","18","no","white","no","yes","768","legacy","6","11","C:/Users/bryan/OneDrive/Documents/School/PSYC 5316  (Quant Methods)/Lab 3/BS-subject-4.csv","legacy","7 2 3","Lentiform Loewenfeld","3.3.9","3","y","0","left","left","left","left","NA","1044","46269","56176","1044","NA","2","legacy","3","1024","2","48000","-16","experiment","4","even","3","227161","49027","223790","224941","2748","186984","224945","217558","2756","130807","229169","225953","230213","229169","NA","Sternberg Task","17","22631","19","yes","1024"
"90","90","1162.8","1162.8","black","experiment","legacy","legacy","legacy","0","uniform","1","undefined","1","left","19","0","19","19","0","0","19","19","0","0","19","19","19","19","0","10/21/21 17:24:17","The main experiment item","yes","SternbergTask.osexp","C:\Users\bryan\OneDrive\Documents\School\PSYC 5316  (Quant Methods)\Lab 3","no","mono","no","18","no","white","no","yes","768","legacy","7","11","C:/Users/bryan/OneDrive/Documents/School/PSYC 5316  (Quant Methods)/Lab 3/BS-subject-4.csv","legacy","3 4","Lentiform Loewenfeld","3.3.9","1","y","0","left","left","left","left","NA","625","46269","56176","625","NA","2","legacy","2","1024","2","48000","-16","experiment","4","even","3","233587","49027","230222","231367","2748","186984","231371","217558","2756","130807","235596","232379","236222","235595","NA","Sternberg Task","18","23256","20","yes","1024"
"90.4761904762","90.4761904762","1157","1157","black","experiment","legacy","legacy","legacy","0","uniform","1","undefined","1","left","20","0","20","20","0","0","20","20","0","0","20","20","20","20","0","10/21/21 17:24:17","The main experiment item","yes","SternbergTask.osexp","C:\Users\bryan\OneDrive\Documents\School\PSYC 5316  (Quant Methods)\Lab 3","no","mono","no","18","no","white","no","yes","768","legacy","8","11","C:/Users/bryan/OneDrive/Documents/School/PSYC 5316  (Quant Methods)/Lab 3/BS-subject-4.csv","legacy","4 3 2 5 8","Lentiform Loewenfeld","3.3.9","2","y","0","left","left","left","left","NA","1041","46269","56176","1041","NA","2","legacy","5","1024","2","48000","-16","experiment","4","even","3","239592","49027","236230","237373","2748","186984","237376","217558","2756","130807","241600","238384","242642","241600","NA","Sternberg Task","19","24297","21","yes","1024"
"90.9090909091","90.9090909091","1144.77272727","1144.77272727","black","experiment","legacy","legacy","legacy","0","uniform","1","undefined","1","left","21","0","21","21","0","0","21","21","0","0","21","21","21","21","0","10/21/21 17:24:17","The main experiment item","yes","SternbergTask.osexp","C:\Users\bryan\OneDrive\Documents\School\PSYC 5316  (Quant Methods)\Lab 3","no","mono","no","18","no","white","no","yes","768","legacy","9","11","C:/Users/bryan/OneDrive/Documents/School/PSYC 5316  (Quant Methods)/Lab 3/BS-subject-4.csv","legacy","3 9 6 2","Lentiform Loewenfeld","3.3.9","4","y","0","left","left","left","left","NA","888","46269","56176","888","NA","2","legacy","4","1024","2","48000","-16","experiment","4","even","2","246011","49027","242650","243791","2748","186984","243795","217558","2756","130807","248019","244803","248908","248019","NA","Sternberg Task","20","25185","22","yes","1024"
"91.3043478261","91.3043478261","1131.91304348","1131.91304348","black","experiment","legacy","legacy","legacy","0","uniform","1","undefined","1","left","22","0","22","22","0","0","22","22","0","0","22","22","22","22","0","10/21/21 17:24:17","The main experiment item","yes","SternbergTask.osexp","C:\Users\bryan\OneDrive\Documents\School\PSYC 5316  (Quant Methods)\Lab 3","no","mono","no","18","no","white","no","yes","768","legacy","10","11","C:/Users/bryan/OneDrive/Documents/School/PSYC 5316  (Quant Methods)/Lab 3/BS-subject-4.csv","legacy","4 6 2 5 1","Lentiform Loewenfeld","3.3.9","5","y","0","left","left","left","left","NA","849","46269","56176","849","NA","2","legacy","5","1024","2","48000","-16","experiment","4","even","1","252317","49027","248916","250097","2748","186984","250101","217558","2756","130807","254325","251109","255175","254325","NA","Sternberg Task","21","26034","23","yes","1024"
"91.6666666667","91.6666666667","1117.41666667","1117.41666667","black","experiment","legacy","legacy","legacy","0","uniform","1","undefined","1","right","23","0","23","23","0","0","23","23","0","0","23","23","23","23","0","10/21/21 17:24:17","The main experiment item","yes","SternbergTask.osexp","C:\Users\bryan\OneDrive\Documents\School\PSYC 5316  (Quant Methods)\Lab 3","no","mono","no","18","no","white","no","yes","768","legacy","11","11","C:/Users/bryan/OneDrive/Documents/School/PSYC 5316  (Quant Methods)/Lab 3/BS-subject-4.csv","legacy","1","Lentiform Loewenfeld","3.3.9","0","n","0","right","left","left","right","NA","784","46269","56176","784","NA","2","legacy","1","1024","2","48000","-16","experiment","4","even","7","258547","49027","255182","256328","2748","186984","256331","217558","2756","130807","260555","257339","261340","260555","NA","Sternberg Task","22","26818","24","yes","1024"
"92","92","1114.08","1114.08","black","experiment","legacy","legacy","legacy","0","uniform","1","undefined","1","right","24","0","24","24","0","0","24","24","0","0","24","24","24","24","0","10/21/21 17:24:17","The main experiment item","yes","SternbergTask.osexp","C:\Users\bryan\OneDrive\Documents\School\PSYC 5316  (Quant Methods)\Lab 3","no","mono","no","18","no","white","no","yes","768","legacy","12","11","C:/Users/bryan/OneDrive/Documents/School/PSYC 5316  (Quant Methods)/Lab 3/BS-subject-4.csv","legacy","6 9 7 3 8 2","Lentiform Loewenfeld","3.3.9","0","n","0","right","left","left","right","NA","1034","46269","56176","1034","NA","2","legacy","6","1024","2","48000","-16","experiment","4","even","5","264707","49027","261348","262487","2748","186984","262491","217558","2756","130807","266715","263499","267750","266715","NA","Sternberg Task","23","27852","25","yes","1024"
"92.3076923077","92.3076923077","1113.30769231","1113.30769231","black","experiment","legacy","legacy","legacy","0","uniform","1","undefined","1","left","25","0","25","25","0","0","25","25","0","0","25","25","25","25","0","10/21/21 17:24:17","The main experiment item","yes","SternbergTask.osexp","C:\Users\bryan\OneDrive\Documents\School\PSYC 5316  (Quant Methods)\Lab 3","no","mono","no","18","no","white","no","yes","768","legacy","13","11","C:/Users/bryan/OneDrive/Documents/School/PSYC 5316  (Quant Methods)/Lab 3/BS-subject-4.csv","legacy","4 1 8 7 5","Lentiform Loewenfeld","3.3.9","3","y","0","left","left","left","left","NA","1094","46269","56176","1094","NA","2","legacy","5","1024","2","48000","-16","experiment","4","even","8","271123","49027","267759","268903","2748","186984","268906","217558","2756","130807","273131","269915","274226","273131","NA","Sternberg Task","24","28946","26","yes","1024"
"92.5925925926","92.5925925926","1105.11111111","1105.11111111","black","experiment","legacy","legacy","legacy","0","uniform","1","undefined","1","right","26","0","26","26","0","0","26","26","0","0","26","26","26","26","0","10/21/21 17:24:17","The main experiment item","yes","SternbergTask.osexp","C:\Users\bryan\OneDrive\Documents\School\PSYC 5316  (Quant Methods)\Lab 3","no","mono","no","18","no","white","no","yes","768","legacy","14","11","C:/Users/bryan/OneDrive/Documents/School/PSYC 5316  (Quant Methods)/Lab 3/BS-subject-4.csv","legacy","4 2 6 9","Lentiform Loewenfeld","3.3.9","0","n","0","right","left","left","right","NA","892","46269","56176","892","NA","2","legacy","4","1024","2","48000","-16","experiment","4","even","7","277587","49027","274234","275367","2748","186984","275371","217558","2756","130807","279596","276379","280489","279595","NA","Sternberg Task","25","29838","27","yes","1024"
"92.8571428571","92.8571428571","1104.71428571","1104.71428571","black","experiment","legacy","legacy","legacy","0","uniform","1","undefined","1","right","27","0","27","27","0","0","27","27","0","0","27","27","27","27","0","10/21/21 17:24:17","The main experiment item","yes","SternbergTask.osexp","C:\Users\bryan\OneDrive\Documents\School\PSYC 5316  (Quant Methods)\Lab 3","no","mono","no","18","no","white","no","yes","768","legacy","15","11","C:/Users/bryan/OneDrive/Documents/School/PSYC 5316  (Quant Methods)/Lab 3/BS-subject-4.csv","legacy","9 8 2 7 4","Lentiform Loewenfeld","3.3.9","0","n","0","right","left","left","right","NA","1094","46269","56176","1094","NA","2","legacy","5","1024","2","48000","-16","experiment","4","even","5","283867","49027","280498","281647","2748","186984","281651","217558","2756","130807","285875","282659","286970","285875","NA","Sternberg Task","26","30932","28","yes","1024"
"93.1034482759","93.1034482759","1117.34482759","1117.34482759","black","experiment","legacy","legacy","legacy","0","uniform","1","undefined","1","left","28","0","28","28","0","0","28","28","0","0","28","28","28","28","0","10/21/21 17:24:17","The main experiment item","yes","SternbergTask.osexp","C:\Users\bryan\OneDrive\Documents\School\PSYC 5316  (Quant Methods)\Lab 3","no","mono","no","18","no","white","no","yes","768","legacy","16","11","C:/Users/bryan/OneDrive/Documents/School/PSYC 5316  (Quant Methods)/Lab 3/BS-subject-4.csv","legacy","9 6 2 4 1","Lentiform Loewenfeld","3.3.9","4","y","0","left","left","left","left","NA","1471","46269","56176","1471","NA","2","legacy","5","1024","2","48000","-16","experiment","4","even","4","290345","49027","286979","288126","2748","186984","288129","217558","2756","130807","292353","289137","293825","292353","NA","Sternberg Task","27","32403","29","yes","1024"
"93.3333333333","93.3333333333","1125.53333333","1125.53333333","black","experiment","legacy","legacy","legacy","0","uniform","1","undefined","1","right","29","0","29","29","0","0","29","29","0","0","29","29","29","29","0","10/21/21 17:24:17","The main experiment item","yes","SternbergTask.osexp","C:\Users\bryan\OneDrive\Documents\School\PSYC 5316  (Quant Methods)\Lab 3","no","mono","no","18","no","white","no","yes","768","legacy","17","11","C:/Users/bryan/OneDrive/Documents/School/PSYC 5316  (Quant Methods)/Lab 3/BS-subject-4.csv","legacy","3 4 9 6 7 8","Lentiform Loewenfeld","3.3.9","0","n","0","right","left","left","right","NA","1363","46269","56176","1363","NA","2","legacy","6","1024","2","48000","-16","experiment","4","even","2","297200","49027","293831","294980","2748","186984","294984","217558","2756","130807","299208","295992","300572","299208","NA","Sternberg Task","28","33766","30","yes","1024"
"93.5483870968","93.5483870968","1120.87096774","1120.87096774","black","experiment","legacy","legacy","legacy","0","uniform","1","undefined","1","right","30","0","30","30","0","0","30","30","0","0","30","30","30","30","0","10/21/21 17:24:17","The main experiment item","yes","SternbergTask.osexp","C:\Users\bryan\OneDrive\Documents\School\PSYC 5316  (Quant Methods)\Lab 3","no","mono","no","18","no","white","no","yes","768","legacy","18","11","C:/Users/bryan/OneDrive/Documents/School/PSYC 5316  (Quant Methods)/Lab 3/BS-subject-4.csv","legacy","2 8 9","Lentiform Loewenfeld","3.3.9","0","n","0","right","left","left","right","NA","981","46269","56176","981","NA","2","legacy","3","1024","2","48000","-16","experiment","4","even","6","303944","49027","300581","301724","2748","186984","301728","217558","2756","130807","305952","302736","306934","305952","NA","Sternberg Task","29","34747","31","yes","1024"
"90.625","90.625","1117.71875","1117.71875","black","experiment","legacy","legacy","legacy","0","uniform","0","undefined","0","left","31","0","31","31","0","0","31","31","0","0","31","31","31","31","0","10/21/21 17:24:17","The main experiment item","yes","SternbergTask.osexp","C:\Users\bryan\OneDrive\Documents\School\PSYC 5316  (Quant Methods)\Lab 3","no","mono","no","18","no","white","no","yes","768","legacy","19","11","C:/Users/bryan/OneDrive/Documents/School/PSYC 5316  (Quant Methods)/Lab 3/BS-subject-4.csv","legacy","8 5 4 7 3 1","Lentiform Loewenfeld","3.3.9","2","y","0","right","left","left","right","NA","1020","46269","56176","1020","NA","2","legacy","6","1024","2","48000","-16","experiment","4","even","5","310319","49027","306943","308099","2748","186984","308103","217558","2756","130807","312327","309111","313348","312327","NA","Sternberg Task","29","35767","32","yes","1024"
"87.8787878788","87.8787878788","1118.21212121","1118.21212121","black","experiment","legacy","legacy","legacy","0","uniform","0","undefined","0","left","32","0","32","32","0","0","32","32","0","0","32","32","32","32","0","10/21/21 17:24:17","The main experiment item","yes","SternbergTask.osexp","C:\Users\bryan\OneDrive\Documents\School\PSYC 5316  (Quant Methods)\Lab 3","no","mono","no","18","no","white","no","yes","768","legacy","20","11","C:/Users/bryan/OneDrive/Documents/School/PSYC 5316  (Quant Methods)/Lab 3/BS-subject-4.csv","legacy","6 8 9 3 4 9","Lentiform Loewenfeld","3.3.9","5","y","0","right","left","left","right","NA","1134","46269","56176","1134","NA","2","legacy","6","1024","2","48000","-16","experiment","4","even","4","316727","49027","306943","314508","2748","186984","314511","313356","2756","130807","318735","315519","319870","318735","NA","Sternberg Task","29","36901","33","yes","1024"
"88.2352941176","88.2352941176","1118.02941176","1118.02941176","black","experiment","legacy","legacy","legacy","0","uniform","1","undefined","1","right","33","0","33","33","0","0","33","33","0","0","33","33","33","33","0","10/21/21 17:24:17","The main experiment item","yes","SternbergTask.osexp","C:\Users\bryan\OneDrive\Documents\School\PSYC 5316  (Quant Methods)\Lab 3","no","mono","no","18","no","white","no","yes","768","legacy","21","11","C:/Users/bryan/OneDrive/Documents/School/PSYC 5316  (Quant Methods)/Lab 3/BS-subject-4.csv","legacy","2 7 5","Lentiform Loewenfeld","3.3.9","0","n","0","right","left","left","right","NA","1112","46269","56176","1112","NA","2","legacy","3","1024","2","48000","-16","experiment","4","even","8","323235","49027","306943","321015","2748","186984","321019","319879","2756","130807","325243","322027","326356","325243","NA","Sternberg Task","30","38013","34","yes","1024"
"88.5714285714","88.5714285714","1115.28571429","1115.28571429","black","experiment","legacy","legacy","legacy","0","uniform","1","undefined","1","right","34","0","34","34","0","0","34","34","0","0","34","34","34","34","0","10/21/21 17:24:17","The main experiment item","yes","SternbergTask.osexp","C:\Users\bryan\OneDrive\Documents\School\PSYC 5316  (Quant Methods)\Lab 3","no","mono","no","18","no","white","no","yes","768","legacy","22","11","C:/Users/bryan/OneDrive/Documents/School/PSYC 5316  (Quant Methods)/Lab 3/BS-subject-4.csv","legacy","1 7 5 2","Lentiform Loewenfeld","3.3.9","0","n","0","right","left","left","right","NA","1022","46269","56176","1022","NA","2","legacy","4","1024","2","48000","-16","experiment","4","even","3","329753","49027","326365","327533","2748","186984","327537","319879","2756","130807","331761","328545","332784","331761","NA","Sternberg Task","31","39035","35","yes","1024"
"88.8888888889","88.8888888889","1127.08333333","1127.08333333","black","experiment","legacy","legacy","legacy","0","uniform","1","undefined","1","left","35","0","35","35","0","0","35","35","0","0","35","35","35","35","0","10/21/21 17:24:17","The main experiment item","yes","SternbergTask.osexp","C:\Users\bryan\OneDrive\Documents\School\PSYC 5316  (Quant Methods)\Lab 3","no","mono","no","18","no","white","no","yes","768","legacy","23","11","C:/Users/bryan/OneDrive/Documents/School/PSYC 5316  (Quant Methods)/Lab 3/BS-subject-4.csv","legacy","8 3","Lentiform Loewenfeld","3.3.9","2","y","0","left","left","left","left","NA","1540","46269","56176","1540","NA","2","legacy","2","1024","2","48000","-16","experiment","4","even","3","336153","49027","332793","333938","2748","186984","333941","319879","2756","130807","338161","334944","339702","338161","NA","Sternberg Task","32","40575","36","yes","1024"
"89.1891891892","89.1891891892","1137.10810811","1137.10810811","black","experiment","legacy","legacy","legacy","0","uniform","1","undefined","1","right","36","0","36","36","0","0","36","36","0","0","36","36","36","36","0","10/21/21 17:24:17","The main experiment item","yes","SternbergTask.osexp","C:\Users\bryan\OneDrive\Documents\School\PSYC 5316  (Quant Methods)\Lab 3","no","mono","no","18","no","white","no","yes","768","legacy","24","11","C:/Users/bryan/OneDrive/Documents/School/PSYC 5316  (Quant Methods)/Lab 3/BS-subject-4.csv","legacy","1 5 3 2 8","Lentiform Loewenfeld","3.3.9","0","n","0","right","left","left","right","NA","1498","46269","56176","1498","NA","2","legacy","5","1024","2","48000","-16","experiment","4","even","4","343070","49027","339711","340850","2748","186984","340854","319879","2756","130807","345078","341862","346577","345078","NA","Sternberg Task","33","42073","37","yes","1024"
"89.4736842105","89.4736842105","1143.55263158","1143.55263158","black","experiment","legacy","legacy","legacy","0","uniform","1","undefined","1","left","37","0","37","37","0","0","37","37","0","0","37","37","37","37","0","10/21/21 17:24:17","The main experiment item","yes","SternbergTask.osexp","C:\Users\bryan\OneDrive\Documents\School\PSYC 5316  (Quant Methods)\Lab 3","no","mono","no","18","no","white","no","yes","768","legacy","25","11","C:/Users/bryan/OneDrive/Documents/School/PSYC 5316  (Quant Methods)/Lab 3/BS-subject-4.csv","legacy","3 5 9 6 2 4","Lentiform Loewenfeld","3.3.9","1","y","0","left","left","left","left","NA","1382","46269","56176","1382","NA","2","legacy","6","1024","2","48000","-16","experiment","4","even","3","349955","49027","346585","347735","2748","186984","347739","319879","2756","130807","351963","348747","353346","351963","NA","Sternberg Task","34","43455","38","yes","1024"
"89.7435897436","89.7435897436","1147.38461538","1147.38461538","black","experiment","legacy","legacy","legacy","0","uniform","1","undefined","1","left","38","0","38","38","0","0","38","38","0","0","38","38","38","38","0","10/21/21 17:24:17","The main experiment item","yes","SternbergTask.osexp","C:\Users\bryan\OneDrive\Documents\School\PSYC 5316  (Quant Methods)\Lab 3","no","mono","no","18","no","white","no","yes","768","legacy","26","11","C:/Users/bryan/OneDrive/Documents/School/PSYC 5316  (Quant Methods)/Lab 3/BS-subject-4.csv","legacy","9 5 8 1","Lentiform Loewenfeld","3.3.9","2","y","0","left","left","left","left","NA","1293","46269","56176","1293","NA","2","legacy","4","1024","2","48000","-16","experiment","4","even","5","356715","49027","353352","354495","2748","186984","354499","319879","2756","130807","358723","355507","360017","358723","NA","Sternberg Task","35","44748","39","yes","1024"
"90","90","1144.7","1144.7","black","experiment","legacy","legacy","legacy","0","uniform","1","undefined","1","right","39","0","39","39","0","0","39","39","0","0","39","39","39","39","0","10/21/21 17:24:17","The main experiment item","yes","SternbergTask.osexp","C:\Users\bryan\OneDrive\Documents\School\PSYC 5316  (Quant Methods)\Lab 3","no","mono","no","18","no","white","no","yes","768","legacy","27","11","C:/Users/bryan/OneDrive/Documents/School/PSYC 5316  (Quant Methods)/Lab 3/BS-subject-4.csv","legacy","2 6 4 3 9","Lentiform Loewenfeld","3.3.9","0","n","0","right","left","left","right","NA","1040","46269","56176","1040","NA","2","legacy","5","1024","2","48000","-16","experiment","4","even","1","363381","49027","360026","361161","2748","186984","361165","319879","2756","130807","365389","362173","366431","365389","NA","Sternberg Task","36","45788","40","yes","1024"
"90.243902439","90.243902439","1138.87804878","1138.87804878","black","experiment","legacy","legacy","legacy","0","uniform","1","undefined","1","left","40","0","40","40","0","0","40","40","0","0","40","40","40","40","0","10/21/21 17:24:17","The main experiment item","yes","SternbergTask.osexp","C:\Users\bryan\OneDrive\Documents\School\PSYC 5316  (Quant Methods)\Lab 3","no","mono","no","18","no","white","no","yes","768","legacy","28","11","C:/Users/bryan/OneDrive/Documents/School/PSYC 5316  (Quant Methods)/Lab 3/BS-subject-4.csv","legacy","2 3 7 4","Lentiform Loewenfeld","3.3.9","1","y","0","left","left","left","left","NA","906","46269","56176","906","NA","2","legacy","4","1024","2","48000","-16","experiment","4","even","2","369811","49027","366440","367591","2748","186984","367595","319879","2756","130807","371819","368603","372727","371819","NA","Sternberg Task","37","46694","41","yes","1024"
"90.4761904762","90.4761904762","1133.07142857","1133.07142857","black","experiment","legacy","legacy","legacy","0","uniform","1","undefined","1","right","41","0","41","41","0","0","41","41","0","0","41","41","41","41","0","10/21/21 17:24:17","The main experiment item","yes","SternbergTask.osexp","C:\Users\bryan\OneDrive\Documents\School\PSYC 5316  (Quant Methods)\Lab 3","no","mono","no","18","no","white","no","yes","768","legacy","29","11","C:/Users/bryan/OneDrive/Documents/School/PSYC 5316  (Quant Methods)/Lab 3/BS-subject-4.csv","legacy","3 4 2","Lentiform Loewenfeld","3.3.9","0","n","0","right","left","left","right","NA","895","46269","56176","895","NA","2","legacy","3","1024","2","48000","-16","experiment","4","even","5","376094","49027","372733","373874","2748","186984","373878","319879","2756","130807","378102","374886","378998","378102","NA","Sternberg Task","38","47589","42","yes","1024"
"90.6976744186","90.6976744186","1128.3255814","1128.3255814","black","experiment","legacy","legacy","legacy","0","uniform","1","undefined","1","right","42","0","42","42","0","0","42","42","0","0","42","42","42","42","0","10/21/21 17:24:17","The main experiment item","yes","SternbergTask.osexp","C:\Users\bryan\OneDrive\Documents\School\PSYC 5316  (Quant Methods)\Lab 3","no","mono","no","18","no","white","no","yes","768","legacy","30","11","C:/Users/bryan/OneDrive/Documents/School/PSYC 5316  (Quant Methods)/Lab 3/BS-subject-4.csv","legacy","1 6 4 3 9 7","Lentiform Loewenfeld","3.3.9","0","n","0","right","left","left","right","NA","929","46269","56176","929","NA","2","legacy","6","1024","2","48000","-16","experiment","4","even","8","382365","49027","379005","380145","2748","186984","380148","319879","2756","130807","384373","381157","385304","384373","NA","Sternberg Task","39","48518","43","yes","1024"
"90.9090909091","90.9090909091","1127.02272727","1127.02272727","black","experiment","legacy","legacy","legacy","0","uniform","1","undefined","1","left","43","0","43","43","0","0","43","43","0","0","43","43","43","43","0","10/21/21 17:24:17","The main experiment item","yes","SternbergTask.osexp","C:\Users\bryan\OneDrive\Documents\School\PSYC 5316  (Quant Methods)\Lab 3","no","mono","no","18","no","white","no","yes","768","legacy","31","11","C:/Users/bryan/OneDrive/Documents/School/PSYC 5316  (Quant Methods)/Lab 3/BS-subject-4.csv","legacy","7 1 3","Lentiform Loewenfeld","3.3.9","2","y","0","left","left","left","left","NA","1071","46269","56176","1071","NA","2","legacy","3","1024","2","48000","-16","experiment","4","even","1","388682","49027","385312","386463","2748","186984","386466","319879","2756","130807","390690","387474","391762","390690","NA","Sternberg Task","40","49589","44","yes","1024"
"91.1111111111","91.1111111111","1121","1121","black","experiment","legacy","legacy","legacy","0","uniform","1","undefined","1","right","44","0","44","44","0","0","44","44","0","0","44","44","44","44","0","10/21/21 17:24:17","The main experiment item","yes","SternbergTask.osexp","C:\Users\bryan\OneDrive\Documents\School\PSYC 5316  (Quant Methods)\Lab 3","no","mono","no","18","no","white","no","yes","768","legacy","32","11","C:/Users/bryan/OneDrive/Documents/School/PSYC 5316  (Quant Methods)/Lab 3/BS-subject-4.csv","legacy","3 9 8 1 6 4","Lentiform Loewenfeld","3.3.9","0","n","0","right","left","left","right","NA","856","46269","56176","856","NA","2","legacy","6","1024","2","48000","-16","experiment","4","even","7","395137","49027","391771","392918","2748","186984","392921","319879","2756","130807","397145","393929","398002","397145","NA","Sternberg Task","41","50445","45","yes","1024"
"91.3043478261","91.3043478261","1114.15217391","1114.15217391","black","experiment","legacy","legacy","legacy","0","uniform","1","undefined","1","left","45","0","45","45","0","0","45","45","0","0","45","45","45","45","0","10/21/21 17:24:17","The main experiment item","yes","SternbergTask.osexp","C:\Users\bryan\OneDrive\Documents\School\PSYC 5316  (Quant Methods)\Lab 3","no","mono","no","18","no","white","no","yes","768","legacy","33","11","C:/Users/bryan/OneDrive/Documents/School/PSYC 5316  (Quant Methods)/Lab 3/BS-subject-4.csv","legacy","1 4 9 3 2 5","Lentiform Loewenfeld","3.3.9","3","y","0","left","left","left","left","NA","806","46269","56176","806","NA","2","legacy","6","1024","2","48000","-16","experiment","4","even","9","401377","49027","398011","399157","2748","186984","399161","319879","2756","130807","403385","400169","404193","403385","NA","Sternberg Task","42","51251","46","yes","1024"
"91.4893617021","91.4893617021","1105.12765957","1105.12765957","black","experiment","legacy","legacy","legacy","0","uniform","1","undefined","1","left","46","0","46","46","0","0","46","46","0","0","46","46","46","46","0","10/21/21 17:24:17","The main experiment item","yes","SternbergTask.osexp","C:\Users\bryan\OneDrive\Documents\School\PSYC 5316  (Quant Methods)\Lab 3","no","mono","no","18","no","white","no","yes","768","legacy","34","11","C:/Users/bryan/OneDrive/Documents/School/PSYC 5316  (Quant Methods)/Lab 3/BS-subject-4.csv","legacy","9 4 2","Lentiform Loewenfeld","3.3.9","1","y","0","left","left","left","left","NA","690","46269","56176","690","NA","2","legacy","3","1024","2","48000","-16","experiment","4","even","9","407569","49027","404201","405349","2748","186984","405353","319879","2756","130807","409577","406361","410268","409577","NA","Sternberg Task","43","51941","47","yes","1024"
"91.6666666667","91.6666666667","1100.375","1100.375","black","experiment","legacy","legacy","legacy","0","uniform","1","undefined","1","right","47","0","47","47","0","0","47","47","0","0","47","47","47","47","0","10/21/21 17:24:17","The main experiment item","yes","SternbergTask.osexp","C:\Users\bryan\OneDrive\Documents\School\PSYC 5316  (Quant Methods)\Lab 3","no","mono","no","18","no","white","no","yes","768","legacy","35","11","C:/Users/bryan/OneDrive/Documents/School/PSYC 5316  (Quant Methods)/Lab 3/BS-subject-4.csv","legacy","2 8 9 4 1","Lentiform Loewenfeld","3.3.9","0","n","0","right","left","left","right","NA","877","46269","56176","877","NA","2","legacy","5","1024","2","48000","-16","experiment","4","even","5","413644","49027","410277","411424","2748","186984","411428","319879","2756","130807","415652","412436","416530","415652","NA","Sternberg Task","44","52818","48","yes","1024"
"89.7959183673","89.7959183673","1118.67346939","1118.67346939","black","experiment","legacy","legacy","legacy","0","uniform","0","undefined","0","left","48","0","48","48","0","0","48","48","0","0","48","48","48","48","0","10/21/21 17:24:17","The main experiment item","yes","SternbergTask.osexp","C:\Users\bryan\OneDrive\Documents\School\PSYC 5316  (Quant Methods)\Lab 3","no","mono","no","18","no","white","no","yes","768","legacy","36","11","C:/Users/bryan/OneDrive/Documents/School/PSYC 5316  (Quant Methods)/Lab 3/BS-subject-4.csv","legacy","3 4 9 6 2 9","Lentiform Loewenfeld","3.3.9","5","y","0","right","left","left","right","NA","1997","46269","56176","1997","NA","2","legacy","6","1024","2","48000","-16","experiment","4","even","2","419895","49027","416536","417675","2748","186984","417679","319879","2756","130807","421903","418687","423901","421903","NA","Sternberg Task","44","54815","49","yes","1024"
"90","90","1132.94","1132.94","black","experiment","legacy","legacy","legacy","0","uniform","1","undefined","1","left","49","0","49","49","0","0","49","49","0","0","49","49","49","49","0","10/21/21 17:24:17","The main experiment item","yes","SternbergTask.osexp","C:\Users\bryan\OneDrive\Documents\School\PSYC 5316  (Quant Methods)\Lab 3","no","mono","no","18","no","white","no","yes","768","legacy","37","11","C:/Users/bryan/OneDrive/Documents/School/PSYC 5316  (Quant Methods)/Lab 3/BS-subject-4.csv","legacy","6 5","Lentiform Loewenfeld","3.3.9","2","y","0","left","left","left","left","NA","1832","46269","56176","1832","NA","2","legacy","2","1024","2","48000","-16","experiment","4","even","5","427272","49027","416536","425052","2748","186984","425056","423910","2756","130807","429280","426064","431114","429280","NA","Sternberg Task","45","56647","50","yes","1024"
"90.1960784314","90.1960784314","1127.80392157","1127.80392157","black","experiment","legacy","legacy","legacy","0","uniform","1","undefined","1","left","50","0","50","50","0","0","50","50","0","0","50","50","50","50","0","10/21/21 17:24:17","The main experiment item","yes","SternbergTask.osexp","C:\Users\bryan\OneDrive\Documents\School\PSYC 5316  (Quant Methods)\Lab 3","no","mono","no","18","no","white","no","yes","768","legacy","38","11","C:/Users/bryan/OneDrive/Documents/School/PSYC 5316  (Quant Methods)/Lab 3/BS-subject-4.csv","legacy","2 4 6 9","Lentiform Loewenfeld","3.3.9","3","y","0","left","left","left","left","NA","871","46269","56176","871","NA","2","legacy","4","1024","2","48000","-16","experiment","4","even","6","434478","49027","431122","432258","2748","186984","432262","423910","2756","130807","436486","433270","437358","436486","NA","Sternberg Task","46","57518","51","yes","1024"
"88.4615384615","88.4615384615","1120.28846154","1120.28846154","black","experiment","legacy","legacy","legacy","0","uniform","0","undefined","0","right","51","0","51","51","0","0","51","51","0","0","51","51","51","51","0","10/21/21 17:24:17","The main experiment item","yes","SternbergTask.osexp","C:\Users\bryan\OneDrive\Documents\School\PSYC 5316  (Quant Methods)\Lab 3","no","mono","no","18","no","white","no","yes","768","legacy","39","11","C:/Users/bryan/OneDrive/Documents/School/PSYC 5316  (Quant Methods)/Lab 3/BS-subject-4.csv","legacy","5 3 2 6 9 8","Lentiform Loewenfeld","3.3.9","0","n","0","left","left","left","left","NA","737","46269","56176","737","NA","2","legacy","6","1024","2","48000","-16","experiment","4","even","4","440735","49027","437367","438515","2748","186984","438519","423910","2756","130807","442744","439527","443482","442743","NA","Sternberg Task","46","58255","52","yes","1024"
"88.679245283","88.679245283","1113.66037736","1113.66037736","black","experiment","legacy","legacy","legacy","0","uniform","1","undefined","1","left","52","0","52","52","0","0","52","52","0","0","52","52","52","52","0","10/21/21 17:24:17","The main experiment item","yes","SternbergTask.osexp","C:\Users\bryan\OneDrive\Documents\School\PSYC 5316  (Quant Methods)\Lab 3","no","mono","no","18","no","white","no","yes","768","legacy","40","11","C:/Users/bryan/OneDrive/Documents/School/PSYC 5316  (Quant Methods)/Lab 3/BS-subject-4.csv","legacy","2 3","Lentiform Loewenfeld","3.3.9","1","y","0","left","left","left","left","NA","769","46269","56176","769","NA","2","legacy","2","1024","2","48000","-16","experiment","4","even","2","446860","49027","437367","444641","2748","186984","444645","443491","2756","130807","448869","445653","449639","448868","NA","Sternberg Task","47","59024","53","yes","1024"
"88.8888888889","88.8888888889","1110.55555556","1110.55555556","black","experiment","legacy","legacy","legacy","0","uniform","1","undefined","1","right","53","0","53","53","0","0","53","53","0","0","53","53","53","53","0","10/21/21 17:24:17","The main experiment item","yes","SternbergTask.osexp","C:\Users\bryan\OneDrive\Documents\School\PSYC 5316  (Quant Methods)\Lab 3","no","mono","no","18","no","white","no","yes","768","legacy","41","11","C:/Users/bryan/OneDrive/Documents/School/PSYC 5316  (Quant Methods)/Lab 3/BS-subject-4.csv","legacy","6 8 4","Lentiform Loewenfeld","3.3.9","0","n","0","right","left","left","right","NA","946","46269","56176","946","NA","2","legacy","3","1024","2","48000","-16","experiment","4","even","1","453028","49027","449648","450808","2748","186984","450812","443491","2756","130807","455036","451820","455983","455036","NA","Sternberg Task","48","59970","54","yes","1024"
"89.0909090909","89.0909090909","1109.70909091","1109.70909091","black","experiment","legacy","legacy","legacy","0","uniform","1","undefined","1","left","54","0","54","54","0","0","54","54","0","0","54","54","54","54","0","10/21/21 17:24:17","The main experiment item","yes","SternbergTask.osexp","C:\Users\bryan\OneDrive\Documents\School\PSYC 5316  (Quant Methods)\Lab 3","no","mono","no","18","no","white","no","yes","768","legacy","42","11","C:/Users/bryan/OneDrive/Documents/School/PSYC 5316  (Quant Methods)/Lab 3/BS-subject-4.csv","legacy","6 9 7 4 5 1","Lentiform Loewenfeld","3.3.9","2","y","0","left","left","left","left","NA","1064","46269","56176","1064","NA","2","legacy","6","1024","2","48000","-16","experiment","4","even","9","459362","49027","455992","457142","2748","186984","457146","443491","2756","130807","461370","458154","462436","461370","NA","Sternberg Task","49","61034","55","yes","1024"
"89.2857142857","89.2857142857","1104.14285714","1104.14285714","black","experiment","legacy","legacy","legacy","0","uniform","1","undefined","1","right","55","0","55","55","0","0","55","55","0","0","55","55","55","55","0","10/21/21 17:24:17","The main experiment item","yes","SternbergTask.osexp","C:\Users\bryan\OneDrive\Documents\School\PSYC 5316  (Quant Methods)\Lab 3","no","mono","no","18","no","white","no","yes","768","legacy","43","11","C:/Users/bryan/OneDrive/Documents/School/PSYC 5316  (Quant Methods)/Lab 3/BS-subject-4.csv","legacy","7 1","Lentiform Loewenfeld","3.3.9","0","n","0","right","left","left","right","NA","798","46269","56176","798","NA","2","legacy","2","1024","2","48000","-16","experiment","4","even","8","465813","49027","462444","463594","2748","186984","463597","443491","2756","130807","467821","464606","468621","467821","NA","Sternberg Task","50","61832","56","yes","1024"
"89.4736842105","89.4736842105","1103.87719298","1103.87719298","black","experiment","legacy","legacy","legacy","0","uniform","1","undefined","1","left","56","0","56","56","0","0","56","56","0","0","56","56","56","56","0","10/21/21 17:24:17","The main experiment item","yes","SternbergTask.osexp","C:\Users\bryan\OneDrive\Documents\School\PSYC 5316  (Quant Methods)\Lab 3","no","mono","no","18","no","white","no","yes","768","legacy","44","11","C:/Users/bryan/OneDrive/Documents/School/PSYC 5316  (Quant Methods)/Lab 3/BS-subject-4.csv","legacy","9 1 7 2","Lentiform Loewenfeld","3.3.9","2","y","0","left","left","left","left","NA","1089","46269","56176","1089","NA","2","legacy","4","1024","2","48000","-16","experiment","4","even","1","471996","49027","468629","469777","2748","186984","469780","443491","2756","130807","474004","470788","475094","474004","NA","Sternberg Task","51","62921","57","yes","1024"
"89.6551724138","89.6551724138","1107.82758621","1107.82758621","black","experiment","legacy","legacy","legacy","0","uniform","1","undefined","1","left","57","0","57","57","0","0","57","57","0","0","57","57","57","57","0","10/21/21 17:24:17","The main experiment item","yes","SternbergTask.osexp","C:\Users\bryan\OneDrive\Documents\School\PSYC 5316  (Quant Methods)\Lab 3","no","mono","no","18","no","white","no","yes","768","legacy","45","11","C:/Users/bryan/OneDrive/Documents/School/PSYC 5316  (Quant Methods)/Lab 3/BS-subject-4.csv","legacy","3 2 1 4 7","Lentiform Loewenfeld","3.3.9","2","y","0","left","left","left","left","NA","1333","46269","56176","1333","NA","2","legacy","5","1024","2","48000","-16","experiment","4","even","2","478466","49027","475103","476246","2748","186984","476250","443491","2756","130807","480474","477258","481808","480474","NA","Sternberg Task","52","64254","58","yes","1024"
"89.8305084746","89.8305084746","1117.05084746","1117.05084746","black","experiment","legacy","legacy","legacy","0","uniform","1","undefined","1","right","58","0","58","58","0","0","58","58","0","0","58","58","58","58","0","10/21/21 17:24:17","The main experiment item","yes","SternbergTask.osexp","C:\Users\bryan\OneDrive\Documents\School\PSYC 5316  (Quant Methods)\Lab 3","no","mono","no","18","no","white","no","yes","768","legacy","46","11","C:/Users/bryan/OneDrive/Documents/School/PSYC 5316  (Quant Methods)/Lab 3/BS-subject-4.csv","legacy","7 8 6 1","Lentiform Loewenfeld","3.3.9","0","n","0","right","left","left","right","NA","1652","46269","56176","1652","NA","2","legacy","4","1024","2","48000","-16","experiment","4","even","3","485170","49027","481816","482955","2748","186984","482959","443491","2756","130807","487178","483967","488831","487178","NA","Sternberg Task","53","65906","59","yes","1024"
"90","90","1118.43333333","1118.43333333","black","experiment","legacy","legacy","legacy","0","uniform","1","undefined","1","right","59","0","59","59","0","0","59","59","0","0","59","59","59","59","0","10/21/21 17:24:17","The main experiment item","yes","SternbergTask.osexp","C:\Users\bryan\OneDrive\Documents\School\PSYC 5316  (Quant Methods)\Lab 3","no","mono","no","18","no","white","no","yes","768","legacy","47","11","C:/Users/bryan/OneDrive/Documents/School/PSYC 5316  (Quant Methods)/Lab 3/BS-subject-4.csv","legacy","4 1","Lentiform Loewenfeld","3.3.9","0","n","0","right","left","left","right","NA","1200","46269","56176","1200","NA","2","legacy","2","1024","2","48000","-16","experiment","4","even","6","492211","49027","488840","489991","2748","186984","489995","443491","2756","130807","494219","491003","495420","494219","NA","Sternberg Task","54","67106","60","yes","1024"
"90.1639344262","90.1639344262","1113.52459016","1113.52459016","black","experiment","legacy","legacy","legacy","0","uniform","1","undefined","1","left","60","0","60","60","0","0","60","60","0","0","60","60","60","60","0","10/21/21 17:24:17","The main experiment item","yes","SternbergTask.osexp","C:\Users\bryan\OneDrive\Documents\School\PSYC 5316  (Quant Methods)\Lab 3","no","mono","no","18","no","white","no","yes","768","legacy","48","11","C:/Users/bryan/OneDrive/Documents/School/PSYC 5316  (Quant Methods)/Lab 3/BS-subject-4.csv","legacy","8 9 6 1","Lentiform Loewenfeld","3.3.9","2","y","0","left","left","left","left","NA","819","46269","56176","819","NA","2","legacy","4","1024","2","48000","-16","experiment","4","even","9","498792","49027","495429","496572","2748","186984","496576","443491","2756","130807","500800","497584","501620","500800","NA","Sternberg Task","55","67925","61","yes","1024"
"90.3225806452","90.3225806452","1108.59677419","1108.59677419","black","experiment","legacy","legacy","legacy","0","uniform","1","undefined","1","left","61","0","61","61","0","0","61","61","0","0","61","61","61","61","0","10/21/21 17:24:17","The main experiment item","yes","SternbergTask.osexp","C:\Users\bryan\OneDrive\Documents\School\PSYC 5316  (Quant Methods)\Lab 3","no","mono","no","18","no","white","no","yes","768","legacy","49","11","C:/Users/bryan/OneDrive/Documents/School/PSYC 5316  (Quant Methods)/Lab 3/BS-subject-4.csv","legacy","7 8 4 6 9 5","Lentiform Loewenfeld","3.3.9","4","y","0","left","left","left","left","NA","808","46269","56176","808","NA","2","legacy","6","1024","2","48000","-16","experiment","4","even","6","504994","49027","501629","502774","2748","186984","502778","443491","2756","130807","507002","503786","507812","507002","NA","Sternberg Task","56","68733","62","yes","1024"
"90.4761904762","90.4761904762","1102.6984127","1102.6984127","black","experiment","legacy","legacy","legacy","0","uniform","1","undefined","1","left","62","0","62","62","0","0","62","62","0","0","62","62","62","62","0","10/21/21 17:24:17","The main experiment item","yes","SternbergTask.osexp","C:\Users\bryan\OneDrive\Documents\School\PSYC 5316  (Quant Methods)\Lab 3","no","mono","no","18","no","white","no","yes","768","legacy","50","11","C:/Users/bryan/OneDrive/Documents/School/PSYC 5316  (Quant Methods)/Lab 3/BS-subject-4.csv","legacy","5 2 9 6 1 7","Lentiform Loewenfeld","3.3.9","3","y","0","left","left","left","left","NA","737","46269","56176","737","NA","2","legacy","6","1024","2","48000","-16","experiment","4","even","9","511181","49027","507820","508961","2748","186984","508964","443491","2756","130807","513189","509973","513927","513189","NA","Sternberg Task","57","69470","63","yes","1024"
"90.625","90.625","1108.25","1108.25","black","experiment","legacy","legacy","legacy","0","uniform","1","undefined","1","left","63","0","63","63","0","0","63","63","0","0","63","63","63","63","0","10/21/21 17:24:17","The main experiment item","yes","SternbergTask.osexp","C:\Users\bryan\OneDrive\Documents\School\PSYC 5316  (Quant Methods)\Lab 3","no","mono","no","18","no","white","no","yes","768","legacy","51","11","C:/Users/bryan/OneDrive/Documents/School/PSYC 5316  (Quant Methods)/Lab 3/BS-subject-4.csv","legacy","4 9 7 8 5 3","Lentiform Loewenfeld","3.3.9","4","y","0","left","left","left","left","NA","1458","46269","56176","1458","NA","2","legacy","6","1024","2","48000","-16","experiment","4","even","8","517300","49027","513936","515080","2748","186984","515084","443491","2756","130807","519308","516092","520767","519308","NA","Sternberg Task","58","70928","64","yes","1024"
"90.7692307692","90.7692307692","1114.52307692","1114.52307692","black","experiment","legacy","legacy","legacy","0","uniform","1","undefined","1","right","64","0","64","64","0","0","64","64","0","0","64","64","64","64","0","10/21/21 17:24:17","The main experiment item","yes","SternbergTask.osexp","C:\Users\bryan\OneDrive\Documents\School\PSYC 5316  (Quant Methods)\Lab 3","no","mono","no","18","no","white","no","yes","768","legacy","52","11","C:/Users/bryan/OneDrive/Documents/School/PSYC 5316  (Quant Methods)/Lab 3/BS-subject-4.csv","legacy","1 4 3 6 5","Lentiform Loewenfeld","3.3.9","0","n","0","right","left","left","right","NA","1516","46269","56176","1516","NA","2","legacy","5","1024","2","48000","-16","experiment","4","even","8","524141","49027","520776","521921","2748","186984","521925","443491","2756","130807","526149","522933","527667","526149","NA","Sternberg Task","59","72444","65","yes","1024"
"90.9090909091","90.9090909091","1112","1112","black","experiment","legacy","legacy","legacy","0","uniform","1","undefined","1","right","65","0","65","65","0","0","65","65","0","0","65","65","65","65","0","10/21/21 17:24:17","The main experiment item","yes","SternbergTask.osexp","C:\Users\bryan\OneDrive\Documents\School\PSYC 5316  (Quant Methods)\Lab 3","no","mono","no","18","no","white","no","yes","768","legacy","53","11","C:/Users/bryan/OneDrive/Documents/School/PSYC 5316  (Quant Methods)/Lab 3/BS-subject-4.csv","legacy","7 9 1 6","Lentiform Loewenfeld","3.3.9","0","n","0","right","left","left","right","NA","948","46269","56176","948","NA","2","legacy","4","1024","2","48000","-16","experiment","4","even","4","531057","49027","527676","528837","2748","186984","528840","443491","2756","130807","533065","529849","534014","533065","NA","Sternberg Task","60","73392","66","yes","1024"
"91.0447761194","91.0447761194","1107.8358209","1107.8358209","black","experiment","legacy","legacy","legacy","0","uniform","1","undefined","1","right","66","0","66","66","0","0","66","66","0","0","66","66","66","66","0","10/21/21 17:24:17","The main experiment item","yes","SternbergTask.osexp","C:\Users\bryan\OneDrive\Documents\School\PSYC 5316  (Quant Methods)\Lab 3","no","mono","no","18","no","white","no","yes","768","legacy","54","11","C:/Users/bryan/OneDrive/Documents/School/PSYC 5316  (Quant Methods)/Lab 3/BS-subject-4.csv","legacy","1 3 2 6 9","Lentiform Loewenfeld","3.3.9","0","n","0","right","left","left","right","NA","833","46269","56176","833","NA","2","legacy","5","1024","2","48000","-16","experiment","4","even","5","537372","49027","534023","535152","2748","186984","535156","443491","2756","130807","539380","536164","540215","539380","NA","Sternberg Task","61","74225","67","yes","1024"
"91.1764705882","91.1764705882","1099.23529412","1099.23529412","black","experiment","legacy","legacy","legacy","0","uniform","1","undefined","1","left","67","0","67","67","0","0","67","67","0","0","67","67","67","67","0","10/21/21 17:24:17","The main experiment item","yes","SternbergTask.osexp","C:\Users\bryan\OneDrive\Documents\School\PSYC 5316  (Quant Methods)\Lab 3","no","mono","no","18","no","white","no","yes","768","legacy","55","11","C:/Users/bryan/OneDrive/Documents/School/PSYC 5316  (Quant Methods)/Lab 3/BS-subject-4.csv","legacy","7","Lentiform Loewenfeld","3.3.9","1","y","0","left","left","left","left","NA","523","46269","56176","523","NA","2","legacy","1","1024","2","48000","-16","experiment","4","even","7","543586","49027","540224","541366","2748","186984","541370","443491","2756","130807","545594","542378","546119","545594","NA","Sternberg Task","62","74748","68","yes","1024"
"91.3043478261","91.3043478261","1096.98550725","1096.98550725","black","experiment","legacy","legacy","legacy","0","uniform","1","undefined","1","right","68","0","68","68","0","0","68","68","0","0","68","68","68","68","0","10/21/21 17:24:17","The main experiment item","yes","SternbergTask.osexp","C:\Users\bryan\OneDrive\Documents\School\PSYC 5316  (Quant Methods)\Lab 3","no","mono","no","18","no","white","no","yes","768","legacy","56","11","C:/Users/bryan/OneDrive/Documents/School/PSYC 5316  (Quant Methods)/Lab 3/BS-subject-4.csv","legacy","2 8 7 9 5 3","Lentiform Loewenfeld","3.3.9","0","n","0","right","left","left","right","NA","944","46269","56176","944","NA","2","legacy","6","1024","2","48000","-16","experiment","4","even","6","549490","49027","546125","547270","2748","186984","547274","443491","2756","130807","551498","548282","552443","551498","NA","Sternberg Task","63","75692","69","yes","1024"
"91.4285714286","91.4285714286","1095.77142857","1095.77142857","black","experiment","legacy","legacy","legacy","0","uniform","1","undefined","1","right","69","0","69","69","0","0","69","69","0","0","69","69","69","69","0","10/21/21 17:24:17","The main experiment item","yes","SternbergTask.osexp","C:\Users\bryan\OneDrive\Documents\School\PSYC 5316  (Quant Methods)\Lab 3","no","mono","no","18","no","white","no","yes","768","legacy","57","11","C:/Users/bryan/OneDrive/Documents/School/PSYC 5316  (Quant Methods)/Lab 3/BS-subject-4.csv","legacy","7 6 4 8 1 2","Lentiform Loewenfeld","3.3.9","0","n","0","right","left","left","right","NA","1012","46269","56176","1012","NA","2","legacy","6","1024","2","48000","-16","experiment","4","even","9","555818","49027","552452","553598","2748","186984","553602","443491","2756","130807","557826","554610","558840","557826","NA","Sternberg Task","64","76704","70","yes","1024"
"91.5492957746","91.5492957746","1093.22535211","1093.22535211","black","experiment","legacy","legacy","legacy","0","uniform","1","undefined","1","right","70","0","70","70","0","0","70","70","0","0","70","70","70","70","0","10/21/21 17:24:17","The main experiment item","yes","SternbergTask.osexp","C:\Users\bryan\OneDrive\Documents\School\PSYC 5316  (Quant Methods)\Lab 3","no","mono","no","18","no","white","no","yes","768","legacy","58","11","C:/Users/bryan/OneDrive/Documents/School/PSYC 5316  (Quant Methods)/Lab 3/BS-subject-4.csv","legacy","6 9 4 5 3 2","Lentiform Loewenfeld","3.3.9","0","n","0","right","left","left","right","NA","915","46269","56176","915","NA","2","legacy","6","1024","2","48000","-16","experiment","4","even","8","562216","49027","558848","559996","2748","186984","560000","443491","2756","130807","564224","561008","565141","564224","NA","Sternberg Task","65","77619","71","yes","1024"
"91.6666666667","91.6666666667","1092.29166667","1092.29166667","black","experiment","legacy","legacy","legacy","0","uniform","1","undefined","1","left","71","0","71","71","0","0","71","71","0","0","71","71","71","71","0","10/21/21 17:24:17","The main experiment item","yes","SternbergTask.osexp","C:\Users\bryan\OneDrive\Documents\School\PSYC 5316  (Quant Methods)\Lab 3","no","mono","no","18","no","white","no","yes","768","legacy","59","11","C:/Users/bryan/OneDrive/Documents/School/PSYC 5316  (Quant Methods)/Lab 3/BS-subject-4.csv","legacy","5 7 3 6 2","Lentiform Loewenfeld","3.3.9","5","y","0","left","left","left","left","NA","1026","46269","56176","1026","NA","2","legacy","5","1024","2","48000","-16","experiment","4","even","2","568524","49027","565149","566304","2748","186984","566307","443491","2756","130807","570532","567316","571560","570532","NA","Sternberg Task","66","78645","72","yes","1024"
"91.7808219178","91.7808219178","1090.93150685","1090.93150685","black","experiment","legacy","legacy","legacy","0","uniform","1","undefined","1","left","72","0","72","72","0","0","72","72","0","0","72","72","72","72","0","10/21/21 17:24:17","The main experiment item","yes","SternbergTask.osexp","C:\Users\bryan\OneDrive\Documents\School\PSYC 5316  (Quant Methods)\Lab 3","no","mono","no","18","no","white","no","yes","768","legacy","60","11","C:/Users/bryan/OneDrive/Documents/School/PSYC 5316  (Quant Methods)/Lab 3/BS-subject-4.csv","legacy","8 5 3 7 4 6","Lentiform Loewenfeld","3.3.9","6","y","0","left","left","left","left","NA","993","46269","56176","993","NA","2","legacy","6","1024","2","48000","-16","experiment","4","even","6","574931","49027","571569","572712","2748","186984","572716","443491","2756","130807","576939","573724","577933","576939","NA","Sternberg Task","67","79638","73","yes","1024"
"91.8918918919","91.8918918919","1086.2972973","1086.2972973","black","experiment","legacy","legacy","legacy","0","uniform","1","undefined","1","right","73","0","73","73","0","0","73","73","0","0","73","73","73","73","0","10/21/21 17:24:17","The main experiment item","yes","SternbergTask.osexp","C:\Users\bryan\OneDrive\Documents\School\PSYC 5316  (Quant Methods)\Lab 3","no","mono","no","18","no","white","no","yes","768","legacy","61","11","C:/Users/bryan/OneDrive/Documents/School/PSYC 5316  (Quant Methods)/Lab 3/BS-subject-4.csv","legacy","6 2 9 3 8 4","Lentiform Loewenfeld","3.3.9","0","n","0","right","left","left","right","NA","748","46269","56176","748","NA","2","legacy","6","1024","2","48000","-16","experiment","4","even","1","581332","49027","577942","579112","2748","186984","579116","443491","2756","130807","583340","580124","584090","583340","NA","Sternberg Task","68","80386","74","yes","1024"
"92","92","1081.45333333","1081.45333333","black","experiment","legacy","legacy","legacy","0","uniform","1","undefined","1","left","74","0","74","74","0","0","74","74","0","0","74","74","74","74","0","10/21/21 17:24:17","The main experiment item","yes","SternbergTask.osexp","C:\Users\bryan\OneDrive\Documents\School\PSYC 5316  (Quant Methods)\Lab 3","no","mono","no","18","no","white","no","yes","768","legacy","62","11","C:/Users/bryan/OneDrive/Documents/School/PSYC 5316  (Quant Methods)/Lab 3/BS-subject-4.csv","legacy","3 5 7 1","Lentiform Loewenfeld","3.3.9","3","y","0","left","left","left","left","NA","723","46269","56176","723","NA","2","legacy","4","1024","2","48000","-16","experiment","4","even","7","587464","49027","584098","585244","2748","186984","585248","443491","2756","130807","589472","586256","590197","589472","NA","Sternberg Task","69","81109","75","yes","1024"
"92.1052631579","92.1052631579","1083.68421053","1083.68421053","black","experiment","legacy","legacy","legacy","0","uniform","1","undefined","1","right","75","0","75","75","0","0","75","75","0","0","75","75","75","75","0","10/21/21 17:24:17","The main experiment item","yes","SternbergTask.osexp","C:\Users\bryan\OneDrive\Documents\School\PSYC 5316  (Quant Methods)\Lab 3","no","mono","no","18","no","white","no","yes","768","legacy","63","11","C:/Users/bryan/OneDrive/Documents/School/PSYC 5316  (Quant Methods)/Lab 3/BS-subject-4.csv","legacy","8 9","Lentiform Loewenfeld","3.3.9","0","n","0","right","left","left","right","NA","1251","46269","56176","1251","NA","2","legacy","2","1024","2","48000","-16","experiment","4","even","5","593564","49027","590205","591344","2748","186984","591348","443491","2756","130807","595572","592356","596825","595572","NA","Sternberg Task","70","82360","76","yes","1024"
"92.2077922078","92.2077922078","1074.74025974","1074.74025974","black","experiment","legacy","legacy","legacy","0","uniform","1","undefined","1","left","76","0","76","76","0","0","76","76","0","0","76","76","76","76","0","10/21/21 17:24:17","The main experiment item","yes","SternbergTask.osexp","C:\Users\bryan\OneDrive\Documents\School\PSYC 5316  (Quant Methods)\Lab 3","no","mono","no","18","no","white","no","yes","768","legacy","64","11","C:/Users/bryan/OneDrive/Documents/School/PSYC 5316  (Quant Methods)/Lab 3/BS-subject-4.csv","legacy","8","Lentiform Loewenfeld","3.3.9","1","y","0","left","left","left","left","NA","395","46269","56176","395","NA","2","legacy","1","1024","2","48000","-16","experiment","4","even","8","600194","49027","596833","597974","2748","186984","597978","443491","2756","130807","602203","598986","602599","602203","NA","Sternberg Task","71","82755","77","yes","1024"
"92.3076923077","92.3076923077","1083.21794872","1083.21794872","black","experiment","legacy","legacy","legacy","0","uniform","1","undefined","1","left","77","0","77","77","0","0","77","77","0","0","77","77","77","77","0","10/21/21 17:24:17","The main experiment item","yes","SternbergTask.osexp","C:\Users\bryan\OneDrive\Documents\School\PSYC 5316  (Quant Methods)\Lab 3","no","mono","no","18","no","white","no","yes","768","legacy","65","11","C:/Users/bryan/OneDrive/Documents/School/PSYC 5316  (Quant Methods)/Lab 3/BS-subject-4.csv","legacy","8 1 6","Lentiform Loewenfeld","3.3.9","3","y","0","left","left","left","left","NA","1736","46269","56176","1736","NA","2","legacy","3","1024","2","48000","-16","experiment","4","even","6","605994","49027","602607","603774","2748","186984","603777","443491","2756","130807","608002","604786","609740","608002","NA","Sternberg Task","72","84491","78","yes","1024"
"91.1392405063","91.1392405063","1094.82278481","1094.82278481","black","experiment","legacy","legacy","legacy","0","uniform","0","undefined","0","right","78","0","78","78","0","0","78","78","0","0","78","78","78","78","0","10/21/21 17:24:17","The main experiment item","yes","SternbergTask.osexp","C:\Users\bryan\OneDrive\Documents\School\PSYC 5316  (Quant Methods)\Lab 3","no","mono","no","18","no","white","no","yes","768","legacy","66","11","C:/Users/bryan/OneDrive/Documents/School/PSYC 5316  (Quant Methods)/Lab 3/BS-subject-4.csv","legacy","1 7 8 3 9","Lentiform Loewenfeld","3.3.9","0","n","0","None","left","left","None","NA","2000","46269","56176","2000","NA","2","legacy","5","1024","2","48000","-16","experiment","4","even","2","613116","49027","609749","610896","2748","186984","610900","443491","2756","130807","615124","611908","617125","615124","NA","Sternberg Task","72","86491","79","yes","1024"
"91.25","91.25","1104.9125","1104.9125","black","experiment","legacy","legacy","legacy","0","uniform","1","undefined","1","right","79","0","79","79","0","0","79","79","0","0","79","79","79","79","0","10/21/21 17:24:17","The main experiment item","yes","SternbergTask.osexp","C:\Users\bryan\OneDrive\Documents\School\PSYC 5316  (Quant Methods)\Lab 3","no","mono","no","18","no","white","no","yes","768","legacy","67","11","C:/Users/bryan/OneDrive/Documents/School/PSYC 5316  (Quant Methods)/Lab 3/BS-subject-4.csv","legacy","8 4 3 9","Lentiform Loewenfeld","3.3.9","0","n","0","right","left","left","right","NA","1902","46269","56176","1902","NA","2","legacy","4","1024","2","48000","-16","experiment","4","even","5","620499","49027","609749","618279","2748","186984","618283","617134","2756","130807","622507","619291","624411","622507","NA","Sternberg Task","73","88393","80","yes","1024"
"91.3580246914","91.3580246914","1099.2962963","1099.2962963","black","experiment","legacy","legacy","legacy","0","uniform","1","undefined","1","left","80","0","80","80","0","0","80","80","0","0","80","80","80","80","0","10/21/21 17:24:17","The main experiment item","yes","SternbergTask.osexp","C:\Users\bryan\OneDrive\Documents\School\PSYC 5316  (Quant Methods)\Lab 3","no","mono","no","18","no","white","no","yes","768","legacy","68","11","C:/Users/bryan/OneDrive/Documents/School/PSYC 5316  (Quant Methods)/Lab 3/BS-subject-4.csv","legacy","4 1 5","Lentiform Loewenfeld","3.3.9","2","y","0","left","left","left","left","NA","650","46269","56176","650","NA","2","legacy","3","1024","2","48000","-16","experiment","4","even","1","627781","49027","624419","625566","2748","186984","625570","617134","2756","130807","629789","626573","630441","629789","NA","Sternberg Task","74","89043","81","yes","1024"
"91.4634146341","91.4634146341","1095.03658537","1095.03658537","black","experiment","legacy","legacy","legacy","0","uniform","1","undefined","1","left","81","0","81","81","0","0","81","81","0","0","81","81","81","81","0","10/21/21 17:24:17","The main experiment item","yes","SternbergTask.osexp","C:\Users\bryan\OneDrive\Documents\School\PSYC 5316  (Quant Methods)\Lab 3","no","mono","no","18","no","white","no","yes","768","legacy","69","11","C:/Users/bryan/OneDrive/Documents/School/PSYC 5316  (Quant Methods)/Lab 3/BS-subject-4.csv","legacy","8 9 5 6 7","Lentiform Loewenfeld","3.3.9","1","y","0","left","left","left","left","NA","750","46269","56176","750","NA","2","legacy","5","1024","2","48000","-16","experiment","4","even","8","633817","49027","630450","631597","2748","186984","631601","617134","2756","130807","635825","632609","636576","635825","NA","Sternberg Task","75","89793","82","yes","1024"
"91.5662650602","91.5662650602","1091.44578313","1091.44578313","black","experiment","legacy","legacy","legacy","0","uniform","1","undefined","1","left","82","0","82","82","0","0","82","82","0","0","82","82","82","82","0","10/21/21 17:24:17","The main experiment item","yes","SternbergTask.osexp","C:\Users\bryan\OneDrive\Documents\School\PSYC 5316  (Quant Methods)\Lab 3","no","mono","no","18","no","white","no","yes","768","legacy","70","11","C:/Users/bryan/OneDrive/Documents/School/PSYC 5316  (Quant Methods)/Lab 3/BS-subject-4.csv","legacy","8 9 5 7 1 6","Lentiform Loewenfeld","3.3.9","4","y","0","left","left","left","left","NA","797","46269","56176","797","NA","2","legacy","6","1024","2","48000","-16","experiment","4","even","7","639945","49027","636585","637725","2748","186984","637728","617134","2756","130807","641953","638737","642751","641953","NA","Sternberg Task","76","90590","83","yes","1024"
"91.6666666667","91.6666666667","1087.53571429","1087.53571429","black","experiment","legacy","legacy","legacy","0","uniform","1","undefined","1","left","83","0","83","83","0","0","83","83","0","0","83","83","83","83","0","10/21/21 17:24:17","The main experiment item","yes","SternbergTask.osexp","C:\Users\bryan\OneDrive\Documents\School\PSYC 5316  (Quant Methods)\Lab 3","no","mono","no","18","no","white","no","yes","768","legacy","71","11","C:/Users/bryan/OneDrive/Documents/School/PSYC 5316  (Quant Methods)/Lab 3/BS-subject-4.csv","legacy","9 5 3 8 4","Lentiform Loewenfeld","3.3.9","1","y","0","left","left","left","left","NA","763","46269","56176","763","NA","2","legacy","5","1024","2","48000","-16","experiment","4","even","9","646123","49027","642760","643904","2748","186984","643907","617134","2756","130807","648131","644915","648895","648131","NA","Sternberg Task","77","91353","84","yes","1024"
"91.7647058824","91.7647058824","1085.48235294","1085.48235294","black","experiment","legacy","legacy","legacy","0","uniform","1","undefined","1","right","84","0","84","84","0","0","84","84","0","0","84","84","84","84","0","10/21/21 17:24:17","The main experiment item","yes","SternbergTask.osexp","C:\Users\bryan\OneDrive\Documents\School\PSYC 5316  (Quant Methods)\Lab 3","no","mono","no","18","no","white","no","yes","768","legacy","72","11","C:/Users/bryan/OneDrive/Documents/School/PSYC 5316  (Quant Methods)/Lab 3/BS-subject-4.csv","legacy","6 3 1 7 9 8","Lentiform Loewenfeld","3.3.9","0","n","0","right","left","left","right","NA","913","46269","56176","913","NA","2","legacy","6","1024","2","48000","-16","experiment","4","even","4","652268","49027","648904","650048","2748","186984","650052","617134","2756","130807","654277","651060","655191","654277","NA","Sternberg Task","78","92266","85","yes","1024"
"91.8604651163","91.8604651163","1088.86046512","1088.86046512","black","experiment","legacy","legacy","legacy","0","uniform","1","undefined","1","left","85","0","85","85","0","0","85","85","0","0","85","85","85","85","0","10/21/21 17:24:17","The main experiment item","yes","SternbergTask.osexp","C:\Users\bryan\OneDrive\Documents\School\PSYC 5316  (Quant Methods)\Lab 3","no","mono","no","18","no","white","no","yes","768","legacy","73","11","C:/Users/bryan/OneDrive/Documents/School/PSYC 5316  (Quant Methods)/Lab 3/BS-subject-4.csv","legacy","6 7 8 5","Lentiform Loewenfeld","3.3.9","3","y","0","left","left","left","left","NA","1376","46269","56176","1376","NA","2","legacy","4","1024","2","48000","-16","experiment","4","even","8","658563","49027","655200","656347","2748","186984","656352","617134","2756","130807","660571","657360","661949","660571","NA","Sternberg Task","79","93642","86","yes","1024"
"91.9540229885","91.9540229885","1085.03448276","1085.03448276","black","experiment","legacy","legacy","legacy","0","uniform","1","undefined","1","left","86","0","86","86","0","0","86","86","0","0","86","86","86","86","0","10/21/21 17:24:17","The main experiment item","yes","SternbergTask.osexp","C:\Users\bryan\OneDrive\Documents\School\PSYC 5316  (Quant Methods)\Lab 3","no","mono","no","18","no","white","no","yes","768","legacy","74","11","C:/Users/bryan/OneDrive/Documents/School/PSYC 5316  (Quant Methods)/Lab 3/BS-subject-4.csv","legacy","3 9 7 6 4","Lentiform Loewenfeld","3.3.9","3","y","0","left","left","left","left","NA","756","46269","56176","756","NA","2","legacy","5","1024","2","48000","-16","experiment","4","even","7","665320","49027","661955","663100","2748","186984","663104","617134","2756","130807","667328","664112","668086","667328","NA","Sternberg Task","80","94398","87","yes","1024"
"92.0454545455","92.0454545455","1081.375","1081.375","black","experiment","legacy","legacy","legacy","0","uniform","1","undefined","1","right","87","0","87","87","0","0","87","87","0","0","87","87","87","87","0","10/21/21 17:24:17","The main experiment item","yes","SternbergTask.osexp","C:\Users\bryan\OneDrive\Documents\School\PSYC 5316  (Quant Methods)\Lab 3","no","mono","no","18","no","white","no","yes","768","legacy","75","11","C:/Users/bryan/OneDrive/Documents/School/PSYC 5316  (Quant Methods)/Lab 3/BS-subject-4.csv","legacy","2 3 8 5 6 7","Lentiform Loewenfeld","3.3.9","0","n","0","right","left","left","right","NA","763","46269","56176","763","NA","2","legacy","6","1024","2","48000","-16","experiment","4","even","1","671464","49027","668094","669244","2748","186984","669247","617134","2756","130807","673472","670256","674237","673472","NA","Sternberg Task","81","95161","88","yes","1024"
"92.1348314607","92.1348314607","1081.03370787","1081.03370787","black","experiment","legacy","legacy","legacy","0","uniform","1","undefined","1","right","88","0","88","88","0","0","88","88","0","0","88","88","88","88","0","10/21/21 17:24:17","The main experiment item","yes","SternbergTask.osexp","C:\Users\bryan\OneDrive\Documents\School\PSYC 5316  (Quant Methods)\Lab 3","no","mono","no","18","no","white","no","yes","768","legacy","76","11","C:/Users/bryan/OneDrive/Documents/School/PSYC 5316  (Quant Methods)/Lab 3/BS-subject-4.csv","legacy","8 4 3 5","Lentiform Loewenfeld","3.3.9","0","n","0","right","left","left","right","NA","1051","46269","56176","1051","NA","2","legacy","4","1024","2","48000","-16","experiment","4","even","6","677609","49027","674243","675393","2748","186984","675398","617134","2756","130807","679617","676406","680671","679617","NA","Sternberg Task","82","96212","89","yes","1024"
"91.1111111111","91.1111111111","1080.85555556","1080.85555556","black","experiment","legacy","legacy","legacy","0","uniform","0","undefined","0","right","89","0","89","89","0","0","89","89","0","0","89","89","89","89","0","10/21/21 17:24:17","The main experiment item","yes","SternbergTask.osexp","C:\Users\bryan\OneDrive\Documents\School\PSYC 5316  (Quant Methods)\Lab 3","no","mono","no","18","no","white","no","yes","768","legacy","77","11","C:/Users/bryan/OneDrive/Documents/School/PSYC 5316  (Quant Methods)/Lab 3/BS-subject-4.csv","legacy","7 3 2 8","Lentiform Loewenfeld","3.3.9","0","n","0","left","left","left","left","NA","1065","46269","56176","1065","NA","2","legacy","4","1024","2","48000","-16","experiment","4","even","4","684042","49027","680680","681823","2748","186984","681826","617134","2756","130807","686050","682834","687116","686050","NA","Sternberg Task","82","97277","90","yes","1024"
"91.2087912088","91.2087912088","1076.92307692","1076.92307692","black","experiment","legacy","legacy","legacy","0","uniform","1","undefined","1","left","90","0","90","90","0","0","90","90","0","0","90","90","90","90","0","10/21/21 17:24:17","The main experiment item","yes","SternbergTask.osexp","C:\Users\bryan\OneDrive\Documents\School\PSYC 5316  (Quant Methods)\Lab 3","no","mono","no","18","no","white","no","yes","768","legacy","78","11","C:/Users/bryan/OneDrive/Documents/School/PSYC 5316  (Quant Methods)/Lab 3/BS-subject-4.csv","legacy","4","Lentiform Loewenfeld","3.3.9","1","y","0","left","left","left","left","NA","723","46269","56176","723","NA","2","legacy","1","1024","2","48000","-16","experiment","4","even","4","690485","49027","680680","688270","2748","186984","688274","687126","2756","130807","692494","689282","693219","692493","NA","Sternberg Task","83","98000","91","yes","1024"
"91.3043478261","91.3043478261","1082.75","1082.75","black","experiment","legacy","legacy","legacy","0","uniform","1","undefined","1","left","91","0","91","91","0","0","91","91","0","0","91","91","91","91","0","10/21/21 17:24:17","The main experiment item","yes","SternbergTask.osexp","C:\Users\bryan\OneDrive\Documents\School\PSYC 5316  (Quant Methods)\Lab 3","no","mono","no","18","no","white","no","yes","768","legacy","79","11","C:/Users/bryan/OneDrive/Documents/School/PSYC 5316  (Quant Methods)/Lab 3/BS-subject-4.csv","legacy","2 4 8 5 1 3","Lentiform Loewenfeld","3.3.9","1","y","0","left","left","left","left","NA","1613","46269","56176","1613","NA","2","legacy","6","1024","2","48000","-16","experiment","4","even","2","696586","49027","693228","694366","2748","186984","694370","687126","2756","130807","698594","695378","700209","698594","NA","Sternberg Task","84","99613","92","yes","1024"
"91.3978494624","91.3978494624","1088.10752688","1088.10752688","black","experiment","legacy","legacy","legacy","0","uniform","1","undefined","1","right","92","0","92","92","0","0","92","92","0","0","92","92","92","92","0","10/21/21 17:24:17","The main experiment item","yes","SternbergTask.osexp","C:\Users\bryan\OneDrive\Documents\School\PSYC 5316  (Quant Methods)\Lab 3","no","mono","no","18","no","white","no","yes","768","legacy","80","11","C:/Users/bryan/OneDrive/Documents/School/PSYC 5316  (Quant Methods)/Lab 3/BS-subject-4.csv","legacy","8 5 7 3 6","Lentiform Loewenfeld","3.3.9","0","n","0","right","left","left","right","NA","1581","46269","56176","1581","NA","2","legacy","5","1024","2","48000","-16","experiment","4","even","9","703578","49027","700218","701358","2748","186984","701362","687126","2756","130807","705586","702370","707169","705586","NA","Sternberg Task","85","101194","93","yes","1024"
"90.4255319149","90.4255319149","1089.28723404","1089.28723404","black","experiment","legacy","legacy","legacy","0","uniform","0","undefined","0","left","93","0","93","93","0","0","93","93","0","0","93","93","93","93","0","10/21/21 17:24:17","The main experiment item","yes","SternbergTask.osexp","C:\Users\bryan\OneDrive\Documents\School\PSYC 5316  (Quant Methods)\Lab 3","no","mono","no","18","no","white","no","yes","768","legacy","81","11","C:/Users/bryan/OneDrive/Documents/School/PSYC 5316  (Quant Methods)/Lab 3/BS-subject-4.csv","legacy","9 3 1 2 5","Lentiform Loewenfeld","3.3.9","4","y","0","right","left","left","right","NA","1199","46269","56176","1199","NA","2","legacy","5","1024","2","48000","-16","experiment","4","even","2","710535","49027","707178","708315","2748","186984","708319","687126","2756","130807","712543","709327","713744","712543","NA","Sternberg Task","85","102393","94","yes","1024"
"90.5263157895","90.5263157895","1087.41052632","1087.41052632","black","experiment","legacy","legacy","legacy","0","uniform","1","undefined","1","left","94","0","94","94","0","0","94","94","0","0","94","94","94","94","0","10/21/21 17:24:17","The main experiment item","yes","SternbergTask.osexp","C:\Users\bryan\OneDrive\Documents\School\PSYC 5316  (Quant Methods)\Lab 3","no","mono","no","18","no","white","no","yes","768","legacy","82","11","C:/Users/bryan/OneDrive/Documents/School/PSYC 5316  (Quant Methods)/Lab 3/BS-subject-4.csv","legacy","7 8 6 3 1","Lentiform Loewenfeld","3.3.9","5","y","0","left","left","left","left","NA","911","46269","56176","911","NA","2","legacy","5","1024","2","48000","-16","experiment","4","even","1","717122","49027","707178","714902","2748","186984","714905","713751","2756","130807","719130","715914","720042","719130","NA","Sternberg Task","86","103304","95","yes","1024"
"90.625","90.625","1092.34375","1092.34375","black","experiment","legacy","legacy","legacy","0","uniform","1","undefined","1","right","95","0","95","95","0","0","95","95","0","0","95","95","95","95","0","10/21/21 17:24:17","The main experiment item","yes","SternbergTask.osexp","C:\Users\bryan\OneDrive\Documents\School\PSYC 5316  (Quant Methods)\Lab 3","no","mono","no","18","no","white","no","yes","768","legacy","83","11","C:/Users/bryan/OneDrive/Documents/School/PSYC 5316  (Quant Methods)/Lab 3/BS-subject-4.csv","legacy","1 4 9 2 5","Lentiform Loewenfeld","3.3.9","0","n","0","right","left","left","right","NA","1561","46269","56176","1561","NA","2","legacy","5","1024","2","48000","-16","experiment","4","even","7","723423","49027","720053","721203","2748","186984","721207","713751","2756","130807","725431","722215","726994","725431","NA","Sternberg Task","87","104865","96","yes","1024"
"90.7216494845","90.7216494845","1094.8556701","1094.8556701","black","experiment","legacy","legacy","legacy","0","uniform","1","undefined","1","right","96","0","96","96","0","0","96","96","0","0","96","96","96","96","0","10/21/21 17:24:17","The main experiment item","yes","SternbergTask.osexp","C:\Users\bryan\OneDrive\Documents\School\PSYC 5316  (Quant Methods)\Lab 3","no","mono","no","18","no","white","no","yes","768","legacy","84","11","C:/Users/bryan/OneDrive/Documents/School/PSYC 5316  (Quant Methods)/Lab 3/BS-subject-4.csv","legacy","2 5 1 4","Lentiform Loewenfeld","3.3.9","0","n","0","right","left","left","right","NA","1336","46269","56176","1336","NA","2","legacy","4","1024","2","48000","-16","experiment","4","even","6","730363","49027","727002","728143","2748","186984","728147","713751","2756","130807","732371","729155","733709","732371","NA","Sternberg Task","88","106201","97","yes","1024"
"89.7959183673","89.7959183673","1097.80612245","1097.80612245","black","experiment","legacy","legacy","legacy","0","uniform","0","undefined","0","right","97","0","97","97","0","0","97","97","0","0","97","97","97","97","0","10/21/21 17:24:17","The main experiment item","yes","SternbergTask.osexp","C:\Users\bryan\OneDrive\Documents\School\PSYC 5316  (Quant Methods)\Lab 3","no","mono","no","18","no","white","no","yes","768","legacy","85","11","C:/Users/bryan/OneDrive/Documents/School/PSYC 5316  (Quant Methods)/Lab 3/BS-subject-4.csv","legacy","6 7 5 9","Lentiform Loewenfeld","3.3.9","0","n","0","left","left","left","left","NA","1384","46269","56176","1384","NA","2","legacy","4","1024","2","48000","-16","experiment","4","even","2","737079","49027","733715","734864","2748","186984","734868","713751","2756","130807","739087","735871","740473","739087","NA","Sternberg Task","88","107585","98","yes","1024"
"89.898989899","89.898989899","1093.45454545","1093.45454545","black","experiment","legacy","legacy","legacy","0","uniform","1","undefined","1","left","98","0","98","98","0","0","98","98","0","0","98","98","98","98","0","10/21/21 17:24:17","The main experiment item","yes","SternbergTask.osexp","C:\Users\bryan\OneDrive\Documents\School\PSYC 5316  (Quant Methods)\Lab 3","no","mono","no","18","no","white","no","yes","768","legacy","86","11","C:/Users/bryan/OneDrive/Documents/School/PSYC 5316  (Quant Methods)/Lab 3/BS-subject-4.csv","legacy","8 7 3","Lentiform Loewenfeld","3.3.9","1","y","0","left","left","left","left","NA","667","46269","56176","667","NA","2","legacy","3","1024","2","48000","-16","experiment","4","even","8","743855","49027","733715","741635","2748","186984","741639","740481","2756","130807","745863","742647","746531","745863","NA","Sternberg Task","89","108252","99","yes","1024"
"90","90","1093.25","1093.25","black","experiment","legacy","legacy","legacy","0","uniform","1","undefined","1","left","99","0","99","99","0","0","99","99","0","0","99","99","99","99","0","10/21/21 17:24:17","The main experiment item","yes","SternbergTask.osexp","C:\Users\bryan\OneDrive\Documents\School\PSYC 5316  (Quant Methods)\Lab 3","no","mono","no","18","no","white","no","yes","768","legacy","87","11","C:/Users/bryan/OneDrive/Documents/School/PSYC 5316  (Quant Methods)/Lab 3/BS-subject-4.csv","legacy","6 1 2","Lentiform Loewenfeld","3.3.9","3","y","0","left","left","left","left","NA","1073","46269","56176","1073","NA","2","legacy","3","1024","2","48000","-16","experiment","4","even","2","749896","49027","746538","747676","2748","186984","747680","740481","2756","130807","751904","748688","752979","751904","NA","Sternberg Task","90","109325","100","yes","1024"
"90.099009901","90.099009901","1089.85148515","1089.85148515","black","experiment","legacy","legacy","legacy","0","uniform","1","undefined","1","right","100","0","100","100","0","0","100","100","0","0","100","100","100","100","0","10/21/21 17:24:17","The main experiment item","yes","SternbergTask.osexp","C:\Users\bryan\OneDrive\Documents\School\PSYC 5316  (Quant Methods)\Lab 3","no","mono","no","18","no","white","no","yes","768","legacy","88","11","C:/Users/bryan/OneDrive/Documents/School/PSYC 5316  (Quant Methods)/Lab 3/BS-subject-4.csv","legacy","5 3 8 7 2 4","Lentiform Loewenfeld","3.3.9","0","n","0","right","left","left","right","NA","750","46269","56176","750","NA","2","legacy","6","1024","2","48000","-16","experiment","4","even","9","756347","49027","752988","754127","2748","186984","754131","740481","2756","130807","758355","755139","759106","758355","NA","Sternberg Task","91","110075","101","yes","1024"
"89.2156862745","89.2156862745","1097.42156863","1097.42156863","black","experiment","legacy","legacy","legacy","0","uniform","0","undefined","0","right","101","0","101","101","0","0","101","101","0","0","101","101","101","101","0","10/21/21 17:24:17","The main experiment item","yes","SternbergTask.osexp","C:\Users\bryan\OneDrive\Documents\School\PSYC 5316  (Quant Methods)\Lab 3","no","mono","no","18","no","white","no","yes","768","legacy","89","11","C:/Users/bryan/OneDrive/Documents/School/PSYC 5316  (Quant Methods)/Lab 3/BS-subject-4.csv","legacy","9 7 4 5 8","Lentiform Loewenfeld","3.3.9","0","n","0","left","left","left","left","NA","1862","46269","56176","1862","NA","2","legacy","5","1024","2","48000","-16","experiment","4","even","6","762483","49027","759115","760264","2748","186984","760267","740481","2756","130807","764491","761275","766355","764491","NA","Sternberg Task","91","111937","102","yes","1024"
"89.3203883495","89.3203883495","1096.72815534","1096.72815534","black","experiment","legacy","legacy","legacy","0","uniform","1","undefined","1","right","102","0","102","102","0","0","102","102","0","0","102","102","102","102","0","10/21/21 17:24:17","The main experiment item","yes","SternbergTask.osexp","C:\Users\bryan\OneDrive\Documents\School\PSYC 5316  (Quant Methods)\Lab 3","no","mono","no","18","no","white","no","yes","768","legacy","90","11","C:/Users/bryan/OneDrive/Documents/School/PSYC 5316  (Quant Methods)/Lab 3/BS-subject-4.csv","legacy","5 7 3","Lentiform Loewenfeld","3.3.9","0","n","0","right","left","left","right","NA","1026","46269","56176","1026","NA","2","legacy","3","1024","2","48000","-16","experiment","4","even","9","769722","49027","759115","767502","2748","186984","767506","766363","2756","130807","771730","768514","772758","771730","NA","Sternberg Task","92","112963","103","yes","1024"
"88.4615384615","88.4615384615","1096.66346154","1096.66346154","black","experiment","legacy","legacy","legacy","0","uniform","0","undefined","0","right","103","0","103","103","0","0","103","103","0","0","103","103","103","103","0","10/21/21 17:24:17","The main experiment item","yes","SternbergTask.osexp","C:\Users\bryan\OneDrive\Documents\School\PSYC 5316  (Quant Methods)\Lab 3","no","mono","no","18","no","white","no","yes","768","legacy","91","11","C:/Users/bryan/OneDrive/Documents/School/PSYC 5316  (Quant Methods)/Lab 3/BS-subject-4.csv","legacy","7 4 2 8 1 9","Lentiform Loewenfeld","3.3.9","0","n","0","left","left","left","left","NA","1090","46269","56176","1090","NA","2","legacy","6","1024","2","48000","-16","experiment","4","even","5","776137","49027","772766","773916","2748","186984","773920","766363","2756","130807","778145","774929","779237","778145","NA","Sternberg Task","92","114053","104","yes","1024"
"88.5714285714","88.5714285714","1099.33333333","1099.33333333","black","experiment","legacy","legacy","legacy","0","uniform","1","undefined","1","right","104","0","104","104","0","0","104","104","0","0","104","104","104","104","0","10/21/21 17:24:17","The main experiment item","yes","SternbergTask.osexp","C:\Users\bryan\OneDrive\Documents\School\PSYC 5316  (Quant Methods)\Lab 3","no","mono","no","18","no","white","no","yes","768","legacy","92","11","C:/Users/bryan/OneDrive/Documents/School/PSYC 5316  (Quant Methods)/Lab 3/BS-subject-4.csv","legacy","9 5 3 2 8 6","Lentiform Loewenfeld","3.3.9","0","n","0","right","left","left","right","NA","1377","46269","56176","1377","NA","2","legacy","6","1024","2","48000","-16","experiment","4","even","7","782611","49027","772766","780392","2748","186984","780395","779243","2756","130807","784620","781404","785998","784619","NA","Sternberg Task","93","115430","105","yes","1024"
"88.679245283","88.679245283","1102.62264151","1102.62264151","black","experiment","legacy","legacy","legacy","0","uniform","1","undefined","1","right","105","0","105","105","0","0","105","105","0","0","105","105","105","105","0","10/21/21 17:24:17","The main experiment item","yes","SternbergTask.osexp","C:\Users\bryan\OneDrive\Documents\School\PSYC 5316  (Quant Methods)\Lab 3","no","mono","no","18","no","white","no","yes","768","legacy","93","11","C:/Users/bryan/OneDrive/Documents/School/PSYC 5316  (Quant Methods)/Lab 3/BS-subject-4.csv","legacy","9","Lentiform Loewenfeld","3.3.9","0","n","0","right","left","left","right","NA","1448","46269","56176","1448","NA","2","legacy","1","1024","2","48000","-16","experiment","4","even","6","789370","49027","786008","787150","2748","186984","787154","779243","2756","130807","791378","788162","792828","791378","NA","Sternberg Task","94","116878","106","yes","1024"
"88.785046729","88.785046729","1100","1100","black","experiment","legacy","legacy","legacy","0","uniform","1","undefined","1","left","106","0","106","106","0","0","106","106","0","0","106","106","106","106","0","10/21/21 17:24:17","The main experiment item","yes","SternbergTask.osexp","C:\Users\bryan\OneDrive\Documents\School\PSYC 5316  (Quant Methods)\Lab 3","no","mono","no","18","no","white","no","yes","768","legacy","94","11","C:/Users/bryan/OneDrive/Documents/School/PSYC 5316  (Quant Methods)/Lab 3/BS-subject-4.csv","legacy","3 5 4 7","Lentiform Loewenfeld","3.3.9","1","y","0","left","left","left","left","NA","822","46269","56176","822","NA","2","legacy","4","1024","2","48000","-16","experiment","4","even","3","796204","49027","792837","793985","2748","186984","793989","779243","2756","130807","798212","794996","799036","798212","NA","Sternberg Task","95","117700","107","yes","1024"
"88.8888888889","88.8888888889","1108.12037037","1108.12037037","black","experiment","legacy","legacy","legacy","0","uniform","1","undefined","1","right","107","0","107","107","0","0","107","107","0","0","107","107","107","107","0","10/21/21 17:24:17","The main experiment item","yes","SternbergTask.osexp","C:\Users\bryan\OneDrive\Documents\School\PSYC 5316  (Quant Methods)\Lab 3","no","mono","no","18","no","white","no","yes","768","legacy","95","11","C:/Users/bryan/OneDrive/Documents/School/PSYC 5316  (Quant Methods)/Lab 3/BS-subject-4.csv","legacy","1 7 5 2 9","Lentiform Loewenfeld","3.3.9","0","n","0","right","left","left","right","NA","1977","46269","56176","1977","NA","2","legacy","5","1024","2","48000","-16","experiment","4","even","3","802413","49027","799045","800193","2748","186984","800197","779243","2756","130807","804421","801205","806400","804421","NA","Sternberg Task","96","119677","108","yes","1024"
