"acc","accuracy","average_response_time","avg_rt","background","block","canvas_backend","clock_backend","color_backend","compensation","coordinates","correct","correct_instruction1","correct_keyboard_response","correct_response","count_correctFeedback","count_expSequence","count_experiment","count_experimentLoop","count_fixation","count_iSi","count_incorrectFeedback","count_instruction1","count_instructions2","count_keyboard_response","count_logger","count_memorySet","count_practiceLoop","count_probe","count_thankYou","datetime","description","disable_garbage_collection","experiment_file","experiment_path","font_bold","font_family","font_italic","font_size","font_underline","foreground","form_clicks","fullscreen","height","keyboard_backend","live_row","live_row_practiceLoop","logfile","mouse_backend","numberSet","opensesame_codename","opensesame_version","posInSet","present","repeat_cycle","response","response_instruction1","response_instructions2","response_keyboard_response","response_thankYou","response_time","response_time_instruction1","response_time_instructions2","response_time_keyboard_response","response_time_thankYou","round_decimals","sampler_backend","setSize","sound_buf_size","sound_channels","sound_freq","sound_sample_size","start","subject_nr","subject_parity","target","time_correctFeedback","time_expSequence","time_experiment","time_experimentLoop","time_fixation","time_iSi","time_incorrectFeedback","time_instruction1","time_instructions2","time_keyboard_response","time_logger","time_memorySet","time_practiceLoop","time_probe","time_thankYou","title","total_correct","total_response_time","total_responses","uniform_coordinates","width"
"0","0","2000","2000","black","practice","legacy","legacy","legacy","0","uniform","0","undefined","0","right","0","0","0","0","0","0","0","0","0","0","0","0","0","0","0","Sun Oct 24 21:11:15 2021","The main experiment item","yes","Sternbergtask.osexp","C:/Users/rayra/Documents","no","mono","no","18","no","white","no","yes","768","legacy","0","0","C:/Users/rayra/Documents/subject-4.csv","legacy","5","Lentiform Loewenfeld","3.3.9","0","n","0","None","right","NA","None","NA","2000","27626","NA","2000","NA","2","legacy","1","1024","2","48000","-16","experiment","4","even","3","NA","32364","3798","NA","32367","34573","NA","3801","NA","36574","38574","33370","31428","36574","NA","Sternberg task","0","2000","1","yes","1024"
"50","50","1950.5","1950.5","black","practice","legacy","legacy","legacy","0","uniform","1","undefined","1","right","1","1","0","0","1","1","1","0","0","1","1","1","0","1","0","Sun Oct 24 21:11:15 2021","The main experiment item","yes","Sternbergtask.osexp","C:/Users/rayra/Documents","no","mono","no","18","no","white","no","yes","768","legacy","1","1","C:/Users/rayra/Documents/subject-4.csv","legacy","4 1 5","Lentiform Loewenfeld","3.3.9","0","n","0","right","right","NA","right","NA","1901","27626","NA","1901","NA","2","legacy","3","1024","2","48000","-16","experiment","4","even","2","NA","39819","3798","NA","39821","42029","38627","3801","NA","44033","45934","40825","31428","44033","NA","Sternberg task","1","3901","2","yes","1024"
"66.66666666666667","66.66666666666667","1879.6666666666667","1879.6666666666667","black","practice","legacy","legacy","legacy","0","uniform","1","undefined","1","left","2","2","0","0","2","2","2","0","0","2","2","2","0","2","0","Sun Oct 24 21:11:15 2021","The main experiment item","yes","Sternbergtask.osexp","C:/Users/rayra/Documents","no","mono","no","18","no","white","no","yes","768","legacy","2","2","C:/Users/rayra/Documents/subject-4.csv","legacy","1 7 9 8 5","Lentiform Loewenfeld","3.3.9","4","y","0","left","right","NA","left","NA","1738","27626","NA","1738","NA","2","legacy","5","1024","2","48000","-16","experiment","4","even","8","45940","47145","3798","NA","47147","49355","38627","3801","NA","51359","53098","48150","31428","51359","NA","Sternberg task","2","5639","3","yes","1024"
"75","75","1772.5","1772.5","black","practice","legacy","legacy","legacy","0","uniform","1","undefined","1","right","3","3","0","0","3","3","3","0","0","3","3","3","0","3","0","Sun Oct 24 21:11:15 2021","The main experiment item","yes","Sternbergtask.osexp","C:/Users/rayra/Documents","no","mono","no","18","no","white","no","yes","768","legacy","3","3","C:/Users/rayra/Documents/subject-4.csv","legacy","2 1","Lentiform Loewenfeld","3.3.9","0","n","0","right","right","NA","right","NA","1451","27626","NA","1451","NA","2","legacy","2","1024","2","48000","-16","experiment","4","even","5","53104","54274","3798","NA","54276","56483","38627","3801","NA","58487","59938","55279","31428","58486","NA","Sternberg task","3","7090","4","yes","1024"
"60","60","1606.6","1606.6","black","practice","legacy","legacy","legacy","0","uniform","0","undefined","0","left","4","4","0","0","4","4","4","0","0","4","4","4","0","4","0","Sun Oct 24 21:11:15 2021","The main experiment item","yes","Sternbergtask.osexp","C:/Users/rayra/Documents","no","mono","no","18","no","white","no","yes","768","legacy","4","4","C:/Users/rayra/Documents/subject-4.csv","legacy","2 9 4","Lentiform Loewenfeld","3.3.9","3","y","0","right","right","NA","right","NA","943","27626","NA","943","NA","2","legacy","3","1024","2","48000","-16","experiment","4","even","4","59943","61136","3798","NA","61138","63346","38627","3801","NA","65350","66293","62142","31428","65350","NA","Sternberg task","3","8033","5","yes","1024"
"66.66666666666667","66.66666666666667","1543.1666666666667","1543.1666666666667","black","practice","legacy","legacy","legacy","0","uniform","1","undefined","1","left","5","5","0","0","5","5","5","0","0","5","5","5","0","5","0","Sun Oct 24 21:11:15 2021","The main experiment item","yes","Sternbergtask.osexp","C:/Users/rayra/Documents","no","mono","no","18","no","white","no","yes","768","legacy","5","5","C:/Users/rayra/Documents/subject-4.csv","legacy","4 3 1 7 9 8","Lentiform Loewenfeld","3.3.9","1","y","0","left","right","NA","left","NA","1226","27626","NA","1226","NA","2","legacy","6","1024","2","48000","-16","experiment","4","even","4","59943","67507","3798","NA","67509","69717","66300","3801","NA","71721","72947","68513","31428","71721","NA","Sternberg task","4","9259","6","yes","1024"
"71.42857142857143","71.42857142857143","1409.857142857143","1409.857142857143","black","practice","legacy","legacy","legacy","0","uniform","1","undefined","1","left","6","6","0","0","6","6","6","0","0","6","6","6","0","6","0","Sun Oct 24 21:11:15 2021","The main experiment item","yes","Sternbergtask.osexp","C:/Users/rayra/Documents","no","mono","no","18","no","white","no","yes","768","legacy","6","6","C:/Users/rayra/Documents/subject-4.csv","legacy","4 8","Lentiform Loewenfeld","3.3.9","1","y","0","left","right","NA","left","NA","610","27626","NA","610","NA","2","legacy","2","1024","2","48000","-16","experiment","4","even","4","72955","74143","3798","NA","74145","76352","66300","3801","NA","78356","78967","75148","31428","78355","NA","Sternberg task","5","9869","7","yes","1024"
"62.5","62.5","1281","1281","black","practice","legacy","legacy","legacy","0","uniform","0","undefined","0","left","7","7","0","0","7","7","7","0","0","7","7","7","0","7","0","Sun Oct 24 21:11:15 2021","The main experiment item","yes","Sternbergtask.osexp","C:/Users/rayra/Documents","no","mono","no","18","no","white","no","yes","768","legacy","7","7","C:/Users/rayra/Documents/subject-4.csv","legacy","6","Lentiform Loewenfeld","3.3.9","1","y","0","right","right","NA","right","NA","379","27626","NA","379","NA","2","legacy","1","1024","2","48000","-16","experiment","4","even","6","78974","80149","3798","NA","80151","82360","66300","3801","NA","84366","84745","81156","31428","84365","NA","Sternberg task","5","10248","8","yes","1024"
"66.66666666666667","66.66666666666667","1314.111111111111","1314.111111111111","black","practice","legacy","legacy","legacy","0","uniform","1","undefined","1","right","8","8","0","0","8","8","8","0","0","8","8","8","0","8","0","Sun Oct 24 21:11:15 2021","The main experiment item","yes","Sternbergtask.osexp","C:/Users/rayra/Documents","no","mono","no","18","no","white","no","yes","768","legacy","8","8","C:/Users/rayra/Documents/subject-4.csv","legacy","9 6 7 4 5","Lentiform Loewenfeld","3.3.9","0","n","0","right","right","NA","right","NA","1579","27626","NA","1579","NA","2","legacy","5","1024","2","48000","-16","experiment","4","even","3","78974","85985","3798","NA","85987","88195","84769","3801","NA","90199","91778","86991","31428","90199","NA","Sternberg task","6","11827","9","yes","1024"
"70","70","1304.7","1304.7","black","practice","legacy","legacy","legacy","0","uniform","1","undefined","1","right","9","9","0","0","9","9","9","0","0","9","9","9","0","9","0","Sun Oct 24 21:11:15 2021","The main experiment item","yes","Sternbergtask.osexp","C:/Users/rayra/Documents","no","mono","no","18","no","white","no","yes","768","legacy","9","9","C:/Users/rayra/Documents/subject-4.csv","legacy","5 7 8 4 1 2","Lentiform Loewenfeld","3.3.9","0","n","0","right","right","NA","right","NA","1220","27626","NA","1220","NA","2","legacy","6","1024","2","48000","-16","experiment","4","even","6","91785","92989","3798","NA","92992","95200","84769","3801","NA","97205","98426","93995","31428","97205","NA","Sternberg task","7","13047","10","yes","1024"
"72.72727272727273","72.72727272727273","1314.1818181818182","1314.1818181818182","black","practice","legacy","legacy","legacy","0","uniform","1","undefined","1","right","10","10","0","0","10","10","10","0","0","10","10","10","0","10","0","Sun Oct 24 21:11:15 2021","The main experiment item","yes","Sternbergtask.osexp","C:/Users/rayra/Documents","no","mono","no","18","no","white","no","yes","768","legacy","10","10","C:/Users/rayra/Documents/subject-4.csv","legacy","3 1 9 4","Lentiform Loewenfeld","3.3.9","0","n","0","right","right","NA","right","NA","1409","27626","NA","1409","NA","2","legacy","4","1024","2","48000","-16","experiment","4","even","6","98448","99633","3798","NA","99635","101843","84769","3801","NA","103847","105256","100638","31428","103847","NA","Sternberg task","8","14456","11","yes","1024"
"75","75","1297","1297","black","practice","legacy","legacy","legacy","0","uniform","1","undefined","1","left","11","11","0","0","11","11","11","0","0","11","11","11","0","11","0","Sun Oct 24 21:11:15 2021","The main experiment item","yes","Sternbergtask.osexp","C:/Users/rayra/Documents","no","mono","no","18","no","white","no","yes","768","legacy","11","11","C:/Users/rayra/Documents/subject-4.csv","legacy","1 5 2 9","Lentiform Loewenfeld","3.3.9","2","y","0","left","right","NA","left","NA","1108","27626","NA","1108","NA","2","legacy","4","1024","2","48000","-16","experiment","4","even","5","105263","106435","3798","NA","106438","108646","84769","3801","NA","110650","111758","107441","31428","110650","NA","Sternberg task","9","15564","12","yes","1024"
"76.92307692307692","76.92307692307692","1275.6923076923076","1275.6923076923076","black","experiment","legacy","legacy","legacy","0","uniform","1","undefined","1","right","12","12","0","0","12","12","12","0","0","12","12","12","0","12","0","Sun Oct 24 21:11:15 2021","The main experiment item","yes","Sternbergtask.osexp","C:/Users/rayra/Documents","no","mono","no","18","no","white","no","yes","768","legacy","0","11","C:/Users/rayra/Documents/subject-4.csv","legacy","6 7 5 9","Lentiform Loewenfeld","3.3.9","0","n","0","right","right","right","right","NA","1020","27626","11199","1020","NA","2","legacy","4","1024","2","48000","-16","experiment","4","even","2","111765","124207","3798","124024","124209","126416","84769","3801","112825","128420","129441","125212","31428","128419","NA","Sternberg task","10","16584","13","yes","1024"
"71.42857142857143","71.42857142857143","1318.142857142857","1318.142857142857","black","experiment","legacy","legacy","legacy","0","uniform","0","undefined","0","left","13","13","0","0","13","13","13","0","0","13","13","13","0","13","0","Sun Oct 24 21:11:15 2021","The main experiment item","yes","Sternbergtask.osexp","C:/Users/rayra/Documents","no","mono","no","18","no","white","no","yes","768","legacy","1","11","C:/Users/rayra/Documents/subject-4.csv","legacy","8 5 4 7 3 1","Lentiform Loewenfeld","3.3.9","2","y","0","right","right","right","right","NA","1870","27626","11199","1870","NA","2","legacy","6","1024","2","48000","-16","experiment","4","even","5","129463","130665","3798","124024","130667","132875","84769","3801","112825","134879","136749","131670","31428","134879","NA","Sternberg task","10","18454","14","yes","1024"
"73.33333333333333","73.33333333333333","1308.3333333333333","1308.3333333333333","black","experiment","legacy","legacy","legacy","0","uniform","1","undefined","1","left","14","14","0","0","14","14","14","0","0","14","14","14","0","14","0","Sun Oct 24 21:11:15 2021","The main experiment item","yes","Sternbergtask.osexp","C:/Users/rayra/Documents","no","mono","no","18","no","white","no","yes","768","legacy","2","11","C:/Users/rayra/Documents/subject-4.csv","legacy","8 9 6 1","Lentiform Loewenfeld","3.3.9","2","y","0","left","right","right","left","NA","1171","27626","11199","1171","NA","2","legacy","4","1024","2","48000","-16","experiment","4","even","9","129463","137956","3798","124024","137957","140165","136756","3801","112825","142170","143341","138960","31428","142169","NA","Sternberg task","11","19625","15","yes","1024"
"75","75","1269.5625","1269.5625","black","experiment","legacy","legacy","legacy","0","uniform","1","undefined","1","right","15","15","0","0","15","15","15","0","0","15","15","15","0","15","0","Sun Oct 24 21:11:15 2021","The main experiment item","yes","Sternbergtask.osexp","C:/Users/rayra/Documents","no","mono","no","18","no","white","no","yes","768","legacy","3","11","C:/Users/rayra/Documents/subject-4.csv","legacy","1 8 7","Lentiform Loewenfeld","3.3.9","0","n","0","right","right","right","right","NA","688","27626","11199","688","NA","2","legacy","3","1024","2","48000","-16","experiment","4","even","4","143365","144531","3798","124024","144533","146742","136756","3801","112825","148746","149436","145538","31428","148746","NA","Sternberg task","12","20313","16","yes","1024"
"70.58823529411765","70.58823529411765","1261.3529411764705","1261.3529411764705","black","experiment","legacy","legacy","legacy","0","uniform","0","undefined","0","right","16","16","0","0","16","16","16","0","0","16","16","16","0","16","0","Sun Oct 24 21:11:15 2021","The main experiment item","yes","Sternbergtask.osexp","C:/Users/rayra/Documents","no","mono","no","18","no","white","no","yes","768","legacy","4","11","C:/Users/rayra/Documents/subject-4.csv","legacy","7 1 8 4 9 3","Lentiform Loewenfeld","3.3.9","0","n","0","left","right","right","left","NA","1130","27626","11199","1130","NA","2","legacy","6","1024","2","48000","-16","experiment","4","even","6","149444","150617","3798","124024","150620","152829","136756","3801","112825","154834","155965","151624","31428","154833","NA","Sternberg task","12","21443","17","yes","1024"
"72.22222222222223","72.22222222222223","1299.5","1299.5","black","experiment","legacy","legacy","legacy","0","uniform","1","undefined","1","right","17","17","0","0","17","17","17","0","0","17","17","17","0","17","0","Sun Oct 24 21:11:15 2021","The main experiment item","yes","Sternbergtask.osexp","C:/Users/rayra/Documents","no","mono","no","18","no","white","no","yes","768","legacy","5","11","C:/Users/rayra/Documents/subject-4.csv","legacy","2 8 9","Lentiform Loewenfeld","3.3.9","0","n","0","right","right","right","right","NA","1948","27626","11199","1948","NA","2","legacy","3","1024","2","48000","-16","experiment","4","even","6","149444","157160","3798","124024","157162","159370","155971","3801","112825","161374","163323","158165","31428","161374","NA","Sternberg task","13","23391","18","yes","1024"
"73.6842105263158","73.6842105263158","1276.1052631578948","1276.1052631578948","black","experiment","legacy","legacy","legacy","0","uniform","1","undefined","1","right","18","18","0","0","18","18","18","0","0","18","18","18","0","18","0","Sun Oct 24 21:11:15 2021","The main experiment item","yes","Sternbergtask.osexp","C:/Users/rayra/Documents","no","mono","no","18","no","white","no","yes","768","legacy","6","11","C:/Users/rayra/Documents/subject-4.csv","legacy","1 7 5 2","Lentiform Loewenfeld","3.3.9","0","n","0","right","right","right","right","NA","855","27626","11199","855","NA","2","legacy","4","1024","2","48000","-16","experiment","4","even","3","163346","164535","3798","124024","164538","166746","155971","3801","112825","168751","169607","165542","31428","168750","NA","Sternberg task","14","24246","19","yes","1024"
"75","75","1275.5","1275.5","black","experiment","legacy","legacy","legacy","0","uniform","1","undefined","1","right","19","19","0","0","19","19","19","0","0","19","19","19","0","19","0","Sun Oct 24 21:11:15 2021","The main experiment item","yes","Sternbergtask.osexp","C:/Users/rayra/Documents","no","mono","no","18","no","white","no","yes","768","legacy","7","11","C:/Users/rayra/Documents/subject-4.csv","legacy","6 9 7 3 8 2","Lentiform Loewenfeld","3.3.9","0","n","0","right","right","right","right","NA","1264","27626","11199","1264","NA","2","legacy","6","1024","2","48000","-16","experiment","4","even","5","169613","170819","3798","124024","170822","173030","155971","3801","112825","175034","176298","171826","31428","175033","NA","Sternberg task","15","25510","20","yes","1024"
"76.19047619047619","76.19047619047619","1263.2380952380952","1263.2380952380952","black","experiment","legacy","legacy","legacy","0","uniform","1","undefined","1","right","20","20","0","0","20","20","20","0","0","20","20","20","0","20","0","Sun Oct 24 21:11:15 2021","The main experiment item","yes","Sternbergtask.osexp","C:/Users/rayra/Documents","no","mono","no","18","no","white","no","yes","768","legacy","8","11","C:/Users/rayra/Documents/subject-4.csv","legacy","7 9 1 6","Lentiform Loewenfeld","3.3.9","0","n","0","right","right","right","right","NA","1018","27626","11199","1018","NA","2","legacy","4","1024","2","48000","-16","experiment","4","even","4","176306","177486","3798","124024","177488","179694","155971","3801","112825","181698","182717","178491","31428","181698","NA","Sternberg task","16","26528","21","yes","1024"
"77.27272727272727","77.27272727272727","1263.1363636363637","1263.1363636363637","black","experiment","legacy","legacy","legacy","0","uniform","1","undefined","1","left","21","21","0","0","21","21","21","0","0","21","21","21","0","21","0","Sun Oct 24 21:11:15 2021","The main experiment item","yes","Sternbergtask.osexp","C:/Users/rayra/Documents","no","mono","no","18","no","white","no","yes","768","legacy","9","11","C:/Users/rayra/Documents/subject-4.csv","legacy","2 3","Lentiform Loewenfeld","3.3.9","1","y","0","left","right","right","left","NA","1261","27626","11199","1261","NA","2","legacy","2","1024","2","48000","-16","experiment","4","even","2","182723","183896","3798","124024","183898","186106","155971","3801","112825","188111","189372","184902","31428","188111","NA","Sternberg task","17","27789","22","yes","1024"
"78.26086956521739","78.26086956521739","1262.7391304347825","1262.7391304347825","black","experiment","legacy","legacy","legacy","0","uniform","1","undefined","1","right","22","22","0","0","22","22","22","0","0","22","22","22","0","22","0","Sun Oct 24 21:11:15 2021","The main experiment item","yes","Sternbergtask.osexp","C:/Users/rayra/Documents","no","mono","no","18","no","white","no","yes","768","legacy","10","11","C:/Users/rayra/Documents/subject-4.csv","legacy","9 5 3 2 8 6","Lentiform Loewenfeld","3.3.9","0","n","0","right","right","right","right","NA","1254","27626","11199","1254","NA","2","legacy","6","1024","2","48000","-16","experiment","4","even","7","189380","190568","3798","124024","190571","192780","155971","3801","112825","194784","196038","191575","31428","194784","NA","Sternberg task","18","29043","23","yes","1024"
"79.16666666666667","79.16666666666667","1277.625","1277.625","black","experiment","legacy","legacy","legacy","0","uniform","1","undefined","1","left","23","23","0","0","23","23","23","0","0","23","23","23","0","23","0","Sun Oct 24 21:11:15 2021","The main experiment item","yes","Sternbergtask.osexp","C:/Users/rayra/Documents","no","mono","no","18","no","white","no","yes","768","legacy","11","11","C:/Users/rayra/Documents/subject-4.csv","legacy","2 4 8 5 1 3","Lentiform Loewenfeld","3.3.9","1","y","0","left","right","right","left","NA","1620","27626","11199","1620","NA","2","legacy","6","1024","2","48000","-16","experiment","4","even","2","196045","197248","3798","124024","197251","199459","155971","3801","112825","201463","203084","198255","31428","201463","NA","Sternberg task","19","30663","24","yes","1024"
"80","80","1276.96","1276.96","black","experiment","legacy","legacy","legacy","0","uniform","1","undefined","1","left","24","24","0","0","24","24","24","0","0","24","24","24","0","24","0","Sun Oct 24 21:11:15 2021","The main experiment item","yes","Sternbergtask.osexp","C:/Users/rayra/Documents","no","mono","no","18","no","white","no","yes","768","legacy","12","11","C:/Users/rayra/Documents/subject-4.csv","legacy","9 6 2 4 1","Lentiform Loewenfeld","3.3.9","4","y","0","left","right","right","left","NA","1261","27626","11199","1261","NA","2","legacy","5","1024","2","48000","-16","experiment","4","even","4","203091","204259","3798","124024","204261","206469","155971","3801","112825","208474","209736","205264","31428","208474","NA","Sternberg task","20","31924","25","yes","1024"
"80.76923076923077","80.76923076923077","1272.9615384615386","1272.9615384615386","black","experiment","legacy","legacy","legacy","0","uniform","1","undefined","1","right","25","25","0","0","25","25","25","0","0","25","25","25","0","25","0","Sun Oct 24 21:11:15 2021","The main experiment item","yes","Sternbergtask.osexp","C:/Users/rayra/Documents","no","mono","no","18","no","white","no","yes","768","legacy","13","11","C:/Users/rayra/Documents/subject-4.csv","legacy","1 7 5 2 9","Lentiform Loewenfeld","3.3.9","0","n","0","right","right","right","right","NA","1173","27626","11199","1173","NA","2","legacy","5","1024","2","48000","-16","experiment","4","even","3","209743","210938","3798","124024","210941","213150","155971","3801","112825","215155","216329","211945","31428","215155","NA","Sternberg task","21","33097","26","yes","1024"
"81.48148148148148","81.48148148148148","1268.111111111111","1268.111111111111","black","experiment","legacy","legacy","legacy","0","uniform","1","undefined","1","left","26","26","0","0","26","26","26","0","0","26","26","26","0","26","0","Sun Oct 24 21:11:15 2021","The main experiment item","yes","Sternbergtask.osexp","C:/Users/rayra/Documents","no","mono","no","18","no","white","no","yes","768","legacy","14","11","C:/Users/rayra/Documents/subject-4.csv","legacy","3 4","Lentiform Loewenfeld","3.3.9","1","y","0","left","right","right","left","NA","1142","27626","11199","1142","NA","2","legacy","2","1024","2","48000","-16","experiment","4","even","3","216336","217532","3798","124024","217535","219743","155971","3801","112825","221749","222891","218539","31428","221749","NA","Sternberg task","22","34239","27","yes","1024"
"82.14285714285714","82.14285714285714","1271","1271","black","experiment","legacy","legacy","legacy","0","uniform","1","undefined","1","right","27","27","0","0","27","27","27","0","0","27","27","27","0","27","0","Sun Oct 24 21:11:15 2021","The main experiment item","yes","Sternbergtask.osexp","C:/Users/rayra/Documents","no","mono","no","18","no","white","no","yes","768","legacy","15","11","C:/Users/rayra/Documents/subject-4.csv","legacy","5 9 2 3","Lentiform Loewenfeld","3.3.9","0","n","0","right","right","right","right","NA","1349","27626","11199","1349","NA","2","legacy","4","1024","2","48000","-16","experiment","4","even","8","222899","224108","3798","124024","224111","226318","155971","3801","112825","228321","229671","225114","31428","228321","NA","Sternberg task","23","35588","28","yes","1024"
"79.3103448275862","79.3103448275862","1262.1724137931035","1262.1724137931035","black","experiment","legacy","legacy","legacy","0","uniform","0","undefined","0","right","28","28","0","0","28","28","28","0","0","28","28","28","0","28","0","Sun Oct 24 21:11:15 2021","The main experiment item","yes","Sternbergtask.osexp","C:/Users/rayra/Documents","no","mono","no","18","no","white","no","yes","768","legacy","16","11","C:/Users/rayra/Documents/subject-4.csv","legacy","6 8","Lentiform Loewenfeld","3.3.9","0","n","0","left","right","right","left","NA","1015","27626","11199","1015","NA","2","legacy","2","1024","2","48000","-16","experiment","4","even","9","229677","230875","3798","124024","230877","233085","155971","3801","112825","235089","236104","231881","31428","235089","NA","Sternberg task","23","36603","29","yes","1024"
"80","80","1273.7333333333333","1273.7333333333333","black","experiment","legacy","legacy","legacy","0","uniform","1","undefined","1","left","29","29","0","0","29","29","29","0","0","29","29","29","0","29","0","Sun Oct 24 21:11:15 2021","The main experiment item","yes","Sternbergtask.osexp","C:/Users/rayra/Documents","no","mono","no","18","no","white","no","yes","768","legacy","17","11","C:/Users/rayra/Documents/subject-4.csv","legacy","4 9 7 8 5 3","Lentiform Loewenfeld","3.3.9","4","y","0","left","right","right","left","NA","1609","27626","11199","1609","NA","2","legacy","6","1024","2","48000","-16","experiment","4","even","8","229677","237313","3798","124024","237315","239522","236111","3801","112825","241526","243136","238318","31428","241525","NA","Sternberg task","24","38212","30","yes","1024"
"80.64516129032258","80.64516129032258","1271.5483870967741","1271.5483870967741","black","experiment","legacy","legacy","legacy","0","uniform","1","undefined","1","right","30","30","0","0","30","30","30","0","0","30","30","30","0","30","0","Sun Oct 24 21:11:15 2021","The main experiment item","yes","Sternbergtask.osexp","C:/Users/rayra/Documents","no","mono","no","18","no","white","no","yes","768","legacy","18","11","C:/Users/rayra/Documents/subject-4.csv","legacy","3 4 9 6 7 8","Lentiform Loewenfeld","3.3.9","0","n","0","right","right","right","right","NA","1206","27626","11199","1206","NA","2","legacy","6","1024","2","48000","-16","experiment","4","even","2","243142","244320","3798","124024","244323","246531","236111","3801","112825","248534","249741","245327","31428","248534","NA","Sternberg task","25","39418","31","yes","1024"
"81.25","81.25","1270.21875","1270.21875","black","experiment","legacy","legacy","legacy","0","uniform","1","undefined","1","right","31","31","0","0","31","31","31","0","0","31","31","31","0","31","0","Sun Oct 24 21:11:15 2021","The main experiment item","yes","Sternbergtask.osexp","C:/Users/rayra/Documents","no","mono","no","18","no","white","no","yes","768","legacy","19","11","C:/Users/rayra/Documents/subject-4.csv","legacy","2 6 4 3 9","Lentiform Loewenfeld","3.3.9","0","n","0","right","right","right","right","NA","1229","27626","11199","1229","NA","2","legacy","5","1024","2","48000","-16","experiment","4","even","1","249763","250942","3798","124024","250944","253151","236111","3801","112825","255156","256386","251948","31428","255155","NA","Sternberg task","26","40647","32","yes","1024"
"81.81818181818181","81.81818181818181","1271.121212121212","1271.121212121212","black","experiment","legacy","legacy","legacy","0","uniform","1","undefined","1","left","32","32","0","0","32","32","32","0","0","32","32","32","0","32","0","Sun Oct 24 21:11:15 2021","The main experiment item","yes","Sternbergtask.osexp","C:/Users/rayra/Documents","no","mono","no","18","no","white","no","yes","768","legacy","20","11","C:/Users/rayra/Documents/subject-4.csv","legacy","5 2 9 6 1 7","Lentiform Loewenfeld","3.3.9","3","y","0","left","right","right","left","NA","1300","27626","11199","1300","NA","2","legacy","6","1024","2","48000","-16","experiment","4","even","9","256393","257572","3798","124024","257575","259783","236111","3801","112825","261788","263089","258578","31428","261787","NA","Sternberg task","27","41947","33","yes","1024"
"82.3529411764706","82.3529411764706","1272.735294117647","1272.735294117647","black","experiment","legacy","legacy","legacy","0","uniform","1","undefined","1","right","33","33","0","0","33","33","33","0","0","33","33","33","0","33","0","Sun Oct 24 21:11:15 2021","The main experiment item","yes","Sternbergtask.osexp","C:/Users/rayra/Documents","no","mono","no","18","no","white","no","yes","768","legacy","21","11","C:/Users/rayra/Documents/subject-4.csv","legacy","5 2","Lentiform Loewenfeld","3.3.9","0","n","0","right","right","right","right","NA","1326","27626","11199","1326","NA","2","legacy","2","1024","2","48000","-16","experiment","4","even","7","263097","264301","3798","124024","264303","266510","236111","3801","112825","268513","269840","265306","31428","268513","NA","Sternberg task","28","43273","34","yes","1024"
"82.85714285714286","82.85714285714286","1279.9142857142858","1279.9142857142858","black","experiment","legacy","legacy","legacy","0","uniform","1","undefined","1","left","34","34","0","0","34","34","34","0","0","34","34","34","0","34","0","Sun Oct 24 21:11:15 2021","The main experiment item","yes","Sternbergtask.osexp","C:/Users/rayra/Documents","no","mono","no","18","no","white","no","yes","768","legacy","22","11","C:/Users/rayra/Documents/subject-4.csv","legacy","2 4 6 9","Lentiform Loewenfeld","3.3.9","3","y","0","left","right","right","left","NA","1524","27626","11199","1524","NA","2","legacy","4","1024","2","48000","-16","experiment","4","even","6","269849","271050","3798","124024","271053","273260","236111","3801","112825","275264","276789","272056","31428","275264","NA","Sternberg task","29","44797","35","yes","1024"
"83.33333333333333","83.33333333333333","1274.7777777777778","1274.7777777777778","black","experiment","legacy","legacy","legacy","0","uniform","1","undefined","1","right","35","35","0","0","35","35","35","0","0","35","35","35","0","35","0","Sun Oct 24 21:11:15 2021","The main experiment item","yes","Sternbergtask.osexp","C:/Users/rayra/Documents","no","mono","no","18","no","white","no","yes","768","legacy","23","11","C:/Users/rayra/Documents/subject-4.csv","legacy","1 6 4 3 9 7","Lentiform Loewenfeld","3.3.9","0","n","0","right","right","right","right","NA","1095","27626","11199","1095","NA","2","legacy","6","1024","2","48000","-16","experiment","4","even","8","276796","277975","3798","124024","277977","280185","236111","3801","112825","282189","283285","278981","31428","282189","NA","Sternberg task","30","45892","36","yes","1024"
"83.78378378378379","83.78378378378379","1263.2162162162163","1263.2162162162163","black","experiment","legacy","legacy","legacy","0","uniform","1","undefined","1","right","36","36","0","0","36","36","36","0","0","36","36","36","0","36","0","Sun Oct 24 21:11:15 2021","The main experiment item","yes","Sternbergtask.osexp","C:/Users/rayra/Documents","no","mono","no","18","no","white","no","yes","768","legacy","24","11","C:/Users/rayra/Documents/subject-4.csv","legacy","6 8 4","Lentiform Loewenfeld","3.3.9","0","n","0","right","right","right","right","NA","847","27626","11199","847","NA","2","legacy","3","1024","2","48000","-16","experiment","4","even","1","283292","284487","3798","124024","284489","286697","236111","3801","112825","288701","289550","285493","31428","288701","NA","Sternberg task","31","46739","37","yes","1024"
"84.21052631578948","84.21052631578948","1268.078947368421","1268.078947368421","black","experiment","legacy","legacy","legacy","0","uniform","1","undefined","1","right","37","37","0","0","37","37","37","0","0","37","37","37","0","37","0","Sun Oct 24 21:11:15 2021","The main experiment item","yes","Sternbergtask.osexp","C:/Users/rayra/Documents","no","mono","no","18","no","white","no","yes","768","legacy","25","11","C:/Users/rayra/Documents/subject-4.csv","legacy","8 4 3 9","Lentiform Loewenfeld","3.3.9","0","n","0","right","right","right","right","NA","1448","27626","11199","1448","NA","2","legacy","4","1024","2","48000","-16","experiment","4","even","5","289559","290786","3798","124024","290788","292997","236111","3801","112825","295001","296450","291792","31428","295001","NA","Sternberg task","32","48187","38","yes","1024"
"84.61538461538461","84.61538461538461","1264.5128205128206","1264.5128205128206","black","experiment","legacy","legacy","legacy","0","uniform","1","undefined","1","left","38","38","0","0","38","38","38","0","0","38","38","38","0","38","0","Sun Oct 24 21:11:15 2021","The main experiment item","yes","Sternbergtask.osexp","C:/Users/rayra/Documents","no","mono","no","18","no","white","no","yes","768","legacy","26","11","C:/Users/rayra/Documents/subject-4.csv","legacy","9 8 4","Lentiform Loewenfeld","3.3.9","1","y","0","left","right","right","left","NA","1129","27626","11199","1129","NA","2","legacy","3","1024","2","48000","-16","experiment","4","even","9","296457","297653","3798","124024","297655","299864","236111","3801","112825","301868","302998","298659","31428","301868","NA","Sternberg task","33","49316","39","yes","1024"
"85","85","1256.65","1256.65","black","experiment","legacy","legacy","legacy","0","uniform","1","undefined","1","right","39","39","0","0","39","39","39","0","0","39","39","39","0","39","0","Sun Oct 24 21:11:15 2021","The main experiment item","yes","Sternbergtask.osexp","C:/Users/rayra/Documents","no","mono","no","18","no","white","no","yes","768","legacy","27","11","C:/Users/rayra/Documents/subject-4.csv","legacy","9 7 4 5 8","Lentiform Loewenfeld","3.3.9","0","n","0","right","right","right","right","NA","950","27626","11199","950","NA","2","legacy","5","1024","2","48000","-16","experiment","4","even","6","303005","304178","3798","124024","304180","306388","236111","3801","112825","308392","309343","305184","31428","308392","NA","Sternberg task","34","50266","40","yes","1024"
"85.36585365853658","85.36585365853658","1256.5365853658536","1256.5365853658536","black","experiment","legacy","legacy","legacy","0","uniform","1","undefined","1","left","40","40","0","0","40","40","40","0","0","40","40","40","0","40","0","Sun Oct 24 21:11:15 2021","The main experiment item","yes","Sternbergtask.osexp","C:/Users/rayra/Documents","no","mono","no","18","no","white","no","yes","768","legacy","28","11","C:/Users/rayra/Documents/subject-4.csv","legacy","9 3 8 2 1 4","Lentiform Loewenfeld","3.3.9","3","y","0","left","right","right","left","NA","1252","27626","11199","1252","NA","2","legacy","6","1024","2","48000","-16","experiment","4","even","8","309349","310528","3798","124024","310531","312739","236111","3801","112825","314743","315995","311534","31428","314743","NA","Sternberg task","35","51518","41","yes","1024"
"85.71428571428571","85.71428571428571","1256.3333333333333","1256.3333333333333","black","experiment","legacy","legacy","legacy","0","uniform","1","undefined","1","left","41","41","0","0","41","41","41","0","0","41","41","41","0","41","0","Sun Oct 24 21:11:15 2021","The main experiment item","yes","Sternbergtask.osexp","C:/Users/rayra/Documents","no","mono","no","18","no","white","no","yes","768","legacy","29","11","C:/Users/rayra/Documents/subject-4.csv","legacy","2 5 4 8 7","Lentiform Loewenfeld","3.3.9","3","y","0","left","right","right","left","NA","1248","27626","11199","1248","NA","2","legacy","5","1024","2","48000","-16","experiment","4","even","4","316003","317205","3798","124024","317208","319417","236111","3801","112825","321421","322669","318212","31428","321421","NA","Sternberg task","36","52766","42","yes","1024"
"86.04651162790698","86.04651162790698","1265.1860465116279","1265.1860465116279","black","experiment","legacy","legacy","legacy","0","uniform","1","undefined","1","left","42","42","0","0","42","42","42","0","0","42","42","42","0","42","0","Sun Oct 24 21:11:15 2021","The main experiment item","yes","Sternbergtask.osexp","C:/Users/rayra/Documents","no","mono","no","18","no","white","no","yes","768","legacy","30","11","C:/Users/rayra/Documents/subject-4.csv","legacy","4 7 6 8 2 3","Lentiform Loewenfeld","3.3.9","6","y","0","left","right","right","left","NA","1637","27626","11199","1637","NA","2","legacy","6","1024","2","48000","-16","experiment","4","even","3","322677","323874","3798","124024","323876","326085","236111","3801","112825","328089","329727","324881","31428","328089","NA","Sternberg task","37","54403","43","yes","1024"
"86.36363636363636","86.36363636363636","1272.909090909091","1272.909090909091","black","experiment","legacy","legacy","legacy","0","uniform","1","undefined","1","left","43","43","0","0","43","43","43","0","0","43","43","43","0","43","0","Sun Oct 24 21:11:15 2021","The main experiment item","yes","Sternbergtask.osexp","C:/Users/rayra/Documents","no","mono","no","18","no","white","no","yes","768","legacy","31","11","C:/Users/rayra/Documents/subject-4.csv","legacy","4 6 5 8","Lentiform Loewenfeld","3.3.9","1","y","0","left","right","right","left","NA","1605","27626","11199","1605","NA","2","legacy","4","1024","2","48000","-16","experiment","4","even","4","329749","330931","3798","124024","330933","333140","236111","3801","112825","335144","336750","331936","31428","335144","NA","Sternberg task","38","56008","44","yes","1024"
"86.66666666666667","86.66666666666667","1282.8444444444444","1282.8444444444444","black","experiment","legacy","legacy","legacy","0","uniform","1","undefined","1","right","44","44","0","0","44","44","44","0","0","44","44","44","0","44","0","Sun Oct 24 21:11:15 2021","The main experiment item","yes","Sternbergtask.osexp","C:/Users/rayra/Documents","no","mono","no","18","no","white","no","yes","768","legacy","32","11","C:/Users/rayra/Documents/subject-4.csv","legacy","6 2 9 3 8 4","Lentiform Loewenfeld","3.3.9","0","n","0","right","right","right","right","NA","1720","27626","11199","1720","NA","2","legacy","6","1024","2","48000","-16","experiment","4","even","1","336757","337948","3798","124024","337950","340158","236111","3801","112825","342163","343884","338954","31428","342163","NA","Sternberg task","39","57728","45","yes","1024"
"86.95652173913044","86.95652173913044","1276.9130434782608","1276.9130434782608","black","experiment","legacy","legacy","legacy","0","uniform","1","undefined","1","right","45","45","0","0","45","45","45","0","0","45","45","45","0","45","0","Sun Oct 24 21:11:15 2021","The main experiment item","yes","Sternbergtask.osexp","C:/Users/rayra/Documents","no","mono","no","18","no","white","no","yes","768","legacy","33","11","C:/Users/rayra/Documents/subject-4.csv","legacy","8 6 3 4 7","Lentiform Loewenfeld","3.3.9","0","n","0","right","right","right","right","NA","1010","27626","11199","1010","NA","2","legacy","5","1024","2","48000","-16","experiment","4","even","1","343906","345077","3798","124024","345080","347287","236111","3801","112825","349291","350302","346083","31428","349291","NA","Sternberg task","40","58738","46","yes","1024"
"87.23404255319149","87.23404255319149","1283.127659574468","1283.127659574468","black","experiment","legacy","legacy","legacy","0","uniform","1","undefined","1","right","46","46","0","0","46","46","46","0","0","46","46","46","0","46","0","Sun Oct 24 21:11:15 2021","The main experiment item","yes","Sternbergtask.osexp","C:/Users/rayra/Documents","no","mono","no","18","no","white","no","yes","768","legacy","34","11","C:/Users/rayra/Documents/subject-4.csv","legacy","4 2 6 9","Lentiform Loewenfeld","3.3.9","0","n","0","right","right","right","right","NA","1569","27626","11199","1569","NA","2","legacy","4","1024","2","48000","-16","experiment","4","even","7","350312","351499","3798","124024","351501","353709","236111","3801","112825","355714","357284","352504","31428","355713","NA","Sternberg task","41","60307","47","yes","1024"
"87.5","87.5","1280.4583333333333","1280.4583333333333","black","experiment","legacy","legacy","legacy","0","uniform","1","undefined","1","left","47","47","0","0","47","47","47","0","0","47","47","47","0","47","0","Sun Oct 24 21:11:15 2021","The main experiment item","yes","Sternbergtask.osexp","C:/Users/rayra/Documents","no","mono","no","18","no","white","no","yes","768","legacy","35","11","C:/Users/rayra/Documents/subject-4.csv","legacy","5 7 3 6 2","Lentiform Loewenfeld","3.3.9","5","y","0","left","right","right","left","NA","1155","27626","11199","1155","NA","2","legacy","5","1024","2","48000","-16","experiment","4","even","2","357291","358477","3798","124024","358479","360687","236111","3801","112825","362691","363847","359482","31428","362691","NA","Sternberg task","42","61462","48","yes","1024"
"87.75510204081633","87.75510204081633","1274.5510204081634","1274.5510204081634","black","experiment","legacy","legacy","legacy","0","uniform","1","undefined","1","right","48","48","0","0","48","48","48","0","0","48","48","48","0","48","0","Sun Oct 24 21:11:15 2021","The main experiment item","yes","Sternbergtask.osexp","C:/Users/rayra/Documents","no","mono","no","18","no","white","no","yes","768","legacy","36","11","C:/Users/rayra/Documents/subject-4.csv","legacy","3 4 2","Lentiform Loewenfeld","3.3.9","0","n","0","right","right","right","right","NA","991","27626","11199","991","NA","2","legacy","3","1024","2","48000","-16","experiment","4","even","5","363870","365072","3798","124024","365074","367282","236111","3801","112825","369286","370278","366077","31428","369285","NA","Sternberg task","43","62453","49","yes","1024"
"88","88","1270.12","1270.12","black","experiment","legacy","legacy","legacy","0","uniform","1","undefined","1","left","49","49","0","0","49","49","49","0","0","49","49","49","0","49","0","Sun Oct 24 21:11:15 2021","The main experiment item","yes","Sternbergtask.osexp","C:/Users/rayra/Documents","no","mono","no","18","no","white","no","yes","768","legacy","37","11","C:/Users/rayra/Documents/subject-4.csv","legacy","8","Lentiform Loewenfeld","3.3.9","1","y","0","left","right","right","left","NA","1053","27626","11199","1053","NA","2","legacy","1","1024","2","48000","-16","experiment","4","even","8","370301","371502","3798","124024","371504","373712","236111","3801","112825","375716","376770","372508","31428","375716","NA","Sternberg task","44","63506","50","yes","1024"
"88.23529411764706","88.23529411764706","1278.0196078431372","1278.0196078431372","black","experiment","legacy","legacy","legacy","0","uniform","1","undefined","1","right","50","50","0","0","50","50","50","0","0","50","50","50","0","50","0","Sun Oct 24 21:11:15 2021","The main experiment item","yes","Sternbergtask.osexp","C:/Users/rayra/Documents","no","mono","no","18","no","white","no","yes","768","legacy","38","11","C:/Users/rayra/Documents/subject-4.csv","legacy","8 5 7 3 6","Lentiform Loewenfeld","3.3.9","0","n","0","right","right","right","right","NA","1673","27626","11199","1673","NA","2","legacy","5","1024","2","48000","-16","experiment","4","even","9","376777","377956","3798","124024","377959","380167","236111","3801","112825","382171","383845","378963","31428","382171","NA","Sternberg task","45","65179","51","yes","1024"
"88.46153846153847","88.46153846153847","1282.8461538461538","1282.8461538461538","black","experiment","legacy","legacy","legacy","0","uniform","1","undefined","1","right","51","51","0","0","51","51","51","0","0","51","51","51","0","51","0","Sun Oct 24 21:11:15 2021","The main experiment item","yes","Sternbergtask.osexp","C:/Users/rayra/Documents","no","mono","no","18","no","white","no","yes","768","legacy","39","11","C:/Users/rayra/Documents/subject-4.csv","legacy","4 8 1 2","Lentiform Loewenfeld","3.3.9","0","n","0","right","right","right","right","NA","1529","27626","11199","1529","NA","2","legacy","4","1024","2","48000","-16","experiment","4","even","7","383852","385045","3798","124024","385048","387255","236111","3801","112825","389260","390790","386051","31428","389260","NA","Sternberg task","46","66708","52","yes","1024"
"88.67924528301887","88.67924528301887","1287.754716981132","1287.754716981132","black","experiment","legacy","legacy","legacy","0","uniform","1","undefined","1","right","52","52","0","0","52","52","52","0","0","52","52","52","0","52","0","Sun Oct 24 21:11:15 2021","The main experiment item","yes","Sternbergtask.osexp","C:/Users/rayra/Documents","no","mono","no","18","no","white","no","yes","768","legacy","40","11","C:/Users/rayra/Documents/subject-4.csv","legacy","6 3 1 7 9 8","Lentiform Loewenfeld","3.3.9","0","n","0","right","right","right","right","NA","1543","27626","11199","1543","NA","2","legacy","6","1024","2","48000","-16","experiment","4","even","4","390795","391962","3798","124024","391964","394172","236111","3801","112825","396176","397720","392967","31428","396176","NA","Sternberg task","47","68251","53","yes","1024"
"88.88888888888889","88.88888888888889","1285.4074074074074","1285.4074074074074","black","experiment","legacy","legacy","legacy","0","uniform","1","undefined","1","left","53","53","0","0","53","53","53","0","0","53","53","53","0","53","0","Sun Oct 24 21:11:15 2021","The main experiment item","yes","Sternbergtask.osexp","C:/Users/rayra/Documents","no","mono","no","18","no","white","no","yes","768","legacy","41","11","C:/Users/rayra/Documents/subject-4.csv","legacy","4 1 5","Lentiform Loewenfeld","3.3.9","2","y","0","left","right","right","left","NA","1161","27626","11199","1161","NA","2","legacy","3","1024","2","48000","-16","experiment","4","even","1","397727","398945","3798","124024","398948","401154","236111","3801","112825","403159","404322","399951","31428","403159","NA","Sternberg task","48","69412","54","yes","1024"
"89.0909090909091","89.0909090909091","1279.6545454545455","1279.6545454545455","black","experiment","legacy","legacy","legacy","0","uniform","1","undefined","1","left","54","54","0","0","54","54","54","0","0","54","54","54","0","54","0","Sun Oct 24 21:11:15 2021","The main experiment item","yes","Sternbergtask.osexp","C:/Users/rayra/Documents","no","mono","no","18","no","white","no","yes","768","legacy","42","11","C:/Users/rayra/Documents/subject-4.csv","legacy","4 1 8 7 5","Lentiform Loewenfeld","3.3.9","3","y","0","left","right","right","left","NA","969","27626","11199","969","NA","2","legacy","5","1024","2","48000","-16","experiment","4","even","8","404345","405536","3798","124024","405539","407746","236111","3801","112825","409751","410721","406542","31428","409751","NA","Sternberg task","49","70381","55","yes","1024"
"89.28571428571429","89.28571428571429","1276.4642857142858","1276.4642857142858","black","experiment","legacy","legacy","legacy","0","uniform","1","undefined","1","right","55","55","0","0","55","55","55","0","0","55","55","55","0","55","0","Sun Oct 24 21:11:15 2021","The main experiment item","yes","Sternbergtask.osexp","C:/Users/rayra/Documents","no","mono","no","18","no","white","no","yes","768","legacy","43","11","C:/Users/rayra/Documents/subject-4.csv","legacy","2 8 9 4 1","Lentiform Loewenfeld","3.3.9","0","n","0","right","right","right","right","NA","1101","27626","11199","1101","NA","2","legacy","5","1024","2","48000","-16","experiment","4","even","5","410728","411927","3798","124024","411929","414138","236111","3801","112825","416142","417245","412934","31428","416142","NA","Sternberg task","50","71482","56","yes","1024"
"89.47368421052632","89.47368421052632","1274.6140350877192","1274.6140350877192","black","experiment","legacy","legacy","legacy","0","uniform","1","undefined","1","right","56","56","0","0","56","56","56","0","0","56","56","56","0","56","0","Sun Oct 24 21:11:15 2021","The main experiment item","yes","Sternbergtask.osexp","C:/Users/rayra/Documents","no","mono","no","18","no","white","no","yes","768","legacy","44","11","C:/Users/rayra/Documents/subject-4.csv","legacy","8 5 4 2 9 6","Lentiform Loewenfeld","3.3.9","0","n","0","right","right","right","right","NA","1171","27626","11199","1171","NA","2","legacy","6","1024","2","48000","-16","experiment","4","even","3","417252","418439","3798","124024","418441","420649","236111","3801","112825","422653","423825","419444","31428","422653","NA","Sternberg task","51","72653","57","yes","1024"
"89.65517241379311","89.65517241379311","1272.5689655172414","1272.5689655172414","black","experiment","legacy","legacy","legacy","0","uniform","1","undefined","1","left","57","57","0","0","57","57","57","0","0","57","57","57","0","57","0","Sun Oct 24 21:11:15 2021","The main experiment item","yes","Sternbergtask.osexp","C:/Users/rayra/Documents","no","mono","no","18","no","white","no","yes","768","legacy","45","11","C:/Users/rayra/Documents/subject-4.csv","legacy","6 2","Lentiform Loewenfeld","3.3.9","1","y","0","left","right","right","left","NA","1156","27626","11199","1156","NA","2","legacy","2","1024","2","48000","-16","experiment","4","even","6","423832","425030","3798","124024","425032","427240","236111","3801","112825","429244","430401","426035","31428","429244","NA","Sternberg task","52","73809","58","yes","1024"
"89.83050847457628","89.83050847457628","1277.7457627118645","1277.7457627118645","black","experiment","legacy","legacy","legacy","0","uniform","1","undefined","1","left","58","58","0","0","58","58","58","0","0","58","58","58","0","58","0","Sun Oct 24 21:11:15 2021","The main experiment item","yes","Sternbergtask.osexp","C:/Users/rayra/Documents","no","mono","no","18","no","white","no","yes","768","legacy","46","11","C:/Users/rayra/Documents/subject-4.csv","legacy","3 5 7 1","Lentiform Loewenfeld","3.3.9","3","y","0","left","right","right","left","NA","1578","27626","11199","1578","NA","2","legacy","4","1024","2","48000","-16","experiment","4","even","7","430408","431607","3798","124024","431610","433815","236111","3801","112825","435820","437399","432613","31428","435820","NA","Sternberg task","53","75387","59","yes","1024"
"90","90","1287.65","1287.65","black","experiment","legacy","legacy","legacy","0","uniform","1","undefined","1","left","59","59","0","0","59","59","59","0","0","59","59","59","0","59","0","Sun Oct 24 21:11:15 2021","The main experiment item","yes","Sternbergtask.osexp","C:/Users/rayra/Documents","no","mono","no","18","no","white","no","yes","768","legacy","47","11","C:/Users/rayra/Documents/subject-4.csv","legacy","8 7 3","Lentiform Loewenfeld","3.3.9","1","y","0","left","right","right","left","NA","1872","27626","11199","1872","NA","2","legacy","3","1024","2","48000","-16","experiment","4","even","8","437406","438601","3798","124024","438604","440812","236111","3801","112825","442817","444690","439608","31428","442816","NA","Sternberg task","54","77259","60","yes","1024"
"90.1639344262295","90.1639344262295","1280.6065573770493","1280.6065573770493","black","experiment","legacy","legacy","legacy","0","uniform","1","undefined","1","left","60","60","0","0","60","60","60","0","0","60","60","60","0","60","0","Sun Oct 24 21:11:15 2021","The main experiment item","yes","Sternbergtask.osexp","C:/Users/rayra/Documents","no","mono","no","18","no","white","no","yes","768","legacy","48","11","C:/Users/rayra/Documents/subject-4.csv","legacy","6 9 3 1","Lentiform Loewenfeld","3.3.9","4","y","0","left","right","right","left","NA","858","27626","11199","858","NA","2","legacy","4","1024","2","48000","-16","experiment","4","even","1","444712","445881","3798","124024","445885","448093","236111","3801","112825","450097","450956","446889","31428","450096","NA","Sternberg task","55","78117","61","yes","1024"
"90.3225806451613","90.3225806451613","1282.8387096774193","1282.8387096774193","black","experiment","legacy","legacy","legacy","0","uniform","1","undefined","1","left","61","61","0","0","61","61","61","0","0","61","61","61","0","61","0","Sun Oct 24 21:11:15 2021","The main experiment item","yes","Sternbergtask.osexp","C:/Users/rayra/Documents","no","mono","no","18","no","white","no","yes","768","legacy","49","11","C:/Users/rayra/Documents/subject-4.csv","legacy","8 9 5 6 7","Lentiform Loewenfeld","3.3.9","1","y","0","left","right","right","left","NA","1419","27626","11199","1419","NA","2","legacy","5","1024","2","48000","-16","experiment","4","even","8","450963","452168","3798","124024","452170","454378","236111","3801","112825","456383","457803","453174","31428","456382","NA","Sternberg task","56","79536","62","yes","1024"
"90.47619047619048","90.47619047619048","1278.063492063492","1278.063492063492","black","experiment","legacy","legacy","legacy","0","uniform","1","undefined","1","right","62","62","0","0","62","62","62","0","0","62","62","62","0","62","0","Sun Oct 24 21:11:15 2021","The main experiment item","yes","Sternbergtask.osexp","C:/Users/rayra/Documents","no","mono","no","18","no","white","no","yes","768","legacy","50","11","C:/Users/rayra/Documents/subject-4.csv","legacy","7 6 4 8 1 2","Lentiform Loewenfeld","3.3.9","0","n","0","right","right","right","right","NA","982","27626","11199","982","NA","2","legacy","6","1024","2","48000","-16","experiment","4","even","9","457810","459003","3798","124024","459006","461213","236111","3801","112825","463218","464202","460009","31428","463217","NA","Sternberg task","57","80518","63","yes","1024"
"90.625","90.625","1273.4375","1273.4375","black","experiment","legacy","legacy","legacy","0","uniform","1","undefined","1","right","63","63","0","0","63","63","63","0","0","63","63","63","0","63","0","Sun Oct 24 21:11:15 2021","The main experiment item","yes","Sternbergtask.osexp","C:/Users/rayra/Documents","no","mono","no","18","no","white","no","yes","768","legacy","51","11","C:/Users/rayra/Documents/subject-4.csv","legacy","3 9 8 1 6 4","Lentiform Loewenfeld","3.3.9","0","n","0","right","right","right","right","NA","982","27626","11199","982","NA","2","legacy","6","1024","2","48000","-16","experiment","4","even","7","464225","465405","3798","124024","465408","467616","236111","3801","112825","469620","470604","466412","31428","469620","NA","Sternberg task","58","81500","64","yes","1024"
"89.23076923076923","89.23076923076923","1272.5076923076922","1272.5076923076922","black","experiment","legacy","legacy","legacy","0","uniform","0","undefined","0","left","64","64","0","0","64","64","64","0","0","64","64","64","0","64","0","Sun Oct 24 21:11:15 2021","The main experiment item","yes","Sternbergtask.osexp","C:/Users/rayra/Documents","no","mono","no","18","no","white","no","yes","768","legacy","52","11","C:/Users/rayra/Documents/subject-4.csv","legacy","7 6","Lentiform Loewenfeld","3.3.9","2","y","0","right","right","right","right","NA","1213","27626","11199","1213","NA","2","legacy","2","1024","2","48000","-16","experiment","4","even","6","470612","471841","3798","124024","471843","474052","236111","3801","112825","476056","477271","472848","31428","476056","NA","Sternberg task","58","82713","65","yes","1024"
"89.39393939393939","89.39393939393939","1266.8030303030303","1266.8030303030303","black","experiment","legacy","legacy","legacy","0","uniform","1","undefined","1","right","65","65","0","0","65","65","65","0","0","65","65","65","0","65","0","Sun Oct 24 21:11:15 2021","The main experiment item","yes","Sternbergtask.osexp","C:/Users/rayra/Documents","no","mono","no","18","no","white","no","yes","768","legacy","53","11","C:/Users/rayra/Documents/subject-4.csv","legacy","5 7 3","Lentiform Loewenfeld","3.3.9","0","n","0","right","right","right","right","NA","896","27626","11199","896","NA","2","legacy","3","1024","2","48000","-16","experiment","4","even","9","470612","478484","3798","124024","478486","480695","477278","3801","112825","482700","483598","479489","31428","482699","NA","Sternberg task","59","83609","66","yes","1024"
"89.55223880597015","89.55223880597015","1260.9253731343283","1260.9253731343283","black","experiment","legacy","legacy","legacy","0","uniform","1","undefined","1","right","66","66","0","0","66","66","66","0","0","66","66","66","0","66","0","Sun Oct 24 21:11:15 2021","The main experiment item","yes","Sternbergtask.osexp","C:/Users/rayra/Documents","no","mono","no","18","no","white","no","yes","768","legacy","54","11","C:/Users/rayra/Documents/subject-4.csv","legacy","6 9 4 5 2","Lentiform Loewenfeld","3.3.9","0","n","0","right","right","right","right","NA","873","27626","11199","873","NA","2","legacy","5","1024","2","48000","-16","experiment","4","even","1","483605","484778","3798","124024","484781","486989","477278","3801","112825","488993","489868","485785","31428","488993","NA","Sternberg task","60","84482","67","yes","1024"
"89.70588235294117","89.70588235294117","1259.6176470588234","1259.6176470588234","black","experiment","legacy","legacy","legacy","0","uniform","1","undefined","1","right","67","67","0","0","67","67","67","0","0","67","67","67","0","67","0","Sun Oct 24 21:11:15 2021","The main experiment item","yes","Sternbergtask.osexp","C:/Users/rayra/Documents","no","mono","no","18","no","white","no","yes","768","legacy","55","11","C:/Users/rayra/Documents/subject-4.csv","legacy","6 9 5","Lentiform Loewenfeld","3.3.9","0","n","0","right","right","right","right","NA","1172","27626","11199","1172","NA","2","legacy","3","1024","2","48000","-16","experiment","4","even","8","489876","491051","3798","124024","491054","493262","477278","3801","112825","495268","496441","492058","31428","495268","NA","Sternberg task","61","85654","68","yes","1024"
"89.85507246376811","89.85507246376811","1257.4202898550725","1257.4202898550725","black","experiment","legacy","legacy","legacy","0","uniform","1","undefined","1","right","68","68","0","0","68","68","68","0","0","68","68","68","0","68","0","Sun Oct 24 21:11:15 2021","The main experiment item","yes","Sternbergtask.osexp","C:/Users/rayra/Documents","no","mono","no","18","no","white","no","yes","768","legacy","56","11","C:/Users/rayra/Documents/subject-4.csv","legacy","9 8 2 7 4","Lentiform Loewenfeld","3.3.9","0","n","0","right","right","right","right","NA","1108","27626","11199","1108","NA","2","legacy","5","1024","2","48000","-16","experiment","4","even","5","496447","497646","3798","124024","497649","499857","477278","3801","112825","501861","502970","498653","31428","501861","NA","Sternberg task","62","86762","69","yes","1024"
"90","90","1253.8857142857144","1253.8857142857144","black","experiment","legacy","legacy","legacy","0","uniform","1","undefined","1","left","69","69","0","0","69","69","69","0","0","69","69","69","0","69","0","Sun Oct 24 21:11:15 2021","The main experiment item","yes","Sternbergtask.osexp","C:/Users/rayra/Documents","no","mono","no","18","no","white","no","yes","768","legacy","57","11","C:/Users/rayra/Documents/subject-4.csv","legacy","4 3 2 5 8","Lentiform Loewenfeld","3.3.9","2","y","0","left","right","right","left","NA","1010","27626","11199","1010","NA","2","legacy","5","1024","2","48000","-16","experiment","4","even","3","502976","504172","3798","124024","504175","506384","477278","3801","112825","508389","509401","505180","31428","508389","NA","Sternberg task","63","87772","70","yes","1024"
"90.14084507042253","90.14084507042253","1257.4507042253522","1257.4507042253522","black","experiment","legacy","legacy","legacy","0","uniform","1","undefined","1","left","70","70","0","0","70","70","70","0","0","70","70","70","0","70","0","Sun Oct 24 21:11:15 2021","The main experiment item","yes","Sternbergtask.osexp","C:/Users/rayra/Documents","no","mono","no","18","no","white","no","yes","768","legacy","58","11","C:/Users/rayra/Documents/subject-4.csv","legacy","1 4 9 3 2 5","Lentiform Loewenfeld","3.3.9","3","y","0","left","right","right","left","NA","1507","27626","11199","1507","NA","2","legacy","6","1024","2","48000","-16","experiment","4","even","9","509423","510593","3798","124024","510595","512804","477278","3801","112825","514808","516317","511598","31428","514808","NA","Sternberg task","64","89279","71","yes","1024"
"90.27777777777777","90.27777777777777","1253.8055555555557","1253.8055555555557","black","experiment","legacy","legacy","legacy","0","uniform","1","undefined","1","left","71","71","0","0","71","71","71","0","0","71","71","71","0","71","0","Sun Oct 24 21:11:15 2021","The main experiment item","yes","Sternbergtask.osexp","C:/Users/rayra/Documents","no","mono","no","18","no","white","no","yes","768","legacy","59","11","C:/Users/rayra/Documents/subject-4.csv","legacy","6 9 7 4 5 1","Lentiform Loewenfeld","3.3.9","2","y","0","left","right","right","left","NA","995","27626","11199","995","NA","2","legacy","6","1024","2","48000","-16","experiment","4","even","9","516324","517512","3798","124024","517514","519722","477278","3801","112825","521727","522724","518518","31428","521726","NA","Sternberg task","65","90274","72","yes","1024"
"90.41095890410959","90.41095890410959","1247.876712328767","1247.876712328767","black","experiment","legacy","legacy","legacy","0","uniform","1","undefined","1","left","72","72","0","0","72","72","72","0","0","72","72","72","0","72","0","Sun Oct 24 21:11:15 2021","The main experiment item","yes","Sternbergtask.osexp","C:/Users/rayra/Documents","no","mono","no","18","no","white","no","yes","768","legacy","60","11","C:/Users/rayra/Documents/subject-4.csv","legacy","6 5","Lentiform Loewenfeld","3.3.9","2","y","0","left","right","right","left","NA","821","27626","11199","821","NA","2","legacy","2","1024","2","48000","-16","experiment","4","even","5","522738","523922","3798","124024","523924","526131","477278","3801","112825","528135","528957","524928","31428","528135","NA","Sternberg task","66","91095","73","yes","1024"
"90.54054054054055","90.54054054054055","1249.1756756756756","1249.1756756756756","black","experiment","legacy","legacy","legacy","0","uniform","1","undefined","1","right","73","73","0","0","73","73","73","0","0","73","73","73","0","73","0","Sun Oct 24 21:11:15 2021","The main experiment item","yes","Sternbergtask.osexp","C:/Users/rayra/Documents","no","mono","no","18","no","white","no","yes","768","legacy","61","11","C:/Users/rayra/Documents/subject-4.csv","legacy","7 8 6 1","Lentiform Loewenfeld","3.3.9","0","n","0","right","right","right","right","NA","1344","27626","11199","1344","NA","2","legacy","4","1024","2","48000","-16","experiment","4","even","3","528965","530167","3798","124024","530169","532378","477278","3801","112825","534382","535728","531173","31428","534382","NA","Sternberg task","67","92439","74","yes","1024"
"90.66666666666667","90.66666666666667","1245.8","1245.8","black","experiment","legacy","legacy","legacy","0","uniform","1","undefined","1","left","74","74","0","0","74","74","74","0","0","74","74","74","0","74","0","Sun Oct 24 21:11:15 2021","The main experiment item","yes","Sternbergtask.osexp","C:/Users/rayra/Documents","no","mono","no","18","no","white","no","yes","768","legacy","62","11","C:/Users/rayra/Documents/subject-4.csv","legacy","7 8 4 6 9 5","Lentiform Loewenfeld","3.3.9","4","y","0","left","right","right","left","NA","996","27626","11199","996","NA","2","legacy","6","1024","2","48000","-16","experiment","4","even","6","535733","536922","3798","124024","536924","539132","477278","3801","112825","541136","542134","537927","31428","541136","NA","Sternberg task","68","93435","75","yes","1024"
"90.78947368421052","90.78947368421052","1245.9868421052631","1245.9868421052631","black","experiment","legacy","legacy","legacy","0","uniform","1","undefined","1","right","75","75","0","0","75","75","75","0","0","75","75","75","0","75","0","Sun Oct 24 21:11:15 2021","The main experiment item","yes","Sternbergtask.osexp","C:/Users/rayra/Documents","no","mono","no","18","no","white","no","yes","768","legacy","63","11","C:/Users/rayra/Documents/subject-4.csv","legacy","1 5 3 2 8","Lentiform Loewenfeld","3.3.9","0","n","0","right","right","right","right","NA","1260","27626","11199","1260","NA","2","legacy","5","1024","2","48000","-16","experiment","4","even","4","542141","543332","3798","124024","543335","545542","477278","3801","112825","547549","548810","544339","31428","547549","NA","Sternberg task","69","94695","76","yes","1024"
"90.9090909090909","90.9090909090909","1237.7012987012988","1237.7012987012988","black","experiment","legacy","legacy","legacy","0","uniform","1","undefined","1","left","76","76","0","0","76","76","76","0","0","76","76","76","0","76","0","Sun Oct 24 21:11:15 2021","The main experiment item","yes","Sternbergtask.osexp","C:/Users/rayra/Documents","no","mono","no","18","no","white","no","yes","768","legacy","64","11","C:/Users/rayra/Documents/subject-4.csv","legacy","6 1 2","Lentiform Loewenfeld","3.3.9","3","y","0","left","right","right","left","NA","608","27626","11199","608","NA","2","legacy","3","1024","2","48000","-16","experiment","4","even","2","548818","550035","3798","124024","550038","552245","477278","3801","112825","554251","554862","551041","31428","554250","NA","Sternberg task","70","95303","77","yes","1024"
"91.02564102564102","91.02564102564102","1233.051282051282","1233.051282051282","black","experiment","legacy","legacy","legacy","0","uniform","1","undefined","1","left","77","77","0","0","77","77","77","0","0","77","77","77","0","77","0","Sun Oct 24 21:11:15 2021","The main experiment item","yes","Sternbergtask.osexp","C:/Users/rayra/Documents","no","mono","no","18","no","white","no","yes","768","legacy","65","11","C:/Users/rayra/Documents/subject-4.csv","legacy","7 2 3","Lentiform Loewenfeld","3.3.9","3","y","0","left","right","right","left","NA","875","27626","11199","875","NA","2","legacy","3","1024","2","48000","-16","experiment","4","even","3","554870","556078","3798","124024","556081","558290","477278","3801","112825","560295","561171","557085","31428","560294","NA","Sternberg task","71","96178","78","yes","1024"
"91.13924050632912","91.13924050632912","1227.9620253164558","1227.9620253164558","black","experiment","legacy","legacy","legacy","0","uniform","1","undefined","1","left","78","78","0","0","78","78","78","0","0","78","78","78","0","78","0","Sun Oct 24 21:11:15 2021","The main experiment item","yes","Sternbergtask.osexp","C:/Users/rayra/Documents","no","mono","no","18","no","white","no","yes","768","legacy","66","11","C:/Users/rayra/Documents/subject-4.csv","legacy","8 1 6","Lentiform Loewenfeld","3.3.9","3","y","0","left","right","right","left","NA","831","27626","11199","831","NA","2","legacy","3","1024","2","48000","-16","experiment","4","even","6","561194","562384","3798","124024","562386","564594","477278","3801","112825","566598","567430","563390","31428","566598","NA","Sternberg task","72","97009","79","yes","1024"
"91.25","91.25","1222.0875","1222.0875","black","experiment","legacy","legacy","legacy","0","uniform","1","undefined","1","left","79","79","0","0","79","79","79","0","0","79","79","79","0","79","0","Sun Oct 24 21:11:15 2021","The main experiment item","yes","Sternbergtask.osexp","C:/Users/rayra/Documents","no","mono","no","18","no","white","no","yes","768","legacy","67","11","C:/Users/rayra/Documents/subject-4.csv","legacy","7 1 3","Lentiform Loewenfeld","3.3.9","2","y","0","left","right","right","left","NA","758","27626","11199","758","NA","2","legacy","3","1024","2","48000","-16","experiment","4","even","1","567438","568623","3798","124024","568625","570835","477278","3801","112825","572839","573598","569630","31428","572839","NA","Sternberg task","73","97767","80","yes","1024"
"91.35802469135803","91.35802469135803","1217.3456790123457","1217.3456790123457","black","experiment","legacy","legacy","legacy","0","uniform","1","undefined","1","left","80","80","0","0","80","80","80","0","0","80","80","80","0","80","0","Sun Oct 24 21:11:15 2021","The main experiment item","yes","Sternbergtask.osexp","C:/Users/rayra/Documents","no","mono","no","18","no","white","no","yes","768","legacy","68","11","C:/Users/rayra/Documents/subject-4.csv","legacy","7 1 8 5 6 2","Lentiform Loewenfeld","3.3.9","2","y","0","left","right","right","left","NA","838","27626","11199","838","NA","2","legacy","6","1024","2","48000","-16","experiment","4","even","1","573606","574779","3798","124024","574781","576989","477278","3801","112825","578993","579833","575784","31428","578993","NA","Sternberg task","74","98605","81","yes","1024"
"91.46341463414635","91.46341463414635","1217.7439024390244","1217.7439024390244","black","experiment","legacy","legacy","legacy","0","uniform","1","undefined","1","right","81","81","0","0","81","81","81","0","0","81","81","81","0","81","0","Sun Oct 24 21:11:15 2021","The main experiment item","yes","Sternbergtask.osexp","C:/Users/rayra/Documents","no","mono","no","18","no","white","no","yes","768","legacy","69","11","C:/Users/rayra/Documents/subject-4.csv","legacy","4 2 7 6 1 3","Lentiform Loewenfeld","3.3.9","0","n","0","right","right","right","right","NA","1250","27626","11199","1250","NA","2","legacy","6","1024","2","48000","-16","experiment","4","even","8","579856","581035","3798","124024","581038","583246","477278","3801","112825","585250","586501","582042","31428","585250","NA","Sternberg task","75","99855","82","yes","1024"
"91.56626506024097","91.56626506024097","1216.1566265060242","1216.1566265060242","black","experiment","legacy","legacy","legacy","0","uniform","1","undefined","1","left","82","82","0","0","82","82","82","0","0","82","82","82","0","82","0","Sun Oct 24 21:11:15 2021","The main experiment item","yes","Sternbergtask.osexp","C:/Users/rayra/Documents","no","mono","no","18","no","white","no","yes","768","legacy","70","11","C:/Users/rayra/Documents/subject-4.csv","legacy","7","Lentiform Loewenfeld","3.3.9","1","y","0","left","right","right","left","NA","1086","27626","11199","1086","NA","2","legacy","1","1024","2","48000","-16","experiment","4","even","7","586508","587692","3798","124024","587695","589903","477278","3801","112825","591909","592997","588698","31428","591907","NA","Sternberg task","76","100941","83","yes","1024"
"91.66666666666667","91.66666666666667","1213.607142857143","1213.607142857143","black","experiment","legacy","legacy","legacy","0","uniform","1","undefined","1","right","83","83","0","0","83","83","83","0","0","83","83","83","0","83","0","Sun Oct 24 21:11:15 2021","The main experiment item","yes","Sternbergtask.osexp","C:/Users/rayra/Documents","no","mono","no","18","no","white","no","yes","768","legacy","71","11","C:/Users/rayra/Documents/subject-4.csv","legacy","2 3 8 5 6 7","Lentiform Loewenfeld","3.3.9","0","n","0","right","right","right","right","NA","1002","27626","11199","1002","NA","2","legacy","6","1024","2","48000","-16","experiment","4","even","1","593004","594200","3798","124024","594202","596411","477278","3801","112825","598415","599419","595206","31428","598415","NA","Sternberg task","77","101943","84","yes","1024"
"91.76470588235294","91.76470588235294","1213.894117647059","1213.894117647059","black","experiment","legacy","legacy","legacy","0","uniform","1","undefined","1","right","84","84","0","0","84","84","84","0","0","84","84","84","0","84","0","Sun Oct 24 21:11:15 2021","The main experiment item","yes","Sternbergtask.osexp","C:/Users/rayra/Documents","no","mono","no","18","no","white","no","yes","768","legacy","72","11","C:/Users/rayra/Documents/subject-4.csv","legacy","7 1 5 6 3","Lentiform Loewenfeld","3.3.9","0","n","0","right","right","right","right","NA","1238","27626","11199","1238","NA","2","legacy","5","1024","2","48000","-16","experiment","4","even","8","599441","600650","3798","124024","600653","602861","477278","3801","112825","604865","606105","601657","31428","604864","NA","Sternberg task","78","103181","85","yes","1024"
"90.69767441860465","90.69767441860465","1223.0348837209303","1223.0348837209303","black","experiment","legacy","legacy","legacy","0","uniform","0","undefined","0","left","85","85","0","0","85","85","85","0","0","85","85","85","0","85","0","Sun Oct 24 21:11:15 2021","The main experiment item","yes","Sternbergtask.osexp","C:/Users/rayra/Documents","no","mono","no","18","no","white","no","yes","768","legacy","73","11","C:/Users/rayra/Documents/subject-4.csv","legacy","5 2 6","Lentiform Loewenfeld","3.3.9","2","y","0","None","right","right","None","NA","2000","27626","11199","2000","NA","2","legacy","3","1024","2","48000","-16","experiment","4","even","2","606112","607312","3798","124024","607314","609522","477278","3801","112825","611527","613528","608318","31428","611527","NA","Sternberg task","78","105181","86","yes","1024"
"90.80459770114942","90.80459770114942","1225.632183908046","1225.632183908046","black","experiment","legacy","legacy","legacy","0","uniform","1","undefined","1","right","86","86","0","0","86","86","86","0","0","86","86","86","0","86","0","Sun Oct 24 21:11:15 2021","The main experiment item","yes","Sternbergtask.osexp","C:/Users/rayra/Documents","no","mono","no","18","no","white","no","yes","768","legacy","74","11","C:/Users/rayra/Documents/subject-4.csv","legacy","6 9 4 5 3 2","Lentiform Loewenfeld","3.3.9","0","n","0","right","right","right","right","NA","1449","27626","11199","1449","NA","2","legacy","6","1024","2","48000","-16","experiment","4","even","8","606112","614729","3798","124024","614732","616940","613535","3801","112825","618943","620394","615736","31428","618943","NA","Sternberg task","79","106630","87","yes","1024"
"90.9090909090909","90.9090909090909","1222.0227272727273","1222.0227272727273","black","experiment","legacy","legacy","legacy","0","uniform","1","undefined","1","left","87","87","0","0","87","87","87","0","0","87","87","87","0","87","0","Sun Oct 24 21:11:15 2021","The main experiment item","yes","Sternbergtask.osexp","C:/Users/rayra/Documents","no","mono","no","18","no","white","no","yes","768","legacy","75","11","C:/Users/rayra/Documents/subject-4.csv","legacy","3 2 1 4 7","Lentiform Loewenfeld","3.3.9","2","y","0","left","right","right","left","NA","908","27626","11199","908","NA","2","legacy","5","1024","2","48000","-16","experiment","4","even","2","620400","621596","3798","124024","621599","623808","613535","3801","112825","625811","626720","622603","31428","625811","NA","Sternberg task","80","107538","88","yes","1024"
"91.01123595505618","91.01123595505618","1220.0449438202247","1220.0449438202247","black","experiment","legacy","legacy","legacy","0","uniform","1","undefined","1","right","88","88","0","0","88","88","88","0","0","88","88","88","0","88","0","Sun Oct 24 21:11:15 2021","The main experiment item","yes","Sternbergtask.osexp","C:/Users/rayra/Documents","no","mono","no","18","no","white","no","yes","768","legacy","76","11","C:/Users/rayra/Documents/subject-4.csv","legacy","8 9","Lentiform Loewenfeld","3.3.9","0","n","0","right","right","right","right","NA","1046","27626","11199","1046","NA","2","legacy","2","1024","2","48000","-16","experiment","4","even","5","626728","627907","3798","124024","627909","630117","613535","3801","112825","632121","633169","628912","31428","632121","NA","Sternberg task","81","108584","89","yes","1024"
"91.11111111111111","91.11111111111111","1221.4444444444443","1221.4444444444443","black","experiment","legacy","legacy","legacy","0","uniform","1","undefined","1","left","89","89","0","0","89","89","89","0","0","89","89","89","0","89","0","Sun Oct 24 21:11:15 2021","The main experiment item","yes","Sternbergtask.osexp","C:/Users/rayra/Documents","no","mono","no","18","no","white","no","yes","768","legacy","77","11","C:/Users/rayra/Documents/subject-4.csv","legacy","3 9 6 2","Lentiform Loewenfeld","3.3.9","4","y","0","left","right","right","left","NA","1346","27626","11199","1346","NA","2","legacy","4","1024","2","48000","-16","experiment","4","even","2","633177","634377","3798","124024","634380","636588","613535","3801","112825","638592","639940","635384","31428","638592","NA","Sternberg task","82","109930","90","yes","1024"
"91.20879120879121","91.20879120879121","1222.065934065934","1222.065934065934","black","experiment","legacy","legacy","legacy","0","uniform","1","undefined","1","right","90","90","0","0","90","90","90","0","0","90","90","90","0","90","0","Sun Oct 24 21:11:15 2021","The main experiment item","yes","Sternbergtask.osexp","C:/Users/rayra/Documents","no","mono","no","18","no","white","no","yes","768","legacy","78","11","C:/Users/rayra/Documents/subject-4.csv","legacy","2 8 6 3 1","Lentiform Loewenfeld","3.3.9","0","n","0","right","right","right","right","NA","1278","27626","11199","1278","NA","2","legacy","5","1024","2","48000","-16","experiment","4","even","7","639947","641150","3798","124024","641152","643360","613535","3801","112825","645364","646643","642156","31428","645364","NA","Sternberg task","83","111208","91","yes","1024"
"91.30434782608695","91.30434782608695","1222.1847826086957","1222.1847826086957","black","experiment","legacy","legacy","legacy","0","uniform","1","undefined","1","left","91","91","0","0","91","91","91","0","0","91","91","91","0","91","0","Sun Oct 24 21:11:15 2021","The main experiment item","yes","Sternbergtask.osexp","C:/Users/rayra/Documents","no","mono","no","18","no","white","no","yes","768","legacy","79","11","C:/Users/rayra/Documents/subject-4.csv","legacy","2 8 5 1","Lentiform Loewenfeld","3.3.9","4","y","0","left","right","right","left","NA","1233","27626","11199","1233","NA","2","legacy","4","1024","2","48000","-16","experiment","4","even","1","646650","647825","3798","124024","647827","650035","613535","3801","112825","652040","653274","648831","31428","652040","NA","Sternberg task","84","112441","92","yes","1024"
"91.39784946236558","91.39784946236558","1219.2043010752689","1219.2043010752689","black","experiment","legacy","legacy","legacy","0","uniform","1","undefined","1","left","92","92","0","0","92","92","92","0","0","92","92","92","0","92","0","Sun Oct 24 21:11:15 2021","The main experiment item","yes","Sternbergtask.osexp","C:/Users/rayra/Documents","no","mono","no","18","no","white","no","yes","768","legacy","80","11","C:/Users/rayra/Documents/subject-4.csv","legacy","6 7 9 3 1 2","Lentiform Loewenfeld","3.3.9","1","y","0","left","right","right","left","NA","945","27626","11199","945","NA","2","legacy","6","1024","2","48000","-16","experiment","4","even","6","653281","654461","3798","124024","654463","656670","613535","3801","112825","658675","659622","655466","31428","658675","NA","Sternberg task","85","113386","93","yes","1024"
"91.48936170212765","91.48936170212765","1215.7446808510638","1215.7446808510638","black","experiment","legacy","legacy","legacy","0","uniform","1","undefined","1","left","93","93","0","0","93","93","93","0","0","93","93","93","0","93","0","Sun Oct 24 21:11:15 2021","The main experiment item","yes","Sternbergtask.osexp","C:/Users/rayra/Documents","no","mono","no","18","no","white","no","yes","768","legacy","81","11","C:/Users/rayra/Documents/subject-4.csv","legacy","9 5 8 1","Lentiform Loewenfeld","3.3.9","2","y","0","left","right","right","left","NA","894","27626","11199","894","NA","2","legacy","4","1024","2","48000","-16","experiment","4","even","5","659630","660804","3798","124024","660806","663014","613535","3801","112825","665018","665914","661810","31428","665018","NA","Sternberg task","86","114280","94","yes","1024"
"91.57894736842105","91.57894736842105","1212.8947368421052","1212.8947368421052","black","experiment","legacy","legacy","legacy","0","uniform","1","undefined","1","left","94","94","0","0","94","94","94","0","0","94","94","94","0","94","0","Sun Oct 24 21:11:15 2021","The main experiment item","yes","Sternbergtask.osexp","C:/Users/rayra/Documents","no","mono","no","18","no","white","no","yes","768","legacy","82","11","C:/Users/rayra/Documents/subject-4.csv","legacy","8 9 5 7 1 6","Lentiform Loewenfeld","3.3.9","4","y","0","left","right","right","left","NA","945","27626","11199","945","NA","2","legacy","6","1024","2","48000","-16","experiment","4","even","7","665921","667135","3798","124024","667138","669347","613535","3801","112825","671351","672297","668142","31428","671351","NA","Sternberg task","87","115225","95","yes","1024"
"91.66666666666667","91.66666666666667","1209.1354166666667","1209.1354166666667","black","experiment","legacy","legacy","legacy","0","uniform","1","undefined","1","right","95","95","0","0","95","95","95","0","0","95","95","95","0","95","0","Sun Oct 24 21:11:15 2021","The main experiment item","yes","Sternbergtask.osexp","C:/Users/rayra/Documents","no","mono","no","18","no","white","no","yes","768","legacy","83","11","C:/Users/rayra/Documents/subject-4.csv","legacy","7 9","Lentiform Loewenfeld","3.3.9","0","n","0","right","right","right","right","NA","852","27626","11199","852","NA","2","legacy","2","1024","2","48000","-16","experiment","4","even","1","672305","673515","3798","124024","673518","675726","613535","3801","112825","677730","678584","674522","31428","677730","NA","Sternberg task","88","116077","96","yes","1024"
"91.75257731958763","91.75257731958763","1204.958762886598","1204.958762886598","black","experiment","legacy","legacy","legacy","0","uniform","1","undefined","1","left","96","96","0","0","96","96","96","0","0","96","96","96","0","96","0","Sun Oct 24 21:11:15 2021","The main experiment item","yes","Sternbergtask.osexp","C:/Users/rayra/Documents","no","mono","no","18","no","white","no","yes","768","legacy","84","11","C:/Users/rayra/Documents/subject-4.csv","legacy","6 7 8 5","Lentiform Loewenfeld","3.3.9","3","y","0","left","right","right","left","NA","804","27626","11199","804","NA","2","legacy","4","1024","2","48000","-16","experiment","4","even","8","678592","679762","3798","124024","679765","681973","613535","3801","112825","683977","684782","680768","31428","683976","NA","Sternberg task","89","116881","97","yes","1024"
"91.83673469387755","91.83673469387755","1203.1122448979593","1203.1122448979593","black","experiment","legacy","legacy","legacy","0","uniform","1","undefined","1","right","97","97","0","0","97","97","97","0","0","97","97","97","0","97","0","Sun Oct 24 21:11:15 2021","The main experiment item","yes","Sternbergtask.osexp","C:/Users/rayra/Documents","no","mono","no","18","no","white","no","yes","768","legacy","85","11","C:/Users/rayra/Documents/subject-4.csv","legacy","2 8 7 9 5 3","Lentiform Loewenfeld","3.3.9","0","n","0","right","right","right","right","NA","1024","27626","11199","1024","NA","2","legacy","6","1024","2","48000","-16","experiment","4","even","6","684789","685970","3798","124024","685973","688181","613535","3801","112825","690186","691212","686977","31428","690186","NA","Sternberg task","90","117905","98","yes","1024"
"91.91919191919192","91.91919191919192","1201.090909090909","1201.090909090909","black","experiment","legacy","legacy","legacy","0","uniform","1","undefined","1","right","98","98","0","0","98","98","98","0","0","98","98","98","0","98","0","Sun Oct 24 21:11:15 2021","The main experiment item","yes","Sternbergtask.osexp","C:/Users/rayra/Documents","no","mono","no","18","no","white","no","yes","768","legacy","86","11","C:/Users/rayra/Documents/subject-4.csv","legacy","5 3 8 7 2 4","Lentiform Loewenfeld","3.3.9","0","n","0","right","right","right","right","NA","1003","27626","11199","1003","NA","2","legacy","6","1024","2","48000","-16","experiment","4","even","9","691219","692429","3798","124024","692432","694641","613535","3801","112825","696645","697650","693436","31428","696645","NA","Sternberg task","91","118908","99","yes","1024"
"92","92","1197.22","1197.22","black","experiment","legacy","legacy","legacy","0","uniform","1","undefined","1","right","99","99","0","0","99","99","99","0","0","99","99","99","0","99","0","Sun Oct 24 21:11:15 2021","The main experiment item","yes","Sternbergtask.osexp","C:/Users/rayra/Documents","no","mono","no","18","no","white","no","yes","768","legacy","87","11","C:/Users/rayra/Documents/subject-4.csv","legacy","7 4 2 8 1 9","Lentiform Loewenfeld","3.3.9","0","n","0","right","right","right","right","NA","814","27626","11199","814","NA","2","legacy","6","1024","2","48000","-16","experiment","4","even","5","697657","698835","3798","124024","698837","701045","613535","3801","112825","703049","703865","699842","31428","703049","NA","Sternberg task","92","119722","100","yes","1024"
"92.07920792079207","92.07920792079207","1199.5049504950496","1199.5049504950496","black","experiment","legacy","legacy","legacy","0","uniform","1","undefined","1","right","100","100","0","0","100","100","100","0","0","100","100","100","0","100","0","Sun Oct 24 21:11:15 2021","The main experiment item","yes","Sternbergtask.osexp","C:/Users/rayra/Documents","no","mono","no","18","no","white","no","yes","768","legacy","88","11","C:/Users/rayra/Documents/subject-4.csv","legacy","7 3 2 8","Lentiform Loewenfeld","3.3.9","0","n","0","right","right","right","right","NA","1428","27626","11199","1428","NA","2","legacy","4","1024","2","48000","-16","experiment","4","even","4","703872","705044","3798","124024","705047","707254","613535","3801","112825","709259","710689","706051","31428","709259","NA","Sternberg task","93","121150","101","yes","1024"
"91.17647058823529","91.17647058823529","1196.3725490196077","1196.3725490196077","black","experiment","legacy","legacy","legacy","0","uniform","0","undefined","0","left","101","101","0","0","101","101","101","0","0","101","101","101","0","101","0","Sun Oct 24 21:11:15 2021","The main experiment item","yes","Sternbergtask.osexp","C:/Users/rayra/Documents","no","mono","no","18","no","white","no","yes","768","legacy","89","11","C:/Users/rayra/Documents/subject-4.csv","legacy","8 3","Lentiform Loewenfeld","3.3.9","2","y","0","right","right","right","right","NA","880","27626","11199","880","NA","2","legacy","2","1024","2","48000","-16","experiment","4","even","3","710696","711886","3798","124024","711888","714096","613535","3801","112825","716098","716979","712890","31428","716098","NA","Sternberg task","93","122030","102","yes","1024"
"91.2621359223301","91.2621359223301","1195.3980582524273","1195.3980582524273","black","experiment","legacy","legacy","legacy","0","uniform","1","undefined","1","right","102","102","0","0","102","102","102","0","0","102","102","102","0","102","0","Sun Oct 24 21:11:15 2021","The main experiment item","yes","Sternbergtask.osexp","C:/Users/rayra/Documents","no","mono","no","18","no","white","no","yes","768","legacy","90","11","C:/Users/rayra/Documents/subject-4.csv","legacy","1 7 8 3 9","Lentiform Loewenfeld","3.3.9","0","n","0","right","right","right","right","NA","1096","27626","11199","1096","NA","2","legacy","5","1024","2","48000","-16","experiment","4","even","2","710696","718191","3798","124024","718195","720403","716988","3801","112825","722408","723506","719199","31428","722407","NA","Sternberg task","94","123126","103","yes","1024"
"91.34615384615384","91.34615384615384","1194.6346153846155","1194.6346153846155","black","experiment","legacy","legacy","legacy","0","uniform","1","undefined","1","left","103","103","0","0","103","103","103","0","0","103","103","103","0","103","0","Sun Oct 24 21:11:15 2021","The main experiment item","yes","Sternbergtask.osexp","C:/Users/rayra/Documents","no","mono","no","18","no","white","no","yes","768","legacy","91","11","C:/Users/rayra/Documents/subject-4.csv","legacy","8 5 1 3 9","Lentiform Loewenfeld","3.3.9","4","y","0","left","right","right","left","NA","1116","27626","11199","1116","NA","2","legacy","5","1024","2","48000","-16","experiment","4","even","3","723512","724729","3798","124024","724731","726941","716988","3801","112825","728945","730063","725736","31428","728945","NA","Sternberg task","95","124242","104","yes","1024"
"91.42857142857143","91.42857142857143","1194.8380952380953","1194.8380952380953","black","experiment","legacy","legacy","legacy","0","uniform","1","undefined","1","right","104","104","0","0","104","104","104","0","0","104","104","104","0","104","0","Sun Oct 24 21:11:15 2021","The main experiment item","yes","Sternbergtask.osexp","C:/Users/rayra/Documents","no","mono","no","18","no","white","no","yes","768","legacy","92","11","C:/Users/rayra/Documents/subject-4.csv","legacy","5","Lentiform Loewenfeld","3.3.9","0","n","0","right","right","right","right","NA","1216","27626","11199","1216","NA","2","legacy","1","1024","2","48000","-16","experiment","4","even","8","730070","731253","3798","124024","731256","733464","716988","3801","112825","735468","736686","732259","31428","735468","NA","Sternberg task","96","125458","105","yes","1024"
"91.50943396226415","91.50943396226415","1193.3207547169811","1193.3207547169811","black","experiment","legacy","legacy","legacy","0","uniform","1","undefined","1","left","105","105","0","0","105","105","105","0","0","105","105","105","0","105","0","Sun Oct 24 21:11:15 2021","The main experiment item","yes","Sternbergtask.osexp","C:/Users/rayra/Documents","no","mono","no","18","no","white","no","yes","768","legacy","93","11","C:/Users/rayra/Documents/subject-4.csv","legacy","9 4 2","Lentiform Loewenfeld","3.3.9","1","y","0","left","right","right","left","NA","1034","27626","11199","1034","NA","2","legacy","3","1024","2","48000","-16","experiment","4","even","9","736708","737901","3798","124024","737902","740109","716988","3801","112825","742113","743148","738905","31428","742113","NA","Sternberg task","97","126492","106","yes","1024"
"91.58878504672897","91.58878504672897","1191.4766355140187","1191.4766355140187","black","experiment","legacy","legacy","legacy","0","uniform","1","undefined","1","left","106","106","0","0","106","106","106","0","0","106","106","106","0","106","0","Sun Oct 24 21:11:15 2021","The main experiment item","yes","Sternbergtask.osexp","C:/Users/rayra/Documents","no","mono","no","18","no","white","no","yes","768","legacy","94","11","C:/Users/rayra/Documents/subject-4.csv","legacy","8 5 3 7 4 6","Lentiform Loewenfeld","3.3.9","6","y","0","left","right","right","left","NA","996","27626","11199","996","NA","2","legacy","6","1024","2","48000","-16","experiment","4","even","6","743155","744356","3798","124024","744358","746564","716988","3801","112825","748568","749565","745361","31428","748568","NA","Sternberg task","98","127488","107","yes","1024"
"91.66666666666667","91.66666666666667","1188.7685185185185","1188.7685185185185","black","experiment","legacy","legacy","legacy","0","uniform","1","undefined","1","right","107","107","0","0","107","107","107","0","0","107","107","107","0","107","0","Sun Oct 24 21:11:15 2021","The main experiment item","yes","Sternbergtask.osexp","C:/Users/rayra/Documents","no","mono","no","18","no","white","no","yes","768","legacy","95","11","C:/Users/rayra/Documents/subject-4.csv","legacy","7 1","Lentiform Loewenfeld","3.3.9","0","n","0","right","right","right","right","NA","899","27626","11199","899","NA","2","legacy","2","1024","2","48000","-16","experiment","4","even","8","749572","750773","3798","124024","750775","752984","716988","3801","112825","754989","755890","751778","31428","754989","NA","Sternberg task","99","128387","108","yes","1024"
"90.8256880733945","90.8256880733945","1190.2385321100917","1190.2385321100917","black","experiment","legacy","legacy","legacy","0","uniform","0","undefined","0","right","108","108","0","0","108","108","108","0","0","108","108","108","0","108","0","Sun Oct 24 21:11:15 2021","The main experiment item","yes","Sternbergtask.osexp","C:/Users/rayra/Documents","no","mono","no","18","no","white","no","yes","768","legacy","96","11","C:/Users/rayra/Documents/subject-4.csv","legacy","1 6 4","Lentiform Loewenfeld","3.3.9","0","n","0","left","right","right","left","NA","1349","27626","11199","1349","NA","2","legacy","3","1024","2","48000","-16","experiment","4","even","7","755913","757124","3798","124024","757127","759334","716988","3801","112825","761338","762689","758131","31428","761338","NA","Sternberg task","99","129736","109","yes","1024"
"90.9090909090909","90.9090909090909","1195.2","1195.2","black","experiment","legacy","legacy","legacy","0","uniform","1","undefined","1","left","109","109","0","0","109","109","109","0","0","109","109","109","0","109","0","Sun Oct 24 21:11:15 2021","The main experiment item","yes","Sternbergtask.osexp","C:/Users/rayra/Documents","no","mono","no","18","no","white","no","yes","768","legacy","97","11","C:/Users/rayra/Documents/subject-4.csv","legacy","5 7 8 2 3 8","Lentiform Loewenfeld","3.3.9","5","y","0","left","right","right","left","NA","1736","27626","11199","1736","NA","2","legacy","6","1024","2","48000","-16","experiment","4","even","3","755913","763892","3798","124024","763896","766104","762696","3801","112825","768108","769847","764899","31428","768108","NA","Sternberg task","100","131472","110","yes","1024"
"90.990990990991","90.990990990991","1191.6396396396397","1191.6396396396397","black","experiment","legacy","legacy","legacy","0","uniform","1","undefined","1","left","110","110","0","0","110","110","110","0","0","110","110","110","0","110","0","Sun Oct 24 21:11:15 2021","The main experiment item","yes","Sternbergtask.osexp","C:/Users/rayra/Documents","no","mono","no","18","no","white","no","yes","768","legacy","98","11","C:/Users/rayra/Documents/subject-4.csv","legacy","9 1 7 2","Lentiform Loewenfeld","3.3.9","2","y","0","left","right","right","left","NA","800","27626","11199","800","NA","2","legacy","4","1024","2","48000","-16","experiment","4","even","1","769854","771045","3798","124024","771048","773254","762696","3801","112825","775258","776060","772051","31428","775258","NA","Sternberg task","101","132272","111","yes","1024"
"91.07142857142857","91.07142857142857","1189.9642857142858","1189.9642857142858","black","experiment","legacy","legacy","legacy","0","uniform","1","undefined","1","right","111","111","0","0","111","111","111","0","0","111","111","111","0","111","0","Sun Oct 24 21:11:15 2021","The main experiment item","yes","Sternbergtask.osexp","C:/Users/rayra/Documents","no","mono","no","18","no","white","no","yes","768","legacy","99","11","C:/Users/rayra/Documents/subject-4.csv","legacy","8 4 3 5","Lentiform Loewenfeld","3.3.9","0","n","0","right","right","right","right","NA","1004","27626","11199","1004","NA","2","legacy","4","1024","2","48000","-16","experiment","4","even","6","776068","777286","3798","124024","777288","779497","762696","3801","112825","781501","782507","778292","31428","781501","NA","Sternberg task","102","133276","112","yes","1024"
"91.15044247787611","91.15044247787611","1188.3628318584072","1188.3628318584072","black","experiment","legacy","legacy","legacy","0","uniform","1","undefined","1","right","112","112","0","0","112","112","112","0","0","112","112","112","0","112","0","Sun Oct 24 21:11:15 2021","The main experiment item","yes","Sternbergtask.osexp","C:/Users/rayra/Documents","no","mono","no","18","no","white","no","yes","768","legacy","100","11","C:/Users/rayra/Documents/subject-4.csv","legacy","5 3 2 6 9 8","Lentiform Loewenfeld","3.3.9","0","n","0","right","right","right","right","NA","1009","27626","11199","1009","NA","2","legacy","6","1024","2","48000","-16","experiment","4","even","4","782513","783714","3798","124024","783716","785924","762696","3801","112825","787928","788939","784720","31428","787928","NA","Sternberg task","103","134285","113","yes","1024"
"91.2280701754386","91.2280701754386","1185.877192982456","1185.877192982456","black","experiment","legacy","legacy","legacy","0","uniform","1","undefined","1","left","113","113","0","0","113","113","113","0","0","113","113","113","0","113","0","Sun Oct 24 21:11:15 2021","The main experiment item","yes","Sternbergtask.osexp","C:/Users/rayra/Documents","no","mono","no","18","no","white","no","yes","768","legacy","101","11","C:/Users/rayra/Documents/subject-4.csv","legacy","9 5 3 8 4","Lentiform Loewenfeld","3.3.9","1","y","0","left","right","right","left","NA","905","27626","11199","905","NA","2","legacy","5","1024","2","48000","-16","experiment","4","even","9","788946","790116","3798","124024","790119","792328","762696","3801","112825","794332","795238","791123","31428","794332","NA","Sternberg task","104","135190","114","yes","1024"
"91.30434782608695","91.30434782608695","1188.1304347826087","1188.1304347826087","black","experiment","legacy","legacy","legacy","0","uniform","1","undefined","1","right","114","114","0","0","114","114","114","0","0","114","114","114","0","114","0","Sun Oct 24 21:11:15 2021","The main experiment item","yes","Sternbergtask.osexp","C:/Users/rayra/Documents","no","mono","no","18","no","white","no","yes","768","legacy","102","11","C:/Users/rayra/Documents/subject-4.csv","legacy","9","Lentiform Loewenfeld","3.3.9","0","n","0","right","right","right","right","NA","1445","27626","11199","1445","NA","2","legacy","1","1024","2","48000","-16","experiment","4","even","6","795244","796442","3798","124024","796444","798651","762696","3801","112825","800655","802102","797448","31428","800655","NA","Sternberg task","105","136635","115","yes","1024"
"91.37931034482759","91.37931034482759","1187.2844827586207","1187.2844827586207","black","experiment","legacy","legacy","legacy","0","uniform","1","undefined","1","right","115","115","0","0","115","115","115","0","0","115","115","115","0","115","0","Sun Oct 24 21:11:15 2021","The main experiment item","yes","Sternbergtask.osexp","C:/Users/rayra/Documents","no","mono","no","18","no","white","no","yes","768","legacy","103","11","C:/Users/rayra/Documents/subject-4.csv","legacy","8 2 1 4 5 9","Lentiform Loewenfeld","3.3.9","0","n","0","right","right","right","right","NA","1090","27626","11199","1090","NA","2","legacy","6","1024","2","48000","-16","experiment","4","even","7","802109","803284","3798","124024","803287","805495","762696","3801","112825","807500","808592","804291","31428","807500","NA","Sternberg task","106","137725","116","yes","1024"
"91.45299145299145","91.45299145299145","1189.3846153846155","1189.3846153846155","black","experiment","legacy","legacy","legacy","0","uniform","1","undefined","1","left","116","116","0","0","116","116","116","0","0","116","116","116","0","116","0","Sun Oct 24 21:11:15 2021","The main experiment item","yes","Sternbergtask.osexp","C:/Users/rayra/Documents","no","mono","no","18","no","white","no","yes","768","legacy","104","11","C:/Users/rayra/Documents/subject-4.csv","legacy","6 8 9 3 4 9","Lentiform Loewenfeld","3.3.9","5","y","0","left","right","right","left","NA","1433","27626","11199","1433","NA","2","legacy","6","1024","2","48000","-16","experiment","4","even","4","808598","809787","3798","124024","809789","811998","762696","3801","112825","814001","815435","810794","31428","814001","NA","Sternberg task","107","139158","117","yes","1024"
"91.52542372881356","91.52542372881356","1194.042372881356","1194.042372881356","black","experiment","legacy","legacy","legacy","0","uniform","1","undefined","1","left","117","117","0","0","117","117","117","0","0","117","117","117","0","117","0","Sun Oct 24 21:11:15 2021","The main experiment item","yes","Sternbergtask.osexp","C:/Users/rayra/Documents","no","mono","no","18","no","white","no","yes","768","legacy","105","11","C:/Users/rayra/Documents/subject-4.csv","legacy","2 6 1 7 4","Lentiform Loewenfeld","3.3.9","2","y","0","left","right","right","left","NA","1739","27626","11199","1739","NA","2","legacy","5","1024","2","48000","-16","experiment","4","even","6","815441","816626","3798","124024","816628","818836","762696","3801","112825","820840","822580","817631","31428","820840","NA","Sternberg task","108","140897","118","yes","1024"
