"acc","accuracy","average_response_time","avg_rt","background","block","canvas_backend","clock_backend","color_backend","compensation","coordinates","correct","correct_instruction1","correct_keyboard_response","correct_response","count_ISI","count_correctFeedback","count_expLoop","count_expSequence","count_experiment","count_fixation","count_incorrectFeedback","count_instruction1","count_instruction2","count_keyboard_response","count_logger","count_memorySet","count_practiceLoop","count_probe","count_thankYou","datetime","description","disable_garbage_collection","experiment_file","experiment_path","font_bold","font_family","font_italic","font_size","font_underline","foreground","form_clicks","fullscreen","height","keyboard_backend","live_row","live_row_practiceLoop","logfile","mouse_backend","numberSet","opensesame_codename","opensesame_version","posInSet","present","repeat_cycle","response","response_instruction1","response_instruction2","response_keyboard_response","response_thankYou","response_time","response_time_instruction1","response_time_instruction2","response_time_keyboard_response","response_time_thankYou","round_decimals","sampler_backend","setSize","sound_buf_size","sound_channels","sound_freq","sound_sample_size","start","subject_nr","subject_parity","target","time_ISI","time_correctFeedback","time_expLoop","time_expSequence","time_experiment","time_fixation","time_incorrectFeedback","time_instruction1","time_instruction2","time_keyboard_response","time_logger","time_memorySet","time_practiceLoop","time_probe","time_thankYou","title","total_correct","total_response_time","total_responses","uniform_coordinates","width"
"100","100","517","517","black","practice","legacy","legacy","legacy","0","uniform","1","undefined","1","left","0","0","0","0","0","0","0","0","0","0","0","0","0","0","0","Tue Oct 18 10:44:35 2022","The main experiment item","yes","SternbergTask.osexp","C:\Users\Austin\Documents\PSYC 5316\Lab 3","no","mono","no","18","no","white","no","yes","768","legacy","0","0","C:/Users/Austin/Documents/PSYC 5316/Lab 3/AH-subject-3.csv","legacy","1 7 9 8 5","Lentiform Loewenfeld","3.3.12","4","y","0","left","right","NA","left","NA","517","220918","NA","517","NA","2","legacy","5","1024","2","48000","-16","experiment","3","odd","8","228422","NA","NA","226210","4242","226216","NA","4250","NA","230426","230944","227219","225170","230426","NA","Sternberg Task","1","517","1","yes","1024"
"100","100","545.5","545.5","black","practice","legacy","legacy","legacy","0","uniform","1","undefined","1","right","1","1","0","1","0","1","1","0","0","1","1","1","0","1","0","Tue Oct 18 10:44:35 2022","The main experiment item","yes","SternbergTask.osexp","C:\Users\Austin\Documents\PSYC 5316\Lab 3","no","mono","no","18","no","white","no","yes","768","legacy","1","1","C:/Users/Austin/Documents/PSYC 5316/Lab 3/AH-subject-3.csv","legacy","2 1","Lentiform Loewenfeld","3.3.12","0","n","0","right","right","NA","right","NA","574","220918","NA","574","NA","2","legacy","2","1024","2","48000","-16","experiment","3","odd","5","234416","231025","NA","232203","4242","232207","NA","4250","NA","236419","236994","233211","225170","236419","NA","Sternberg Task","2","1091","2","yes","1024"
"100","100","592","592","black","practice","legacy","legacy","legacy","0","uniform","1","undefined","1","right","2","2","0","2","0","2","2","0","0","2","2","2","0","2","0","Tue Oct 18 10:44:35 2022","The main experiment item","yes","SternbergTask.osexp","C:\Users\Austin\Documents\PSYC 5316\Lab 3","no","mono","no","18","no","white","no","yes","768","legacy","2","2","C:/Users/Austin/Documents/PSYC 5316/Lab 3/AH-subject-3.csv","legacy","9 6 7 4 5","Lentiform Loewenfeld","3.3.12","0","n","0","right","right","NA","right","NA","685","220918","NA","685","NA","2","legacy","5","1024","2","48000","-16","experiment","3","odd","3","240368","237003","NA","238157","4242","238161","NA","4250","NA","242372","243058","239164","225170","242372","NA","Sternberg Task","3","1776","3","yes","1024"
"100","100","558","558","black","practice","legacy","legacy","legacy","0","uniform","1","undefined","1","left","3","3","0","3","0","3","3","0","0","3","3","3","0","3","0","Tue Oct 18 10:44:35 2022","The main experiment item","yes","SternbergTask.osexp","C:\Users\Austin\Documents\PSYC 5316\Lab 3","no","mono","no","18","no","white","no","yes","768","legacy","3","3","C:/Users/Austin/Documents/PSYC 5316/Lab 3/AH-subject-3.csv","legacy","2 9 4","Lentiform Loewenfeld","3.3.12","3","y","0","left","right","NA","left","NA","456","220918","NA","456","NA","2","legacy","3","1024","2","48000","-16","experiment","3","odd","4","246467","243067","NA","244253","4242","244258","NA","4250","NA","248470","248927","245262","225170","248470","NA","Sternberg Task","4","2232","4","yes","1024"
"100","100","567.8","567.8","black","practice","legacy","legacy","legacy","0","uniform","1","undefined","1","right","4","4","0","4","0","4","4","0","0","4","4","4","0","4","0","Tue Oct 18 10:44:35 2022","The main experiment item","yes","SternbergTask.osexp","C:\Users\Austin\Documents\PSYC 5316\Lab 3","no","mono","no","18","no","white","no","yes","768","legacy","4","4","C:/Users/Austin/Documents/PSYC 5316/Lab 3/AH-subject-3.csv","legacy","5","Lentiform Loewenfeld","3.3.12","0","n","0","right","right","NA","right","NA","607","220918","NA","607","NA","2","legacy","1","1024","2","48000","-16","experiment","3","odd","3","252304","248936","NA","250092","4242","250096","NA","4250","NA","254308","254915","251100","225170","254308","NA","Sternberg Task","5","2839","5","yes","1024"
"100","100","620.6666666666666","620.6666666666666","black","practice","legacy","legacy","legacy","0","uniform","1","undefined","1","right","5","5","0","5","0","5","5","0","0","5","5","5","0","5","0","Tue Oct 18 10:44:35 2022","The main experiment item","yes","SternbergTask.osexp","C:\Users\Austin\Documents\PSYC 5316\Lab 3","no","mono","no","18","no","white","no","yes","768","legacy","5","5","C:/Users/Austin/Documents/PSYC 5316/Lab 3/AH-subject-3.csv","legacy","5 7 8 4 1 2","Lentiform Loewenfeld","3.3.12","0","n","0","right","right","NA","right","NA","885","220918","NA","885","NA","2","legacy","6","1024","2","48000","-16","experiment","3","odd","6","258337","254924","NA","256125","4242","256130","NA","4250","NA","260340","261226","257133","225170","260340","NA","Sternberg Task","6","3724","6","yes","1024"
"100","100","701.4285714285714","701.4285714285714","black","practice","legacy","legacy","legacy","0","uniform","1","undefined","1","right","6","6","0","6","0","6","6","0","0","6","6","6","0","6","0","Tue Oct 18 10:44:35 2022","The main experiment item","yes","SternbergTask.osexp","C:\Users\Austin\Documents\PSYC 5316\Lab 3","no","mono","no","18","no","white","no","yes","768","legacy","6","6","C:/Users/Austin/Documents/PSYC 5316/Lab 3/AH-subject-3.csv","legacy","4 1 5","Lentiform Loewenfeld","3.3.12","0","n","0","right","right","NA","right","NA","1186","220918","NA","1186","NA","2","legacy","3","1024","2","48000","-16","experiment","3","odd","2","264597","261234","NA","262385","4242","262389","NA","4250","NA","266602","267789","263393","225170","266602","NA","Sternberg Task","7","4910","7","yes","1024"
"100","100","672.25","672.25","black","practice","legacy","legacy","legacy","0","uniform","1","undefined","1","left","7","7","0","7","0","7","7","0","0","7","7","7","0","7","0","Tue Oct 18 10:44:35 2022","The main experiment item","yes","SternbergTask.osexp","C:\Users\Austin\Documents\PSYC 5316\Lab 3","no","mono","no","18","no","white","no","yes","768","legacy","7","7","C:/Users/Austin/Documents/PSYC 5316/Lab 3/AH-subject-3.csv","legacy","6","Lentiform Loewenfeld","3.3.12","1","y","0","left","right","NA","left","NA","468","220918","NA","468","NA","2","legacy","1","1024","2","48000","-16","experiment","3","odd","6","271184","267797","NA","268973","4242","268976","NA","4250","NA","273187","273656","269980","225170","273187","NA","Sternberg Task","8","5378","8","yes","1024"
"100","100","653.8888888888889","653.8888888888889","black","practice","legacy","legacy","legacy","0","uniform","1","undefined","1","left","8","8","0","8","0","8","8","0","0","8","8","8","0","8","0","Tue Oct 18 10:44:35 2022","The main experiment item","yes","SternbergTask.osexp","C:\Users\Austin\Documents\PSYC 5316\Lab 3","no","mono","no","18","no","white","no","yes","768","legacy","8","8","C:/Users/Austin/Documents/PSYC 5316/Lab 3/AH-subject-3.csv","legacy","4 8","Lentiform Loewenfeld","3.3.12","1","y","0","left","right","NA","left","NA","507","220918","NA","507","NA","2","legacy","2","1024","2","48000","-16","experiment","3","odd","4","277037","273666","NA","274826","4242","274829","NA","4250","NA","279041","279549","275833","225170","279040","NA","Sternberg Task","9","5885","9","yes","1024"
"100","100","678.1","678.1","black","practice","legacy","legacy","legacy","0","uniform","1","undefined","1","left","9","9","0","9","0","9","9","0","0","9","9","9","0","9","0","Tue Oct 18 10:44:35 2022","The main experiment item","yes","SternbergTask.osexp","C:\Users\Austin\Documents\PSYC 5316\Lab 3","no","mono","no","18","no","white","no","yes","768","legacy","9","9","C:/Users/Austin/Documents/PSYC 5316/Lab 3/AH-subject-3.csv","legacy","1 5 2 9","Lentiform Loewenfeld","3.3.12","2","y","0","left","right","NA","left","NA","896","220918","NA","896","NA","2","legacy","4","1024","2","48000","-16","experiment","3","odd","5","282927","279556","NA","280714","4242","280719","NA","4250","NA","284931","285828","281722","225170","284931","NA","Sternberg Task","10","6781","10","yes","1024"
"100","100","691.8181818181819","691.8181818181819","black","practice","legacy","legacy","legacy","0","uniform","1","undefined","1","right","10","10","0","10","0","10","10","0","0","10","10","10","0","10","0","Tue Oct 18 10:44:35 2022","The main experiment item","yes","SternbergTask.osexp","C:\Users\Austin\Documents\PSYC 5316\Lab 3","no","mono","no","18","no","white","no","yes","768","legacy","10","10","C:/Users/Austin/Documents/PSYC 5316/Lab 3/AH-subject-3.csv","legacy","3 1 9 4","Lentiform Loewenfeld","3.3.12","0","n","0","right","right","NA","right","NA","829","220918","NA","829","NA","2","legacy","4","1024","2","48000","-16","experiment","3","odd","6","289222","285835","NA","287010","4242","287014","NA","4250","NA","291227","292057","288018","225170","291226","NA","Sternberg Task","11","7610","11","yes","1024"
"91.66666666666667","91.66666666666667","671.1666666666666","671.1666666666666","black","practice","legacy","legacy","legacy","0","uniform","0","undefined","0","left","11","11","0","11","0","11","11","0","0","11","11","11","0","11","0","Tue Oct 18 10:44:35 2022","The main experiment item","yes","SternbergTask.osexp","C:\Users\Austin\Documents\PSYC 5316\Lab 3","no","mono","no","18","no","white","no","yes","768","legacy","11","11","C:/Users/Austin/Documents/PSYC 5316/Lab 3/AH-subject-3.csv","legacy","4 3 1 7 9 8","Lentiform Loewenfeld","3.3.12","1","y","0","right","right","NA","right","NA","444","220918","NA","444","NA","2","legacy","6","1024","2","48000","-16","experiment","3","odd","4","295429","292064","NA","293216","4242","293221","NA","4250","NA","297432","297877","294224","225170","297432","NA","Sternberg Task","11","8054","12","yes","1024"
"92.3076923076923","92.3076923076923","667.4615384615385","667.4615384615385","black","experiment","legacy","legacy","legacy","0","uniform","1","undefined","1","left","12","12","0","12","0","12","12","0","0","12","12","12","0","12","0","Tue Oct 18 10:44:35 2022","The main experiment item","yes","SternbergTask.osexp","C:\Users\Austin\Documents\PSYC 5316\Lab 3","no","mono","no","18","no","white","no","yes","768","legacy","0","11","C:/Users/Austin/Documents/PSYC 5316/Lab 3/AH-subject-3.csv","legacy","2 3 7 4","Lentiform Loewenfeld","3.3.12","1","y","0","left","right","right","left","NA","623","220918","221808","623","NA","2","legacy","4","1024","2","48000","-16","experiment","3","odd","2","523157","292064","520776","520945","4242","520950","297888","4250","298966","525161","525785","521953","225170","525161","NA","Sternberg Task","12","8677","13","yes","1024"
"92.85714285714286","92.85714285714286","684.7142857142857","684.7142857142857","black","experiment","legacy","legacy","legacy","0","uniform","1","undefined","1","right","13","13","0","13","0","13","13","0","0","13","13","13","0","13","0","Tue Oct 18 10:44:35 2022","The main experiment item","yes","SternbergTask.osexp","C:\Users\Austin\Documents\PSYC 5316\Lab 3","no","mono","no","18","no","white","no","yes","768","legacy","1","11","C:/Users/Austin/Documents/PSYC 5316/Lab 3/AH-subject-3.csv","legacy","2 7 5","Lentiform Loewenfeld","3.3.12","0","n","0","right","right","right","right","NA","909","220918","221808","909","NA","2","legacy","3","1024","2","48000","-16","experiment","3","odd","8","529155","525793","520776","526944","4242","526948","297888","4250","298966","531161","532071","527952","225170","531160","NA","Sternberg Task","13","9586","14","yes","1024"
"93.33333333333333","93.33333333333333","688.4666666666667","688.4666666666667","black","experiment","legacy","legacy","legacy","0","uniform","1","undefined","1","right","14","14","0","14","0","14","14","0","0","14","14","14","0","14","0","Tue Oct 18 10:44:35 2022","The main experiment item","yes","SternbergTask.osexp","C:\Users\Austin\Documents\PSYC 5316\Lab 3","no","mono","no","18","no","white","no","yes","768","legacy","2","11","C:/Users/Austin/Documents/PSYC 5316/Lab 3/AH-subject-3.csv","legacy","1 7 5 2","Lentiform Loewenfeld","3.3.12","0","n","0","right","right","right","right","NA","741","220918","221808","741","NA","2","legacy","4","1024","2","48000","-16","experiment","3","odd","3","535475","532079","520776","533261","4242","533266","297888","4250","298966","537480","538222","534270","225170","537479","NA","Sternberg Task","14","10327","15","yes","1024"
"93.75","93.75","684.625","684.625","black","experiment","legacy","legacy","legacy","0","uniform","1","undefined","1","right","15","15","0","15","0","15","15","0","0","15","15","15","0","15","0","Tue Oct 18 10:44:35 2022","The main experiment item","yes","SternbergTask.osexp","C:\Users\Austin\Documents\PSYC 5316\Lab 3","no","mono","no","18","no","white","no","yes","768","legacy","3","11","C:/Users/Austin/Documents/PSYC 5316/Lab 3/AH-subject-3.csv","legacy","4 2 7 6 1 3","Lentiform Loewenfeld","3.3.12","0","n","0","right","right","right","right","NA","627","220918","221808","627","NA","2","legacy","6","1024","2","48000","-16","experiment","3","odd","8","541634","538232","520776","539420","4242","539426","297888","4250","298966","543638","544266","540429","225170","543638","NA","Sternberg Task","15","10954","16","yes","1024"
"94.11764705882354","94.11764705882354","686.8823529411765","686.8823529411765","black","experiment","legacy","legacy","legacy","0","uniform","1","undefined","1","left","16","16","0","16","0","16","16","0","0","16","16","16","0","16","0","Tue Oct 18 10:44:35 2022","The main experiment item","yes","SternbergTask.osexp","C:\Users\Austin\Documents\PSYC 5316\Lab 3","no","mono","no","18","no","white","no","yes","768","legacy","4","11","C:/Users/Austin/Documents/PSYC 5316/Lab 3/AH-subject-3.csv","legacy","6 7 9 3 1 2","Lentiform Loewenfeld","3.3.12","1","y","0","left","right","right","left","NA","723","220918","221808","723","NA","2","legacy","6","1024","2","48000","-16","experiment","3","odd","6","547691","544276","520776","545479","4242","545484","297888","4250","298966","549695","550419","546487","225170","549695","NA","Sternberg Task","16","11677","17","yes","1024"
"94.44444444444444","94.44444444444444","681.9444444444445","681.9444444444445","black","experiment","legacy","legacy","legacy","0","uniform","1","undefined","1","right","17","17","0","17","0","17","17","0","0","17","17","17","0","17","0","Tue Oct 18 10:44:35 2022","The main experiment item","yes","SternbergTask.osexp","C:\Users\Austin\Documents\PSYC 5316\Lab 3","no","mono","no","18","no","white","no","yes","768","legacy","5","11","C:/Users/Austin/Documents/PSYC 5316/Lab 3/AH-subject-3.csv","legacy","6 9 5","Lentiform Loewenfeld","3.3.12","0","n","0","right","right","right","right","NA","598","220918","221808","598","NA","2","legacy","3","1024","2","48000","-16","experiment","3","odd","8","553813","550427","520776","551602","4242","551607","297888","4250","298966","555820","556419","552610","225170","555820","NA","Sternberg Task","17","12275","18","yes","1024"
"94.73684210526316","94.73684210526316","679.7368421052631","679.7368421052631","black","experiment","legacy","legacy","legacy","0","uniform","1","undefined","1","right","18","18","0","18","0","18","18","0","0","18","18","18","0","18","0","Tue Oct 18 10:44:35 2022","The main experiment item","yes","SternbergTask.osexp","C:\Users\Austin\Documents\PSYC 5316\Lab 3","no","mono","no","18","no","white","no","yes","768","legacy","6","11","C:/Users/Austin/Documents/PSYC 5316/Lab 3/AH-subject-3.csv","legacy","1 4 9 2 5","Lentiform Loewenfeld","3.3.12","0","n","0","right","right","right","right","NA","640","220918","221808","640","NA","2","legacy","5","1024","2","48000","-16","experiment","3","odd","7","559820","556428","520776","557608","4242","557613","297888","4250","298966","561824","562465","558617","225170","561824","NA","Sternberg Task","18","12915","19","yes","1024"
"90","90","673.05","673.05","black","experiment","legacy","legacy","legacy","0","uniform","0","undefined","0","right","19","19","0","19","0","19","19","0","0","19","19","19","0","19","0","Tue Oct 18 10:44:35 2022","The main experiment item","yes","SternbergTask.osexp","C:\Users\Austin\Documents\PSYC 5316\Lab 3","no","mono","no","18","no","white","no","yes","768","legacy","7","11","C:/Users/Austin/Documents/PSYC 5316/Lab 3/AH-subject-3.csv","legacy","9 7 4 5 8","Lentiform Loewenfeld","3.3.12","0","n","0","left","right","right","left","NA","546","220918","221808","546","NA","2","legacy","5","1024","2","48000","-16","experiment","3","odd","6","565855","562476","520776","563640","4242","563645","297888","4250","298966","567859","568406","564650","225170","567859","NA","Sternberg Task","18","13461","20","yes","1024"
"90.47619047619048","90.47619047619048","668.1904761904761","668.1904761904761","black","experiment","legacy","legacy","legacy","0","uniform","1","undefined","1","left","20","20","0","20","0","20","20","0","0","20","20","20","0","20","0","Tue Oct 18 10:44:35 2022","The main experiment item","yes","SternbergTask.osexp","C:\Users\Austin\Documents\PSYC 5316\Lab 3","no","mono","no","18","no","white","no","yes","768","legacy","8","11","C:/Users/Austin/Documents/PSYC 5316/Lab 3/AH-subject-3.csv","legacy","2 4 6 9","Lentiform Loewenfeld","3.3.12","3","y","0","left","right","right","left","NA","571","220918","221808","571","NA","2","legacy","4","1024","2","48000","-16","experiment","3","odd","6","571776","562476","520776","569565","4242","569569","568415","4250","298966","573781","574353","570573","225170","573781","NA","Sternberg Task","19","14032","21","yes","1024"
"90.9090909090909","90.9090909090909","660.4545454545455","660.4545454545455","black","experiment","legacy","legacy","legacy","0","uniform","1","undefined","1","right","21","21","0","21","0","21","21","0","0","21","21","21","0","21","0","Tue Oct 18 10:44:35 2022","The main experiment item","yes","SternbergTask.osexp","C:\Users\Austin\Documents\PSYC 5316\Lab 3","no","mono","no","18","no","white","no","yes","768","legacy","9","11","C:/Users/Austin/Documents/PSYC 5316/Lab 3/AH-subject-3.csv","legacy","1 3 2 6 9","Lentiform Loewenfeld","3.3.12","0","n","0","right","right","right","right","NA","498","220918","221808","498","NA","2","legacy","5","1024","2","48000","-16","experiment","3","odd","5","577756","574362","520776","575543","4242","575548","568415","4250","298966","579759","580258","576552","225170","579759","NA","Sternberg Task","20","14530","22","yes","1024"
"91.30434782608695","91.30434782608695","654.9130434782609","654.9130434782609","black","experiment","legacy","legacy","legacy","0","uniform","1","undefined","1","right","22","22","0","22","0","22","22","0","0","22","22","22","0","22","0","Tue Oct 18 10:44:35 2022","The main experiment item","yes","SternbergTask.osexp","C:\Users\Austin\Documents\PSYC 5316\Lab 3","no","mono","no","18","no","white","no","yes","768","legacy","10","11","C:/Users/Austin/Documents/PSYC 5316/Lab 3/AH-subject-3.csv","legacy","3 4 9 6 7 8","Lentiform Loewenfeld","3.3.12","0","n","0","right","right","right","right","NA","533","220918","221808","533","NA","2","legacy","6","1024","2","48000","-16","experiment","3","odd","2","583650","580268","520776","581438","4242","581442","568415","4250","298966","585654","586188","582445","225170","585654","NA","Sternberg Task","21","15063","23","yes","1024"
"91.66666666666667","91.66666666666667","646.1666666666666","646.1666666666666","black","experiment","legacy","legacy","legacy","0","uniform","1","undefined","1","left","23","23","0","23","0","23","23","0","0","23","23","23","0","23","0","Tue Oct 18 10:44:35 2022","The main experiment item","yes","SternbergTask.osexp","C:\Users\Austin\Documents\PSYC 5316\Lab 3","no","mono","no","18","no","white","no","yes","768","legacy","11","11","C:/Users/Austin/Documents/PSYC 5316/Lab 3/AH-subject-3.csv","legacy","7 8 4 6 9 5","Lentiform Loewenfeld","3.3.12","4","y","0","left","right","right","left","NA","445","220918","221808","445","NA","2","legacy","6","1024","2","48000","-16","experiment","3","odd","6","589589","586197","520776","587377","4242","587381","568415","4250","298966","591592","592038","588385","225170","591592","NA","Sternberg Task","22","15508","24","yes","1024"
"92","92","641.04","641.04","black","experiment","legacy","legacy","legacy","0","uniform","1","undefined","1","left","24","24","0","24","0","24","24","0","0","24","24","24","0","24","0","Tue Oct 18 10:44:35 2022","The main experiment item","yes","SternbergTask.osexp","C:\Users\Austin\Documents\PSYC 5316\Lab 3","no","mono","no","18","no","white","no","yes","768","legacy","12","11","C:/Users/Austin/Documents/PSYC 5316/Lab 3/AH-subject-3.csv","legacy","7 8 6 3 1","Lentiform Loewenfeld","3.3.12","5","y","0","left","right","right","left","NA","518","220918","221808","518","NA","2","legacy","5","1024","2","48000","-16","experiment","3","odd","1","595424","592048","520776","593214","4242","593218","568415","4250","298966","597429","597948","594221","225170","597428","NA","Sternberg Task","23","16026","25","yes","1024"
"92.3076923076923","92.3076923076923","637.9615384615385","637.9615384615385","black","experiment","legacy","legacy","legacy","0","uniform","1","undefined","1","right","25","25","0","25","0","25","25","0","0","25","25","25","0","25","0","Tue Oct 18 10:44:35 2022","The main experiment item","yes","SternbergTask.osexp","C:\Users\Austin\Documents\PSYC 5316\Lab 3","no","mono","no","18","no","white","no","yes","768","legacy","13","11","C:/Users/Austin/Documents/PSYC 5316/Lab 3/AH-subject-3.csv","legacy","2 8 6 3 1","Lentiform Loewenfeld","3.3.12","0","n","0","right","right","right","right","NA","561","220918","221808","561","NA","2","legacy","5","1024","2","48000","-16","experiment","3","odd","7","601347","597957","520776","599133","4242","599137","568415","4250","298966","603351","603913","600142","225170","603351","NA","Sternberg Task","24","16587","26","yes","1024"
"92.5925925925926","92.5925925925926","634.9629629629629","634.9629629629629","black","experiment","legacy","legacy","legacy","0","uniform","1","undefined","1","left","26","26","0","26","0","26","26","0","0","26","26","26","0","26","0","Tue Oct 18 10:44:35 2022","The main experiment item","yes","SternbergTask.osexp","C:\Users\Austin\Documents\PSYC 5316\Lab 3","no","mono","no","18","no","white","no","yes","768","legacy","14","11","C:/Users/Austin/Documents/PSYC 5316/Lab 3/AH-subject-3.csv","legacy","9 8 4","Lentiform Loewenfeld","3.3.12","1","y","0","left","right","right","left","NA","557","220918","221808","557","NA","2","legacy","3","1024","2","48000","-16","experiment","3","odd","9","607285","603921","520776","605073","4242","605077","568415","4250","298966","609289","609847","606081","225170","609289","NA","Sternberg Task","25","17144","27","yes","1024"
"92.85714285714286","92.85714285714286","628.0714285714286","628.0714285714286","black","experiment","legacy","legacy","legacy","0","uniform","1","undefined","1","right","27","27","0","27","0","27","27","0","0","27","27","27","0","27","0","Tue Oct 18 10:44:35 2022","The main experiment item","yes","SternbergTask.osexp","C:\Users\Austin\Documents\PSYC 5316\Lab 3","no","mono","no","18","no","white","no","yes","768","legacy","15","11","C:/Users/Austin/Documents/PSYC 5316/Lab 3/AH-subject-3.csv","legacy","4 1","Lentiform Loewenfeld","3.3.12","0","n","0","right","right","right","right","NA","442","220918","221808","442","NA","2","legacy","2","1024","2","48000","-16","experiment","3","odd","6","613280","609856","520776","611066","4242","611070","568415","4250","298966","615284","615727","612074","225170","615284","NA","Sternberg Task","26","17586","28","yes","1024"
"93.10344827586206","93.10344827586206","620.9310344827586","620.9310344827586","black","experiment","legacy","legacy","legacy","0","uniform","1","undefined","1","left","28","28","0","28","0","28","28","0","0","28","28","28","0","28","0","Tue Oct 18 10:44:35 2022","The main experiment item","yes","SternbergTask.osexp","C:\Users\Austin\Documents\PSYC 5316\Lab 3","no","mono","no","18","no","white","no","yes","768","legacy","16","11","C:/Users/Austin/Documents/PSYC 5316/Lab 3/AH-subject-3.csv","legacy","7 6","Lentiform Loewenfeld","3.3.12","2","y","0","left","right","right","left","NA","421","220918","221808","421","NA","2","legacy","2","1024","2","48000","-16","experiment","3","odd","6","619118","615736","520776","616904","4242","616909","568415","4250","298966","621121","621544","617914","225170","621121","NA","Sternberg Task","27","18007","29","yes","1024"
"93.33333333333333","93.33333333333333","613.9333333333333","613.9333333333333","black","experiment","legacy","legacy","legacy","0","uniform","1","undefined","1","left","29","29","0","29","0","29","29","0","0","29","29","29","0","29","0","Tue Oct 18 10:44:35 2022","The main experiment item","yes","SternbergTask.osexp","C:\Users\Austin\Documents\PSYC 5316\Lab 3","no","mono","no","18","no","white","no","yes","768","legacy","17","11","C:/Users/Austin/Documents/PSYC 5316/Lab 3/AH-subject-3.csv","legacy","5 2 6","Lentiform Loewenfeld","3.3.12","2","y","0","left","right","right","left","NA","411","220918","221808","411","NA","2","legacy","3","1024","2","48000","-16","experiment","3","odd","2","624914","621554","520776","622703","4242","622707","568415","4250","298966","626919","627331","623711","225170","626919","NA","Sternberg Task","28","18418","30","yes","1024"
"90.3225806451613","90.3225806451613","607.741935483871","607.741935483871","black","experiment","legacy","legacy","legacy","0","uniform","0","undefined","0","left","30","30","0","30","0","30","30","0","0","30","30","30","0","30","0","Tue Oct 18 10:44:35 2022","The main experiment item","yes","SternbergTask.osexp","C:\Users\Austin\Documents\PSYC 5316\Lab 3","no","mono","no","18","no","white","no","yes","768","legacy","18","11","C:/Users/Austin/Documents/PSYC 5316/Lab 3/AH-subject-3.csv","legacy","6 9 7 4 5 1","Lentiform Loewenfeld","3.3.12","2","y","0","right","right","right","right","NA","422","220918","221808","422","NA","2","legacy","6","1024","2","48000","-16","experiment","3","odd","9","630695","627339","520776","628483","4242","628487","568415","4250","298966","632700","633123","629491","225170","632699","NA","Sternberg Task","28","18840","31","yes","1024"
"90.625","90.625","607.6875","607.6875","black","experiment","legacy","legacy","legacy","0","uniform","1","undefined","1","right","31","31","0","31","0","31","31","0","0","31","31","31","0","31","0","Tue Oct 18 10:44:35 2022","The main experiment item","yes","SternbergTask.osexp","C:\Users\Austin\Documents\PSYC 5316\Lab 3","no","mono","no","18","no","white","no","yes","768","legacy","19","11","C:/Users/Austin/Documents/PSYC 5316/Lab 3/AH-subject-3.csv","legacy","3 9 1","Lentiform Loewenfeld","3.3.12","0","n","0","right","right","right","right","NA","606","220918","221808","606","NA","2","legacy","3","1024","2","48000","-16","experiment","3","odd","7","636488","627339","520776","634277","4242","634280","633131","4250","298966","638492","639099","635284","225170","638492","NA","Sternberg Task","29","19446","32","yes","1024"
"90.9090909090909","90.9090909090909","607.8181818181819","607.8181818181819","black","experiment","legacy","legacy","legacy","0","uniform","1","undefined","1","right","32","32","0","32","0","32","32","0","0","32","32","32","0","32","0","Tue Oct 18 10:44:35 2022","The main experiment item","yes","SternbergTask.osexp","C:\Users\Austin\Documents\PSYC 5316\Lab 3","no","mono","no","18","no","white","no","yes","768","legacy","20","11","C:/Users/Austin/Documents/PSYC 5316/Lab 3/AH-subject-3.csv","legacy","6 8 4","Lentiform Loewenfeld","3.3.12","0","n","0","right","right","right","right","NA","612","220918","221808","612","NA","2","legacy","3","1024","2","48000","-16","experiment","3","odd","1","642473","639107","520776","640259","4242","640263","633131","4250","298966","644478","645091","641268","225170","644477","NA","Sternberg Task","30","20058","33","yes","1024"
"91.17647058823529","91.17647058823529","608.2941176470588","608.2941176470588","black","experiment","legacy","legacy","legacy","0","uniform","1","undefined","1","right","33","33","0","33","0","33","33","0","0","33","33","33","0","33","0","Tue Oct 18 10:44:35 2022","The main experiment item","yes","SternbergTask.osexp","C:\Users\Austin\Documents\PSYC 5316\Lab 3","no","mono","no","18","no","white","no","yes","768","legacy","21","11","C:/Users/Austin/Documents/PSYC 5316/Lab 3/AH-subject-3.csv","legacy","7 1","Lentiform Loewenfeld","3.3.12","0","n","0","right","right","right","right","NA","624","220918","221808","624","NA","2","legacy","2","1024","2","48000","-16","experiment","3","odd","8","648470","645099","520776","646257","4242","646261","633131","4250","298966","650474","651100","647264","225170","650474","NA","Sternberg Task","31","20682","34","yes","1024"
"91.42857142857143","91.42857142857143","608.8857142857142","608.8857142857142","black","experiment","legacy","legacy","legacy","0","uniform","1","undefined","1","left","34","34","0","34","0","34","34","0","0","34","34","34","0","34","0","Tue Oct 18 10:44:35 2022","The main experiment item","yes","SternbergTask.osexp","C:\Users\Austin\Documents\PSYC 5316\Lab 3","no","mono","no","18","no","white","no","yes","768","legacy","22","11","C:/Users/Austin/Documents/PSYC 5316/Lab 3/AH-subject-3.csv","legacy","6 8 9 3 4 9","Lentiform Loewenfeld","3.3.12","5","y","0","left","right","right","left","NA","629","220918","221808","629","NA","2","legacy","6","1024","2","48000","-16","experiment","3","odd","4","654483","651109","520776","652273","4242","652277","633131","4250","298966","656486","657117","653280","225170","656486","NA","Sternberg Task","32","21311","35","yes","1024"
"91.66666666666667","91.66666666666667","605.4722222222222","605.4722222222222","black","experiment","legacy","legacy","legacy","0","uniform","1","undefined","1","left","35","35","0","35","0","35","35","0","0","35","35","35","0","35","0","Tue Oct 18 10:44:35 2022","The main experiment item","yes","SternbergTask.osexp","C:\Users\Austin\Documents\PSYC 5316\Lab 3","no","mono","no","18","no","white","no","yes","768","legacy","23","11","C:/Users/Austin/Documents/PSYC 5316/Lab 3/AH-subject-3.csv","legacy","5 7 3 6 2","Lentiform Loewenfeld","3.3.12","5","y","0","left","right","right","left","NA","486","220918","221808","486","NA","2","legacy","5","1024","2","48000","-16","experiment","3","odd","2","660487","657127","520776","658274","4242","658278","633131","4250","298966","662491","662978","659282","225170","662491","NA","Sternberg Task","33","21797","36","yes","1024"
"91.89189189189189","91.89189189189189","604.2432432432432","604.2432432432432","black","experiment","legacy","legacy","legacy","0","uniform","1","undefined","1","right","36","36","0","36","0","36","36","0","0","36","36","36","0","36","0","Tue Oct 18 10:44:35 2022","The main experiment item","yes","SternbergTask.osexp","C:\Users\Austin\Documents\PSYC 5316\Lab 3","no","mono","no","18","no","white","no","yes","768","legacy","24","11","C:/Users/Austin/Documents/PSYC 5316/Lab 3/AH-subject-3.csv","legacy","1 8 7","Lentiform Loewenfeld","3.3.12","0","n","0","right","right","right","right","NA","560","220918","221808","560","NA","2","legacy","3","1024","2","48000","-16","experiment","3","odd","4","666363","662989","520776","664153","4242","664156","633131","4250","298966","668368","668930","665159","225170","668368","NA","Sternberg Task","34","22357","37","yes","1024"
"89.47368421052632","89.47368421052632","603.1052631578947","603.1052631578947","black","experiment","legacy","legacy","legacy","0","uniform","0","undefined","0","right","37","37","0","37","0","37","37","0","0","37","37","37","0","37","0","Tue Oct 18 10:44:35 2022","The main experiment item","yes","SternbergTask.osexp","C:\Users\Austin\Documents\PSYC 5316\Lab 3","no","mono","no","18","no","white","no","yes","768","legacy","25","11","C:/Users/Austin/Documents/PSYC 5316/Lab 3/AH-subject-3.csv","legacy","8 5 7 3 6","Lentiform Loewenfeld","3.3.12","0","n","0","left","right","right","left","NA","561","220918","221808","561","NA","2","legacy","5","1024","2","48000","-16","experiment","3","odd","9","672301","668940","520776","670089","4242","670092","633131","4250","298966","674305","674867","671096","225170","674305","NA","Sternberg Task","34","22918","38","yes","1024"
"89.74358974358974","89.74358974358974","605.6923076923077","605.6923076923077","black","experiment","legacy","legacy","legacy","0","uniform","1","undefined","1","right","38","38","0","38","0","38","38","0","0","38","38","38","0","38","0","Tue Oct 18 10:44:35 2022","The main experiment item","yes","SternbergTask.osexp","C:\Users\Austin\Documents\PSYC 5316\Lab 3","no","mono","no","18","no","white","no","yes","768","legacy","26","11","C:/Users/Austin/Documents/PSYC 5316/Lab 3/AH-subject-3.csv","legacy","9 8 2 7 4","Lentiform Loewenfeld","3.3.12","0","n","0","right","right","right","right","NA","704","220918","221808","704","NA","2","legacy","5","1024","2","48000","-16","experiment","3","odd","5","678239","668940","520776","676026","4242","676030","674876","4250","298966","680243","680948","677035","225170","680243","NA","Sternberg Task","35","23622","39","yes","1024"
"90","90","609.95","609.95","black","experiment","legacy","legacy","legacy","0","uniform","1","undefined","1","left","39","39","0","39","0","39","39","0","0","39","39","39","0","39","0","Tue Oct 18 10:44:35 2022","The main experiment item","yes","SternbergTask.osexp","C:\Users\Austin\Documents\PSYC 5316\Lab 3","no","mono","no","18","no","white","no","yes","768","legacy","27","11","C:/Users/Austin/Documents/PSYC 5316/Lab 3/AH-subject-3.csv","legacy","8 7 3","Lentiform Loewenfeld","3.3.12","1","y","0","left","right","right","left","NA","776","220918","221808","776","NA","2","legacy","3","1024","2","48000","-16","experiment","3","odd","8","684322","680958","520776","682108","4242","682112","674876","4250","298966","686326","687103","683116","225170","686326","NA","Sternberg Task","36","24398","40","yes","1024"
"90.2439024390244","90.2439024390244","609.0731707317074","609.0731707317074","black","experiment","legacy","legacy","legacy","0","uniform","1","undefined","1","left","40","40","0","40","0","40","40","0","0","40","40","40","0","40","0","Tue Oct 18 10:44:35 2022","The main experiment item","yes","SternbergTask.osexp","C:\Users\Austin\Documents\PSYC 5316\Lab 3","no","mono","no","18","no","white","no","yes","768","legacy","28","11","C:/Users/Austin/Documents/PSYC 5316/Lab 3/AH-subject-3.csv","legacy","6 9 3 1","Lentiform Loewenfeld","3.3.12","4","y","0","left","right","right","left","NA","574","220918","221808","574","NA","2","legacy","4","1024","2","48000","-16","experiment","3","odd","1","690474","687112","520776","688262","4242","688266","674876","4250","298966","692478","693053","689270","225170","692478","NA","Sternberg Task","37","24972","41","yes","1024"
"88.0952380952381","88.0952380952381","614.4285714285714","614.4285714285714","black","experiment","legacy","legacy","legacy","0","uniform","0","undefined","0","right","41","41","0","41","0","41","41","0","0","41","41","41","0","41","0","Tue Oct 18 10:44:35 2022","The main experiment item","yes","SternbergTask.osexp","C:\Users\Austin\Documents\PSYC 5316\Lab 3","no","mono","no","18","no","white","no","yes","768","legacy","29","11","C:/Users/Austin/Documents/PSYC 5316/Lab 3/AH-subject-3.csv","legacy","2 5 1 4","Lentiform Loewenfeld","3.3.12","0","n","0","left","right","right","left","NA","834","220918","221808","834","NA","2","legacy","4","1024","2","48000","-16","experiment","3","odd","6","696466","693063","520776","694254","4242","694258","674876","4250","298966","698471","699306","695263","225170","698471","NA","Sternberg Task","37","25806","42","yes","1024"
"88.37209302325581","88.37209302325581","612.0930232558139","612.0930232558139","black","experiment","legacy","legacy","legacy","0","uniform","1","undefined","1","right","42","42","0","42","0","42","42","0","0","42","42","42","0","42","0","Tue Oct 18 10:44:35 2022","The main experiment item","yes","SternbergTask.osexp","C:\Users\Austin\Documents\PSYC 5316\Lab 3","no","mono","no","18","no","white","no","yes","768","legacy","30","11","C:/Users/Austin/Documents/PSYC 5316/Lab 3/AH-subject-3.csv","legacy","4 2 6 9","Lentiform Loewenfeld","3.3.12","0","n","0","right","right","right","right","NA","514","220918","221808","514","NA","2","legacy","4","1024","2","48000","-16","experiment","3","odd","7","702678","693063","520776","700468","4242","700472","699315","4250","298966","704682","705197","701475","225170","704682","NA","Sternberg Task","38","26320","43","yes","1024"
"88.63636363636364","88.63636363636364","612.7272727272727","612.7272727272727","black","experiment","legacy","legacy","legacy","0","uniform","1","undefined","1","right","43","43","0","43","0","43","43","0","0","43","43","43","0","43","0","Tue Oct 18 10:44:35 2022","The main experiment item","yes","SternbergTask.osexp","C:\Users\Austin\Documents\PSYC 5316\Lab 3","no","mono","no","18","no","white","no","yes","768","legacy","31","11","C:/Users/Austin/Documents/PSYC 5316/Lab 3/AH-subject-3.csv","legacy","6 2 9 3 8 4","Lentiform Loewenfeld","3.3.12","0","n","0","right","right","right","right","NA","640","220918","221808","640","NA","2","legacy","6","1024","2","48000","-16","experiment","3","odd","1","708609","705205","520776","706397","4242","706401","699315","4250","298966","710615","711257","707405","225170","710614","NA","Sternberg Task","39","26960","44","yes","1024"
"88.88888888888889","88.88888888888889","612.6888888888889","612.6888888888889","black","experiment","legacy","legacy","legacy","0","uniform","1","undefined","1","left","44","44","0","44","0","44","44","0","0","44","44","44","0","44","0","Tue Oct 18 10:44:35 2022","The main experiment item","yes","SternbergTask.osexp","C:\Users\Austin\Documents\PSYC 5316\Lab 3","no","mono","no","18","no","white","no","yes","768","legacy","32","11","C:/Users/Austin/Documents/PSYC 5316/Lab 3/AH-subject-3.csv","legacy","2 5 4 8 7","Lentiform Loewenfeld","3.3.12","3","y","0","left","right","right","left","NA","611","220918","221808","611","NA","2","legacy","5","1024","2","48000","-16","experiment","3","odd","4","714629","711267","520776","712416","4242","712420","699315","4250","298966","716633","717245","713424","225170","716633","NA","Sternberg Task","40","27571","45","yes","1024"
"89.1304347826087","89.1304347826087","625.7173913043479","625.7173913043479","black","experiment","legacy","legacy","legacy","0","uniform","1","undefined","1","right","45","45","0","45","0","45","45","0","0","45","45","45","0","45","0","Tue Oct 18 10:44:35 2022","The main experiment item","yes","SternbergTask.osexp","C:\Users\Austin\Documents\PSYC 5316\Lab 3","no","mono","no","18","no","white","no","yes","768","legacy","33","11","C:/Users/Austin/Documents/PSYC 5316/Lab 3/AH-subject-3.csv","legacy","7 1 8 4 9 3","Lentiform Loewenfeld","3.3.12","0","n","0","right","right","right","right","NA","1212","220918","221808","1212","NA","2","legacy","6","1024","2","48000","-16","experiment","3","odd","6","720656","717253","520776","718442","4242","718447","699315","4250","298966","722659","723872","719451","225170","722659","NA","Sternberg Task","41","28783","46","yes","1024"
"89.36170212765957","89.36170212765957","624.3404255319149","624.3404255319149","black","experiment","legacy","legacy","legacy","0","uniform","1","undefined","1","left","46","46","0","46","0","46","46","0","0","46","46","46","0","46","0","Tue Oct 18 10:44:35 2022","The main experiment item","yes","SternbergTask.osexp","C:\Users\Austin\Documents\PSYC 5316\Lab 3","no","mono","no","18","no","white","no","yes","768","legacy","34","11","C:/Users/Austin/Documents/PSYC 5316/Lab 3/AH-subject-3.csv","legacy","8 3","Lentiform Loewenfeld","3.3.12","2","y","0","left","right","right","left","NA","561","220918","221808","561","NA","2","legacy","2","1024","2","48000","-16","experiment","3","odd","3","727251","723880","520776","725039","4242","725043","699315","4250","298966","729254","729816","726047","225170","729254","NA","Sternberg Task","42","29344","47","yes","1024"
"89.58333333333333","89.58333333333333","644.9166666666666","644.9166666666666","black","experiment","legacy","legacy","legacy","0","uniform","1","undefined","1","right","47","47","0","47","0","47","47","0","0","47","47","47","0","47","0","Tue Oct 18 10:44:35 2022","The main experiment item","yes","SternbergTask.osexp","C:\Users\Austin\Documents\PSYC 5316\Lab 3","no","mono","no","18","no","white","no","yes","768","legacy","35","11","C:/Users/Austin/Documents/PSYC 5316/Lab 3/AH-subject-3.csv","legacy","5 3 8 7 2 4","Lentiform Loewenfeld","3.3.12","0","n","0","right","right","right","right","NA","1612","220918","221808","1612","NA","2","legacy","6","1024","2","48000","-16","experiment","3","odd","9","733204","729825","520776","730993","4242","730997","699315","4250","298966","735207","736821","732000","225170","735207","NA","Sternberg Task","43","30956","48","yes","1024"
"89.79591836734694","89.79591836734694","642.5510204081633","642.5510204081633","black","experiment","legacy","legacy","legacy","0","uniform","1","undefined","1","left","48","48","0","48","0","48","48","0","0","48","48","48","0","48","0","Tue Oct 18 10:44:35 2022","The main experiment item","yes","SternbergTask.osexp","C:\Users\Austin\Documents\PSYC 5316\Lab 3","no","mono","no","18","no","white","no","yes","768","legacy","36","11","C:/Users/Austin/Documents/PSYC 5316/Lab 3/AH-subject-3.csv","legacy","3 2 1 4 7","Lentiform Loewenfeld","3.3.12","2","y","0","left","right","right","left","NA","529","220918","221808","529","NA","2","legacy","5","1024","2","48000","-16","experiment","3","odd","2","740195","736830","520776","737983","4242","737987","699315","4250","298966","742201","742732","738991","225170","742201","NA","Sternberg Task","44","31485","49","yes","1024"
"90","90","645.18","645.18","black","experiment","legacy","legacy","legacy","0","uniform","1","undefined","1","right","49","49","0","49","0","49","49","0","0","49","49","49","0","49","0","Tue Oct 18 10:44:35 2022","The main experiment item","yes","SternbergTask.osexp","C:\Users\Austin\Documents\PSYC 5316\Lab 3","no","mono","no","18","no","white","no","yes","768","legacy","37","11","C:/Users/Austin/Documents/PSYC 5316/Lab 3/AH-subject-3.csv","legacy","5 9 2 3","Lentiform Loewenfeld","3.3.12","0","n","0","right","right","right","right","NA","774","220918","221808","774","NA","2","legacy","4","1024","2","48000","-16","experiment","3","odd","8","746129","742740","520776","743916","4242","743920","699315","4250","298966","748134","748909","744924","225170","748134","NA","Sternberg Task","45","32259","50","yes","1024"
"90.19607843137256","90.19607843137256","646.3137254901961","646.3137254901961","black","experiment","legacy","legacy","legacy","0","uniform","1","undefined","1","left","50","50","0","50","0","50","50","0","0","50","50","50","0","50","0","Tue Oct 18 10:44:35 2022","The main experiment item","yes","SternbergTask.osexp","C:\Users\Austin\Documents\PSYC 5316\Lab 3","no","mono","no","18","no","white","no","yes","768","legacy","38","11","C:/Users/Austin/Documents/PSYC 5316/Lab 3/AH-subject-3.csv","legacy","9 1 6 7 8","Lentiform Loewenfeld","3.3.12","1","y","0","left","right","right","left","NA","703","220918","221808","703","NA","2","legacy","5","1024","2","48000","-16","experiment","3","odd","9","752283","748918","520776","750071","4242","750075","699315","4250","298966","754286","754990","751078","225170","754286","NA","Sternberg Task","46","32962","51","yes","1024"
"90.38461538461539","90.38461538461539","641.25","641.25","black","experiment","legacy","legacy","legacy","0","uniform","1","undefined","1","left","51","51","0","51","0","51","51","0","0","51","51","51","0","51","0","Tue Oct 18 10:44:35 2022","The main experiment item","yes","SternbergTask.osexp","C:\Users\Austin\Documents\PSYC 5316\Lab 3","no","mono","no","18","no","white","no","yes","768","legacy","39","11","C:/Users/Austin/Documents/PSYC 5316/Lab 3/AH-subject-3.csv","legacy","3 5 9 6 2 4","Lentiform Loewenfeld","3.3.12","1","y","0","left","right","right","left","NA","383","220918","221808","383","NA","2","legacy","6","1024","2","48000","-16","experiment","3","odd","3","758385","754999","520776","756171","4242","756174","699315","4250","298966","760389","760773","757179","225170","760389","NA","Sternberg Task","47","33345","52","yes","1024"
"90.56603773584905","90.56603773584905","639.6037735849056","639.6037735849056","black","experiment","legacy","legacy","legacy","0","uniform","1","undefined","1","right","52","52","0","52","0","52","52","0","0","52","52","52","0","52","0","Tue Oct 18 10:44:35 2022","The main experiment item","yes","SternbergTask.osexp","C:\Users\Austin\Documents\PSYC 5316\Lab 3","no","mono","no","18","no","white","no","yes","768","legacy","40","11","C:/Users/Austin/Documents/PSYC 5316/Lab 3/AH-subject-3.csv","legacy","8 6 3 4 7","Lentiform Loewenfeld","3.3.12","0","n","0","right","right","right","right","NA","554","220918","221808","554","NA","2","legacy","5","1024","2","48000","-16","experiment","3","odd","1","764140","760781","520776","761929","4242","761933","699315","4250","298966","766145","766701","762936","225170","766144","NA","Sternberg Task","48","33899","53","yes","1024"
"90.74074074074075","90.74074074074075","640.7777777777778","640.7777777777778","black","experiment","legacy","legacy","legacy","0","uniform","1","undefined","1","left","53","53","0","53","0","53","53","0","0","53","53","53","0","53","0","Tue Oct 18 10:44:35 2022","The main experiment item","yes","SternbergTask.osexp","C:\Users\Austin\Documents\PSYC 5316\Lab 3","no","mono","no","18","no","white","no","yes","768","legacy","41","11","C:/Users/Austin/Documents/PSYC 5316/Lab 3/AH-subject-3.csv","legacy","8 9 6 1","Lentiform Loewenfeld","3.3.12","2","y","0","left","right","right","left","NA","703","220918","221808","703","NA","2","legacy","4","1024","2","48000","-16","experiment","3","odd","9","770078","766710","520776","767866","4242","767869","699315","4250","298966","772083","772788","768874","225170","772083","NA","Sternberg Task","49","34602","54","yes","1024"
"90.9090909090909","90.9090909090909","639.1818181818181","639.1818181818181","black","experiment","legacy","legacy","legacy","0","uniform","1","undefined","1","left","54","54","0","54","0","54","54","0","0","54","54","54","0","54","0","Tue Oct 18 10:44:35 2022","The main experiment item","yes","SternbergTask.osexp","C:\Users\Austin\Documents\PSYC 5316\Lab 3","no","mono","no","18","no","white","no","yes","768","legacy","42","11","C:/Users/Austin/Documents/PSYC 5316/Lab 3/AH-subject-3.csv","legacy","6 2","Lentiform Loewenfeld","3.3.12","1","y","0","left","right","right","left","NA","553","220918","221808","553","NA","2","legacy","2","1024","2","48000","-16","experiment","3","odd","6","776183","772797","520776","773970","4242","773975","699315","4250","298966","778188","778742","774979","225170","778187","NA","Sternberg Task","50","35155","55","yes","1024"
"91.07142857142857","91.07142857142857","638.6785714285714","638.6785714285714","black","experiment","legacy","legacy","legacy","0","uniform","1","undefined","1","right","55","55","0","55","0","55","55","0","0","55","55","55","0","55","0","Tue Oct 18 10:44:35 2022","The main experiment item","yes","SternbergTask.osexp","C:\Users\Austin\Documents\PSYC 5316\Lab 3","no","mono","no","18","no","white","no","yes","768","legacy","43","11","C:/Users/Austin/Documents/PSYC 5316/Lab 3/AH-subject-3.csv","legacy","2 3 8 5 6 7","Lentiform Loewenfeld","3.3.12","0","n","0","right","right","right","right","NA","611","220918","221808","611","NA","2","legacy","6","1024","2","48000","-16","experiment","3","odd","1","782153","778752","520776","779941","4242","779945","699315","4250","298966","784159","784772","780949","225170","784159","NA","Sternberg Task","51","35766","56","yes","1024"
"91.2280701754386","91.2280701754386","633.6842105263158","633.6842105263158","black","experiment","legacy","legacy","legacy","0","uniform","1","undefined","1","left","56","56","0","56","0","56","56","0","0","56","56","56","0","56","0","Tue Oct 18 10:44:35 2022","The main experiment item","yes","SternbergTask.osexp","C:\Users\Austin\Documents\PSYC 5316\Lab 3","no","mono","no","18","no","white","no","yes","768","legacy","44","11","C:/Users/Austin/Documents/PSYC 5316/Lab 3/AH-subject-3.csv","legacy","1 4 9 3 2 5","Lentiform Loewenfeld","3.3.12","3","y","0","left","right","right","left","NA","354","220918","221808","354","NA","2","legacy","6","1024","2","48000","-16","experiment","3","odd","9","788175","784781","520776","785962","4242","785967","699315","4250","298966","790178","790533","786970","225170","790178","NA","Sternberg Task","52","36120","57","yes","1024"
"91.37931034482759","91.37931034482759","640.5344827586207","640.5344827586207","black","experiment","legacy","legacy","legacy","0","uniform","1","undefined","1","right","57","57","0","57","0","57","57","0","0","57","57","57","0","57","0","Tue Oct 18 10:44:35 2022","The main experiment item","yes","SternbergTask.osexp","C:\Users\Austin\Documents\PSYC 5316\Lab 3","no","mono","no","18","no","white","no","yes","768","legacy","45","11","C:/Users/Austin/Documents/PSYC 5316/Lab 3/AH-subject-3.csv","legacy","6 7 5 9","Lentiform Loewenfeld","3.3.12","0","n","0","right","right","right","right","NA","1031","220918","221808","1031","NA","2","legacy","4","1024","2","48000","-16","experiment","3","odd","2","793928","790541","520776","791715","4242","791719","699315","4250","298966","795932","796965","792723","225170","795932","NA","Sternberg Task","53","37151","58","yes","1024"
"89.83050847457628","89.83050847457628","637.0338983050848","637.0338983050848","black","experiment","legacy","legacy","legacy","0","uniform","0","undefined","0","right","58","58","0","58","0","58","58","0","0","58","58","58","0","58","0","Tue Oct 18 10:44:35 2022","The main experiment item","yes","SternbergTask.osexp","C:\Users\Austin\Documents\PSYC 5316\Lab 3","no","mono","no","18","no","white","no","yes","768","legacy","46","11","C:/Users/Austin/Documents/PSYC 5316/Lab 3/AH-subject-3.csv","legacy","2 6 4 3 9","Lentiform Loewenfeld","3.3.12","0","n","0","left","right","right","left","NA","434","220918","221808","434","NA","2","legacy","5","1024","2","48000","-16","experiment","3","odd","1","800357","796976","520776","798144","4242","798148","699315","4250","298966","802360","802796","799151","225170","802360","NA","Sternberg Task","53","37585","59","yes","1024"
"90","90","636.6666666666666","636.6666666666666","black","experiment","legacy","legacy","legacy","0","uniform","1","undefined","1","right","59","59","0","59","0","59","59","0","0","59","59","59","0","59","0","Tue Oct 18 10:44:35 2022","The main experiment item","yes","SternbergTask.osexp","C:\Users\Austin\Documents\PSYC 5316\Lab 3","no","mono","no","18","no","white","no","yes","768","legacy","47","11","C:/Users/Austin/Documents/PSYC 5316/Lab 3/AH-subject-3.csv","legacy","1 4 3 6 5","Lentiform Loewenfeld","3.3.12","0","n","0","right","right","right","right","NA","615","220918","221808","615","NA","2","legacy","5","1024","2","48000","-16","experiment","3","odd","8","806164","796976","520776","803952","4242","803956","802805","4250","298966","808168","808784","804960","225170","808168","NA","Sternberg Task","54","38200","60","yes","1024"
"90.1639344262295","90.1639344262295","637.5901639344262","637.5901639344262","black","experiment","legacy","legacy","legacy","0","uniform","1","undefined","1","right","60","60","0","60","0","60","60","0","0","60","60","60","0","60","0","Tue Oct 18 10:44:35 2022","The main experiment item","yes","SternbergTask.osexp","C:\Users\Austin\Documents\PSYC 5316\Lab 3","no","mono","no","18","no","white","no","yes","768","legacy","48","11","C:/Users/Austin/Documents/PSYC 5316/Lab 3/AH-subject-3.csv","legacy","6 8","Lentiform Loewenfeld","3.3.12","0","n","0","right","right","right","right","NA","693","220918","221808","693","NA","2","legacy","2","1024","2","48000","-16","experiment","3","odd","9","812179","808794","520776","809967","4242","809971","802805","4250","298966","814181","814876","810975","225170","814181","NA","Sternberg Task","55","38893","61","yes","1024"
"88.70967741935483","88.70967741935483","635.0967741935484","635.0967741935484","black","experiment","legacy","legacy","legacy","0","uniform","0","undefined","0","right","61","61","0","61","0","61","61","0","0","61","61","61","0","61","0","Tue Oct 18 10:44:35 2022","The main experiment item","yes","SternbergTask.osexp","C:\Users\Austin\Documents\PSYC 5316\Lab 3","no","mono","no","18","no","white","no","yes","768","legacy","49","11","C:/Users/Austin/Documents/PSYC 5316/Lab 3/AH-subject-3.csv","legacy","2 8 7 9 5 3","Lentiform Loewenfeld","3.3.12","0","n","0","left","right","right","left","NA","483","220918","221808","483","NA","2","legacy","6","1024","2","48000","-16","experiment","3","odd","6","818262","814887","520776","816049","4242","816053","802805","4250","298966","820267","820752","817058","225170","820266","NA","Sternberg Task","55","39376","62","yes","1024"
"88.88888888888889","88.88888888888889","633.9047619047619","633.9047619047619","black","experiment","legacy","legacy","legacy","0","uniform","1","undefined","1","right","62","62","0","62","0","62","62","0","0","62","62","62","0","62","0","Tue Oct 18 10:44:35 2022","The main experiment item","yes","SternbergTask.osexp","C:\Users\Austin\Documents\PSYC 5316\Lab 3","no","mono","no","18","no","white","no","yes","768","legacy","50","11","C:/Users/Austin/Documents/PSYC 5316/Lab 3/AH-subject-3.csv","legacy","7 8 6 1","Lentiform Loewenfeld","3.3.12","0","n","0","right","right","right","right","NA","560","220918","221808","560","NA","2","legacy","4","1024","2","48000","-16","experiment","3","odd","3","824145","814887","520776","821932","4242","821937","820761","4250","298966","826149","826710","822941","225170","826149","NA","Sternberg Task","56","39936","63","yes","1024"
"89.0625","89.0625","632.171875","632.171875","black","experiment","legacy","legacy","legacy","0","uniform","1","undefined","1","right","63","63","0","63","0","63","63","0","0","63","63","63","0","63","0","Tue Oct 18 10:44:35 2022","The main experiment item","yes","SternbergTask.osexp","C:\Users\Austin\Documents\PSYC 5316\Lab 3","no","mono","no","18","no","white","no","yes","768","legacy","51","11","C:/Users/Austin/Documents/PSYC 5316/Lab 3/AH-subject-3.csv","legacy","3 4 2","Lentiform Loewenfeld","3.3.12","0","n","0","right","right","right","right","NA","523","220918","221808","523","NA","2","legacy","3","1024","2","48000","-16","experiment","3","odd","5","830102","826719","520776","827891","4242","827895","820761","4250","298966","832106","832631","828898","225170","832106","NA","Sternberg Task","57","40459","64","yes","1024"
"89.23076923076923","89.23076923076923","636.5076923076923","636.5076923076923","black","experiment","legacy","legacy","legacy","0","uniform","1","undefined","1","left","64","64","0","64","0","64","64","0","0","64","64","64","0","64","0","Tue Oct 18 10:44:35 2022","The main experiment item","yes","SternbergTask.osexp","C:\Users\Austin\Documents\PSYC 5316\Lab 3","no","mono","no","18","no","white","no","yes","768","legacy","52","11","C:/Users/Austin/Documents/PSYC 5316/Lab 3/AH-subject-3.csv","legacy","8 5 3 7 4 6","Lentiform Loewenfeld","3.3.12","6","y","0","left","right","right","left","NA","914","220918","221808","914","NA","2","legacy","6","1024","2","48000","-16","experiment","3","odd","6","836016","832639","520776","833802","4242","833807","820761","4250","298966","838019","838935","834811","225170","838019","NA","Sternberg Task","58","41373","65","yes","1024"
"87.87878787878788","87.87878787878788","657.1666666666666","657.1666666666666","black","experiment","legacy","legacy","legacy","0","uniform","0","undefined","0","right","65","65","0","65","0","65","65","0","0","65","65","65","0","65","0","Tue Oct 18 10:44:35 2022","The main experiment item","yes","SternbergTask.osexp","C:\Users\Austin\Documents\PSYC 5316\Lab 3","no","mono","no","18","no","white","no","yes","768","legacy","53","11","C:/Users/Austin/Documents/PSYC 5316/Lab 3/AH-subject-3.csv","legacy","9","Lentiform Loewenfeld","3.3.12","0","n","0","None","right","right","None","NA","2000","220918","221808","2000","NA","2","legacy","1","1024","2","48000","-16","experiment","3","odd","6","842307","838943","520776","840096","4242","840099","820761","4250","298966","844311","846312","841103","225170","844311","NA","Sternberg Task","58","43373","66","yes","1024"
"88.05970149253731","88.05970149253731","654.8656716417911","654.8656716417911","black","experiment","legacy","legacy","legacy","0","uniform","1","undefined","1","right","66","66","0","66","0","66","66","0","0","66","66","66","0","66","0","Tue Oct 18 10:44:35 2022","The main experiment item","yes","SternbergTask.osexp","C:\Users\Austin\Documents\PSYC 5316\Lab 3","no","mono","no","18","no","white","no","yes","768","legacy","54","11","C:/Users/Austin/Documents/PSYC 5316/Lab 3/AH-subject-3.csv","legacy","6 9 4 5 3 2","Lentiform Loewenfeld","3.3.12","0","n","0","right","right","right","right","NA","503","220918","221808","503","NA","2","legacy","6","1024","2","48000","-16","experiment","3","odd","8","849741","838943","520776","847529","4242","847533","846320","4250","298966","851747","852251","848537","225170","851747","NA","Sternberg Task","59","43876","67","yes","1024"
"88.23529411764706","88.23529411764706","652.7941176470588","652.7941176470588","black","experiment","legacy","legacy","legacy","0","uniform","1","undefined","1","left","67","67","0","67","0","67","67","0","0","67","67","67","0","67","0","Tue Oct 18 10:44:35 2022","The main experiment item","yes","SternbergTask.osexp","C:\Users\Austin\Documents\PSYC 5316\Lab 3","no","mono","no","18","no","white","no","yes","768","legacy","55","11","C:/Users/Austin/Documents/PSYC 5316/Lab 3/AH-subject-3.csv","legacy","4","Lentiform Loewenfeld","3.3.12","1","y","0","left","right","right","left","NA","514","220918","221808","514","NA","2","legacy","1","1024","2","48000","-16","experiment","3","odd","4","855660","852259","520776","853447","4242","853452","846320","4250","298966","857663","858179","854455","225170","857663","NA","Sternberg Task","60","44390","68","yes","1024"
"88.40579710144928","88.40579710144928","650.3768115942029","650.3768115942029","black","experiment","legacy","legacy","legacy","0","uniform","1","undefined","1","left","68","68","0","68","0","68","68","0","0","68","68","68","0","68","0","Tue Oct 18 10:44:35 2022","The main experiment item","yes","SternbergTask.osexp","C:\Users\Austin\Documents\PSYC 5316\Lab 3","no","mono","no","18","no","white","no","yes","768","legacy","56","11","C:/Users/Austin/Documents/PSYC 5316/Lab 3/AH-subject-3.csv","legacy","7","Lentiform Loewenfeld","3.3.12","1","y","0","left","right","right","left","NA","486","220918","221808","486","NA","2","legacy","1","1024","2","48000","-16","experiment","3","odd","7","861563","858187","520776","859352","4242","859356","846320","4250","298966","863568","864056","860359","225170","863567","NA","Sternberg Task","61","44876","69","yes","1024"
"87.14285714285714","87.14285714285714","649.0285714285715","649.0285714285715","black","experiment","legacy","legacy","legacy","0","uniform","0","undefined","0","left","69","69","0","69","0","69","69","0","0","69","69","69","0","69","0","Tue Oct 18 10:44:35 2022","The main experiment item","yes","SternbergTask.osexp","C:\Users\Austin\Documents\PSYC 5316\Lab 3","no","mono","no","18","no","white","no","yes","768","legacy","57","11","C:/Users/Austin/Documents/PSYC 5316/Lab 3/AH-subject-3.csv","legacy","9 3 1 2 5","Lentiform Loewenfeld","3.3.12","4","y","0","right","right","right","right","NA","556","220918","221808","556","NA","2","legacy","5","1024","2","48000","-16","experiment","3","odd","2","867456","864065","520776","865244","4242","865249","846320","4250","298966","869459","870017","866252","225170","869459","NA","Sternberg Task","61","45432","70","yes","1024"
"87.32394366197182","87.32394366197182","647.9154929577464","647.9154929577464","black","experiment","legacy","legacy","legacy","0","uniform","1","undefined","1","right","70","70","0","70","0","70","70","0","0","70","70","70","0","70","0","Tue Oct 18 10:44:35 2022","The main experiment item","yes","SternbergTask.osexp","C:\Users\Austin\Documents\PSYC 5316\Lab 3","no","mono","no","18","no","white","no","yes","768","legacy","58","11","C:/Users/Austin/Documents/PSYC 5316/Lab 3/AH-subject-3.csv","legacy","1 7 8 3 9","Lentiform Loewenfeld","3.3.12","0","n","0","right","right","right","right","NA","570","220918","221808","570","NA","2","legacy","5","1024","2","48000","-16","experiment","3","odd","2","873429","864065","520776","871217","4242","871221","870027","4250","298966","875433","876005","872225","225170","875433","NA","Sternberg Task","62","46002","71","yes","1024"
"87.5","87.5","645.5555555555555","645.5555555555555","black","experiment","legacy","legacy","legacy","0","uniform","1","undefined","1","left","71","71","0","71","0","71","71","0","0","71","71","71","0","71","0","Tue Oct 18 10:44:35 2022","The main experiment item","yes","SternbergTask.osexp","C:\Users\Austin\Documents\PSYC 5316\Lab 3","no","mono","no","18","no","white","no","yes","768","legacy","59","11","C:/Users/Austin/Documents/PSYC 5316/Lab 3/AH-subject-3.csv","legacy","3 5 4 7","Lentiform Loewenfeld","3.3.12","1","y","0","left","right","right","left","NA","478","220918","221808","478","NA","2","legacy","4","1024","2","48000","-16","experiment","3","odd","3","879401","876014","520776","877187","4242","877192","870027","4250","298966","881405","881885","878196","225170","881405","NA","Sternberg Task","63","46480","72","yes","1024"
"87.67123287671232","87.67123287671232","643.2054794520548","643.2054794520548","black","experiment","legacy","legacy","legacy","0","uniform","1","undefined","1","left","72","72","0","72","0","72","72","0","0","72","72","72","0","72","0","Tue Oct 18 10:44:35 2022","The main experiment item","yes","SternbergTask.osexp","C:\Users\Austin\Documents\PSYC 5316\Lab 3","no","mono","no","18","no","white","no","yes","768","legacy","60","11","C:/Users/Austin/Documents/PSYC 5316/Lab 3/AH-subject-3.csv","legacy","4 1 5","Lentiform Loewenfeld","3.3.12","2","y","0","left","right","right","left","NA","474","220918","221808","474","NA","2","legacy","3","1024","2","48000","-16","experiment","3","odd","1","885279","881893","520776","883065","4242","883069","870027","4250","298966","887284","887760","884074","225170","887284","NA","Sternberg Task","64","46954","73","yes","1024"
"87.83783783783784","87.83783783783784","640.8648648648649","640.8648648648649","black","experiment","legacy","legacy","legacy","0","uniform","1","undefined","1","right","73","73","0","73","0","73","73","0","0","73","73","73","0","73","0","Tue Oct 18 10:44:35 2022","The main experiment item","yes","SternbergTask.osexp","C:\Users\Austin\Documents\PSYC 5316\Lab 3","no","mono","no","18","no","white","no","yes","768","legacy","61","11","C:/Users/Austin/Documents/PSYC 5316/Lab 3/AH-subject-3.csv","legacy","5","Lentiform Loewenfeld","3.3.12","0","n","0","right","right","right","right","NA","470","220918","221808","470","NA","2","legacy","1","1024","2","48000","-16","experiment","3","odd","8","891133","887770","520776","888921","4242","888925","870027","4250","298966","893138","893610","889929","225170","893138","NA","Sternberg Task","65","47424","74","yes","1024"
"88","88","639.7866666666666","639.7866666666666","black","experiment","legacy","legacy","legacy","0","uniform","1","undefined","1","right","74","74","0","74","0","74","74","0","0","74","74","74","0","74","0","Tue Oct 18 10:44:35 2022","The main experiment item","yes","SternbergTask.osexp","C:\Users\Austin\Documents\PSYC 5316\Lab 3","no","mono","no","18","no","white","no","yes","768","legacy","62","11","C:/Users/Austin/Documents/PSYC 5316/Lab 3/AH-subject-3.csv","legacy","8 4 3 9","Lentiform Loewenfeld","3.3.12","0","n","0","right","right","right","right","NA","560","220918","221808","560","NA","2","legacy","4","1024","2","48000","-16","experiment","3","odd","5","896994","893619","520776","894782","4242","894787","870027","4250","298966","898996","899557","895791","225170","898996","NA","Sternberg Task","66","47984","75","yes","1024"
"88.15789473684211","88.15789473684211","638.078947368421","638.078947368421","black","experiment","legacy","legacy","legacy","0","uniform","1","undefined","1","left","75","75","0","75","0","75","75","0","0","75","75","75","0","75","0","Tue Oct 18 10:44:35 2022","The main experiment item","yes","SternbergTask.osexp","C:\Users\Austin\Documents\PSYC 5316\Lab 3","no","mono","no","18","no","white","no","yes","768","legacy","63","11","C:/Users/Austin/Documents/PSYC 5316/Lab 3/AH-subject-3.csv","legacy","5 7 8 2 3 8","Lentiform Loewenfeld","3.3.12","5","y","0","left","right","right","left","NA","510","220918","221808","510","NA","2","legacy","6","1024","2","48000","-16","experiment","3","odd","3","902943","899566","520776","900732","4242","900736","870027","4250","298966","904948","905459","901739","225170","904947","NA","Sternberg Task","67","48494","76","yes","1024"
"88.31168831168831","88.31168831168831","636.6493506493506","636.6493506493506","black","experiment","legacy","legacy","legacy","0","uniform","1","undefined","1","right","76","76","0","76","0","76","76","0","0","76","76","76","0","76","0","Tue Oct 18 10:44:35 2022","The main experiment item","yes","SternbergTask.osexp","C:\Users\Austin\Documents\PSYC 5316\Lab 3","no","mono","no","18","no","white","no","yes","768","legacy","64","11","C:/Users/Austin/Documents/PSYC 5316/Lab 3/AH-subject-3.csv","legacy","8 2 1 4 5 9","Lentiform Loewenfeld","3.3.12","0","n","0","right","right","right","right","NA","528","220918","221808","528","NA","2","legacy","6","1024","2","48000","-16","experiment","3","odd","7","908836","905469","520776","906624","4242","906628","870027","4250","298966","910840","911369","907631","225170","910840","NA","Sternberg Task","68","49022","77","yes","1024"
"88.46153846153847","88.46153846153847","633.8076923076923","633.8076923076923","black","experiment","legacy","legacy","legacy","0","uniform","1","undefined","1","left","77","77","0","77","0","77","77","0","0","77","77","77","0","77","0","Tue Oct 18 10:44:35 2022","The main experiment item","yes","SternbergTask.osexp","C:\Users\Austin\Documents\PSYC 5316\Lab 3","no","mono","no","18","no","white","no","yes","768","legacy","65","11","C:/Users/Austin/Documents/PSYC 5316/Lab 3/AH-subject-3.csv","legacy","5 2 9 6 1 7","Lentiform Loewenfeld","3.3.12","3","y","0","left","right","right","left","NA","415","220918","221808","415","NA","2","legacy","6","1024","2","48000","-16","experiment","3","odd","9","914762","911377","520776","912549","4242","912553","870027","4250","298966","916765","917181","913558","225170","916765","NA","Sternberg Task","69","49437","78","yes","1024"
"88.60759493670886","88.60759493670886","634.0759493670886","634.0759493670886","black","experiment","legacy","legacy","legacy","0","uniform","1","undefined","1","right","78","78","0","78","0","78","78","0","0","78","78","78","0","78","0","Tue Oct 18 10:44:35 2022","The main experiment item","yes","SternbergTask.osexp","C:\Users\Austin\Documents\PSYC 5316\Lab 3","no","mono","no","18","no","white","no","yes","768","legacy","66","11","C:/Users/Austin/Documents/PSYC 5316/Lab 3/AH-subject-3.csv","legacy","7 9","Lentiform Loewenfeld","3.3.12","0","n","0","right","right","right","right","NA","655","220918","221808","655","NA","2","legacy","2","1024","2","48000","-16","experiment","3","odd","1","920568","917188","520776","918354","4242","918359","870027","4250","298966","922572","923229","919363","225170","922572","NA","Sternberg Task","70","50092","79","yes","1024"
"88.75","88.75","632.5625","632.5625","black","experiment","legacy","legacy","legacy","0","uniform","1","undefined","1","left","79","79","0","79","0","79","79","0","0","79","79","79","0","79","0","Tue Oct 18 10:44:35 2022","The main experiment item","yes","SternbergTask.osexp","C:\Users\Austin\Documents\PSYC 5316\Lab 3","no","mono","no","18","no","white","no","yes","768","legacy","67","11","C:/Users/Austin/Documents/PSYC 5316/Lab 3/AH-subject-3.csv","legacy","2 6 1 7 4","Lentiform Loewenfeld","3.3.12","2","y","0","left","right","right","left","NA","513","220918","221808","513","NA","2","legacy","5","1024","2","48000","-16","experiment","3","odd","6","926639","923236","520776","924428","4242","924433","870027","4250","298966","928643","929158","925436","225170","928643","NA","Sternberg Task","71","50605","80","yes","1024"
"88.88888888888889","88.88888888888889","630.3086419753087","630.3086419753087","black","experiment","legacy","legacy","legacy","0","uniform","1","undefined","1","left","80","80","0","80","0","80","80","0","0","80","80","80","0","80","0","Tue Oct 18 10:44:35 2022","The main experiment item","yes","SternbergTask.osexp","C:\Users\Austin\Documents\PSYC 5316\Lab 3","no","mono","no","18","no","white","no","yes","768","legacy","68","11","C:/Users/Austin/Documents/PSYC 5316/Lab 3/AH-subject-3.csv","legacy","8 5 1 3 9","Lentiform Loewenfeld","3.3.12","4","y","0","left","right","right","left","NA","450","220918","221808","450","NA","2","legacy","5","1024","2","48000","-16","experiment","3","odd","3","932546","929166","520776","930334","4242","930338","870027","4250","298966","934550","935002","931342","225170","934550","NA","Sternberg Task","72","51055","81","yes","1024"
"89.02439024390245","89.02439024390245","644.890243902439","644.890243902439","black","experiment","legacy","legacy","legacy","0","uniform","1","undefined","1","left","81","81","0","81","0","81","81","0","0","81","81","81","0","81","0","Tue Oct 18 10:44:35 2022","The main experiment item","yes","SternbergTask.osexp","C:\Users\Austin\Documents\PSYC 5316\Lab 3","no","mono","no","18","no","white","no","yes","768","legacy","69","11","C:/Users/Austin/Documents/PSYC 5316/Lab 3/AH-subject-3.csv","legacy","4 1 8 7 5","Lentiform Loewenfeld","3.3.12","3","y","0","left","right","right","left","NA","1826","220918","221808","1826","NA","2","legacy","5","1024","2","48000","-16","experiment","3","odd","8","938372","935010","520776","936160","4242","936164","870027","4250","298966","940376","942203","937168","225170","940375","NA","Sternberg Task","73","52881","82","yes","1024"
"89.1566265060241","89.1566265060241","643.4096385542168","643.4096385542168","black","experiment","legacy","legacy","legacy","0","uniform","1","undefined","1","right","82","82","0","82","0","82","82","0","0","82","82","82","0","82","0","Tue Oct 18 10:44:35 2022","The main experiment item","yes","SternbergTask.osexp","C:\Users\Austin\Documents\PSYC 5316\Lab 3","no","mono","no","18","no","white","no","yes","768","legacy","70","11","C:/Users/Austin/Documents/PSYC 5316/Lab 3/AH-subject-3.csv","legacy","5 2","Lentiform Loewenfeld","3.3.12","0","n","0","right","right","right","right","NA","522","220918","221808","522","NA","2","legacy","2","1024","2","48000","-16","experiment","3","odd","7","945580","942211","520776","943368","4242","943372","870027","4250","298966","947584","948108","944376","225170","947584","NA","Sternberg Task","74","53403","83","yes","1024"
"89.28571428571429","89.28571428571429","640.0238095238095","640.0238095238095","black","experiment","legacy","legacy","legacy","0","uniform","1","undefined","1","left","83","83","0","83","0","83","83","0","0","83","83","83","0","83","0","Tue Oct 18 10:44:35 2022","The main experiment item","yes","SternbergTask.osexp","C:\Users\Austin\Documents\PSYC 5316\Lab 3","no","mono","no","18","no","white","no","yes","768","legacy","71","11","C:/Users/Austin/Documents/PSYC 5316/Lab 3/AH-subject-3.csv","legacy","7 1 8 5 6 2","Lentiform Loewenfeld","3.3.12","2","y","0","left","right","right","left","NA","359","220918","221808","359","NA","2","legacy","6","1024","2","48000","-16","experiment","3","odd","1","951481","948118","520776","949268","4242","949272","870027","4250","298966","953484","953846","950277","225170","953484","NA","Sternberg Task","75","53762","84","yes","1024"
"89.41176470588235","89.41176470588235","639.0588235294117","639.0588235294117","black","experiment","legacy","legacy","legacy","0","uniform","1","undefined","1","right","84","84","0","84","0","84","84","0","0","84","84","84","0","84","0","Tue Oct 18 10:44:35 2022","The main experiment item","yes","SternbergTask.osexp","C:\Users\Austin\Documents\PSYC 5316\Lab 3","no","mono","no","18","no","white","no","yes","768","legacy","72","11","C:/Users/Austin/Documents/PSYC 5316/Lab 3/AH-subject-3.csv","legacy","1 4 9 3","Lentiform Loewenfeld","3.3.12","0","n","0","right","right","right","right","NA","558","220918","221808","558","NA","2","legacy","4","1024","2","48000","-16","experiment","3","odd","5","957226","953856","520776","955015","4242","955018","870027","4250","298966","959229","959788","956021","225170","959229","NA","Sternberg Task","76","54320","85","yes","1024"
"89.53488372093024","89.53488372093024","637.7790697674419","637.7790697674419","black","experiment","legacy","legacy","legacy","0","uniform","1","undefined","1","left","85","85","0","85","0","85","85","0","0","85","85","85","0","85","0","Tue Oct 18 10:44:35 2022","The main experiment item","yes","SternbergTask.osexp","C:\Users\Austin\Documents\PSYC 5316\Lab 3","no","mono","no","18","no","white","no","yes","768","legacy","73","11","C:/Users/Austin/Documents/PSYC 5316/Lab 3/AH-subject-3.csv","legacy","4 3 2 5 8","Lentiform Loewenfeld","3.3.12","2","y","0","left","right","right","left","NA","529","220918","221808","529","NA","2","legacy","5","1024","2","48000","-16","experiment","3","odd","3","963186","959798","520776","960973","4242","960977","870027","4250","298966","965191","965721","961982","225170","965190","NA","Sternberg Task","77","54849","86","yes","1024"
"89.65517241379311","89.65517241379311","635.6206896551724","635.6206896551724","black","experiment","legacy","legacy","legacy","0","uniform","1","undefined","1","left","86","86","0","86","0","86","86","0","0","86","86","86","0","86","0","Tue Oct 18 10:44:35 2022","The main experiment item","yes","SternbergTask.osexp","C:\Users\Austin\Documents\PSYC 5316\Lab 3","no","mono","no","18","no","white","no","yes","768","legacy","74","11","C:/Users/Austin/Documents/PSYC 5316/Lab 3/AH-subject-3.csv","legacy","9 1 7 2","Lentiform Loewenfeld","3.3.12","2","y","0","left","right","right","left","NA","450","220918","221808","450","NA","2","legacy","4","1024","2","48000","-16","experiment","3","odd","1","969120","965731","520776","966909","4242","966913","870027","4250","298966","971125","971577","967916","225170","971125","NA","Sternberg Task","78","55299","87","yes","1024"
"89.77272727272727","89.77272727272727","634.7159090909091","634.7159090909091","black","experiment","legacy","legacy","legacy","0","uniform","1","undefined","1","right","87","87","0","87","0","87","87","0","0","87","87","87","0","87","0","Tue Oct 18 10:44:35 2022","The main experiment item","yes","SternbergTask.osexp","C:\Users\Austin\Documents\PSYC 5316\Lab 3","no","mono","no","18","no","white","no","yes","768","legacy","75","11","C:/Users/Austin/Documents/PSYC 5316/Lab 3/AH-subject-3.csv","legacy","5 7 3","Lentiform Loewenfeld","3.3.12","0","n","0","right","right","right","right","NA","556","220918","221808","556","NA","2","legacy","3","1024","2","48000","-16","experiment","3","odd","9","974965","971586","520776","972752","4242","972756","870027","4250","298966","976969","977527","973761","225170","976969","NA","Sternberg Task","79","55855","88","yes","1024"
"88.76404494382022","88.76404494382022","631.2359550561798","631.2359550561798","black","experiment","legacy","legacy","legacy","0","uniform","0","undefined","0","right","88","88","0","88","0","88","88","0","0","88","88","88","0","88","0","Tue Oct 18 10:44:35 2022","The main experiment item","yes","SternbergTask.osexp","C:\Users\Austin\Documents\PSYC 5316\Lab 3","no","mono","no","18","no","white","no","yes","768","legacy","76","11","C:/Users/Austin/Documents/PSYC 5316/Lab 3/AH-subject-3.csv","legacy","7 4 2 8 1 9","Lentiform Loewenfeld","3.3.12","0","n","0","left","right","right","left","NA","325","220918","221808","325","NA","2","legacy","6","1024","2","48000","-16","experiment","3","odd","5","980897","977536","520776","978686","4242","978689","870027","4250","298966","982901","983228","979693","225170","982901","NA","Sternberg Task","79","56180","89","yes","1024"
"87.77777777777777","87.77777777777777","629.7555555555556","629.7555555555556","black","experiment","legacy","legacy","legacy","0","uniform","0","undefined","0","left","89","89","0","89","0","89","89","0","0","89","89","89","0","89","0","Tue Oct 18 10:44:35 2022","The main experiment item","yes","SternbergTask.osexp","C:\Users\Austin\Documents\PSYC 5316\Lab 3","no","mono","no","18","no","white","no","yes","768","legacy","77","11","C:/Users/Austin/Documents/PSYC 5316/Lab 3/AH-subject-3.csv","legacy","6 1 2","Lentiform Loewenfeld","3.3.12","3","y","0","right","right","right","right","NA","498","220918","221808","498","NA","2","legacy","3","1024","2","48000","-16","experiment","3","odd","2","986660","977536","520776","984448","4242","984452","983235","4250","298966","988664","989164","985456","225170","988664","NA","Sternberg Task","79","56678","90","yes","1024"
"87.91208791208791","87.91208791208791","626.5384615384615","626.5384615384615","black","experiment","legacy","legacy","legacy","0","uniform","1","undefined","1","left","90","90","0","90","0","90","90","0","0","90","90","90","0","90","0","Tue Oct 18 10:44:35 2022","The main experiment item","yes","SternbergTask.osexp","C:\Users\Austin\Documents\PSYC 5316\Lab 3","no","mono","no","18","no","white","no","yes","768","legacy","78","11","C:/Users/Austin/Documents/PSYC 5316/Lab 3/AH-subject-3.csv","legacy","8 5 4 7 3 1","Lentiform Loewenfeld","3.3.12","2","y","0","left","right","right","left","NA","337","220918","221808","337","NA","2","legacy","6","1024","2","48000","-16","experiment","3","odd","5","992550","977536","520776","990337","4242","990341","989172","4250","298966","994553","994892","991346","225170","994553","NA","Sternberg Task","80","57015","91","yes","1024"
"88.04347826086956","88.04347826086956","625.9347826086956","625.9347826086956","black","experiment","legacy","legacy","legacy","0","uniform","1","undefined","1","right","91","91","0","91","0","91","91","0","0","91","91","91","0","91","0","Tue Oct 18 10:44:35 2022","The main experiment item","yes","SternbergTask.osexp","C:\Users\Austin\Documents\PSYC 5316\Lab 3","no","mono","no","18","no","white","no","yes","768","legacy","79","11","C:/Users/Austin/Documents/PSYC 5316/Lab 3/AH-subject-3.csv","legacy","7 3 2 8","Lentiform Loewenfeld","3.3.12","0","n","0","right","right","right","right","NA","571","220918","221808","571","NA","2","legacy","4","1024","2","48000","-16","experiment","3","odd","4","998273","994902","520776","996061","4242","996065","989172","4250","298966","1000279","1000851","997070","225170","1000278","NA","Sternberg Task","81","57586","92","yes","1024"
"88.17204301075269","88.17204301075269","628.7204301075269","628.7204301075269","black","experiment","legacy","legacy","legacy","0","uniform","1","undefined","1","left","92","92","0","92","0","92","92","0","0","92","92","92","0","92","0","Tue Oct 18 10:44:35 2022","The main experiment item","yes","SternbergTask.osexp","C:\Users\Austin\Documents\PSYC 5316\Lab 3","no","mono","no","18","no","white","no","yes","768","legacy","80","11","C:/Users/Austin/Documents/PSYC 5316/Lab 3/AH-subject-3.csv","legacy","6 5","Lentiform Loewenfeld","3.3.12","2","y","0","left","right","right","left","NA","885","220918","221808","885","NA","2","legacy","2","1024","2","48000","-16","experiment","3","odd","5","1004248","1000860","520776","1002036","4242","1002040","989172","4250","298966","1006254","1007141","1003045","225170","1006253","NA","Sternberg Task","82","58471","93","yes","1024"
"87.23404255319149","87.23404255319149","626.2659574468086","626.2659574468086","black","experiment","legacy","legacy","legacy","0","uniform","0","undefined","0","right","93","93","0","93","0","93","93","0","0","93","93","93","0","93","0","Tue Oct 18 10:44:35 2022","The main experiment item","yes","SternbergTask.osexp","C:\Users\Austin\Documents\PSYC 5316\Lab 3","no","mono","no","18","no","white","no","yes","768","legacy","81","11","C:/Users/Austin/Documents/PSYC 5316/Lab 3/AH-subject-3.csv","legacy","8 5 4 2 9 6","Lentiform Loewenfeld","3.3.12","0","n","0","left","right","right","left","NA","398","220918","221808","398","NA","2","legacy","6","1024","2","48000","-16","experiment","3","odd","3","1010526","1007150","520776","1008315","4242","1008319","989172","4250","298966","1012531","1012931","1009322","225170","1012531","NA","Sternberg Task","82","58869","94","yes","1024"
"86.3157894736842","86.3157894736842","622.9894736842106","622.9894736842106","black","experiment","legacy","legacy","legacy","0","uniform","0","undefined","0","right","94","94","0","94","0","94","94","0","0","94","94","94","0","94","0","Tue Oct 18 10:44:35 2022","The main experiment item","yes","SternbergTask.osexp","C:\Users\Austin\Documents\PSYC 5316\Lab 3","no","mono","no","18","no","white","no","yes","768","legacy","82","11","C:/Users/Austin/Documents/PSYC 5316/Lab 3/AH-subject-3.csv","legacy","3 9 8 1 6 4","Lentiform Loewenfeld","3.3.12","0","n","0","left","right","right","left","NA","315","220918","221808","315","NA","2","legacy","6","1024","2","48000","-16","experiment","3","odd","7","1016313","1007150","520776","1014100","4242","1014104","1012940","4250","298966","1018316","1018633","1015109","225170","1018316","NA","Sternberg Task","82","59184","95","yes","1024"
"86.45833333333333","86.45833333333333","622.0104166666666","622.0104166666666","black","experiment","legacy","legacy","legacy","0","uniform","1","undefined","1","left","95","95","0","95","0","95","95","0","0","95","95","95","0","95","0","Tue Oct 18 10:44:35 2022","The main experiment item","yes","SternbergTask.osexp","C:\Users\Austin\Documents\PSYC 5316\Lab 3","no","mono","no","18","no","white","no","yes","768","legacy","83","11","C:/Users/Austin/Documents/PSYC 5316/Lab 3/AH-subject-3.csv","legacy","3 4 9 6 2 9","Lentiform Loewenfeld","3.3.12","5","y","0","left","right","right","left","NA","529","220918","221808","529","NA","2","legacy","6","1024","2","48000","-16","experiment","3","odd","2","1022005","1007150","520776","1019792","4242","1019796","1018642","4250","298966","1024009","1024540","1020801","225170","1024009","NA","Sternberg Task","83","59713","96","yes","1024"
"86.5979381443299","86.5979381443299","620.319587628866","620.319587628866","black","experiment","legacy","legacy","legacy","0","uniform","1","undefined","1","left","96","96","0","96","0","96","96","0","0","96","96","96","0","96","0","Tue Oct 18 10:44:35 2022","The main experiment item","yes","SternbergTask.osexp","C:\Users\Austin\Documents\PSYC 5316\Lab 3","no","mono","no","18","no","white","no","yes","768","legacy","84","11","C:/Users/Austin/Documents/PSYC 5316/Lab 3/AH-subject-3.csv","legacy","8","Lentiform Loewenfeld","3.3.12","1","y","0","left","right","right","left","NA","458","220918","221808","458","NA","2","legacy","1","1024","2","48000","-16","experiment","3","odd","8","1027927","1024550","520776","1025714","4242","1025718","1018642","4250","298966","1029933","1030393","1026723","225170","1029932","NA","Sternberg Task","84","60171","97","yes","1024"
"86.73469387755102","86.73469387755102","627.1122448979592","627.1122448979592","black","experiment","legacy","legacy","legacy","0","uniform","1","undefined","1","left","97","97","0","97","0","97","97","0","0","97","97","97","0","97","0","Tue Oct 18 10:44:35 2022","The main experiment item","yes","SternbergTask.osexp","C:\Users\Austin\Documents\PSYC 5316\Lab 3","no","mono","no","18","no","white","no","yes","768","legacy","85","11","C:/Users/Austin/Documents/PSYC 5316/Lab 3/AH-subject-3.csv","legacy","7 2 3","Lentiform Loewenfeld","3.3.12","3","y","0","left","right","right","left","NA","1286","220918","221808","1286","NA","2","legacy","3","1024","2","48000","-16","experiment","3","odd","3","1033785","1030402","520776","1031573","4242","1031578","1018642","4250","298966","1035789","1037078","1032581","225170","1035789","NA","Sternberg Task","85","61457","98","yes","1024"
"86.86868686868686","86.86868686868686","627.4848484848485","627.4848484848485","black","experiment","legacy","legacy","legacy","0","uniform","1","undefined","1","right","98","98","0","98","0","98","98","0","0","98","98","98","0","98","0","Tue Oct 18 10:44:35 2022","The main experiment item","yes","SternbergTask.osexp","C:\Users\Austin\Documents\PSYC 5316\Lab 3","no","mono","no","18","no","white","no","yes","768","legacy","86","11","C:/Users/Austin/Documents/PSYC 5316/Lab 3/AH-subject-3.csv","legacy","1 5 3 2 8","Lentiform Loewenfeld","3.3.12","0","n","0","right","right","right","right","NA","664","220918","221808","664","NA","2","legacy","5","1024","2","48000","-16","experiment","3","odd","4","1040449","1037086","520776","1038236","4242","1038240","1018642","4250","298966","1042452","1043117","1039244","225170","1042452","NA","Sternberg Task","86","62121","99","yes","1024"
"87","87","626.05","626.05","black","experiment","legacy","legacy","legacy","0","uniform","1","undefined","1","right","99","99","0","99","0","99","99","0","0","99","99","99","0","99","0","Tue Oct 18 10:44:35 2022","The main experiment item","yes","SternbergTask.osexp","C:\Users\Austin\Documents\PSYC 5316\Lab 3","no","mono","no","18","no","white","no","yes","768","legacy","87","11","C:/Users/Austin/Documents/PSYC 5316/Lab 3/AH-subject-3.csv","legacy","8 9","Lentiform Loewenfeld","3.3.12","0","n","0","right","right","right","right","NA","484","220918","221808","484","NA","2","legacy","2","1024","2","48000","-16","experiment","3","odd","5","1046517","1043126","520776","1044306","4242","1044311","1018642","4250","298966","1048521","1049007","1045314","225170","1048521","NA","Sternberg Task","87","62605","100","yes","1024"
"87.12871287128714","87.12871287128714","624.2673267326733","624.2673267326733","black","experiment","legacy","legacy","legacy","0","uniform","1","undefined","1","left","100","100","0","100","0","100","100","0","0","100","100","100","0","100","0","Tue Oct 18 10:44:35 2022","The main experiment item","yes","SternbergTask.osexp","C:\Users\Austin\Documents\PSYC 5316\Lab 3","no","mono","no","18","no","white","no","yes","768","legacy","88","11","C:/Users/Austin/Documents/PSYC 5316/Lab 3/AH-subject-3.csv","legacy","4 6 5 8","Lentiform Loewenfeld","3.3.12","1","y","0","left","right","right","left","NA","446","220918","221808","446","NA","2","legacy","4","1024","2","48000","-16","experiment","3","odd","4","1052407","1049016","520776","1050192","4242","1050197","1018642","4250","298966","1054410","1054858","1051201","225170","1054410","NA","Sternberg Task","88","63051","101","yes","1024"
"87.25490196078431","87.25490196078431","623.2254901960785","623.2254901960785","black","experiment","legacy","legacy","legacy","0","uniform","1","undefined","1","left","101","101","0","101","0","101","101","0","0","101","101","101","0","101","0","Tue Oct 18 10:44:35 2022","The main experiment item","yes","SternbergTask.osexp","C:\Users\Austin\Documents\PSYC 5316\Lab 3","no","mono","no","18","no","white","no","yes","768","legacy","89","11","C:/Users/Austin/Documents/PSYC 5316/Lab 3/AH-subject-3.csv","legacy","4 9 7 8 5 3","Lentiform Loewenfeld","3.3.12","4","y","0","left","right","right","left","NA","518","220918","221808","518","NA","2","legacy","6","1024","2","48000","-16","experiment","3","odd","8","1058227","1054866","520776","1056015","4242","1056019","1018642","4250","298966","1060232","1060752","1057022","225170","1060232","NA","Sternberg Task","89","63569","102","yes","1024"
"87.37864077669903","87.37864077669903","621.2135922330098","621.2135922330098","black","experiment","legacy","legacy","legacy","0","uniform","1","undefined","1","left","102","102","0","102","0","102","102","0","0","102","102","102","0","102","0","Tue Oct 18 10:44:35 2022","The main experiment item","yes","SternbergTask.osexp","C:\Users\Austin\Documents\PSYC 5316\Lab 3","no","mono","no","18","no","white","no","yes","768","legacy","90","11","C:/Users/Austin/Documents/PSYC 5316/Lab 3/AH-subject-3.csv","legacy","2 8 5 1","Lentiform Loewenfeld","3.3.12","4","y","0","left","right","right","left","NA","416","220918","221808","416","NA","2","legacy","4","1024","2","48000","-16","experiment","3","odd","1","1064141","1060761","520776","1061928","4242","1061932","1018642","4250","298966","1066147","1066565","1062936","225170","1066146","NA","Sternberg Task","90","63985","103","yes","1024"
"86.53846153846153","86.53846153846153","619.9519230769231","619.9519230769231","black","experiment","legacy","legacy","legacy","0","uniform","0","undefined","0","right","103","103","0","103","0","103","103","0","0","103","103","103","0","103","0","Tue Oct 18 10:44:35 2022","The main experiment item","yes","SternbergTask.osexp","C:\Users\Austin\Documents\PSYC 5316\Lab 3","no","mono","no","18","no","white","no","yes","768","legacy","91","11","C:/Users/Austin/Documents/PSYC 5316/Lab 3/AH-subject-3.csv","legacy","7 1 5 6 3","Lentiform Loewenfeld","3.3.12","0","n","0","left","right","right","left","NA","490","220918","221808","490","NA","2","legacy","5","1024","2","48000","-16","experiment","3","odd","8","1069935","1066573","520776","1067724","4242","1067728","1018642","4250","298966","1071939","1072430","1068731","225170","1071939","NA","Sternberg Task","90","64475","104","yes","1024"
"86.66666666666667","86.66666666666667","619.1809523809524","619.1809523809524","black","experiment","legacy","legacy","legacy","0","uniform","1","undefined","1","left","104","104","0","104","0","104","104","0","0","104","104","104","0","104","0","Tue Oct 18 10:44:35 2022","The main experiment item","yes","SternbergTask.osexp","C:\Users\Austin\Documents\PSYC 5316\Lab 3","no","mono","no","18","no","white","no","yes","768","legacy","92","11","C:/Users/Austin/Documents/PSYC 5316/Lab 3/AH-subject-3.csv","legacy","8 9 5 6 7","Lentiform Loewenfeld","3.3.12","1","y","0","left","right","right","left","NA","539","220918","221808","539","NA","2","legacy","5","1024","2","48000","-16","experiment","3","odd","8","1075800","1066573","520776","1073589","4242","1073592","1072439","4250","298966","1077806","1078347","1074596","225170","1077805","NA","Sternberg Task","91","65014","105","yes","1024"
"86.79245283018868","86.79245283018868","619.7264150943396","619.7264150943396","black","experiment","legacy","legacy","legacy","0","uniform","1","undefined","1","right","105","105","0","105","0","105","105","0","0","105","105","105","0","105","0","Tue Oct 18 10:44:35 2022","The main experiment item","yes","SternbergTask.osexp","C:\Users\Austin\Documents\PSYC 5316\Lab 3","no","mono","no","18","no","white","no","yes","768","legacy","93","11","C:/Users/Austin/Documents/PSYC 5316/Lab 3/AH-subject-3.csv","legacy","1 6 4 3 9 7","Lentiform Loewenfeld","3.3.12","0","n","0","right","right","right","right","NA","677","220918","221808","677","NA","2","legacy","6","1024","2","48000","-16","experiment","3","odd","8","1081725","1078356","520776","1079514","4242","1079518","1072439","4250","298966","1083728","1084407","1080521","225170","1083728","NA","Sternberg Task","92","65691","106","yes","1024"
"85.98130841121495","85.98130841121495","618.3831775700935","618.3831775700935","black","experiment","legacy","legacy","legacy","0","uniform","0","undefined","0","right","106","106","0","106","0","106","106","0","0","106","106","106","0","106","0","Tue Oct 18 10:44:35 2022","The main experiment item","yes","SternbergTask.osexp","C:\Users\Austin\Documents\PSYC 5316\Lab 3","no","mono","no","18","no","white","no","yes","768","legacy","94","11","C:/Users/Austin/Documents/PSYC 5316/Lab 3/AH-subject-3.csv","legacy","1 6 4","Lentiform Loewenfeld","3.3.12","0","n","0","left","right","right","left","NA","476","220918","221808","476","NA","2","legacy","3","1024","2","48000","-16","experiment","3","odd","7","1087773","1084416","520776","1085562","4242","1085566","1072439","4250","298966","1089778","1090256","1086569","225170","1089778","NA","Sternberg Task","92","66167","107","yes","1024"
"85.18518518518519","85.18518518518519","618.9814814814815","618.9814814814815","black","experiment","legacy","legacy","legacy","0","uniform","0","undefined","0","right","107","107","0","107","0","107","107","0","0","107","107","107","0","107","0","Tue Oct 18 10:44:35 2022","The main experiment item","yes","SternbergTask.osexp","C:\Users\Austin\Documents\PSYC 5316\Lab 3","no","mono","no","18","no","white","no","yes","768","legacy","95","11","C:/Users/Austin/Documents/PSYC 5316/Lab 3/AH-subject-3.csv","legacy","6 9 7 3 8 2","Lentiform Loewenfeld","3.3.12","0","n","0","left","right","right","left","NA","683","220918","221808","683","NA","2","legacy","6","1024","2","48000","-16","experiment","3","odd","5","1093630","1084416","520776","1091418","4242","1091421","1090265","4250","298966","1095635","1096320","1092426","225170","1095634","NA","Sternberg Task","92","66850","108","yes","1024"
"85.3211009174312","85.3211009174312","618.256880733945","618.256880733945","black","experiment","legacy","legacy","legacy","0","uniform","1","undefined","1","left","108","108","0","108","0","108","108","0","0","108","108","108","0","108","0","Tue Oct 18 10:44:35 2022","The main experiment item","yes","SternbergTask.osexp","C:\Users\Austin\Documents\PSYC 5316\Lab 3","no","mono","no","18","no","white","no","yes","768","legacy","96","11","C:/Users/Austin/Documents/PSYC 5316/Lab 3/AH-subject-3.csv","legacy","7 4 2 6 3 5","Lentiform Loewenfeld","3.3.12","6","y","0","left","right","right","left","NA","540","220918","221808","540","NA","2","legacy","6","1024","2","48000","-16","experiment","3","odd","5","1099713","1084416","520776","1097501","4242","1097505","1096328","4250","298966","1101720","1102261","1098509","225170","1101718","NA","Sternberg Task","93","67390","109","yes","1024"
"85.45454545454545","85.45454545454545","617.4454545454546","617.4454545454546","black","experiment","legacy","legacy","legacy","0","uniform","1","undefined","1","left","109","109","0","109","0","109","109","0","0","109","109","109","0","109","0","Tue Oct 18 10:44:35 2022","The main experiment item","yes","SternbergTask.osexp","C:\Users\Austin\Documents\PSYC 5316\Lab 3","no","mono","no","18","no","white","no","yes","768","legacy","97","11","C:/Users/Austin/Documents/PSYC 5316/Lab 3/AH-subject-3.csv","legacy","2 3","Lentiform Loewenfeld","3.3.12","1","y","0","left","right","right","left","NA","529","220918","221808","529","NA","2","legacy","2","1024","2","48000","-16","experiment","3","odd","2","1105661","1102270","520776","1103448","4242","1103452","1096328","4250","298966","1107665","1108196","1104457","225170","1107665","NA","Sternberg Task","94","67919","110","yes","1024"
"85.58558558558559","85.58558558558559","617.3063063063063","617.3063063063063","black","experiment","legacy","legacy","legacy","0","uniform","1","undefined","1","right","110","110","0","110","0","110","110","0","0","110","110","110","0","110","0","Tue Oct 18 10:44:35 2022","The main experiment item","yes","SternbergTask.osexp","C:\Users\Austin\Documents\PSYC 5316\Lab 3","no","mono","no","18","no","white","no","yes","768","legacy","98","11","C:/Users/Austin/Documents/PSYC 5316/Lab 3/AH-subject-3.csv","legacy","6 9 4 5 2","Lentiform Loewenfeld","3.3.12","0","n","0","right","right","right","right","NA","602","220918","221808","602","NA","2","legacy","5","1024","2","48000","-16","experiment","3","odd","1","1111566","1108204","520776","1109353","4242","1109357","1096328","4250","298966","1113569","1114173","1110360","225170","1113569","NA","Sternberg Task","95","68521","111","yes","1024"
"85.71428571428571","85.71428571428571","616.6160714285714","616.6160714285714","black","experiment","legacy","legacy","legacy","0","uniform","1","undefined","1","right","111","111","0","111","0","111","111","0","0","111","111","111","0","111","0","Tue Oct 18 10:44:35 2022","The main experiment item","yes","SternbergTask.osexp","C:\Users\Austin\Documents\PSYC 5316\Lab 3","no","mono","no","18","no","white","no","yes","768","legacy","99","11","C:/Users/Austin/Documents/PSYC 5316/Lab 3/AH-subject-3.csv","legacy","4 8 1 2","Lentiform Loewenfeld","3.3.12","0","n","0","right","right","right","right","NA","540","220918","221808","540","NA","2","legacy","4","1024","2","48000","-16","experiment","3","odd","7","1117571","1114182","520776","1115358","4242","1115363","1096328","4250","298966","1119574","1120116","1116367","225170","1119574","NA","Sternberg Task","96","69061","112","yes","1024"
"84.95575221238938","84.95575221238938","617.4778761061947","617.4778761061947","black","experiment","legacy","legacy","legacy","0","uniform","0","undefined","0","right","112","112","0","112","0","112","112","0","0","112","112","112","0","112","0","Tue Oct 18 10:44:35 2022","The main experiment item","yes","SternbergTask.osexp","C:\Users\Austin\Documents\PSYC 5316\Lab 3","no","mono","no","18","no","white","no","yes","768","legacy","100","11","C:/Users/Austin/Documents/PSYC 5316/Lab 3/AH-subject-3.csv","legacy","6 3 1 7 9 8","Lentiform Loewenfeld","3.3.12","0","n","0","left","right","right","left","NA","714","220918","221808","714","NA","2","legacy","6","1024","2","48000","-16","experiment","3","odd","4","1123496","1120125","520776","1121282","4242","1121286","1096328","4250","298966","1125499","1126215","1122290","225170","1125499","NA","Sternberg Task","96","69775","113","yes","1024"
