"acc","accuracy","average_response_time","avg_rt","background","block","canvas_backend","clock_backend","color_backend","compensation","coordinates","correct","correct_instruction1","correct_keyboard_response","correct_response","count_ISI","count_Instructions2","count_correctFeedback","count_expSequence","count_experiment","count_experimentLoop","count_fixation","count_incorrectFeedback","count_instruction1","count_keyboard_response","count_memorySet","count_new_logger","count_practiceLoop","count_probe","count_thankYou","datetime","description","disable_garbage_collection","experiment_file","experiment_path","font_bold","font_family","font_italic","font_size","font_underline","foreground","form_clicks","fullscreen","height","keyboard_backend","live_row","live_row_practiceLoop","logfile","mouse_backend","numberSet","opensesame_codename","opensesame_version","posInSet","present","repeat_cycle","response","response_Instructions2","response_instruction1","response_keyboard_response","response_thankYou","response_time","response_time_Instructions2","response_time_instruction1","response_time_keyboard_response","response_time_thankYou","round_decimals","sampler_backend","setSize","sound_buf_size","sound_channels","sound_freq","sound_sample_size","start","subject_nr","subject_parity","target","time_ISI","time_Instructions2","time_correctFeedback","time_expSequence","time_experiment","time_experimentLoop","time_fixation","time_incorrectFeedback","time_instruction1","time_keyboard_response","time_memorySet","time_new_logger","time_practiceLoop","time_probe","time_thankYou","title","total_correct","total_response_time","total_responses","uniform_coordinates","width"
"100","100","498","498","black","practice","legacy","legacy","legacy","0","uniform","1","undefined","1","right","0","0","0","0","0","0","0","0","0","0","0","0","0","0","0","10/17/21 07:54:37","The main experiment item","yes","Sternbergtask.osexp","C:/Users/suici/Desktop/Tarleton/Fall 2021 - Graduate Studies/PSYC 5316-010 Advanced Quantitative Methods & Experiment Design/Lab 3 - the Sternberg memory scanning task (an experiment on short term memory)","no","mono","no","18","no","white","no","yes","768","legacy","0","0","C:/Users/suici/Desktop/Tarleton/Fall 2021 - Graduate Studies/PSYC 5316-010 Advanced Quantitative Methods & Experiment Design/Lab 3 - the Sternberg memory scanning task (an experiment on short term memory)/SM-subject-1.csv","legacy","2 1","Lentiform Loewenfeld","3.3.9","0","n","0","right","NA","left","right","NA","498","NA","9614","498","NA","2","legacy","2","1024","2","48000","-16","experiment","1","odd","5","13438","NA","NA","11237","1305","NA","11238","NA","1307","15438","12238","15937","10921","15438","NA","Sternberg task","1","498","1","yes","1024"
"100","100","495","495","black","practice","legacy","legacy","legacy","0","uniform","1","undefined","1","right","1","0","1","1","0","0","1","1","0","1","1","1","0","1","0","10/17/21 07:54:37","The main experiment item","yes","Sternbergtask.osexp","C:/Users/suici/Desktop/Tarleton/Fall 2021 - Graduate Studies/PSYC 5316-010 Advanced Quantitative Methods & Experiment Design/Lab 3 - the Sternberg memory scanning task (an experiment on short term memory)","no","mono","no","18","no","white","no","yes","768","legacy","1","1","C:/Users/suici/Desktop/Tarleton/Fall 2021 - Graduate Studies/PSYC 5316-010 Advanced Quantitative Methods & Experiment Design/Lab 3 - the Sternberg memory scanning task (an experiment on short term memory)/SM-subject-1.csv","legacy","9 6 7 4 5","Lentiform Loewenfeld","3.3.9","0","n","0","right","NA","left","right","NA","492","NA","9614","492","NA","2","legacy","5","1024","2","48000","-16","experiment","1","odd","3","19196","NA","15959","16995","1305","NA","16996","NA","1307","21196","17996","21688","10921","21196","NA","Sternberg task","2","990","2","yes","1024"
"100","100","494","494","black","practice","legacy","legacy","legacy","0","uniform","1","undefined","1","left","2","0","2","2","0","0","2","2","0","2","2","2","0","2","0","10/17/21 07:54:37","The main experiment item","yes","Sternbergtask.osexp","C:/Users/suici/Desktop/Tarleton/Fall 2021 - Graduate Studies/PSYC 5316-010 Advanced Quantitative Methods & Experiment Design/Lab 3 - the Sternberg memory scanning task (an experiment on short term memory)","no","mono","no","18","no","white","no","yes","768","legacy","2","2","C:/Users/suici/Desktop/Tarleton/Fall 2021 - Graduate Studies/PSYC 5316-010 Advanced Quantitative Methods & Experiment Design/Lab 3 - the Sternberg memory scanning task (an experiment on short term memory)/SM-subject-1.csv","legacy","2 9 4","Lentiform Loewenfeld","3.3.9","3","y","0","left","NA","left","left","NA","492","NA","9614","492","NA","2","legacy","3","1024","2","48000","-16","experiment","1","odd","4","24925","NA","21690","22724","1305","NA","22725","NA","1307","26925","23725","27417","10921","26925","NA","Sternberg task","3","1482","3","yes","1024"
"100","100","479.25","479.25","black","practice","legacy","legacy","legacy","0","uniform","1","undefined","1","right","3","0","3","3","0","0","3","3","0","3","3","3","0","3","0","10/17/21 07:54:37","The main experiment item","yes","Sternbergtask.osexp","C:/Users/suici/Desktop/Tarleton/Fall 2021 - Graduate Studies/PSYC 5316-010 Advanced Quantitative Methods & Experiment Design/Lab 3 - the Sternberg memory scanning task (an experiment on short term memory)","no","mono","no","18","no","white","no","yes","768","legacy","3","3","C:/Users/suici/Desktop/Tarleton/Fall 2021 - Graduate Studies/PSYC 5316-010 Advanced Quantitative Methods & Experiment Design/Lab 3 - the Sternberg memory scanning task (an experiment on short term memory)/SM-subject-1.csv","legacy","4 1 5","Lentiform Loewenfeld","3.3.9","0","n","0","right","NA","left","right","NA","435","NA","9614","435","NA","2","legacy","3","1024","2","48000","-16","experiment","1","odd","2","30654","NA","27419","28453","1305","NA","28454","NA","1307","32654","29454","33089","10921","32654","NA","Sternberg task","4","1917","4","yes","1024"
"100","100","444.8","444.8","black","practice","legacy","legacy","legacy","0","uniform","1","undefined","1","left","4","0","4","4","0","0","4","4","0","4","4","4","0","4","0","10/17/21 07:54:37","The main experiment item","yes","Sternbergtask.osexp","C:/Users/suici/Desktop/Tarleton/Fall 2021 - Graduate Studies/PSYC 5316-010 Advanced Quantitative Methods & Experiment Design/Lab 3 - the Sternberg memory scanning task (an experiment on short term memory)","no","mono","no","18","no","white","no","yes","768","legacy","4","4","C:/Users/suici/Desktop/Tarleton/Fall 2021 - Graduate Studies/PSYC 5316-010 Advanced Quantitative Methods & Experiment Design/Lab 3 - the Sternberg memory scanning task (an experiment on short term memory)/SM-subject-1.csv","legacy","6","Lentiform Loewenfeld","3.3.9","1","y","0","left","NA","left","left","NA","307","NA","9614","307","NA","2","legacy","1","1024","2","48000","-16","experiment","1","odd","6","36326","NA","33090","34125","1305","NA","34126","NA","1307","38326","35126","38633","10921","38326","NA","Sternberg task","5","2224","5","yes","1024"
"100","100","473.5","473.5","black","practice","legacy","legacy","legacy","0","uniform","1","undefined","1","right","5","0","5","5","0","0","5","5","0","5","5","5","0","5","0","10/17/21 07:54:37","The main experiment item","yes","Sternbergtask.osexp","C:/Users/suici/Desktop/Tarleton/Fall 2021 - Graduate Studies/PSYC 5316-010 Advanced Quantitative Methods & Experiment Design/Lab 3 - the Sternberg memory scanning task (an experiment on short term memory)","no","mono","no","18","no","white","no","yes","768","legacy","5","5","C:/Users/suici/Desktop/Tarleton/Fall 2021 - Graduate Studies/PSYC 5316-010 Advanced Quantitative Methods & Experiment Design/Lab 3 - the Sternberg memory scanning task (an experiment on short term memory)/SM-subject-1.csv","legacy","5 7 8 4 1 2","Lentiform Loewenfeld","3.3.9","0","n","0","right","NA","left","right","NA","617","NA","9614","617","NA","2","legacy","6","1024","2","48000","-16","experiment","1","odd","6","41872","NA","38634","39671","1305","NA","39672","NA","1307","43872","40672","44489","10921","43872","NA","Sternberg task","6","2841","6","yes","1024"
"100","100","471.285714286","471.285714286","black","practice","legacy","legacy","legacy","0","uniform","1","undefined","1","right","6","0","6","6","0","0","6","6","0","6","6","6","0","6","0","10/17/21 07:54:37","The main experiment item","yes","Sternbergtask.osexp","C:/Users/suici/Desktop/Tarleton/Fall 2021 - Graduate Studies/PSYC 5316-010 Advanced Quantitative Methods & Experiment Design/Lab 3 - the Sternberg memory scanning task (an experiment on short term memory)","no","mono","no","18","no","white","no","yes","768","legacy","6","6","C:/Users/suici/Desktop/Tarleton/Fall 2021 - Graduate Studies/PSYC 5316-010 Advanced Quantitative Methods & Experiment Design/Lab 3 - the Sternberg memory scanning task (an experiment on short term memory)/SM-subject-1.csv","legacy","3 1 9 4","Lentiform Loewenfeld","3.3.9","0","n","0","right","NA","left","right","NA","458","NA","9614","458","NA","2","legacy","4","1024","2","48000","-16","experiment","1","odd","6","47726","NA","44491","45525","1305","NA","45526","NA","1307","49726","46526","50184","10921","49726","NA","Sternberg task","7","3299","7","yes","1024"
"100","100","460.875","460.875","black","practice","legacy","legacy","legacy","0","uniform","1","undefined","1","right","7","0","7","7","0","0","7","7","0","7","7","7","0","7","0","10/17/21 07:54:37","The main experiment item","yes","Sternbergtask.osexp","C:/Users/suici/Desktop/Tarleton/Fall 2021 - Graduate Studies/PSYC 5316-010 Advanced Quantitative Methods & Experiment Design/Lab 3 - the Sternberg memory scanning task (an experiment on short term memory)","no","mono","no","18","no","white","no","yes","768","legacy","7","7","C:/Users/suici/Desktop/Tarleton/Fall 2021 - Graduate Studies/PSYC 5316-010 Advanced Quantitative Methods & Experiment Design/Lab 3 - the Sternberg memory scanning task (an experiment on short term memory)/SM-subject-1.csv","legacy","5","Lentiform Loewenfeld","3.3.9","0","n","0","right","NA","left","right","NA","388","NA","9614","388","NA","2","legacy","1","1024","2","48000","-16","experiment","1","odd","3","53420","NA","50186","51220","1305","NA","51220","NA","1307","55420","52220","55808","10921","55420","NA","Sternberg task","8","3687","8","yes","1024"
"100","100","470.555555556","470.555555556","black","practice","legacy","legacy","legacy","0","uniform","1","undefined","1","left","8","0","8","8","0","0","8","8","0","8","8","8","0","8","0","10/17/21 07:54:37","The main experiment item","yes","Sternbergtask.osexp","C:/Users/suici/Desktop/Tarleton/Fall 2021 - Graduate Studies/PSYC 5316-010 Advanced Quantitative Methods & Experiment Design/Lab 3 - the Sternberg memory scanning task (an experiment on short term memory)","no","mono","no","18","no","white","no","yes","768","legacy","8","8","C:/Users/suici/Desktop/Tarleton/Fall 2021 - Graduate Studies/PSYC 5316-010 Advanced Quantitative Methods & Experiment Design/Lab 3 - the Sternberg memory scanning task (an experiment on short term memory)/SM-subject-1.csv","legacy","4 3 1 7 9 8","Lentiform Loewenfeld","3.3.9","1","y","0","left","NA","left","left","NA","548","NA","9614","548","NA","2","legacy","6","1024","2","48000","-16","experiment","1","odd","4","59045","NA","55810","56844","1305","NA","56845","NA","1307","61045","57845","61593","10921","61045","NA","Sternberg task","9","4235","9","yes","1024"
"100","100","468.6","468.6","black","practice","legacy","legacy","legacy","0","uniform","1","undefined","1","left","9","0","9","9","0","0","9","9","0","9","9","9","0","9","0","10/17/21 07:54:37","The main experiment item","yes","Sternbergtask.osexp","C:/Users/suici/Desktop/Tarleton/Fall 2021 - Graduate Studies/PSYC 5316-010 Advanced Quantitative Methods & Experiment Design/Lab 3 - the Sternberg memory scanning task (an experiment on short term memory)","no","mono","no","18","no","white","no","yes","768","legacy","9","9","C:/Users/suici/Desktop/Tarleton/Fall 2021 - Graduate Studies/PSYC 5316-010 Advanced Quantitative Methods & Experiment Design/Lab 3 - the Sternberg memory scanning task (an experiment on short term memory)/SM-subject-1.csv","legacy","4 8","Lentiform Loewenfeld","3.3.9","1","y","0","left","NA","left","left","NA","451","NA","9614","451","NA","2","legacy","2","1024","2","48000","-16","experiment","1","odd","4","64830","NA","61595","62629","1305","NA","62630","NA","1307","66830","63630","67281","10921","66830","NA","Sternberg task","10","4686","10","yes","1024"
"100","100","466.181818182","466.181818182","black","practice","legacy","legacy","legacy","0","uniform","1","undefined","1","left","10","0","10","10","0","0","10","10","0","10","10","10","0","10","0","10/17/21 07:54:37","The main experiment item","yes","Sternbergtask.osexp","C:/Users/suici/Desktop/Tarleton/Fall 2021 - Graduate Studies/PSYC 5316-010 Advanced Quantitative Methods & Experiment Design/Lab 3 - the Sternberg memory scanning task (an experiment on short term memory)","no","mono","no","18","no","white","no","yes","768","legacy","10","10","C:/Users/suici/Desktop/Tarleton/Fall 2021 - Graduate Studies/PSYC 5316-010 Advanced Quantitative Methods & Experiment Design/Lab 3 - the Sternberg memory scanning task (an experiment on short term memory)/SM-subject-1.csv","legacy","1 5 2 9","Lentiform Loewenfeld","3.3.9","2","y","0","left","NA","left","left","NA","442","NA","9614","442","NA","2","legacy","4","1024","2","48000","-16","experiment","1","odd","5","70518","NA","67283","68317","1305","NA","68318","NA","1307","72518","69318","72960","10921","72518","NA","Sternberg task","11","5128","11","yes","1024"
"100","100","471","471","black","practice","legacy","legacy","legacy","0","uniform","1","undefined","1","left","11","0","11","11","0","0","11","11","0","11","11","11","0","11","0","10/17/21 07:54:37","The main experiment item","yes","Sternbergtask.osexp","C:/Users/suici/Desktop/Tarleton/Fall 2021 - Graduate Studies/PSYC 5316-010 Advanced Quantitative Methods & Experiment Design/Lab 3 - the Sternberg memory scanning task (an experiment on short term memory)","no","mono","no","18","no","white","no","yes","768","legacy","11","11","C:/Users/suici/Desktop/Tarleton/Fall 2021 - Graduate Studies/PSYC 5316-010 Advanced Quantitative Methods & Experiment Design/Lab 3 - the Sternberg memory scanning task (an experiment on short term memory)/SM-subject-1.csv","legacy","1 7 9 8 5","Lentiform Loewenfeld","3.3.9","4","y","0","left","NA","left","left","NA","524","NA","9614","524","NA","2","legacy","5","1024","2","48000","-16","experiment","1","odd","8","76197","NA","72962","73996","1305","NA","73997","NA","1307","78197","74997","78721","10921","78197","NA","Sternberg task","12","5652","12","yes","1024"
"100","100","467.538461538","467.538461538","black","experiment","legacy","legacy","legacy","0","uniform","1","undefined","1","left","12","0","12","12","0","0","12","12","0","12","12","12","0","12","0","10/17/21 07:54:37","The main experiment item","yes","Sternbergtask.osexp","C:/Users/suici/Desktop/Tarleton/Fall 2021 - Graduate Studies/PSYC 5316-010 Advanced Quantitative Methods & Experiment Design/Lab 3 - the Sternberg memory scanning task (an experiment on short term memory)","no","mono","no","18","no","white","no","yes","768","legacy","0","11","C:/Users/suici/Desktop/Tarleton/Fall 2021 - Graduate Studies/PSYC 5316-010 Advanced Quantitative Methods & Experiment Design/Lab 3 - the Sternberg memory scanning task (an experiment on short term memory)/SM-subject-1.csv","legacy","4 1 8 7 5","Lentiform Loewenfeld","3.3.9","3","y","0","left","left","left","left","NA","426","6212","9614","426","NA","2","legacy","5","1024","2","48000","-16","experiment","1","odd","8","88189","79732","78723","85988","1305","85944","85989","NA","1307","90190","86989","90617","10921","90189","NA","Sternberg task","13","6078","13","yes","1024"
"100","100","474.142857143","474.142857143","black","experiment","legacy","legacy","legacy","0","uniform","1","undefined","1","left","13","0","13","13","0","0","13","13","0","13","13","13","0","13","0","10/17/21 07:54:37","The main experiment item","yes","Sternbergtask.osexp","C:/Users/suici/Desktop/Tarleton/Fall 2021 - Graduate Studies/PSYC 5316-010 Advanced Quantitative Methods & Experiment Design/Lab 3 - the Sternberg memory scanning task (an experiment on short term memory)","no","mono","no","18","no","white","no","yes","768","legacy","1","11","C:/Users/suici/Desktop/Tarleton/Fall 2021 - Graduate Studies/PSYC 5316-010 Advanced Quantitative Methods & Experiment Design/Lab 3 - the Sternberg memory scanning task (an experiment on short term memory)/SM-subject-1.csv","legacy","8 9 5 7 1 6","Lentiform Loewenfeld","3.3.9","4","y","0","left","left","left","left","NA","560","6212","9614","560","NA","2","legacy","6","1024","2","48000","-16","experiment","1","odd","7","93856","79732","90618","91655","1305","85944","91656","NA","1307","95856","92656","96416","10921","95856","NA","Sternberg task","14","6638","14","yes","1024"
"100","100","470.8","470.8","black","experiment","legacy","legacy","legacy","0","uniform","1","undefined","1","right","14","0","14","14","0","0","14","14","0","14","14","14","0","14","0","10/17/21 07:54:37","The main experiment item","yes","Sternbergtask.osexp","C:/Users/suici/Desktop/Tarleton/Fall 2021 - Graduate Studies/PSYC 5316-010 Advanced Quantitative Methods & Experiment Design/Lab 3 - the Sternberg memory scanning task (an experiment on short term memory)","no","mono","no","18","no","white","no","yes","768","legacy","2","11","C:/Users/suici/Desktop/Tarleton/Fall 2021 - Graduate Studies/PSYC 5316-010 Advanced Quantitative Methods & Experiment Design/Lab 3 - the Sternberg memory scanning task (an experiment on short term memory)/SM-subject-1.csv","legacy","6 9 4 5 2","Lentiform Loewenfeld","3.3.9","0","n","0","right","left","left","right","NA","424","6212","9614","424","NA","2","legacy","5","1024","2","48000","-16","experiment","1","odd","1","99656","79732","96418","97455","1305","85944","97456","NA","1307","101656","98456","102080","10921","101656","NA","Sternberg task","15","7062","15","yes","1024"
"100","100","475.8125","475.8125","black","experiment","legacy","legacy","legacy","0","uniform","1","undefined","1","left","15","0","15","15","0","0","15","15","0","15","15","15","0","15","0","10/17/21 07:54:37","The main experiment item","yes","Sternbergtask.osexp","C:/Users/suici/Desktop/Tarleton/Fall 2021 - Graduate Studies/PSYC 5316-010 Advanced Quantitative Methods & Experiment Design/Lab 3 - the Sternberg memory scanning task (an experiment on short term memory)","no","mono","no","18","no","white","no","yes","768","legacy","3","11","C:/Users/suici/Desktop/Tarleton/Fall 2021 - Graduate Studies/PSYC 5316-010 Advanced Quantitative Methods & Experiment Design/Lab 3 - the Sternberg memory scanning task (an experiment on short term memory)/SM-subject-1.csv","legacy","7 8 6 3 1","Lentiform Loewenfeld","3.3.9","5","y","0","left","left","left","left","NA","551","6212","9614","551","NA","2","legacy","5","1024","2","48000","-16","experiment","1","odd","1","105321","79732","102083","103120","1305","85944","103121","NA","1307","107321","104121","107872","10921","107321","NA","Sternberg task","16","7613","16","yes","1024"
"100","100","497.764705882","497.764705882","black","experiment","legacy","legacy","legacy","0","uniform","1","undefined","1","left","16","0","16","16","0","0","16","16","0","16","16","16","0","16","0","10/17/21 07:54:37","The main experiment item","yes","Sternbergtask.osexp","C:/Users/suici/Desktop/Tarleton/Fall 2021 - Graduate Studies/PSYC 5316-010 Advanced Quantitative Methods & Experiment Design/Lab 3 - the Sternberg memory scanning task (an experiment on short term memory)","no","mono","no","18","no","white","no","yes","768","legacy","4","11","C:/Users/suici/Desktop/Tarleton/Fall 2021 - Graduate Studies/PSYC 5316-010 Advanced Quantitative Methods & Experiment Design/Lab 3 - the Sternberg memory scanning task (an experiment on short term memory)/SM-subject-1.csv","legacy","3 4 9 6 2 9","Lentiform Loewenfeld","3.3.9","5","y","0","left","left","left","left","NA","849","6212","9614","849","NA","2","legacy","6","1024","2","48000","-16","experiment","1","odd","2","111111","79732","107874","108910","1305","85944","108911","NA","1307","113111","109911","113960","10921","113111","NA","Sternberg task","17","8462","17","yes","1024"
"100","100","494.444444444","494.444444444","black","experiment","legacy","legacy","legacy","0","uniform","1","undefined","1","left","17","0","17","17","0","0","17","17","0","17","17","17","0","17","0","10/17/21 07:54:37","The main experiment item","yes","Sternbergtask.osexp","C:/Users/suici/Desktop/Tarleton/Fall 2021 - Graduate Studies/PSYC 5316-010 Advanced Quantitative Methods & Experiment Design/Lab 3 - the Sternberg memory scanning task (an experiment on short term memory)","no","mono","no","18","no","white","no","yes","768","legacy","5","11","C:/Users/suici/Desktop/Tarleton/Fall 2021 - Graduate Studies/PSYC 5316-010 Advanced Quantitative Methods & Experiment Design/Lab 3 - the Sternberg memory scanning task (an experiment on short term memory)/SM-subject-1.csv","legacy","6 7 8 5","Lentiform Loewenfeld","3.3.9","3","y","0","left","left","left","left","NA","438","6212","9614","438","NA","2","legacy","4","1024","2","48000","-16","experiment","1","odd","8","117202","79732","113962","115001","1305","85944","115002","NA","1307","119202","116002","119640","10921","119202","NA","Sternberg task","18","8900","18","yes","1024"
"100","100","488.736842105","488.736842105","black","experiment","legacy","legacy","legacy","0","uniform","1","undefined","1","right","18","0","18","18","0","0","18","18","0","18","18","18","0","18","0","10/17/21 07:54:37","The main experiment item","yes","Sternbergtask.osexp","C:/Users/suici/Desktop/Tarleton/Fall 2021 - Graduate Studies/PSYC 5316-010 Advanced Quantitative Methods & Experiment Design/Lab 3 - the Sternberg memory scanning task (an experiment on short term memory)","no","mono","no","18","no","white","no","yes","768","legacy","6","11","C:/Users/suici/Desktop/Tarleton/Fall 2021 - Graduate Studies/PSYC 5316-010 Advanced Quantitative Methods & Experiment Design/Lab 3 - the Sternberg memory scanning task (an experiment on short term memory)/SM-subject-1.csv","legacy","7 9","Lentiform Loewenfeld","3.3.9","0","n","0","right","left","left","right","NA","386","6212","9614","386","NA","2","legacy","2","1024","2","48000","-16","experiment","1","odd","1","122879","79732","119642","120678","1305","85944","120679","NA","1307","124879","121679","125265","10921","124879","NA","Sternberg task","19","9286","19","yes","1024"
"100","100","503.9","503.9","black","experiment","legacy","legacy","legacy","0","uniform","1","undefined","1","right","19","0","19","19","0","0","19","19","0","19","19","19","0","19","0","10/17/21 07:54:37","The main experiment item","yes","Sternbergtask.osexp","C:/Users/suici/Desktop/Tarleton/Fall 2021 - Graduate Studies/PSYC 5316-010 Advanced Quantitative Methods & Experiment Design/Lab 3 - the Sternberg memory scanning task (an experiment on short term memory)","no","mono","no","18","no","white","no","yes","768","legacy","7","11","C:/Users/suici/Desktop/Tarleton/Fall 2021 - Graduate Studies/PSYC 5316-010 Advanced Quantitative Methods & Experiment Design/Lab 3 - the Sternberg memory scanning task (an experiment on short term memory)/SM-subject-1.csv","legacy","2 5 1 4","Lentiform Loewenfeld","3.3.9","0","n","0","right","left","left","right","NA","792","6212","9614","792","NA","2","legacy","4","1024","2","48000","-16","experiment","1","odd","6","128505","79732","125267","126303","1305","85944","126304","NA","1307","130505","127304","131297","10921","130505","NA","Sternberg task","20","10078","20","yes","1024"
"100","100","504.904761905","504.904761905","black","experiment","legacy","legacy","legacy","0","uniform","1","undefined","1","right","20","0","20","20","0","0","20","20","0","20","20","20","0","20","0","10/17/21 07:54:37","The main experiment item","yes","Sternbergtask.osexp","C:/Users/suici/Desktop/Tarleton/Fall 2021 - Graduate Studies/PSYC 5316-010 Advanced Quantitative Methods & Experiment Design/Lab 3 - the Sternberg memory scanning task (an experiment on short term memory)","no","mono","no","18","no","white","no","yes","768","legacy","8","11","C:/Users/suici/Desktop/Tarleton/Fall 2021 - Graduate Studies/PSYC 5316-010 Advanced Quantitative Methods & Experiment Design/Lab 3 - the Sternberg memory scanning task (an experiment on short term memory)/SM-subject-1.csv","legacy","6 9 4 5 3 2","Lentiform Loewenfeld","3.3.9","0","n","0","right","left","left","right","NA","525","6212","9614","525","NA","2","legacy","6","1024","2","48000","-16","experiment","1","odd","8","134539","79732","131299","132338","1305","85944","132339","NA","1307","136539","133339","137064","10921","136539","NA","Sternberg task","21","10603","21","yes","1024"
"100","100","513.045454545","513.045454545","black","experiment","legacy","legacy","legacy","0","uniform","1","undefined","1","left","21","0","21","21","0","0","21","21","0","21","21","21","0","21","0","10/17/21 07:54:37","The main experiment item","yes","Sternbergtask.osexp","C:/Users/suici/Desktop/Tarleton/Fall 2021 - Graduate Studies/PSYC 5316-010 Advanced Quantitative Methods & Experiment Design/Lab 3 - the Sternberg memory scanning task (an experiment on short term memory)","no","mono","no","18","no","white","no","yes","768","legacy","9","11","C:/Users/suici/Desktop/Tarleton/Fall 2021 - Graduate Studies/PSYC 5316-010 Advanced Quantitative Methods & Experiment Design/Lab 3 - the Sternberg memory scanning task (an experiment on short term memory)/SM-subject-1.csv","legacy","6 9 7 4 5 1","Lentiform Loewenfeld","3.3.9","2","y","0","left","left","left","left","NA","684","6212","9614","684","NA","2","legacy","6","1024","2","48000","-16","experiment","1","odd","9","140301","79732","137066","138100","1305","85944","138101","NA","1307","142301","139101","142985","10921","142301","NA","Sternberg task","22","11287","22","yes","1024"
"100","100","508.260869565","508.260869565","black","experiment","legacy","legacy","legacy","0","uniform","1","undefined","1","right","22","0","22","22","0","0","22","22","0","22","22","22","0","22","0","10/17/21 07:54:37","The main experiment item","yes","Sternbergtask.osexp","C:/Users/suici/Desktop/Tarleton/Fall 2021 - Graduate Studies/PSYC 5316-010 Advanced Quantitative Methods & Experiment Design/Lab 3 - the Sternberg memory scanning task (an experiment on short term memory)","no","mono","no","18","no","white","no","yes","768","legacy","10","11","C:/Users/suici/Desktop/Tarleton/Fall 2021 - Graduate Studies/PSYC 5316-010 Advanced Quantitative Methods & Experiment Design/Lab 3 - the Sternberg memory scanning task (an experiment on short term memory)/SM-subject-1.csv","legacy","3 4 2","Lentiform Loewenfeld","3.3.9","0","n","0","right","left","left","right","NA","403","6212","9614","403","NA","2","legacy","3","1024","2","48000","-16","experiment","1","odd","5","146222","79732","142987","144021","1305","85944","144022","NA","1307","148222","145022","148625","10921","148222","NA","Sternberg task","23","11690","23","yes","1024"
"100","100","505.958333333","505.958333333","black","experiment","legacy","legacy","legacy","0","uniform","1","undefined","1","left","23","0","23","23","0","0","23","23","0","23","23","23","0","23","0","10/17/21 07:54:37","The main experiment item","yes","Sternbergtask.osexp","C:/Users/suici/Desktop/Tarleton/Fall 2021 - Graduate Studies/PSYC 5316-010 Advanced Quantitative Methods & Experiment Design/Lab 3 - the Sternberg memory scanning task (an experiment on short term memory)","no","mono","no","18","no","white","no","yes","768","legacy","11","11","C:/Users/suici/Desktop/Tarleton/Fall 2021 - Graduate Studies/PSYC 5316-010 Advanced Quantitative Methods & Experiment Design/Lab 3 - the Sternberg memory scanning task (an experiment on short term memory)/SM-subject-1.csv","legacy","8 7 3","Lentiform Loewenfeld","3.3.9","1","y","0","left","left","left","left","NA","453","6212","9614","453","NA","2","legacy","3","1024","2","48000","-16","experiment","1","odd","8","151860","79732","148626","149659","1305","85944","149660","NA","1307","153860","150660","154313","10921","153860","NA","Sternberg task","24","12143","24","yes","1024"
"100","100","512.28","512.28","black","experiment","legacy","legacy","legacy","0","uniform","1","undefined","1","right","24","0","24","24","0","0","24","24","0","24","24","24","0","24","0","10/17/21 07:54:37","The main experiment item","yes","Sternbergtask.osexp","C:/Users/suici/Desktop/Tarleton/Fall 2021 - Graduate Studies/PSYC 5316-010 Advanced Quantitative Methods & Experiment Design/Lab 3 - the Sternberg memory scanning task (an experiment on short term memory)","no","mono","no","18","no","white","no","yes","768","legacy","12","11","C:/Users/suici/Desktop/Tarleton/Fall 2021 - Graduate Studies/PSYC 5316-010 Advanced Quantitative Methods & Experiment Design/Lab 3 - the Sternberg memory scanning task (an experiment on short term memory)/SM-subject-1.csv","legacy","4 2 7 6 1 3","Lentiform Loewenfeld","3.3.9","0","n","0","right","left","left","right","NA","664","6212","9614","664","NA","2","legacy","6","1024","2","48000","-16","experiment","1","odd","8","157552","79732","154315","155351","1305","85944","155352","NA","1307","159552","156352","160217","10921","159552","NA","Sternberg task","25","12807","25","yes","1024"
"100","100","513.307692308","513.307692308","black","experiment","legacy","legacy","legacy","0","uniform","1","undefined","1","left","25","0","25","25","0","0","25","25","0","25","25","25","0","25","0","10/17/21 07:54:37","The main experiment item","yes","Sternbergtask.osexp","C:/Users/suici/Desktop/Tarleton/Fall 2021 - Graduate Studies/PSYC 5316-010 Advanced Quantitative Methods & Experiment Design/Lab 3 - the Sternberg memory scanning task (an experiment on short term memory)","no","mono","no","18","no","white","no","yes","768","legacy","13","11","C:/Users/suici/Desktop/Tarleton/Fall 2021 - Graduate Studies/PSYC 5316-010 Advanced Quantitative Methods & Experiment Design/Lab 3 - the Sternberg memory scanning task (an experiment on short term memory)/SM-subject-1.csv","legacy","9 5 3 8 4","Lentiform Loewenfeld","3.3.9","1","y","0","left","left","left","left","NA","539","6212","9614","539","NA","2","legacy","5","1024","2","48000","-16","experiment","1","odd","9","163453","79732","160218","161252","1305","85944","161253","NA","1307","165453","162253","165992","10921","165453","NA","Sternberg task","26","13346","26","yes","1024"
"100","100","513.111111111","513.111111111","black","experiment","legacy","legacy","legacy","0","uniform","1","undefined","1","right","26","0","26","26","0","0","26","26","0","26","26","26","0","26","0","10/17/21 07:54:37","The main experiment item","yes","Sternbergtask.osexp","C:/Users/suici/Desktop/Tarleton/Fall 2021 - Graduate Studies/PSYC 5316-010 Advanced Quantitative Methods & Experiment Design/Lab 3 - the Sternberg memory scanning task (an experiment on short term memory)","no","mono","no","18","no","white","no","yes","768","legacy","14","11","C:/Users/suici/Desktop/Tarleton/Fall 2021 - Graduate Studies/PSYC 5316-010 Advanced Quantitative Methods & Experiment Design/Lab 3 - the Sternberg memory scanning task (an experiment on short term memory)/SM-subject-1.csv","legacy","9 7 4 5 8","Lentiform Loewenfeld","3.3.9","0","n","0","right","left","left","right","NA","508","6212","9614","508","NA","2","legacy","5","1024","2","48000","-16","experiment","1","odd","6","169229","79732","165994","167028","1305","85944","167029","NA","1307","171229","168029","171737","10921","171229","NA","Sternberg task","27","13854","27","yes","1024"
"100","100","512","512","black","experiment","legacy","legacy","legacy","0","uniform","1","undefined","1","left","27","0","27","27","0","0","27","27","0","27","27","27","0","27","0","10/17/21 07:54:37","The main experiment item","yes","Sternbergtask.osexp","C:/Users/suici/Desktop/Tarleton/Fall 2021 - Graduate Studies/PSYC 5316-010 Advanced Quantitative Methods & Experiment Design/Lab 3 - the Sternberg memory scanning task (an experiment on short term memory)","no","mono","no","18","no","white","no","yes","768","legacy","15","11","C:/Users/suici/Desktop/Tarleton/Fall 2021 - Graduate Studies/PSYC 5316-010 Advanced Quantitative Methods & Experiment Design/Lab 3 - the Sternberg memory scanning task (an experiment on short term memory)/SM-subject-1.csv","legacy","8 3","Lentiform Loewenfeld","3.3.9","2","y","0","left","left","left","left","NA","482","6212","9614","482","NA","2","legacy","2","1024","2","48000","-16","experiment","1","odd","3","174974","79732","171739","172773","1305","85944","172774","NA","1307","176974","173774","177457","10921","176974","NA","Sternberg task","28","14336","28","yes","1024"
"100","100","509.103448276","509.103448276","black","experiment","legacy","legacy","legacy","0","uniform","1","undefined","1","left","28","0","28","28","0","0","28","28","0","28","28","28","0","28","0","10/17/21 07:54:37","The main experiment item","yes","Sternbergtask.osexp","C:/Users/suici/Desktop/Tarleton/Fall 2021 - Graduate Studies/PSYC 5316-010 Advanced Quantitative Methods & Experiment Design/Lab 3 - the Sternberg memory scanning task (an experiment on short term memory)","no","mono","no","18","no","white","no","yes","768","legacy","16","11","C:/Users/suici/Desktop/Tarleton/Fall 2021 - Graduate Studies/PSYC 5316-010 Advanced Quantitative Methods & Experiment Design/Lab 3 - the Sternberg memory scanning task (an experiment on short term memory)/SM-subject-1.csv","legacy","6 9 3 1","Lentiform Loewenfeld","3.3.9","4","y","0","left","left","left","left","NA","428","6212","9614","428","NA","2","legacy","4","1024","2","48000","-16","experiment","1","odd","1","180693","79732","177458","178492","1305","85944","178493","NA","1307","182693","179493","183121","10921","182693","NA","Sternberg task","29","14764","29","yes","1024"
"100","100","507.966666667","507.966666667","black","experiment","legacy","legacy","legacy","0","uniform","1","undefined","1","left","29","0","29","29","0","0","29","29","0","29","29","29","0","29","0","10/17/21 07:54:37","The main experiment item","yes","Sternbergtask.osexp","C:/Users/suici/Desktop/Tarleton/Fall 2021 - Graduate Studies/PSYC 5316-010 Advanced Quantitative Methods & Experiment Design/Lab 3 - the Sternberg memory scanning task (an experiment on short term memory)","no","mono","no","18","no","white","no","yes","768","legacy","17","11","C:/Users/suici/Desktop/Tarleton/Fall 2021 - Graduate Studies/PSYC 5316-010 Advanced Quantitative Methods & Experiment Design/Lab 3 - the Sternberg memory scanning task (an experiment on short term memory)/SM-subject-1.csv","legacy","6 2","Lentiform Loewenfeld","3.3.9","1","y","0","left","left","left","left","NA","475","6212","9614","475","NA","2","legacy","2","1024","2","48000","-16","experiment","1","odd","6","186357","79732","183123","184157","1305","85944","184157","NA","1307","188357","185157","188833","10921","188357","NA","Sternberg task","30","15239","30","yes","1024"
"100","100","506.677419355","506.677419355","black","experiment","legacy","legacy","legacy","0","uniform","1","undefined","1","right","30","0","30","30","0","0","30","30","0","30","30","30","0","30","0","10/17/21 07:54:37","The main experiment item","yes","Sternbergtask.osexp","C:/Users/suici/Desktop/Tarleton/Fall 2021 - Graduate Studies/PSYC 5316-010 Advanced Quantitative Methods & Experiment Design/Lab 3 - the Sternberg memory scanning task (an experiment on short term memory)","no","mono","no","18","no","white","no","yes","768","legacy","18","11","C:/Users/suici/Desktop/Tarleton/Fall 2021 - Graduate Studies/PSYC 5316-010 Advanced Quantitative Methods & Experiment Design/Lab 3 - the Sternberg memory scanning task (an experiment on short term memory)/SM-subject-1.csv","legacy","1 5 3 2 8","Lentiform Loewenfeld","3.3.9","0","n","0","right","left","left","right","NA","468","6212","9614","468","NA","2","legacy","5","1024","2","48000","-16","experiment","1","odd","4","192069","79732","188834","189868","1305","85944","189869","NA","1307","194069","190869","194537","10921","194069","NA","Sternberg task","31","15707","31","yes","1024"
"100","100","508.1875","508.1875","black","experiment","legacy","legacy","legacy","0","uniform","1","undefined","1","right","31","0","31","31","0","0","31","31","0","31","31","31","0","31","0","10/17/21 07:54:37","The main experiment item","yes","Sternbergtask.osexp","C:/Users/suici/Desktop/Tarleton/Fall 2021 - Graduate Studies/PSYC 5316-010 Advanced Quantitative Methods & Experiment Design/Lab 3 - the Sternberg memory scanning task (an experiment on short term memory)","no","mono","no","18","no","white","no","yes","768","legacy","19","11","C:/Users/suici/Desktop/Tarleton/Fall 2021 - Graduate Studies/PSYC 5316-010 Advanced Quantitative Methods & Experiment Design/Lab 3 - the Sternberg memory scanning task (an experiment on short term memory)/SM-subject-1.csv","legacy","7 1 5 6 3","Lentiform Loewenfeld","3.3.9","0","n","0","right","left","left","right","NA","555","6212","9614","555","NA","2","legacy","5","1024","2","48000","-16","experiment","1","odd","8","197774","79732","194539","195574","1305","85944","195574","NA","1307","199774","196574","200329","10921","199774","NA","Sternberg task","32","16262","32","yes","1024"
"100","100","504.242424242","504.242424242","black","experiment","legacy","legacy","legacy","0","uniform","1","undefined","1","right","32","0","32","32","0","0","32","32","0","32","32","32","0","32","0","10/17/21 07:54:37","The main experiment item","yes","Sternbergtask.osexp","C:/Users/suici/Desktop/Tarleton/Fall 2021 - Graduate Studies/PSYC 5316-010 Advanced Quantitative Methods & Experiment Design/Lab 3 - the Sternberg memory scanning task (an experiment on short term memory)","no","mono","no","18","no","white","no","yes","768","legacy","20","11","C:/Users/suici/Desktop/Tarleton/Fall 2021 - Graduate Studies/PSYC 5316-010 Advanced Quantitative Methods & Experiment Design/Lab 3 - the Sternberg memory scanning task (an experiment on short term memory)/SM-subject-1.csv","legacy","1 8 7","Lentiform Loewenfeld","3.3.9","0","n","0","right","left","left","right","NA","378","6212","9614","378","NA","2","legacy","3","1024","2","48000","-16","experiment","1","odd","4","203566","79732","200331","201365","1305","85944","201366","NA","1307","205566","202366","205944","10921","205566","NA","Sternberg task","33","16640","33","yes","1024"
"100","100","502.941176471","502.941176471","black","experiment","legacy","legacy","legacy","0","uniform","1","undefined","1","left","33","0","33","33","0","0","33","33","0","33","33","33","0","33","0","10/17/21 07:54:37","The main experiment item","yes","Sternbergtask.osexp","C:/Users/suici/Desktop/Tarleton/Fall 2021 - Graduate Studies/PSYC 5316-010 Advanced Quantitative Methods & Experiment Design/Lab 3 - the Sternberg memory scanning task (an experiment on short term memory)","no","mono","no","18","no","white","no","yes","768","legacy","21","11","C:/Users/suici/Desktop/Tarleton/Fall 2021 - Graduate Studies/PSYC 5316-010 Advanced Quantitative Methods & Experiment Design/Lab 3 - the Sternberg memory scanning task (an experiment on short term memory)/SM-subject-1.csv","legacy","8 1 6","Lentiform Loewenfeld","3.3.9","3","y","0","left","left","left","left","NA","460","6212","9614","460","NA","2","legacy","3","1024","2","48000","-16","experiment","1","odd","6","209181","79732","205946","206980","1305","85944","206981","NA","1307","211181","207981","211641","10921","211181","NA","Sternberg task","34","17100","34","yes","1024"
"100","100","501.428571429","501.428571429","black","experiment","legacy","legacy","legacy","0","uniform","1","undefined","1","right","34","0","34","34","0","0","34","34","0","34","34","34","0","34","0","10/17/21 07:54:37","The main experiment item","yes","Sternbergtask.osexp","C:/Users/suici/Desktop/Tarleton/Fall 2021 - Graduate Studies/PSYC 5316-010 Advanced Quantitative Methods & Experiment Design/Lab 3 - the Sternberg memory scanning task (an experiment on short term memory)","no","mono","no","18","no","white","no","yes","768","legacy","22","11","C:/Users/suici/Desktop/Tarleton/Fall 2021 - Graduate Studies/PSYC 5316-010 Advanced Quantitative Methods & Experiment Design/Lab 3 - the Sternberg memory scanning task (an experiment on short term memory)/SM-subject-1.csv","legacy","2 6 4 3 9","Lentiform Loewenfeld","3.3.9","0","n","0","right","left","left","right","NA","450","6212","9614","450","NA","2","legacy","5","1024","2","48000","-16","experiment","1","odd","1","214878","79732","211643","212677","1305","85944","212678","NA","1307","216878","213678","217328","10921","216878","NA","Sternberg task","35","17550","35","yes","1024"
"100","100","498.694444444","498.694444444","black","experiment","legacy","legacy","legacy","0","uniform","1","undefined","1","right","35","0","35","35","0","0","35","35","0","35","35","35","0","35","0","10/17/21 07:54:37","The main experiment item","yes","Sternbergtask.osexp","C:/Users/suici/Desktop/Tarleton/Fall 2021 - Graduate Studies/PSYC 5316-010 Advanced Quantitative Methods & Experiment Design/Lab 3 - the Sternberg memory scanning task (an experiment on short term memory)","no","mono","no","18","no","white","no","yes","768","legacy","23","11","C:/Users/suici/Desktop/Tarleton/Fall 2021 - Graduate Studies/PSYC 5316-010 Advanced Quantitative Methods & Experiment Design/Lab 3 - the Sternberg memory scanning task (an experiment on short term memory)/SM-subject-1.csv","legacy","6 8","Lentiform Loewenfeld","3.3.9","0","n","0","right","left","left","right","NA","403","6212","9614","403","NA","2","legacy","2","1024","2","48000","-16","experiment","1","odd","9","220565","79732","217330","218364","1305","85944","218365","NA","1307","222565","219365","222968","10921","222565","NA","Sternberg task","36","17953","36","yes","1024"
"97.2972972973","97.2972972973","498.054054054","498.054054054","black","experiment","legacy","legacy","legacy","0","uniform","0","undefined","0","left","36","0","36","36","0","0","36","36","0","36","36","36","0","36","0","10/17/21 07:54:37","The main experiment item","yes","Sternbergtask.osexp","C:/Users/suici/Desktop/Tarleton/Fall 2021 - Graduate Studies/PSYC 5316-010 Advanced Quantitative Methods & Experiment Design/Lab 3 - the Sternberg memory scanning task (an experiment on short term memory)","no","mono","no","18","no","white","no","yes","768","legacy","24","11","C:/Users/suici/Desktop/Tarleton/Fall 2021 - Graduate Studies/PSYC 5316-010 Advanced Quantitative Methods & Experiment Design/Lab 3 - the Sternberg memory scanning task (an experiment on short term memory)/SM-subject-1.csv","legacy","3 9 6 2","Lentiform Loewenfeld","3.3.9","4","y","0","right","left","left","right","NA","475","6212","9614","475","NA","2","legacy","4","1024","2","48000","-16","experiment","1","odd","2","226205","79732","222970","224004","1305","85944","224005","NA","1307","228205","225005","228681","10921","228205","NA","Sternberg task","36","18428","37","yes","1024"
"97.3684210526","97.3684210526","497.473684211","497.473684211","black","experiment","legacy","legacy","legacy","0","uniform","1","undefined","1","left","37","0","37","37","0","0","37","37","0","37","37","37","0","37","0","10/17/21 07:54:37","The main experiment item","yes","Sternbergtask.osexp","C:/Users/suici/Desktop/Tarleton/Fall 2021 - Graduate Studies/PSYC 5316-010 Advanced Quantitative Methods & Experiment Design/Lab 3 - the Sternberg memory scanning task (an experiment on short term memory)","no","mono","no","18","no","white","no","yes","768","legacy","25","11","C:/Users/suici/Desktop/Tarleton/Fall 2021 - Graduate Studies/PSYC 5316-010 Advanced Quantitative Methods & Experiment Design/Lab 3 - the Sternberg memory scanning task (an experiment on short term memory)/SM-subject-1.csv","legacy","4 6 5 8","Lentiform Loewenfeld","3.3.9","1","y","0","left","left","left","left","NA","476","6212","9614","476","NA","2","legacy","4","1024","2","48000","-16","experiment","1","odd","4","231917","79732","222970","229716","1305","85944","229717","228682","1307","233917","230717","234393","10921","233917","NA","Sternberg task","37","18904","38","yes","1024"
"97.4358974359","97.4358974359","498.461538462","498.461538462","black","experiment","legacy","legacy","legacy","0","uniform","1","undefined","1","right","38","0","38","38","0","0","38","38","0","38","38","38","0","38","0","10/17/21 07:54:37","The main experiment item","yes","Sternbergtask.osexp","C:/Users/suici/Desktop/Tarleton/Fall 2021 - Graduate Studies/PSYC 5316-010 Advanced Quantitative Methods & Experiment Design/Lab 3 - the Sternberg memory scanning task (an experiment on short term memory)","no","mono","no","18","no","white","no","yes","768","legacy","26","11","C:/Users/suici/Desktop/Tarleton/Fall 2021 - Graduate Studies/PSYC 5316-010 Advanced Quantitative Methods & Experiment Design/Lab 3 - the Sternberg memory scanning task (an experiment on short term memory)/SM-subject-1.csv","legacy","3 9 8 1 6 4","Lentiform Loewenfeld","3.3.9","0","n","0","right","left","left","right","NA","536","6212","9614","536","NA","2","legacy","6","1024","2","48000","-16","experiment","1","odd","7","237632","79732","234395","235431","1305","85944","235432","228682","1307","239632","236432","240169","10921","239632","NA","Sternberg task","38","19440","39","yes","1024"
"97.5","97.5","499.2","499.2","black","experiment","legacy","legacy","legacy","0","uniform","1","undefined","1","left","39","0","39","39","0","0","39","39","0","39","39","39","0","39","0","10/17/21 07:54:37","The main experiment item","yes","Sternbergtask.osexp","C:/Users/suici/Desktop/Tarleton/Fall 2021 - Graduate Studies/PSYC 5316-010 Advanced Quantitative Methods & Experiment Design/Lab 3 - the Sternberg memory scanning task (an experiment on short term memory)","no","mono","no","18","no","white","no","yes","768","legacy","27","11","C:/Users/suici/Desktop/Tarleton/Fall 2021 - Graduate Studies/PSYC 5316-010 Advanced Quantitative Methods & Experiment Design/Lab 3 - the Sternberg memory scanning task (an experiment on short term memory)/SM-subject-1.csv","legacy","6 8 9 3 4 9","Lentiform Loewenfeld","3.3.9","5","y","0","left","left","left","left","NA","528","6212","9614","528","NA","2","legacy","6","1024","2","48000","-16","experiment","1","odd","4","243408","79732","240170","241206","1305","85944","241208","228682","1307","245408","242208","245936","10921","245408","NA","Sternberg task","39","19968","40","yes","1024"
"97.5609756098","97.5609756098","497.585365854","497.585365854","black","experiment","legacy","legacy","legacy","0","uniform","1","undefined","1","left","40","0","40","40","0","0","40","40","0","40","40","40","0","40","0","10/17/21 07:54:37","The main experiment item","yes","Sternbergtask.osexp","C:/Users/suici/Desktop/Tarleton/Fall 2021 - Graduate Studies/PSYC 5316-010 Advanced Quantitative Methods & Experiment Design/Lab 3 - the Sternberg memory scanning task (an experiment on short term memory)","no","mono","no","18","no","white","no","yes","768","legacy","28","11","C:/Users/suici/Desktop/Tarleton/Fall 2021 - Graduate Studies/PSYC 5316-010 Advanced Quantitative Methods & Experiment Design/Lab 3 - the Sternberg memory scanning task (an experiment on short term memory)/SM-subject-1.csv","legacy","3 5 9 6 2 4","Lentiform Loewenfeld","3.3.9","1","y","0","left","left","left","left","NA","433","6212","9614","433","NA","2","legacy","6","1024","2","48000","-16","experiment","1","odd","3","249176","79732","245938","246975","1305","85944","246976","228682","1307","251176","247976","251609","10921","251176","NA","Sternberg task","40","20401","41","yes","1024"
"97.619047619","97.619047619","495.904761905","495.904761905","black","experiment","legacy","legacy","legacy","0","uniform","1","undefined","1","left","41","0","41","41","0","0","41","41","0","41","41","41","0","41","0","10/17/21 07:54:37","The main experiment item","yes","Sternbergtask.osexp","C:/Users/suici/Desktop/Tarleton/Fall 2021 - Graduate Studies/PSYC 5316-010 Advanced Quantitative Methods & Experiment Design/Lab 3 - the Sternberg memory scanning task (an experiment on short term memory)","no","mono","no","18","no","white","no","yes","768","legacy","29","11","C:/Users/suici/Desktop/Tarleton/Fall 2021 - Graduate Studies/PSYC 5316-010 Advanced Quantitative Methods & Experiment Design/Lab 3 - the Sternberg memory scanning task (an experiment on short term memory)/SM-subject-1.csv","legacy","8 9 5 6 7","Lentiform Loewenfeld","3.3.9","1","y","0","left","left","left","left","NA","427","6212","9614","427","NA","2","legacy","5","1024","2","48000","-16","experiment","1","odd","8","254846","79732","251611","252645","1305","85944","252646","228682","1307","256846","253646","257273","10921","256846","NA","Sternberg task","41","20828","42","yes","1024"
"97.6744186047","97.6744186047","495.348837209","495.348837209","black","experiment","legacy","legacy","legacy","0","uniform","1","undefined","1","right","42","0","42","42","0","0","42","42","0","42","42","42","0","42","0","10/17/21 07:54:37","The main experiment item","yes","Sternbergtask.osexp","C:/Users/suici/Desktop/Tarleton/Fall 2021 - Graduate Studies/PSYC 5316-010 Advanced Quantitative Methods & Experiment Design/Lab 3 - the Sternberg memory scanning task (an experiment on short term memory)","no","mono","no","18","no","white","no","yes","768","legacy","30","11","C:/Users/suici/Desktop/Tarleton/Fall 2021 - Graduate Studies/PSYC 5316-010 Advanced Quantitative Methods & Experiment Design/Lab 3 - the Sternberg memory scanning task (an experiment on short term memory)/SM-subject-1.csv","legacy","1 7 5 2 9","Lentiform Loewenfeld","3.3.9","0","n","0","right","left","left","right","NA","472","6212","9614","472","NA","2","legacy","5","1024","2","48000","-16","experiment","1","odd","3","260512","79732","257275","258311","1305","85944","258312","228682","1307","262512","259312","262985","10921","262512","NA","Sternberg task","42","21300","43","yes","1024"
"97.7272727273","97.7272727273","494.772727273","494.772727273","black","experiment","legacy","legacy","legacy","0","uniform","1","undefined","1","right","43","0","43","43","0","0","43","43","0","43","43","43","0","43","0","10/17/21 07:54:37","The main experiment item","yes","Sternbergtask.osexp","C:/Users/suici/Desktop/Tarleton/Fall 2021 - Graduate Studies/PSYC 5316-010 Advanced Quantitative Methods & Experiment Design/Lab 3 - the Sternberg memory scanning task (an experiment on short term memory)","no","mono","no","18","no","white","no","yes","768","legacy","31","11","C:/Users/suici/Desktop/Tarleton/Fall 2021 - Graduate Studies/PSYC 5316-010 Advanced Quantitative Methods & Experiment Design/Lab 3 - the Sternberg memory scanning task (an experiment on short term memory)/SM-subject-1.csv","legacy","1 4 9 2 5","Lentiform Loewenfeld","3.3.9","0","n","0","right","left","left","right","NA","470","6212","9614","470","NA","2","legacy","5","1024","2","48000","-16","experiment","1","odd","7","266226","79732","262986","264025","1305","85944","264026","228682","1307","268226","265026","268697","10921","268226","NA","Sternberg task","43","21770","44","yes","1024"
"97.7777777778","97.7777777778","490.733333333","490.733333333","black","experiment","legacy","legacy","legacy","0","uniform","1","undefined","1","left","44","0","44","44","0","0","44","44","0","44","44","44","0","44","0","10/17/21 07:54:37","The main experiment item","yes","Sternbergtask.osexp","C:/Users/suici/Desktop/Tarleton/Fall 2021 - Graduate Studies/PSYC 5316-010 Advanced Quantitative Methods & Experiment Design/Lab 3 - the Sternberg memory scanning task (an experiment on short term memory)","no","mono","no","18","no","white","no","yes","768","legacy","32","11","C:/Users/suici/Desktop/Tarleton/Fall 2021 - Graduate Studies/PSYC 5316-010 Advanced Quantitative Methods & Experiment Design/Lab 3 - the Sternberg memory scanning task (an experiment on short term memory)/SM-subject-1.csv","legacy","7","Lentiform Loewenfeld","3.3.9","1","y","0","left","left","left","left","NA","313","6212","9614","313","NA","2","legacy","1","1024","2","48000","-16","experiment","1","odd","7","271935","79732","268698","269734","1305","85944","269735","228682","1307","273935","270735","274249","10921","273935","NA","Sternberg task","44","22083","45","yes","1024"
"97.8260869565","97.8260869565","490.52173913","490.52173913","black","experiment","legacy","legacy","legacy","0","uniform","1","undefined","1","left","45","0","45","45","0","0","45","45","0","45","45","45","0","45","0","10/17/21 07:54:37","The main experiment item","yes","Sternbergtask.osexp","C:/Users/suici/Desktop/Tarleton/Fall 2021 - Graduate Studies/PSYC 5316-010 Advanced Quantitative Methods & Experiment Design/Lab 3 - the Sternberg memory scanning task (an experiment on short term memory)","no","mono","no","18","no","white","no","yes","768","legacy","33","11","C:/Users/suici/Desktop/Tarleton/Fall 2021 - Graduate Studies/PSYC 5316-010 Advanced Quantitative Methods & Experiment Design/Lab 3 - the Sternberg memory scanning task (an experiment on short term memory)/SM-subject-1.csv","legacy","9 1 6 7 8","Lentiform Loewenfeld","3.3.9","1","y","0","left","left","left","left","NA","481","6212","9614","481","NA","2","legacy","5","1024","2","48000","-16","experiment","1","odd","9","277487","79732","274250","275286","1305","85944","275287","228682","1307","279487","276287","279969","10921","279487","NA","Sternberg task","45","22564","46","yes","1024"
"97.8723404255","97.8723404255","490.127659574","490.127659574","black","experiment","legacy","legacy","legacy","0","uniform","1","undefined","1","left","46","0","46","46","0","0","46","46","0","46","46","46","0","46","0","10/17/21 07:54:37","The main experiment item","yes","Sternbergtask.osexp","C:/Users/suici/Desktop/Tarleton/Fall 2021 - Graduate Studies/PSYC 5316-010 Advanced Quantitative Methods & Experiment Design/Lab 3 - the Sternberg memory scanning task (an experiment on short term memory)","no","mono","no","18","no","white","no","yes","768","legacy","34","11","C:/Users/suici/Desktop/Tarleton/Fall 2021 - Graduate Studies/PSYC 5316-010 Advanced Quantitative Methods & Experiment Design/Lab 3 - the Sternberg memory scanning task (an experiment on short term memory)/SM-subject-1.csv","legacy","7 2 3","Lentiform Loewenfeld","3.3.9","3","y","0","left","left","left","left","NA","472","6212","9614","472","NA","2","legacy","3","1024","2","48000","-16","experiment","1","odd","3","283209","79732","279970","281008","1305","85944","281009","228682","1307","285209","282009","285681","10921","285209","NA","Sternberg task","46","23036","47","yes","1024"
"97.9166666667","97.9166666667","489.5625","489.5625","black","experiment","legacy","legacy","legacy","0","uniform","1","undefined","1","right","47","0","47","47","0","0","47","47","0","47","47","47","0","47","0","10/17/21 07:54:37","The main experiment item","yes","Sternbergtask.osexp","C:/Users/suici/Desktop/Tarleton/Fall 2021 - Graduate Studies/PSYC 5316-010 Advanced Quantitative Methods & Experiment Design/Lab 3 - the Sternberg memory scanning task (an experiment on short term memory)","no","mono","no","18","no","white","no","yes","768","legacy","35","11","C:/Users/suici/Desktop/Tarleton/Fall 2021 - Graduate Studies/PSYC 5316-010 Advanced Quantitative Methods & Experiment Design/Lab 3 - the Sternberg memory scanning task (an experiment on short term memory)/SM-subject-1.csv","legacy","6 3 1 7 9 8","Lentiform Loewenfeld","3.3.9","0","n","0","right","left","left","right","NA","463","6212","9614","463","NA","2","legacy","6","1024","2","48000","-16","experiment","1","odd","4","288922","79732","285683","286720","1305","85944","286721","228682","1307","290922","287721","291385","10921","290922","NA","Sternberg task","47","23499","48","yes","1024"
"97.9591836735","97.9591836735","487.755102041","487.755102041","black","experiment","legacy","legacy","legacy","0","uniform","1","undefined","1","left","48","0","48","48","0","0","48","48","0","48","48","48","0","48","0","10/17/21 07:54:37","The main experiment item","yes","Sternbergtask.osexp","C:/Users/suici/Desktop/Tarleton/Fall 2021 - Graduate Studies/PSYC 5316-010 Advanced Quantitative Methods & Experiment Design/Lab 3 - the Sternberg memory scanning task (an experiment on short term memory)","no","mono","no","18","no","white","no","yes","768","legacy","36","11","C:/Users/suici/Desktop/Tarleton/Fall 2021 - Graduate Studies/PSYC 5316-010 Advanced Quantitative Methods & Experiment Design/Lab 3 - the Sternberg memory scanning task (an experiment on short term memory)/SM-subject-1.csv","legacy","7 8 4 6 9 5","Lentiform Loewenfeld","3.3.9","4","y","0","left","left","left","left","NA","401","6212","9614","401","NA","2","legacy","6","1024","2","48000","-16","experiment","1","odd","6","294624","79732","291387","292423","1305","85944","292424","228682","1307","296624","293424","297025","10921","296624","NA","Sternberg task","48","23900","49","yes","1024"
"98","98","487.1","487.1","black","experiment","legacy","legacy","legacy","0","uniform","1","undefined","1","right","49","0","49","49","0","0","49","49","0","49","49","49","0","49","0","10/17/21 07:54:37","The main experiment item","yes","Sternbergtask.osexp","C:/Users/suici/Desktop/Tarleton/Fall 2021 - Graduate Studies/PSYC 5316-010 Advanced Quantitative Methods & Experiment Design/Lab 3 - the Sternberg memory scanning task (an experiment on short term memory)","no","mono","no","18","no","white","no","yes","768","legacy","37","11","C:/Users/suici/Desktop/Tarleton/Fall 2021 - Graduate Studies/PSYC 5316-010 Advanced Quantitative Methods & Experiment Design/Lab 3 - the Sternberg memory scanning task (an experiment on short term memory)/SM-subject-1.csv","legacy","7 6 4 8 1 2","Lentiform Loewenfeld","3.3.9","0","n","0","right","left","left","right","NA","455","6212","9614","455","NA","2","legacy","6","1024","2","48000","-16","experiment","1","odd","9","300265","79732","297027","298064","1305","85944","298065","228682","1307","302265","299065","302721","10921","302265","NA","Sternberg task","49","24355","50","yes","1024"
"98.0392156863","98.0392156863","486.823529412","486.823529412","black","experiment","legacy","legacy","legacy","0","uniform","1","undefined","1","right","50","0","50","50","0","0","50","50","0","50","50","50","0","50","0","10/17/21 07:54:37","The main experiment item","yes","Sternbergtask.osexp","C:/Users/suici/Desktop/Tarleton/Fall 2021 - Graduate Studies/PSYC 5316-010 Advanced Quantitative Methods & Experiment Design/Lab 3 - the Sternberg memory scanning task (an experiment on short term memory)","no","mono","no","18","no","white","no","yes","768","legacy","38","11","C:/Users/suici/Desktop/Tarleton/Fall 2021 - Graduate Studies/PSYC 5316-010 Advanced Quantitative Methods & Experiment Design/Lab 3 - the Sternberg memory scanning task (an experiment on short term memory)/SM-subject-1.csv","legacy","7 1 8 4 9 3","Lentiform Loewenfeld","3.3.9","0","n","0","right","left","left","right","NA","473","6212","9614","473","NA","2","legacy","6","1024","2","48000","-16","experiment","1","odd","6","305959","79732","302722","303758","1305","85944","303759","228682","1307","307959","304759","308432","10921","307959","NA","Sternberg task","50","24828","51","yes","1024"
"98.0769230769","98.0769230769","484.865384615","484.865384615","black","experiment","legacy","legacy","legacy","0","uniform","1","undefined","1","right","51","0","51","51","0","0","51","51","0","51","51","51","0","51","0","10/17/21 07:54:37","The main experiment item","yes","Sternbergtask.osexp","C:/Users/suici/Desktop/Tarleton/Fall 2021 - Graduate Studies/PSYC 5316-010 Advanced Quantitative Methods & Experiment Design/Lab 3 - the Sternberg memory scanning task (an experiment on short term memory)","no","mono","no","18","no","white","no","yes","768","legacy","39","11","C:/Users/suici/Desktop/Tarleton/Fall 2021 - Graduate Studies/PSYC 5316-010 Advanced Quantitative Methods & Experiment Design/Lab 3 - the Sternberg memory scanning task (an experiment on short term memory)/SM-subject-1.csv","legacy","8 9","Lentiform Loewenfeld","3.3.9","0","n","0","right","left","left","right","NA","385","6212","9614","385","NA","2","legacy","2","1024","2","48000","-16","experiment","1","odd","5","311671","79732","308434","309470","1305","85944","309471","228682","1307","313671","310471","314057","10921","313671","NA","Sternberg task","51","25213","52","yes","1024"
"98.1132075472","98.1132075472","490.830188679","490.830188679","black","experiment","legacy","legacy","legacy","0","uniform","1","undefined","1","left","52","0","52","52","0","0","52","52","0","52","52","52","0","52","0","10/17/21 07:54:37","The main experiment item","yes","Sternbergtask.osexp","C:/Users/suici/Desktop/Tarleton/Fall 2021 - Graduate Studies/PSYC 5316-010 Advanced Quantitative Methods & Experiment Design/Lab 3 - the Sternberg memory scanning task (an experiment on short term memory)","no","mono","no","18","no","white","no","yes","768","legacy","40","11","C:/Users/suici/Desktop/Tarleton/Fall 2021 - Graduate Studies/PSYC 5316-010 Advanced Quantitative Methods & Experiment Design/Lab 3 - the Sternberg memory scanning task (an experiment on short term memory)/SM-subject-1.csv","legacy","5 2 9 6 1 7","Lentiform Loewenfeld","3.3.9","3","y","0","left","left","left","left","NA","801","6212","9614","801","NA","2","legacy","6","1024","2","48000","-16","experiment","1","odd","9","317296","79732","314058","315095","1305","85944","315096","228682","1307","319296","316096","320097","10921","319296","NA","Sternberg task","52","26014","53","yes","1024"
"98.1481481481","98.1481481481","489.092592593","489.092592593","black","experiment","legacy","legacy","legacy","0","uniform","1","undefined","1","right","53","0","53","53","0","0","53","53","0","53","53","53","0","53","0","10/17/21 07:54:37","The main experiment item","yes","Sternbergtask.osexp","C:/Users/suici/Desktop/Tarleton/Fall 2021 - Graduate Studies/PSYC 5316-010 Advanced Quantitative Methods & Experiment Design/Lab 3 - the Sternberg memory scanning task (an experiment on short term memory)","no","mono","no","18","no","white","no","yes","768","legacy","41","11","C:/Users/suici/Desktop/Tarleton/Fall 2021 - Graduate Studies/PSYC 5316-010 Advanced Quantitative Methods & Experiment Design/Lab 3 - the Sternberg memory scanning task (an experiment on short term memory)/SM-subject-1.csv","legacy","3 9 1","Lentiform Loewenfeld","3.3.9","0","n","0","right","left","left","right","NA","397","6212","9614","397","NA","2","legacy","3","1024","2","48000","-16","experiment","1","odd","7","323340","79732","320099","321139","1305","85944","321140","228682","1307","325340","322140","325737","10921","325340","NA","Sternberg task","53","26411","54","yes","1024"
"98.1818181818","98.1818181818","488.345454545","488.345454545","black","experiment","legacy","legacy","legacy","0","uniform","1","undefined","1","right","54","0","54","54","0","0","54","54","0","54","54","54","0","54","0","10/17/21 07:54:37","The main experiment item","yes","Sternbergtask.osexp","C:/Users/suici/Desktop/Tarleton/Fall 2021 - Graduate Studies/PSYC 5316-010 Advanced Quantitative Methods & Experiment Design/Lab 3 - the Sternberg memory scanning task (an experiment on short term memory)","no","mono","no","18","no","white","no","yes","768","legacy","42","11","C:/Users/suici/Desktop/Tarleton/Fall 2021 - Graduate Studies/PSYC 5316-010 Advanced Quantitative Methods & Experiment Design/Lab 3 - the Sternberg memory scanning task (an experiment on short term memory)/SM-subject-1.csv","legacy","2 8 7 9 5 3","Lentiform Loewenfeld","3.3.9","0","n","0","right","left","left","right","NA","448","6212","9614","448","NA","2","legacy","6","1024","2","48000","-16","experiment","1","odd","6","328977","79732","325739","326776","1305","85944","326777","228682","1307","330977","327777","331425","10921","330977","NA","Sternberg task","54","26859","55","yes","1024"
"98.2142857143","98.2142857143","486.303571429","486.303571429","black","experiment","legacy","legacy","legacy","0","uniform","1","undefined","1","left","55","0","55","55","0","0","55","55","0","55","55","55","0","55","0","10/17/21 07:54:37","The main experiment item","yes","Sternbergtask.osexp","C:/Users/suici/Desktop/Tarleton/Fall 2021 - Graduate Studies/PSYC 5316-010 Advanced Quantitative Methods & Experiment Design/Lab 3 - the Sternberg memory scanning task (an experiment on short term memory)","no","mono","no","18","no","white","no","yes","768","legacy","43","11","C:/Users/suici/Desktop/Tarleton/Fall 2021 - Graduate Studies/PSYC 5316-010 Advanced Quantitative Methods & Experiment Design/Lab 3 - the Sternberg memory scanning task (an experiment on short term memory)/SM-subject-1.csv","legacy","3 9 7 6 4","Lentiform Loewenfeld","3.3.9","3","y","0","left","left","left","left","NA","374","6212","9614","374","NA","2","legacy","5","1024","2","48000","-16","experiment","1","odd","7","334666","79732","331427","332465","1305","85944","332465","228682","1307","336666","333466","337041","10921","336666","NA","Sternberg task","55","27233","56","yes","1024"
"98.2456140351","98.2456140351","484.842105263","484.842105263","black","experiment","legacy","legacy","legacy","0","uniform","1","undefined","1","right","56","0","56","56","0","0","56","56","0","56","56","56","0","56","0","10/17/21 07:54:37","The main experiment item","yes","Sternbergtask.osexp","C:/Users/suici/Desktop/Tarleton/Fall 2021 - Graduate Studies/PSYC 5316-010 Advanced Quantitative Methods & Experiment Design/Lab 3 - the Sternberg memory scanning task (an experiment on short term memory)","no","mono","no","18","no","white","no","yes","768","legacy","44","11","C:/Users/suici/Desktop/Tarleton/Fall 2021 - Graduate Studies/PSYC 5316-010 Advanced Quantitative Methods & Experiment Design/Lab 3 - the Sternberg memory scanning task (an experiment on short term memory)/SM-subject-1.csv","legacy","4 8 1 2","Lentiform Loewenfeld","3.3.9","0","n","0","right","left","left","right","NA","403","6212","9614","403","NA","2","legacy","4","1024","2","48000","-16","experiment","1","odd","7","340278","79732","337043","338077","1305","85944","338078","228682","1307","342278","339078","342681","10921","342278","NA","Sternberg task","56","27636","57","yes","1024"
"98.275862069","98.275862069","484.517241379","484.517241379","black","experiment","legacy","legacy","legacy","0","uniform","1","undefined","1","left","57","0","57","57","0","0","57","57","0","57","57","57","0","57","0","10/17/21 07:54:37","The main experiment item","yes","Sternbergtask.osexp","C:/Users/suici/Desktop/Tarleton/Fall 2021 - Graduate Studies/PSYC 5316-010 Advanced Quantitative Methods & Experiment Design/Lab 3 - the Sternberg memory scanning task (an experiment on short term memory)","no","mono","no","18","no","white","no","yes","768","legacy","45","11","C:/Users/suici/Desktop/Tarleton/Fall 2021 - Graduate Studies/PSYC 5316-010 Advanced Quantitative Methods & Experiment Design/Lab 3 - the Sternberg memory scanning task (an experiment on short term memory)/SM-subject-1.csv","legacy","6 1 2","Lentiform Loewenfeld","3.3.9","3","y","0","left","left","left","left","NA","466","6212","9614","466","NA","2","legacy","3","1024","2","48000","-16","experiment","1","odd","2","345918","79732","342683","343717","1305","85944","343718","228682","1307","347918","344718","348385","10921","347918","NA","Sternberg task","57","28102","58","yes","1024"
"98.3050847458","98.3050847458","482.457627119","482.457627119","black","experiment","legacy","legacy","legacy","0","uniform","1","undefined","1","left","58","0","58","58","0","0","58","58","0","58","58","58","0","58","0","10/17/21 07:54:37","The main experiment item","yes","Sternbergtask.osexp","C:/Users/suici/Desktop/Tarleton/Fall 2021 - Graduate Studies/PSYC 5316-010 Advanced Quantitative Methods & Experiment Design/Lab 3 - the Sternberg memory scanning task (an experiment on short term memory)","no","mono","no","18","no","white","no","yes","768","legacy","46","11","C:/Users/suici/Desktop/Tarleton/Fall 2021 - Graduate Studies/PSYC 5316-010 Advanced Quantitative Methods & Experiment Design/Lab 3 - the Sternberg memory scanning task (an experiment on short term memory)/SM-subject-1.csv","legacy","8","Lentiform Loewenfeld","3.3.9","1","y","0","left","left","left","left","NA","363","6212","9614","363","NA","2","legacy","1","1024","2","48000","-16","experiment","1","odd","8","351621","79732","348387","349420","1305","85944","349421","228682","1307","353621","350421","353985","10921","353621","NA","Sternberg task","58","28465","59","yes","1024"
"98.3333333333","98.3333333333","483.933333333","483.933333333","black","experiment","legacy","legacy","legacy","0","uniform","1","undefined","1","left","59","0","59","59","0","0","59","59","0","59","59","59","0","59","0","10/17/21 07:54:37","The main experiment item","yes","Sternbergtask.osexp","C:/Users/suici/Desktop/Tarleton/Fall 2021 - Graduate Studies/PSYC 5316-010 Advanced Quantitative Methods & Experiment Design/Lab 3 - the Sternberg memory scanning task (an experiment on short term memory)","no","mono","no","18","no","white","no","yes","768","legacy","47","11","C:/Users/suici/Desktop/Tarleton/Fall 2021 - Graduate Studies/PSYC 5316-010 Advanced Quantitative Methods & Experiment Design/Lab 3 - the Sternberg memory scanning task (an experiment on short term memory)/SM-subject-1.csv","legacy","3 2 1 4 7","Lentiform Loewenfeld","3.3.9","2","y","0","left","left","left","left","NA","571","6212","9614","571","NA","2","legacy","5","1024","2","48000","-16","experiment","1","odd","2","357221","79732","353987","355021","1305","85944","355021","228682","1307","359221","356021","359793","10921","359221","NA","Sternberg task","59","29036","60","yes","1024"
"98.3606557377","98.3606557377","483.524590164","483.524590164","black","experiment","legacy","legacy","legacy","0","uniform","1","undefined","1","right","60","0","60","60","0","0","60","60","0","60","60","60","0","60","0","10/17/21 07:54:37","The main experiment item","yes","Sternbergtask.osexp","C:/Users/suici/Desktop/Tarleton/Fall 2021 - Graduate Studies/PSYC 5316-010 Advanced Quantitative Methods & Experiment Design/Lab 3 - the Sternberg memory scanning task (an experiment on short term memory)","no","mono","no","18","no","white","no","yes","768","legacy","48","11","C:/Users/suici/Desktop/Tarleton/Fall 2021 - Graduate Studies/PSYC 5316-010 Advanced Quantitative Methods & Experiment Design/Lab 3 - the Sternberg memory scanning task (an experiment on short term memory)/SM-subject-1.csv","legacy","6 8 4","Lentiform Loewenfeld","3.3.9","0","n","0","right","left","left","right","NA","459","6212","9614","459","NA","2","legacy","3","1024","2","48000","-16","experiment","1","odd","1","363029","79732","359794","360828","1305","85944","360829","228682","1307","365029","361829","365488","10921","365029","NA","Sternberg task","60","29495","61","yes","1024"
"98.3870967742","98.3870967742","483.016129032","483.016129032","black","experiment","legacy","legacy","legacy","0","uniform","1","undefined","1","right","61","0","61","61","0","0","61","61","0","61","61","61","0","61","0","10/17/21 07:54:37","The main experiment item","yes","Sternbergtask.osexp","C:/Users/suici/Desktop/Tarleton/Fall 2021 - Graduate Studies/PSYC 5316-010 Advanced Quantitative Methods & Experiment Design/Lab 3 - the Sternberg memory scanning task (an experiment on short term memory)","no","mono","no","18","no","white","no","yes","768","legacy","49","11","C:/Users/suici/Desktop/Tarleton/Fall 2021 - Graduate Studies/PSYC 5316-010 Advanced Quantitative Methods & Experiment Design/Lab 3 - the Sternberg memory scanning task (an experiment on short term memory)/SM-subject-1.csv","legacy","9 8 2 7 4","Lentiform Loewenfeld","3.3.9","0","n","0","right","left","left","right","NA","452","6212","9614","452","NA","2","legacy","5","1024","2","48000","-16","experiment","1","odd","5","368725","79732","365490","366524","1305","85944","366525","228682","1307","370725","367525","371177","10921","370725","NA","Sternberg task","61","29947","62","yes","1024"
"98.4126984127","98.4126984127","482.380952381","482.380952381","black","experiment","legacy","legacy","legacy","0","uniform","1","undefined","1","left","62","0","62","62","0","0","62","62","0","62","62","62","0","62","0","10/17/21 07:54:37","The main experiment item","yes","Sternbergtask.osexp","C:/Users/suici/Desktop/Tarleton/Fall 2021 - Graduate Studies/PSYC 5316-010 Advanced Quantitative Methods & Experiment Design/Lab 3 - the Sternberg memory scanning task (an experiment on short term memory)","no","mono","no","18","no","white","no","yes","768","legacy","50","11","C:/Users/suici/Desktop/Tarleton/Fall 2021 - Graduate Studies/PSYC 5316-010 Advanced Quantitative Methods & Experiment Design/Lab 3 - the Sternberg memory scanning task (an experiment on short term memory)/SM-subject-1.csv","legacy","7 6","Lentiform Loewenfeld","3.3.9","2","y","0","left","left","left","left","NA","443","6212","9614","443","NA","2","legacy","2","1024","2","48000","-16","experiment","1","odd","6","374413","79732","371179","372212","1305","85944","372213","228682","1307","376413","373213","376857","10921","376413","NA","Sternberg task","62","30390","63","yes","1024"
"98.4375","98.4375","483.5","483.5","black","experiment","legacy","legacy","legacy","0","uniform","1","undefined","1","left","63","0","63","63","0","0","63","63","0","63","63","63","0","63","0","10/17/21 07:54:37","The main experiment item","yes","Sternbergtask.osexp","C:/Users/suici/Desktop/Tarleton/Fall 2021 - Graduate Studies/PSYC 5316-010 Advanced Quantitative Methods & Experiment Design/Lab 3 - the Sternberg memory scanning task (an experiment on short term memory)","no","mono","no","18","no","white","no","yes","768","legacy","51","11","C:/Users/suici/Desktop/Tarleton/Fall 2021 - Graduate Studies/PSYC 5316-010 Advanced Quantitative Methods & Experiment Design/Lab 3 - the Sternberg memory scanning task (an experiment on short term memory)/SM-subject-1.csv","legacy","4 9 7 8 5 3","Lentiform Loewenfeld","3.3.9","4","y","0","left","left","left","left","NA","554","6212","9614","554","NA","2","legacy","6","1024","2","48000","-16","experiment","1","odd","8","380094","79732","376859","377893","1305","85944","377894","228682","1307","382094","378894","382649","10921","382094","NA","Sternberg task","63","30944","64","yes","1024"
"98.4615384615","98.4615384615","482.261538462","482.261538462","black","experiment","legacy","legacy","legacy","0","uniform","1","undefined","1","left","64","0","64","64","0","0","64","64","0","64","64","64","0","64","0","10/17/21 07:54:37","The main experiment item","yes","Sternbergtask.osexp","C:/Users/suici/Desktop/Tarleton/Fall 2021 - Graduate Studies/PSYC 5316-010 Advanced Quantitative Methods & Experiment Design/Lab 3 - the Sternberg memory scanning task (an experiment on short term memory)","no","mono","no","18","no","white","no","yes","768","legacy","52","11","C:/Users/suici/Desktop/Tarleton/Fall 2021 - Graduate Studies/PSYC 5316-010 Advanced Quantitative Methods & Experiment Design/Lab 3 - the Sternberg memory scanning task (an experiment on short term memory)/SM-subject-1.csv","legacy","8 9 6 1","Lentiform Loewenfeld","3.3.9","2","y","0","left","left","left","left","NA","403","6212","9614","403","NA","2","legacy","4","1024","2","48000","-16","experiment","1","odd","9","385886","79732","382651","383685","1305","85944","383686","228682","1307","387886","384686","388289","10921","387886","NA","Sternberg task","64","31347","65","yes","1024"
"98.4848484848","98.4848484848","485.772727273","485.772727273","black","experiment","legacy","legacy","legacy","0","uniform","1","undefined","1","right","65","0","65","65","0","0","65","65","0","65","65","65","0","65","0","10/17/21 07:54:37","The main experiment item","yes","Sternbergtask.osexp","C:/Users/suici/Desktop/Tarleton/Fall 2021 - Graduate Studies/PSYC 5316-010 Advanced Quantitative Methods & Experiment Design/Lab 3 - the Sternberg memory scanning task (an experiment on short term memory)","no","mono","no","18","no","white","no","yes","768","legacy","53","11","C:/Users/suici/Desktop/Tarleton/Fall 2021 - Graduate Studies/PSYC 5316-010 Advanced Quantitative Methods & Experiment Design/Lab 3 - the Sternberg memory scanning task (an experiment on short term memory)/SM-subject-1.csv","legacy","1 6 4 3 9 7","Lentiform Loewenfeld","3.3.9","0","n","0","right","left","left","right","NA","714","6212","9614","714","NA","2","legacy","6","1024","2","48000","-16","experiment","1","odd","8","391526","79732","388291","389325","1305","85944","389326","228682","1307","393526","390326","394241","10921","393526","NA","Sternberg task","65","32061","66","yes","1024"
"98.5074626866","98.5074626866","486.925373134","486.925373134","black","experiment","legacy","legacy","legacy","0","uniform","1","undefined","1","right","66","0","66","66","0","0","66","66","0","66","66","66","0","66","0","10/17/21 07:54:37","The main experiment item","yes","Sternbergtask.osexp","C:/Users/suici/Desktop/Tarleton/Fall 2021 - Graduate Studies/PSYC 5316-010 Advanced Quantitative Methods & Experiment Design/Lab 3 - the Sternberg memory scanning task (an experiment on short term memory)","no","mono","no","18","no","white","no","yes","768","legacy","54","11","C:/Users/suici/Desktop/Tarleton/Fall 2021 - Graduate Studies/PSYC 5316-010 Advanced Quantitative Methods & Experiment Design/Lab 3 - the Sternberg memory scanning task (an experiment on short term memory)/SM-subject-1.csv","legacy","1 4 3 6 5","Lentiform Loewenfeld","3.3.9","0","n","0","right","left","left","right","NA","563","6212","9614","563","NA","2","legacy","5","1024","2","48000","-16","experiment","1","odd","8","397477","79732","394242","395276","1305","85944","395277","228682","1307","399477","396277","400040","10921","399477","NA","Sternberg task","66","32624","67","yes","1024"
"98.5294117647","98.5294117647","485.455882353","485.455882353","black","experiment","legacy","legacy","legacy","0","uniform","1","undefined","1","right","67","0","67","67","0","0","67","67","0","67","67","67","0","67","0","10/17/21 07:54:37","The main experiment item","yes","Sternbergtask.osexp","C:/Users/suici/Desktop/Tarleton/Fall 2021 - Graduate Studies/PSYC 5316-010 Advanced Quantitative Methods & Experiment Design/Lab 3 - the Sternberg memory scanning task (an experiment on short term memory)","no","mono","no","18","no","white","no","yes","768","legacy","55","11","C:/Users/suici/Desktop/Tarleton/Fall 2021 - Graduate Studies/PSYC 5316-010 Advanced Quantitative Methods & Experiment Design/Lab 3 - the Sternberg memory scanning task (an experiment on short term memory)/SM-subject-1.csv","legacy","7 8 6 1","Lentiform Loewenfeld","3.3.9","0","n","0","right","left","left","right","NA","387","6212","9614","387","NA","2","legacy","4","1024","2","48000","-16","experiment","1","odd","3","403277","79732","400042","401076","1305","85944","401077","228682","1307","405277","402077","405665","10921","405277","NA","Sternberg task","67","33011","68","yes","1024"
"98.5507246377","98.5507246377","483.985507246","483.985507246","black","experiment","legacy","legacy","legacy","0","uniform","1","undefined","1","left","68","0","68","68","0","0","68","68","0","68","68","68","0","68","0","10/17/21 07:54:37","The main experiment item","yes","Sternbergtask.osexp","C:/Users/suici/Desktop/Tarleton/Fall 2021 - Graduate Studies/PSYC 5316-010 Advanced Quantitative Methods & Experiment Design/Lab 3 - the Sternberg memory scanning task (an experiment on short term memory)","no","mono","no","18","no","white","no","yes","768","legacy","56","11","C:/Users/suici/Desktop/Tarleton/Fall 2021 - Graduate Studies/PSYC 5316-010 Advanced Quantitative Methods & Experiment Design/Lab 3 - the Sternberg memory scanning task (an experiment on short term memory)/SM-subject-1.csv","legacy","4 6 2 5 1","Lentiform Loewenfeld","3.3.9","5","y","0","left","left","left","left","NA","384","6212","9614","384","NA","2","legacy","5","1024","2","48000","-16","experiment","1","odd","1","408904","79732","405666","406703","1305","85944","406704","228682","1307","410904","407704","411289","10921","410904","NA","Sternberg task","68","33395","69","yes","1024"
"98.5714285714","98.5714285714","483.942857143","483.942857143","black","experiment","legacy","legacy","legacy","0","uniform","1","undefined","1","right","69","0","69","69","0","0","69","69","0","69","69","69","0","69","0","10/17/21 07:54:37","The main experiment item","yes","Sternbergtask.osexp","C:/Users/suici/Desktop/Tarleton/Fall 2021 - Graduate Studies/PSYC 5316-010 Advanced Quantitative Methods & Experiment Design/Lab 3 - the Sternberg memory scanning task (an experiment on short term memory)","no","mono","no","18","no","white","no","yes","768","legacy","57","11","C:/Users/suici/Desktop/Tarleton/Fall 2021 - Graduate Studies/PSYC 5316-010 Advanced Quantitative Methods & Experiment Design/Lab 3 - the Sternberg memory scanning task (an experiment on short term memory)/SM-subject-1.csv","legacy","8 5 7 3 6","Lentiform Loewenfeld","3.3.9","0","n","0","right","left","left","right","NA","481","6212","9614","481","NA","2","legacy","5","1024","2","48000","-16","experiment","1","odd","9","414527","79732","411290","412326","1305","85944","412327","228682","1307","416527","413327","417008","10921","416527","NA","Sternberg task","69","33876","70","yes","1024"
"98.5915492958","98.5915492958","482.366197183","482.366197183","black","experiment","legacy","legacy","legacy","0","uniform","1","undefined","1","right","70","0","70","70","0","0","70","70","0","70","70","70","0","70","0","10/17/21 07:54:37","The main experiment item","yes","Sternbergtask.osexp","C:/Users/suici/Desktop/Tarleton/Fall 2021 - Graduate Studies/PSYC 5316-010 Advanced Quantitative Methods & Experiment Design/Lab 3 - the Sternberg memory scanning task (an experiment on short term memory)","no","mono","no","18","no","white","no","yes","768","legacy","58","11","C:/Users/suici/Desktop/Tarleton/Fall 2021 - Graduate Studies/PSYC 5316-010 Advanced Quantitative Methods & Experiment Design/Lab 3 - the Sternberg memory scanning task (an experiment on short term memory)/SM-subject-1.csv","legacy","1","Lentiform Loewenfeld","3.3.9","0","n","0","right","left","left","right","NA","372","6212","9614","372","NA","2","legacy","1","1024","2","48000","-16","experiment","1","odd","7","420244","79732","417010","418044","1305","85944","418044","228682","1307","422244","419044","422617","10921","422244","NA","Sternberg task","70","34248","71","yes","1024"
"98.6111111111","98.6111111111","481.708333333","481.708333333","black","experiment","legacy","legacy","legacy","0","uniform","1","undefined","1","left","71","0","71","71","0","0","71","71","0","71","71","71","0","71","0","10/17/21 07:54:37","The main experiment item","yes","Sternbergtask.osexp","C:/Users/suici/Desktop/Tarleton/Fall 2021 - Graduate Studies/PSYC 5316-010 Advanced Quantitative Methods & Experiment Design/Lab 3 - the Sternberg memory scanning task (an experiment on short term memory)","no","mono","no","18","no","white","no","yes","768","legacy","59","11","C:/Users/suici/Desktop/Tarleton/Fall 2021 - Graduate Studies/PSYC 5316-010 Advanced Quantitative Methods & Experiment Design/Lab 3 - the Sternberg memory scanning task (an experiment on short term memory)/SM-subject-1.csv","legacy","7 1 3","Lentiform Loewenfeld","3.3.9","2","y","0","left","left","left","left","NA","435","6212","9614","435","NA","2","legacy","3","1024","2","48000","-16","experiment","1","odd","1","425853","79732","422618","423652","1305","85944","423653","228682","1307","427853","424653","428289","10921","427853","NA","Sternberg task","71","34683","72","yes","1024"
"98.6301369863","98.6301369863","483.917808219","483.917808219","black","experiment","legacy","legacy","legacy","0","uniform","1","undefined","1","left","72","0","72","72","0","0","72","72","0","72","72","72","0","72","0","10/17/21 07:54:37","The main experiment item","yes","Sternbergtask.osexp","C:/Users/suici/Desktop/Tarleton/Fall 2021 - Graduate Studies/PSYC 5316-010 Advanced Quantitative Methods & Experiment Design/Lab 3 - the Sternberg memory scanning task (an experiment on short term memory)","no","mono","no","18","no","white","no","yes","768","legacy","60","11","C:/Users/suici/Desktop/Tarleton/Fall 2021 - Graduate Studies/PSYC 5316-010 Advanced Quantitative Methods & Experiment Design/Lab 3 - the Sternberg memory scanning task (an experiment on short term memory)/SM-subject-1.csv","legacy","8 5 1 3 9","Lentiform Loewenfeld","3.3.9","4","y","0","left","left","left","left","NA","643","6212","9614","643","NA","2","legacy","5","1024","2","48000","-16","experiment","1","odd","3","431525","79732","428290","429324","1305","85944","429325","228682","1307","433525","430325","434169","10921","433525","NA","Sternberg task","72","35326","73","yes","1024"
"98.6486486486","98.6486486486","483.864864865","483.864864865","black","experiment","legacy","legacy","legacy","0","uniform","1","undefined","1","right","73","0","73","73","0","0","73","73","0","73","73","73","0","73","0","10/17/21 07:54:37","The main experiment item","yes","Sternbergtask.osexp","C:/Users/suici/Desktop/Tarleton/Fall 2021 - Graduate Studies/PSYC 5316-010 Advanced Quantitative Methods & Experiment Design/Lab 3 - the Sternberg memory scanning task (an experiment on short term memory)","no","mono","no","18","no","white","no","yes","768","legacy","61","11","C:/Users/suici/Desktop/Tarleton/Fall 2021 - Graduate Studies/PSYC 5316-010 Advanced Quantitative Methods & Experiment Design/Lab 3 - the Sternberg memory scanning task (an experiment on short term memory)/SM-subject-1.csv","legacy","5 9 2 3","Lentiform Loewenfeld","3.3.9","0","n","0","right","left","left","right","NA","480","6212","9614","480","NA","2","legacy","4","1024","2","48000","-16","experiment","1","odd","8","437408","79732","434171","435207","1305","85944","435208","228682","1307","439408","436208","439888","10921","439408","NA","Sternberg task","73","35806","74","yes","1024"
"98.6666666667","98.6666666667","484.586666667","484.586666667","black","experiment","legacy","legacy","legacy","0","uniform","1","undefined","1","left","74","0","74","74","0","0","74","74","0","74","74","74","0","74","0","10/17/21 07:54:37","The main experiment item","yes","Sternbergtask.osexp","C:/Users/suici/Desktop/Tarleton/Fall 2021 - Graduate Studies/PSYC 5316-010 Advanced Quantitative Methods & Experiment Design/Lab 3 - the Sternberg memory scanning task (an experiment on short term memory)","no","mono","no","18","no","white","no","yes","768","legacy","62","11","C:/Users/suici/Desktop/Tarleton/Fall 2021 - Graduate Studies/PSYC 5316-010 Advanced Quantitative Methods & Experiment Design/Lab 3 - the Sternberg memory scanning task (an experiment on short term memory)/SM-subject-1.csv","legacy","5 7 8 2 3 8","Lentiform Loewenfeld","3.3.9","5","y","0","left","left","left","left","NA","538","6212","9614","538","NA","2","legacy","6","1024","2","48000","-16","experiment","1","odd","3","443127","79732","439890","440926","1305","85944","440927","228682","1307","445127","441927","445665","10921","445127","NA","Sternberg task","74","36344","75","yes","1024"
"98.6842105263","98.6842105263","482.960526316","482.960526316","black","experiment","legacy","legacy","legacy","0","uniform","1","undefined","1","left","75","0","75","75","0","0","75","75","0","75","75","75","0","75","0","10/17/21 07:54:37","The main experiment item","yes","Sternbergtask.osexp","C:/Users/suici/Desktop/Tarleton/Fall 2021 - Graduate Studies/PSYC 5316-010 Advanced Quantitative Methods & Experiment Design/Lab 3 - the Sternberg memory scanning task (an experiment on short term memory)","no","mono","no","18","no","white","no","yes","768","legacy","63","11","C:/Users/suici/Desktop/Tarleton/Fall 2021 - Graduate Studies/PSYC 5316-010 Advanced Quantitative Methods & Experiment Design/Lab 3 - the Sternberg memory scanning task (an experiment on short term memory)/SM-subject-1.csv","legacy","3 5 7 1","Lentiform Loewenfeld","3.3.9","3","y","0","left","left","left","left","NA","361","6212","9614","361","NA","2","legacy","4","1024","2","48000","-16","experiment","1","odd","7","448904","79732","445667","446703","1305","85944","446704","228682","1307","450904","447704","451265","10921","450904","NA","Sternberg task","75","36705","76","yes","1024"
"98.7012987013","98.7012987013","484.584415584","484.584415584","black","experiment","legacy","legacy","legacy","0","uniform","1","undefined","1","right","76","0","76","76","0","0","76","76","0","76","76","76","0","76","0","10/17/21 07:54:37","The main experiment item","yes","Sternbergtask.osexp","C:/Users/suici/Desktop/Tarleton/Fall 2021 - Graduate Studies/PSYC 5316-010 Advanced Quantitative Methods & Experiment Design/Lab 3 - the Sternberg memory scanning task (an experiment on short term memory)","no","mono","no","18","no","white","no","yes","768","legacy","64","11","C:/Users/suici/Desktop/Tarleton/Fall 2021 - Graduate Studies/PSYC 5316-010 Advanced Quantitative Methods & Experiment Design/Lab 3 - the Sternberg memory scanning task (an experiment on short term memory)/SM-subject-1.csv","legacy","9 5 3 2 8 6","Lentiform Loewenfeld","3.3.9","0","n","0","right","left","left","right","NA","608","6212","9614","608","NA","2","legacy","6","1024","2","48000","-16","experiment","1","odd","7","454504","79732","451267","452303","1305","85944","452304","228682","1307","456504","453304","457113","10921","456504","NA","Sternberg task","76","37313","77","yes","1024"
"98.7179487179","98.7179487179","482.91025641","482.91025641","black","experiment","legacy","legacy","legacy","0","uniform","1","undefined","1","right","77","0","77","77","0","0","77","77","0","77","77","77","0","77","0","10/17/21 07:54:37","The main experiment item","yes","Sternbergtask.osexp","C:/Users/suici/Desktop/Tarleton/Fall 2021 - Graduate Studies/PSYC 5316-010 Advanced Quantitative Methods & Experiment Design/Lab 3 - the Sternberg memory scanning task (an experiment on short term memory)","no","mono","no","18","no","white","no","yes","768","legacy","65","11","C:/Users/suici/Desktop/Tarleton/Fall 2021 - Graduate Studies/PSYC 5316-010 Advanced Quantitative Methods & Experiment Design/Lab 3 - the Sternberg memory scanning task (an experiment on short term memory)/SM-subject-1.csv","legacy","5 2","Lentiform Loewenfeld","3.3.9","0","n","0","right","left","left","right","NA","354","6212","9614","354","NA","2","legacy","2","1024","2","48000","-16","experiment","1","odd","7","460351","79732","457114","458150","1305","85944","458151","228682","1307","462351","459151","462705","10921","462351","NA","Sternberg task","77","37667","78","yes","1024"
"98.7341772152","98.7341772152","483.291139241","483.291139241","black","experiment","legacy","legacy","legacy","0","uniform","1","undefined","1","right","78","0","78","78","0","0","78","78","0","78","78","78","0","78","0","10/17/21 07:54:37","The main experiment item","yes","Sternbergtask.osexp","C:/Users/suici/Desktop/Tarleton/Fall 2021 - Graduate Studies/PSYC 5316-010 Advanced Quantitative Methods & Experiment Design/Lab 3 - the Sternberg memory scanning task (an experiment on short term memory)","no","mono","no","18","no","white","no","yes","768","legacy","66","11","C:/Users/suici/Desktop/Tarleton/Fall 2021 - Graduate Studies/PSYC 5316-010 Advanced Quantitative Methods & Experiment Design/Lab 3 - the Sternberg memory scanning task (an experiment on short term memory)/SM-subject-1.csv","legacy","8 5 4 2 9 6","Lentiform Loewenfeld","3.3.9","0","n","0","right","left","left","right","NA","513","6212","9614","513","NA","2","legacy","6","1024","2","48000","-16","experiment","1","odd","3","465944","79732","462707","463743","1305","85944","463744","228682","1307","467944","464744","468457","10921","467944","NA","Sternberg task","78","38180","79","yes","1024"
"98.75","98.75","483.15","483.15","black","experiment","legacy","legacy","legacy","0","uniform","1","undefined","1","right","79","0","79","79","0","0","79","79","0","79","79","79","0","79","0","10/17/21 07:54:37","The main experiment item","yes","Sternbergtask.osexp","C:/Users/suici/Desktop/Tarleton/Fall 2021 - Graduate Studies/PSYC 5316-010 Advanced Quantitative Methods & Experiment Design/Lab 3 - the Sternberg memory scanning task (an experiment on short term memory)","no","mono","no","18","no","white","no","yes","768","legacy","67","11","C:/Users/suici/Desktop/Tarleton/Fall 2021 - Graduate Studies/PSYC 5316-010 Advanced Quantitative Methods & Experiment Design/Lab 3 - the Sternberg memory scanning task (an experiment on short term memory)/SM-subject-1.csv","legacy","8 2 1 4 5 9","Lentiform Loewenfeld","3.3.9","0","n","0","right","left","left","right","NA","472","6212","9614","472","NA","2","legacy","6","1024","2","48000","-16","experiment","1","odd","7","471696","79732","468459","469495","1305","85944","469496","228682","1307","473696","470496","474169","10921","473696","NA","Sternberg task","79","38652","80","yes","1024"
"98.7654320988","98.7654320988","482.395061728","482.395061728","black","experiment","legacy","legacy","legacy","0","uniform","1","undefined","1","right","80","0","80","80","0","0","80","80","0","80","80","80","0","80","0","10/17/21 07:54:37","The main experiment item","yes","Sternbergtask.osexp","C:/Users/suici/Desktop/Tarleton/Fall 2021 - Graduate Studies/PSYC 5316-010 Advanced Quantitative Methods & Experiment Design/Lab 3 - the Sternberg memory scanning task (an experiment on short term memory)","no","mono","no","18","no","white","no","yes","768","legacy","68","11","C:/Users/suici/Desktop/Tarleton/Fall 2021 - Graduate Studies/PSYC 5316-010 Advanced Quantitative Methods & Experiment Design/Lab 3 - the Sternberg memory scanning task (an experiment on short term memory)/SM-subject-1.csv","legacy","2 8 9 4 1","Lentiform Loewenfeld","3.3.9","0","n","0","right","left","left","right","NA","422","6212","9614","422","NA","2","legacy","5","1024","2","48000","-16","experiment","1","odd","5","477410","79732","474171","475209","1305","85944","475210","228682","1307","479410","476210","479832","10921","479410","NA","Sternberg task","80","39074","81","yes","1024"
"98.7804878049","98.7804878049","481.402439024","481.402439024","black","experiment","legacy","legacy","legacy","0","uniform","1","undefined","1","right","81","0","81","81","0","0","81","81","0","81","81","81","0","81","0","10/17/21 07:54:37","The main experiment item","yes","Sternbergtask.osexp","C:/Users/suici/Desktop/Tarleton/Fall 2021 - Graduate Studies/PSYC 5316-010 Advanced Quantitative Methods & Experiment Design/Lab 3 - the Sternberg memory scanning task (an experiment on short term memory)","no","mono","no","18","no","white","no","yes","768","legacy","69","11","C:/Users/suici/Desktop/Tarleton/Fall 2021 - Graduate Studies/PSYC 5316-010 Advanced Quantitative Methods & Experiment Design/Lab 3 - the Sternberg memory scanning task (an experiment on short term memory)/SM-subject-1.csv","legacy","8 4 3 5","Lentiform Loewenfeld","3.3.9","0","n","0","right","left","left","right","NA","401","6212","9614","401","NA","2","legacy","4","1024","2","48000","-16","experiment","1","odd","6","483071","79732","479834","480870","1305","85944","480871","228682","1307","485071","481871","485472","10921","485071","NA","Sternberg task","81","39475","82","yes","1024"
"98.7951807229","98.7951807229","480.626506024","480.626506024","black","experiment","legacy","legacy","legacy","0","uniform","1","undefined","1","left","82","0","82","82","0","0","82","82","0","82","82","82","0","82","0","10/17/21 07:54:37","The main experiment item","yes","Sternbergtask.osexp","C:/Users/suici/Desktop/Tarleton/Fall 2021 - Graduate Studies/PSYC 5316-010 Advanced Quantitative Methods & Experiment Design/Lab 3 - the Sternberg memory scanning task (an experiment on short term memory)","no","mono","no","18","no","white","no","yes","768","legacy","70","11","C:/Users/suici/Desktop/Tarleton/Fall 2021 - Graduate Studies/PSYC 5316-010 Advanced Quantitative Methods & Experiment Design/Lab 3 - the Sternberg memory scanning task (an experiment on short term memory)/SM-subject-1.csv","legacy","9 6 2 4 1","Lentiform Loewenfeld","3.3.9","4","y","0","left","left","left","left","NA","417","6212","9614","417","NA","2","legacy","5","1024","2","48000","-16","experiment","1","odd","4","488712","79732","485474","486511","1305","85944","486512","228682","1307","490712","487512","491129","10921","490712","NA","Sternberg task","82","39892","83","yes","1024"
"98.8095238095","98.8095238095","482.714285714","482.714285714","black","experiment","legacy","legacy","legacy","0","uniform","1","undefined","1","left","83","0","83","83","0","0","83","83","0","83","83","83","0","83","0","10/17/21 07:54:37","The main experiment item","yes","Sternbergtask.osexp","C:/Users/suici/Desktop/Tarleton/Fall 2021 - Graduate Studies/PSYC 5316-010 Advanced Quantitative Methods & Experiment Design/Lab 3 - the Sternberg memory scanning task (an experiment on short term memory)","no","mono","no","18","no","white","no","yes","768","legacy","71","11","C:/Users/suici/Desktop/Tarleton/Fall 2021 - Graduate Studies/PSYC 5316-010 Advanced Quantitative Methods & Experiment Design/Lab 3 - the Sternberg memory scanning task (an experiment on short term memory)/SM-subject-1.csv","legacy","8 5 4 7 3 1","Lentiform Loewenfeld","3.3.9","2","y","0","left","left","left","left","NA","656","6212","9614","656","NA","2","legacy","6","1024","2","48000","-16","experiment","1","odd","5","494369","79732","491131","492168","1305","85944","492169","228682","1307","496369","493169","497025","10921","496369","NA","Sternberg task","83","40548","84","yes","1024"
"98.8235294118","98.8235294118","481.741176471","481.741176471","black","experiment","legacy","legacy","legacy","0","uniform","1","undefined","1","left","84","0","84","84","0","0","84","84","0","84","84","84","0","84","0","10/17/21 07:54:37","The main experiment item","yes","Sternbergtask.osexp","C:/Users/suici/Desktop/Tarleton/Fall 2021 - Graduate Studies/PSYC 5316-010 Advanced Quantitative Methods & Experiment Design/Lab 3 - the Sternberg memory scanning task (an experiment on short term memory)","no","mono","no","18","no","white","no","yes","768","legacy","72","11","C:/Users/suici/Desktop/Tarleton/Fall 2021 - Graduate Studies/PSYC 5316-010 Advanced Quantitative Methods & Experiment Design/Lab 3 - the Sternberg memory scanning task (an experiment on short term memory)/SM-subject-1.csv","legacy","9 3 8 2 1 4","Lentiform Loewenfeld","3.3.9","3","y","0","left","left","left","left","NA","400","6212","9614","400","NA","2","legacy","6","1024","2","48000","-16","experiment","1","odd","8","500265","79732","497027","498064","1305","85944","498065","228682","1307","502265","499065","502665","10921","502265","NA","Sternberg task","84","40948","85","yes","1024"
