acc,accuracy,average_response_time,avg_rt,background,block,canvas_backend,clock_backend,color_backend,compensation,coordinates,correct,correct_instruction1,correct_keyboard_response,correct_response,count_ISI,count_correctFeedback,count_experiment,count_experimentLoop,count_fixation,count_incorrectFeedback,count_instruction1,count_instructions2,count_keyboard_response,count_logger,count_memorySet,count_memorySet_1,count_practiceLoop,count_probe,count_thankYou,datetime,description,disable_garbage_collection,experiment_file,experiment_path,font_bold,font_family,font_italic,font_size,font_underline,foreground,form_clicks,fullscreen,height,keyboard_backend,live_row,live_row_practiceLoop,logfile,mouse_backend,numberSet,opensesame_codename,opensesame_version,posInSet,present,repeat_cycle,response,response_incorrectFeedback,response_instruction1,response_instructions2,response_keyboard_response,response_thankYou,response_time,response_time_incorrectFeedback,response_time_instruction1,response_time_instructions2,response_time_keyboard_response,response_time_thankYou,round_decimals,sampler_backend,setSize,sound_buf_size,sound_channels,sound_freq,sound_sample_size,start,subject_nr,subject_parity,target,time_ISI,time_correctFeedback,time_experiment,time_experimentLoop,time_fixation,time_incorrectFeedback,time_instruction1,time_instructions2,time_keyboard_response,time_logger,time_memorySet,time_memorySet_1,time_practiceLoop,time_probe,time_thankYou,title,total_correct,total_response_time,total_responses,uniform_coordinates,width
100,100,751,751,black,practice,legacy,legacy,legacy,0,uniform,1,undefined,1,left,0,0,0,0,0,0,0,0,0,0,0,0,0,0,0,Sun Oct 20 20:49:33 2019,The main experiment item,yes,Sternbergtask.osexp,/Users/Linzi/Desktop,no,mono,no,18,no,white,no,no,768,legacy,0,0,/Users/Linzi/Desktop/LM-subject-1.csv,legacy,1 5 2 9,Kafkaesque Koffka,3.2.8,2,y,0,left,NA,right,NA,left,NA,751,NA,520589,NA,751,NA,2,legacy,4,1024,2,48000,-16,experiment,1,odd,5,528621,NA,5284,NA,526364,NA,5350,NA,530647,531401,526335,527392,525956,530647,NA,Sternberg task,1,751,1,yes,1024
100,100,624.5,624.5,black,practice,legacy,legacy,legacy,0,uniform,1,undefined,1,right,1,1,0,0,1,1,0,0,1,1,1,1,0,1,0,Sun Oct 20 20:49:33 2019,The main experiment item,yes,Sternbergtask.osexp,/Users/Linzi/Desktop,no,mono,no,18,no,white,no,no,768,legacy,1,1,/Users/Linzi/Desktop/LM-subject-1.csv,legacy,4 1 5,Kafkaesque Koffka,3.2.8,0,n,0,right,NA,right,NA,right,NA,498,NA,520589,NA,498,NA,2,legacy,3,1024,2,48000,-16,experiment,1,odd,2,535370,531716,5284,NA,533114,NA,5350,NA,537400,537901,533084,534142,525956,537399,NA,Sternberg task,2,1249,2,yes,1024
100,100,565,565,black,practice,legacy,legacy,legacy,0,uniform,1,undefined,1,left,2,2,0,0,2,2,0,0,2,2,2,2,0,2,0,Sun Oct 20 20:49:33 2019,The main experiment item,yes,Sternbergtask.osexp,/Users/Linzi/Desktop,no,mono,no,18,no,white,no,no,768,legacy,2,2,/Users/Linzi/Desktop/LM-subject-1.csv,legacy,4 8,Kafkaesque Koffka,3.2.8,1,y,0,left,NA,right,NA,left,NA,446,NA,520589,NA,446,NA,2,legacy,2,1024,2,48000,-16,experiment,1,odd,4,541545,537940,5284,NA,539291,NA,5350,NA,543573,544022,539265,540318,525956,543573,NA,Sternberg task,3,1695,3,yes,1024
75,75,568,568,black,practice,legacy,legacy,legacy,0,uniform,0,undefined,0,left,3,3,0,0,3,3,0,0,3,3,3,3,0,3,0,Sun Oct 20 20:49:33 2019,The main experiment item,yes,Sternbergtask.osexp,/Users/Linzi/Desktop,no,mono,no,18,no,white,no,no,768,legacy,3,3,/Users/Linzi/Desktop/LM-subject-1.csv,legacy,1 7 9 8 5,Kafkaesque Koffka,3.2.8,4,y,0,right,NA,right,NA,right,NA,577,NA,520589,NA,577,NA,2,legacy,5,1024,2,48000,-16,experiment,1,odd,8,547671,544057,5284,NA,545419,NA,5350,NA,549698,550278,545391,546445,525956,549698,NA,Sternberg task,3,2272,4,yes,1024
80,80,699.4,699.4,black,practice,legacy,legacy,legacy,0,uniform,1,undefined,1,right,4,4,0,0,4,4,0,0,4,4,4,4,0,4,0,Sun Oct 20 20:49:33 2019,The main experiment item,yes,Sternbergtask.osexp,/Users/Linzi/Desktop,no,mono,no,18,no,white,no,no,768,legacy,4,4,/Users/Linzi/Desktop/LM-subject-1.csv,legacy,5,Kafkaesque Koffka,3.2.8,0,n,0,right,left,right,NA,right,NA,1225,132,520589,NA,1225,NA,2,legacy,1,1024,2,48000,-16,experiment,1,odd,3,553079,544057,5284,NA,550824,550315,5350,NA,555106,556334,550796,551852,525956,555105,NA,Sternberg task,4,3497,5,yes,1024
83.33333333,83.33333333,675.8333333,675.8333333,black,practice,legacy,legacy,legacy,0,uniform,1,undefined,1,left,5,5,0,0,5,5,0,0,5,5,5,5,0,5,0,Sun Oct 20 20:49:33 2019,The main experiment item,yes,Sternbergtask.osexp,/Users/Linzi/Desktop,no,mono,no,18,no,white,no,no,768,legacy,5,5,/Users/Linzi/Desktop/LM-subject-1.csv,legacy,2 9 4,Kafkaesque Koffka,3.2.8,3,y,0,left,left,right,NA,left,NA,558,132,520589,NA,558,NA,2,legacy,3,1024,2,48000,-16,experiment,1,odd,4,559986,556370,5284,NA,557733,550315,5350,NA,562013,562575,557700,558759,525956,562013,NA,Sternberg task,5,4055,6,yes,1024
85.71428571,85.71428571,666.4285714,666.4285714,black,practice,legacy,legacy,legacy,0,uniform,1,undefined,1,left,6,6,0,0,6,6,0,0,6,6,6,6,0,6,0,Sun Oct 20 20:49:33 2019,The main experiment item,yes,Sternbergtask.osexp,/Users/Linzi/Desktop,no,mono,no,18,no,white,no,no,768,legacy,6,6,/Users/Linzi/Desktop/LM-subject-1.csv,legacy,6,Kafkaesque Koffka,3.2.8,1,y,0,left,left,right,NA,left,NA,610,132,520589,NA,610,NA,2,legacy,1,1024,2,48000,-16,experiment,1,odd,6,566221,562610,5284,NA,563968,550315,5350,NA,568248,568862,563939,564994,525956,568248,NA,Sternberg task,6,4665,7,yes,1024
87.5,87.5,657.625,657.625,black,practice,legacy,legacy,legacy,0,uniform,1,undefined,1,right,7,7,0,0,7,7,0,0,7,7,7,7,0,7,0,Sun Oct 20 20:49:33 2019,The main experiment item,yes,Sternbergtask.osexp,/Users/Linzi/Desktop,no,mono,no,18,no,white,no,no,768,legacy,7,7,/Users/Linzi/Desktop/LM-subject-1.csv,legacy,9 6 7 4 5,Kafkaesque Koffka,3.2.8,0,n,0,right,left,right,NA,right,NA,596,132,520589,NA,596,NA,2,legacy,5,1024,2,48000,-16,experiment,1,odd,3,572511,568900,5284,NA,570258,550315,5350,NA,574541,575141,570226,571285,525956,574540,NA,Sternberg task,7,5261,8,yes,1024
88.88888889,88.88888889,667.1111111,667.1111111,black,practice,legacy,legacy,legacy,0,uniform,1,undefined,1,right,8,8,0,0,8,8,0,0,8,8,8,8,0,8,0,Sun Oct 20 20:49:33 2019,The main experiment item,yes,Sternbergtask.osexp,/Users/Linzi/Desktop,no,mono,no,18,no,white,no,no,768,legacy,8,8,/Users/Linzi/Desktop/LM-subject-1.csv,legacy,5 7 8 4 1 2,Kafkaesque Koffka,3.2.8,0,n,0,right,left,right,NA,right,NA,743,132,520589,NA,743,NA,2,legacy,6,1024,2,48000,-16,experiment,1,odd,6,578787,575178,5284,NA,576535,550315,5350,NA,580813,581559,576505,577561,525956,580813,NA,Sternberg task,8,6004,9,yes,1024
90,90,660,660,black,practice,legacy,legacy,legacy,0,uniform,1,undefined,1,right,9,9,0,0,9,9,0,0,9,9,9,9,0,9,0,Sun Oct 20 20:49:33 2019,The main experiment item,yes,Sternbergtask.osexp,/Users/Linzi/Desktop,no,mono,no,18,no,white,no,no,768,legacy,9,9,/Users/Linzi/Desktop/LM-subject-1.csv,legacy,2 1,Kafkaesque Koffka,3.2.8,0,n,0,right,left,right,NA,right,NA,596,132,520589,NA,596,NA,2,legacy,2,1024,2,48000,-16,experiment,1,odd,5,585218,581607,5284,NA,582965,550315,5350,NA,587245,587845,582938,583992,525956,587245,NA,Sternberg task,9,6600,10,yes,1024
90.90909091,90.90909091,664.6363636,664.6363636,black,practice,legacy,legacy,legacy,0,uniform,1,undefined,1,right,10,10,0,0,10,10,0,0,10,10,10,10,0,10,0,Sun Oct 20 20:49:33 2019,The main experiment item,yes,Sternbergtask.osexp,/Users/Linzi/Desktop,no,mono,no,18,no,white,no,no,768,legacy,10,10,/Users/Linzi/Desktop/LM-subject-1.csv,legacy,3 1 9 4,Kafkaesque Koffka,3.2.8,0,n,0,right,left,right,NA,right,NA,711,132,520589,NA,711,NA,2,legacy,4,1024,2,48000,-16,experiment,1,odd,6,591497,587880,5284,NA,589245,550315,5350,NA,593525,594239,589212,590271,525956,593525,NA,Sternberg task,10,7311,11,yes,1024
91.66666667,91.66666667,677.8333333,677.8333333,black,practice,legacy,legacy,legacy,0,uniform,1,undefined,1,left,11,11,0,0,11,11,0,0,11,11,11,11,0,11,0,Sun Oct 20 20:49:33 2019,The main experiment item,yes,Sternbergtask.osexp,/Users/Linzi/Desktop,no,mono,no,18,no,white,no,no,768,legacy,11,11,/Users/Linzi/Desktop/LM-subject-1.csv,legacy,4 3 1 7 9 8,Kafkaesque Koffka,3.2.8,1,y,0,left,left,right,NA,left,NA,823,132,520589,NA,823,NA,2,legacy,6,1024,2,48000,-16,experiment,1,odd,4,597881,594276,5284,NA,595629,550315,5350,NA,599908,600734,595601,596655,525956,599908,NA,Sternberg task,11,8134,12,yes,1024
92.30769231,92.30769231,693.5384615,693.5384615,black,experiment,legacy,legacy,legacy,0,uniform,1,undefined,1,left,12,12,0,0,12,12,0,0,12,12,12,12,0,12,0,Sun Oct 20 20:49:33 2019,The main experiment item,yes,Sternbergtask.osexp,/Users/Linzi/Desktop,no,mono,no,18,no,white,no,no,768,legacy,0,11,/Users/Linzi/Desktop/LM-subject-1.csv,legacy,5 7 3 6 2,Kafkaesque Koffka,3.2.8,5,y,0,left,left,right,left,left,NA,882,132,520589,6716,882,NA,2,legacy,5,1024,2,48000,-16,experiment,1,odd,2,611372,600768,5284,608595,609116,550315,5350,601875,613398,614284,609088,610145,525956,613398,NA,Sternberg task,12,9016,13,yes,1024
92.85714286,92.85714286,696.1428571,696.1428571,black,experiment,legacy,legacy,legacy,0,uniform,1,undefined,1,left,13,13,0,0,13,13,0,0,13,13,13,13,0,13,0,Sun Oct 20 20:49:33 2019,The main experiment item,yes,Sternbergtask.osexp,/Users/Linzi/Desktop,no,mono,no,18,no,white,no,no,768,legacy,1,11,/Users/Linzi/Desktop/LM-subject-1.csv,legacy,8 5 4 7 3 1,Kafkaesque Koffka,3.2.8,2,y,0,left,left,right,left,left,NA,730,132,520589,6716,730,NA,2,legacy,6,1024,2,48000,-16,experiment,1,odd,5,617934,614320,5284,608595,615680,550315,5350,601875,619960,620694,615649,616707,525956,619960,NA,Sternberg task,13,9746,14,yes,1024
93.33333333,93.33333333,691.2,691.2,black,experiment,legacy,legacy,legacy,0,uniform,1,undefined,1,right,14,14,0,0,14,14,0,0,14,14,14,14,0,14,0,Sun Oct 20 20:49:33 2019,The main experiment item,yes,Sternbergtask.osexp,/Users/Linzi/Desktop,no,mono,no,18,no,white,no,no,768,legacy,2,11,/Users/Linzi/Desktop/LM-subject-1.csv,legacy,1 7 5 2,Kafkaesque Koffka,3.2.8,0,n,0,right,left,right,left,right,NA,622,132,520589,6716,622,NA,2,legacy,4,1024,2,48000,-16,experiment,1,odd,3,624333,620729,5284,608595,622080,550315,5350,601875,626360,626986,622053,623107,525956,626359,NA,Sternberg task,14,10368,15,yes,1024
93.75,93.75,685,685,black,experiment,legacy,legacy,legacy,0,uniform,1,undefined,1,left,15,15,0,0,15,15,0,0,15,15,15,15,0,15,0,Sun Oct 20 20:49:33 2019,The main experiment item,yes,Sternbergtask.osexp,/Users/Linzi/Desktop,no,mono,no,18,no,white,no,no,768,legacy,3,11,/Users/Linzi/Desktop/LM-subject-1.csv,legacy,8 9 6 1,Kafkaesque Koffka,3.2.8,2,y,0,left,left,right,left,left,NA,592,132,520589,6716,592,NA,2,legacy,4,1024,2,48000,-16,experiment,1,odd,9,630624,627020,5284,608595,628371,550315,5350,601875,632652,633248,628343,629397,525956,632651,NA,Sternberg task,15,10960,16,yes,1024
94.11764706,94.11764706,677.8823529,677.8823529,black,experiment,legacy,legacy,legacy,0,uniform,1,undefined,1,left,16,16,0,0,16,16,0,0,16,16,16,16,0,16,0,Sun Oct 20 20:49:33 2019,The main experiment item,yes,Sternbergtask.osexp,/Users/Linzi/Desktop,no,mono,no,18,no,white,no,no,768,legacy,4,11,/Users/Linzi/Desktop/LM-subject-1.csv,legacy,3 5 4 7,Kafkaesque Koffka,3.2.8,1,y,0,left,left,right,left,left,NA,564,132,520589,6716,564,NA,2,legacy,4,1024,2,48000,-16,experiment,1,odd,3,636895,633284,5284,608595,634643,550315,5350,601875,638923,639491,634615,635669,525956,638922,NA,Sternberg task,16,11524,17,yes,1024
94.44444444,94.44444444,667.6111111,667.6111111,black,experiment,legacy,legacy,legacy,0,uniform,1,undefined,1,left,17,17,0,0,17,17,0,0,17,17,17,17,0,17,0,Sun Oct 20 20:49:33 2019,The main experiment item,yes,Sternbergtask.osexp,/Users/Linzi/Desktop,no,mono,no,18,no,white,no,no,768,legacy,5,11,/Users/Linzi/Desktop/LM-subject-1.csv,legacy,8 3,Kafkaesque Koffka,3.2.8,2,y,0,left,left,right,left,left,NA,493,132,520589,6716,493,NA,2,legacy,2,1024,2,48000,-16,experiment,1,odd,3,643161,639528,5284,608595,640908,550315,5350,601875,645190,645688,640878,641934,525956,645189,NA,Sternberg task,17,12017,18,yes,1024
94.73684211,94.73684211,687.4736842,687.4736842,black,experiment,legacy,legacy,legacy,0,uniform,1,undefined,1,right,18,18,0,0,18,18,0,0,18,18,18,18,0,18,0,Sun Oct 20 20:49:33 2019,The main experiment item,yes,Sternbergtask.osexp,/Users/Linzi/Desktop,no,mono,no,18,no,white,no,no,768,legacy,6,11,/Users/Linzi/Desktop/LM-subject-1.csv,legacy,2 8 9,Kafkaesque Koffka,3.2.8,0,n,0,right,left,right,left,right,NA,1045,132,520589,6716,1045,NA,2,legacy,3,1024,2,48000,-16,experiment,1,odd,6,649396,645724,5284,608595,647144,550315,5350,601875,651424,652473,647103,648170,525956,651423,NA,Sternberg task,18,13062,19,yes,1024
95,95,693.35,693.35,black,experiment,legacy,legacy,legacy,0,uniform,1,undefined,1,left,19,19,0,0,19,19,0,0,19,19,19,19,0,19,0,Sun Oct 20 20:49:33 2019,The main experiment item,yes,Sternbergtask.osexp,/Users/Linzi/Desktop,no,mono,no,18,no,white,no,no,768,legacy,7,11,/Users/Linzi/Desktop/LM-subject-1.csv,legacy,2 3,Kafkaesque Koffka,3.2.8,1,y,0,left,left,right,left,left,NA,805,132,520589,6716,805,NA,2,legacy,2,1024,2,48000,-16,experiment,1,odd,2,656164,652508,5284,608595,653910,550315,5350,601875,658191,659001,653868,654937,525956,658191,NA,Sternberg task,19,13867,20,yes,1024
95.23809524,95.23809524,702.9047619,702.9047619,black,experiment,legacy,legacy,legacy,0,uniform,1,undefined,1,left,20,20,0,0,20,20,0,0,20,20,20,20,0,20,0,Sun Oct 20 20:49:33 2019,The main experiment item,yes,Sternbergtask.osexp,/Users/Linzi/Desktop,no,mono,no,18,no,white,no,no,768,legacy,8,11,/Users/Linzi/Desktop/LM-subject-1.csv,legacy,8 1 6,Kafkaesque Koffka,3.2.8,3,y,0,left,left,right,left,left,NA,894,132,520589,6716,894,NA,2,legacy,3,1024,2,48000,-16,experiment,1,odd,6,662715,659047,5284,608595,660461,550315,5350,601875,664742,665640,660426,661488,525956,664741,NA,Sternberg task,20,14761,21,yes,1024
95.45454545,95.45454545,707.3181818,707.3181818,black,experiment,legacy,legacy,legacy,0,uniform,1,undefined,1,right,21,21,0,0,21,21,0,0,21,21,21,21,0,21,0,Sun Oct 20 20:49:33 2019,The main experiment item,yes,Sternbergtask.osexp,/Users/Linzi/Desktop,no,mono,no,18,no,white,no,no,768,legacy,9,11,/Users/Linzi/Desktop/LM-subject-1.csv,legacy,7 1,Kafkaesque Koffka,3.2.8,0,n,0,right,left,right,left,right,NA,800,132,520589,6716,800,NA,2,legacy,2,1024,2,48000,-16,experiment,1,odd,8,669318,665688,5284,608595,667065,550315,5350,601875,671346,672150,667028,668092,525956,671345,NA,Sternberg task,21,15561,22,yes,1024
95.65217391,95.65217391,704.5217391,704.5217391,black,experiment,legacy,legacy,legacy,0,uniform,1,undefined,1,right,22,22,0,0,22,22,0,0,22,22,22,22,0,22,0,Sun Oct 20 20:49:33 2019,The main experiment item,yes,Sternbergtask.osexp,/Users/Linzi/Desktop,no,mono,no,18,no,white,no,no,768,legacy,10,11,/Users/Linzi/Desktop/LM-subject-1.csv,legacy,5 3 8 7 2 4,Kafkaesque Koffka,3.2.8,0,n,0,right,left,right,left,right,NA,643,132,520589,6716,643,NA,2,legacy,6,1024,2,48000,-16,experiment,1,odd,9,675834,672195,5284,608595,673581,550315,5350,601875,677862,678510,673543,674608,525956,677862,NA,Sternberg task,22,16204,23,yes,1024
95.83333333,95.83333333,705.4166667,705.4166667,black,experiment,legacy,legacy,legacy,0,uniform,1,undefined,1,right,23,23,0,0,23,23,0,0,23,23,23,23,0,23,0,Sun Oct 20 20:49:33 2019,The main experiment item,yes,Sternbergtask.osexp,/Users/Linzi/Desktop,no,mono,no,18,no,white,no,no,768,legacy,11,11,/Users/Linzi/Desktop/LM-subject-1.csv,legacy,7 1 8 4 9 3,Kafkaesque Koffka,3.2.8,0,n,0,right,left,right,left,right,NA,726,132,520589,6716,726,NA,2,legacy,6,1024,2,48000,-16,experiment,1,odd,6,682195,678546,5284,608595,679941,550315,5350,601875,684222,684952,679904,680967,525956,684222,NA,Sternberg task,23,16930,24,yes,1024
96,96,704.48,704.48,black,experiment,legacy,legacy,legacy,0,uniform,1,undefined,1,left,24,24,0,0,24,24,0,0,24,24,24,24,0,24,0,Sun Oct 20 20:49:33 2019,The main experiment item,yes,Sternbergtask.osexp,/Users/Linzi/Desktop,no,mono,no,18,no,white,no,no,768,legacy,12,11,/Users/Linzi/Desktop/LM-subject-1.csv,legacy,3 9 6 2,Kafkaesque Koffka,3.2.8,4,y,0,left,left,right,left,left,NA,682,132,520589,6716,682,NA,2,legacy,4,1024,2,48000,-16,experiment,1,odd,2,688633,685000,5284,608595,686379,550315,5350,601875,690660,691347,686345,687405,525956,690659,NA,Sternberg task,24,17612,25,yes,1024
96.15384615,96.15384615,698.8846154,698.8846154,black,experiment,legacy,legacy,legacy,0,uniform,1,undefined,1,right,25,25,0,0,25,25,0,0,25,25,25,25,0,25,0,Sun Oct 20 20:49:33 2019,The main experiment item,yes,Sternbergtask.osexp,/Users/Linzi/Desktop,no,mono,no,18,no,white,no,no,768,legacy,13,11,/Users/Linzi/Desktop/LM-subject-1.csv,legacy,1 4 9 3,Kafkaesque Koffka,3.2.8,0,n,0,right,left,right,left,right,NA,559,132,520589,6716,559,NA,2,legacy,4,1024,2,48000,-16,experiment,1,odd,5,695022,691381,5284,608595,692770,550315,5350,601875,697049,697612,692732,693797,525956,697049,NA,Sternberg task,25,18171,26,yes,1024
96.2962963,96.2962963,694,694,black,experiment,legacy,legacy,legacy,0,uniform,1,undefined,1,right,26,26,0,0,26,26,0,0,26,26,26,26,0,26,0,Sun Oct 20 20:49:33 2019,The main experiment item,yes,Sternbergtask.osexp,/Users/Linzi/Desktop,no,mono,no,18,no,white,no,no,768,legacy,14,11,/Users/Linzi/Desktop/LM-subject-1.csv,legacy,1 6 4,Kafkaesque Koffka,3.2.8,0,n,0,right,left,right,left,right,NA,567,132,520589,6716,567,NA,2,legacy,3,1024,2,48000,-16,experiment,1,odd,7,701287,697657,5284,608595,699034,550315,5350,601875,703314,703886,699000,700060,525956,703313,NA,Sternberg task,26,18738,27,yes,1024
96.42857143,96.42857143,689.2857143,689.2857143,black,experiment,legacy,legacy,legacy,0,uniform,1,undefined,1,right,27,27,0,0,27,27,0,0,27,27,27,27,0,27,0,Sun Oct 20 20:49:33 2019,The main experiment item,yes,Sternbergtask.osexp,/Users/Linzi/Desktop,no,mono,no,18,no,white,no,no,768,legacy,15,11,/Users/Linzi/Desktop/LM-subject-1.csv,legacy,1 8 7,Kafkaesque Koffka,3.2.8,0,n,0,right,left,right,left,right,NA,562,132,520589,6716,562,NA,2,legacy,3,1024,2,48000,-16,experiment,1,odd,4,707556,703921,5284,608595,705303,550315,5350,601875,709584,710151,705271,706330,525956,709584,NA,Sternberg task,27,19300,28,yes,1024
96.55172414,96.55172414,694.9655172,694.9655172,black,experiment,legacy,legacy,legacy,0,uniform,1,undefined,1,left,28,28,0,0,28,28,0,0,28,28,28,28,0,28,0,Sun Oct 20 20:49:33 2019,The main experiment item,yes,Sternbergtask.osexp,/Users/Linzi/Desktop,no,mono,no,18,no,white,no,no,768,legacy,16,11,/Users/Linzi/Desktop/LM-subject-1.csv,legacy,9 5 8 1,Kafkaesque Koffka,3.2.8,2,y,0,left,left,right,left,left,NA,854,132,520589,6716,854,NA,2,legacy,4,1024,2,48000,-16,experiment,1,odd,5,713811,710190,5284,608595,711557,550315,5350,601875,715837,716698,711524,712583,525956,715837,NA,Sternberg task,28,20154,29,yes,1024
96.66666667,96.66666667,690.2,690.2,black,experiment,legacy,legacy,legacy,0,uniform,1,undefined,1,right,29,29,0,0,29,29,0,0,29,29,29,29,0,29,0,Sun Oct 20 20:49:33 2019,The main experiment item,yes,Sternbergtask.osexp,/Users/Linzi/Desktop,no,mono,no,18,no,white,no,no,768,legacy,17,11,/Users/Linzi/Desktop/LM-subject-1.csv,legacy,3 4 2,Kafkaesque Koffka,3.2.8,0,n,0,right,left,right,left,right,NA,552,132,520589,6716,552,NA,2,legacy,3,1024,2,48000,-16,experiment,1,odd,5,720377,716749,5284,608595,718124,550315,5350,601875,722405,722962,718095,719151,525956,722404,NA,Sternberg task,29,20706,30,yes,1024
96.77419355,96.77419355,689.8387097,689.8387097,black,experiment,legacy,legacy,legacy,0,uniform,1,undefined,1,left,30,30,0,0,30,30,0,0,30,30,30,30,0,30,0,Sun Oct 20 20:49:33 2019,The main experiment item,yes,Sternbergtask.osexp,/Users/Linzi/Desktop,no,mono,no,18,no,white,no,no,768,legacy,18,11,/Users/Linzi/Desktop/LM-subject-1.csv,legacy,9 5 3 8 4,Kafkaesque Koffka,3.2.8,1,y,0,left,left,right,left,left,NA,679,132,520589,6716,679,NA,2,legacy,5,1024,2,48000,-16,experiment,1,odd,9,726608,722998,5284,608595,724356,550315,5350,601875,728635,729319,724329,725382,525956,728634,NA,Sternberg task,30,21385,31,yes,1024
96.875,96.875,688.53125,688.53125,black,experiment,legacy,legacy,legacy,0,uniform,1,undefined,1,right,31,31,0,0,31,31,0,0,31,31,31,31,0,31,0,Sun Oct 20 20:49:33 2019,The main experiment item,yes,Sternbergtask.osexp,/Users/Linzi/Desktop,no,mono,no,18,no,white,no,no,768,legacy,19,11,/Users/Linzi/Desktop/LM-subject-1.csv,legacy,6 3 1 7 9 8,Kafkaesque Koffka,3.2.8,0,n,0,right,left,right,left,right,NA,648,132,520589,6716,648,NA,2,legacy,6,1024,2,48000,-16,experiment,1,odd,4,732967,729356,5284,608595,730714,550315,5350,601875,734994,735647,730687,731741,525956,734993,NA,Sternberg task,31,22033,32,yes,1024
96.96969697,96.96969697,688,688,black,experiment,legacy,legacy,legacy,0,uniform,1,undefined,1,left,32,32,0,0,32,32,0,0,32,32,32,32,0,32,0,Sun Oct 20 20:49:33 2019,The main experiment item,yes,Sternbergtask.osexp,/Users/Linzi/Desktop,no,mono,no,18,no,white,no,no,768,legacy,20,11,/Users/Linzi/Desktop/LM-subject-1.csv,legacy,4 1 5,Kafkaesque Koffka,3.2.8,2,y,0,left,left,right,left,left,NA,671,132,520589,6716,671,NA,2,legacy,3,1024,2,48000,-16,experiment,1,odd,1,739306,735684,5284,608595,737053,550315,5350,601875,741332,742008,737006,738080,525956,741332,NA,Sternberg task,32,22704,33,yes,1024
97.05882353,97.05882353,686.9117647,686.9117647,black,experiment,legacy,legacy,legacy,0,uniform,1,undefined,1,left,33,33,0,0,33,33,0,0,33,33,33,33,0,33,0,Sun Oct 20 20:49:33 2019,The main experiment item,yes,Sternbergtask.osexp,/Users/Linzi/Desktop,no,mono,no,18,no,white,no,no,768,legacy,21,11,/Users/Linzi/Desktop/LM-subject-1.csv,legacy,4 6 5 8,Kafkaesque Koffka,3.2.8,1,y,0,left,left,right,left,left,NA,651,132,520589,6716,651,NA,2,legacy,4,1024,2,48000,-16,experiment,1,odd,4,745668,742052,5284,608595,743415,550315,5350,601875,747696,748352,743387,744441,525956,747695,NA,Sternberg task,33,23355,34,yes,1024
97.14285714,97.14285714,688,688,black,experiment,legacy,legacy,legacy,0,uniform,1,undefined,1,left,34,34,0,0,34,34,0,0,34,34,34,34,0,34,0,Sun Oct 20 20:49:33 2019,The main experiment item,yes,Sternbergtask.osexp,/Users/Linzi/Desktop,no,mono,no,18,no,white,no,no,768,legacy,22,11,/Users/Linzi/Desktop/LM-subject-1.csv,legacy,7 8 4 6 9 5,Kafkaesque Koffka,3.2.8,4,y,0,left,left,right,left,left,NA,725,132,520589,6716,725,NA,2,legacy,6,1024,2,48000,-16,experiment,1,odd,6,752003,748386,5284,608595,749751,550315,5350,601875,754030,754759,749722,750777,525956,754029,NA,Sternberg task,34,24080,35,yes,1024
97.22222222,97.22222222,682.4166667,682.4166667,black,experiment,legacy,legacy,legacy,0,uniform,1,undefined,1,left,35,35,0,0,35,35,0,0,35,35,35,35,0,35,0,Sun Oct 20 20:49:33 2019,The main experiment item,yes,Sternbergtask.osexp,/Users/Linzi/Desktop,no,mono,no,18,no,white,no,no,768,legacy,23,11,/Users/Linzi/Desktop/LM-subject-1.csv,legacy,9 1 7 2,Kafkaesque Koffka,3.2.8,2,y,0,left,left,right,left,left,NA,487,132,520589,6716,487,NA,2,legacy,4,1024,2,48000,-16,experiment,1,odd,1,758414,754796,5284,608595,756161,550315,5350,601875,760442,760934,756129,757188,525956,760441,NA,Sternberg task,35,24567,36,yes,1024
94.59459459,94.59459459,696.4864865,696.4864865,black,experiment,legacy,legacy,legacy,0,uniform,0,undefined,0,left,36,36,0,0,36,36,0,0,36,36,36,36,0,36,0,Sun Oct 20 20:49:33 2019,The main experiment item,yes,Sternbergtask.osexp,/Users/Linzi/Desktop,no,mono,no,18,no,white,no,no,768,legacy,24,11,/Users/Linzi/Desktop/LM-subject-1.csv,legacy,5 7 8 2 3 8,Kafkaesque Koffka,3.2.8,5,y,0,right,left,right,left,right,NA,1203,132,520589,6716,1203,NA,2,legacy,6,1024,2,48000,-16,experiment,1,odd,3,764579,760972,5284,608595,762329,550315,5350,601875,766605,767813,762300,763353,525956,766604,NA,Sternberg task,35,25770,37,yes,1024
94.73684211,94.73684211,695.3684211,695.3684211,black,experiment,legacy,legacy,legacy,0,uniform,1,undefined,1,left,37,37,0,0,37,37,0,0,37,37,37,37,0,37,0,Sun Oct 20 20:49:33 2019,The main experiment item,yes,Sternbergtask.osexp,/Users/Linzi/Desktop,no,mono,no,18,no,white,no,no,768,legacy,25,11,/Users/Linzi/Desktop/LM-subject-1.csv,legacy,7 2 3,Kafkaesque Koffka,3.2.8,3,y,0,left,right,right,left,left,NA,654,13086,520589,6716,654,NA,2,legacy,3,1024,2,48000,-16,experiment,1,odd,3,783592,760972,5284,608595,781338,767850,5350,601875,785618,786277,781311,782366,525956,785618,NA,Sternberg task,36,26424,38,yes,1024
92.30769231,92.30769231,692.2307692,692.2307692,black,experiment,legacy,legacy,legacy,0,uniform,0,undefined,0,left,38,38,0,0,38,38,0,0,38,38,38,38,0,38,0,Sun Oct 20 20:49:33 2019,The main experiment item,yes,Sternbergtask.osexp,/Users/Linzi/Desktop,no,mono,no,18,no,white,no,no,768,legacy,26,11,/Users/Linzi/Desktop/LM-subject-1.csv,legacy,7 1 8 5 6 2,Kafkaesque Koffka,3.2.8,2,y,0,right,right,right,left,right,NA,573,13086,520589,6716,573,NA,2,legacy,6,1024,2,48000,-16,experiment,1,odd,1,789943,786321,5284,608595,787692,767850,5350,601875,791968,792545,787666,788718,525956,791968,NA,Sternberg task,36,26997,39,yes,1024
92.5,92.5,690.45,690.45,black,experiment,legacy,legacy,legacy,0,uniform,1,undefined,1,left,39,39,0,0,39,39,0,0,39,39,39,39,0,39,0,Sun Oct 20 20:49:33 2019,The main experiment item,yes,Sternbergtask.osexp,/Users/Linzi/Desktop,no,mono,no,18,no,white,no,no,768,legacy,27,11,/Users/Linzi/Desktop/LM-subject-1.csv,legacy,3 5 7 1,Kafkaesque Koffka,3.2.8,3,y,0,left,right,right,left,left,NA,621,1890,520589,6716,621,NA,2,legacy,4,1024,2,48000,-16,experiment,1,odd,7,797115,786321,5284,608595,794859,792583,5350,601875,799140,799770,794832,795890,525956,799140,NA,Sternberg task,37,27618,40,yes,1024
92.68292683,92.68292683,689.7560976,689.7560976,black,experiment,legacy,legacy,legacy,0,uniform,1,undefined,1,left,40,40,0,0,40,40,0,0,40,40,40,40,0,40,0,Sun Oct 20 20:49:33 2019,The main experiment item,yes,Sternbergtask.osexp,/Users/Linzi/Desktop,no,mono,no,18,no,white,no,no,768,legacy,28,11,/Users/Linzi/Desktop/LM-subject-1.csv,legacy,6 1 2,Kafkaesque Koffka,3.2.8,3,y,0,left,right,right,left,left,NA,662,1890,520589,6716,662,NA,2,legacy,3,1024,2,48000,-16,experiment,1,odd,2,803411,799806,5284,608595,801161,792583,5350,601875,805438,806105,801132,802186,525956,805437,NA,Sternberg task,38,28280,41,yes,1024
92.85714286,92.85714286,689.3333333,689.3333333,black,experiment,legacy,legacy,legacy,0,uniform,1,undefined,1,right,41,41,0,0,41,41,0,0,41,41,41,41,0,41,0,Sun Oct 20 20:49:33 2019,The main experiment item,yes,Sternbergtask.osexp,/Users/Linzi/Desktop,no,mono,no,18,no,white,no,no,768,legacy,29,11,/Users/Linzi/Desktop/LM-subject-1.csv,legacy,1 6 4 3 9 7,Kafkaesque Koffka,3.2.8,0,n,0,right,right,right,left,right,NA,672,1890,520589,6716,672,NA,2,legacy,6,1024,2,48000,-16,experiment,1,odd,8,809751,806142,5284,608595,807500,792583,5350,601875,811776,812453,807471,808525,525956,811776,NA,Sternberg task,39,28952,42,yes,1024
93.02325581,93.02325581,689.7209302,689.7209302,black,experiment,legacy,legacy,legacy,0,uniform,1,undefined,1,right,42,42,0,0,42,42,0,0,42,42,42,42,0,42,0,Sun Oct 20 20:49:33 2019,The main experiment item,yes,Sternbergtask.osexp,/Users/Linzi/Desktop,no,mono,no,18,no,white,no,no,768,legacy,30,11,/Users/Linzi/Desktop/LM-subject-1.csv,legacy,8 4 3 5,Kafkaesque Koffka,3.2.8,0,n,0,right,right,right,left,right,NA,706,1890,520589,6716,706,NA,2,legacy,4,1024,2,48000,-16,experiment,1,odd,6,816096,812487,5284,608595,813845,792583,5350,601875,818122,818833,813818,814870,525956,818121,NA,Sternberg task,40,29658,43,yes,1024
93.18181818,93.18181818,690.1818182,690.1818182,black,experiment,legacy,legacy,legacy,0,uniform,1,undefined,1,left,43,43,0,0,43,43,0,0,43,43,43,43,0,43,0,Sun Oct 20 20:49:33 2019,The main experiment item,yes,Sternbergtask.osexp,/Users/Linzi/Desktop,no,mono,no,18,no,white,no,no,768,legacy,31,11,/Users/Linzi/Desktop/LM-subject-1.csv,legacy,4 3 2 5 8,Kafkaesque Koffka,3.2.8,2,y,0,left,right,right,left,left,NA,710,1890,520589,6716,710,NA,2,legacy,5,1024,2,48000,-16,experiment,1,odd,3,822476,818869,5284,608595,820226,792583,5350,601875,824501,825216,820196,821251,525956,824501,NA,Sternberg task,41,30368,44,yes,1024
93.33333333,93.33333333,691.6,691.6,black,experiment,legacy,legacy,legacy,0,uniform,1,undefined,1,right,44,44,0,0,44,44,0,0,44,44,44,44,0,44,0,Sun Oct 20 20:49:33 2019,The main experiment item,yes,Sternbergtask.osexp,/Users/Linzi/Desktop,no,mono,no,18,no,white,no,no,768,legacy,32,11,/Users/Linzi/Desktop/LM-subject-1.csv,legacy,7 1 5 6 3,Kafkaesque Koffka,3.2.8,0,n,0,right,right,right,left,right,NA,754,1890,520589,6716,754,NA,2,legacy,5,1024,2,48000,-16,experiment,1,odd,8,828855,825249,5284,608595,826605,792583,5350,601875,830881,831640,826578,827630,525956,830881,NA,Sternberg task,42,31122,45,yes,1024
93.47826087,93.47826087,688.4565217,688.4565217,black,experiment,legacy,legacy,legacy,0,uniform,1,undefined,1,right,45,45,0,0,45,45,0,0,45,45,45,45,0,45,0,Sun Oct 20 20:49:33 2019,The main experiment item,yes,Sternbergtask.osexp,/Users/Linzi/Desktop,no,mono,no,18,no,white,no,no,768,legacy,33,11,/Users/Linzi/Desktop/LM-subject-1.csv,legacy,7 3 2 8,Kafkaesque Koffka,3.2.8,0,n,0,right,right,right,left,right,NA,547,1890,520589,6716,547,NA,2,legacy,4,1024,2,48000,-16,experiment,1,odd,4,835288,831681,5284,608595,833038,792583,5350,601875,837313,837865,833004,834063,525956,837313,NA,Sternberg task,43,31669,46,yes,1024
93.61702128,93.61702128,685.1276596,685.1276596,black,experiment,legacy,legacy,legacy,0,uniform,1,undefined,1,right,46,46,0,0,46,46,0,0,46,46,46,46,0,46,0,Sun Oct 20 20:49:33 2019,The main experiment item,yes,Sternbergtask.osexp,/Users/Linzi/Desktop,no,mono,no,18,no,white,no,no,768,legacy,34,11,/Users/Linzi/Desktop/LM-subject-1.csv,legacy,4 2 6 9,Kafkaesque Koffka,3.2.8,0,n,0,right,right,right,left,right,NA,532,1890,520589,6716,532,NA,2,legacy,4,1024,2,48000,-16,experiment,1,odd,7,841506,837901,5284,608595,839256,792583,5350,601875,843533,844070,839230,840281,525956,843532,NA,Sternberg task,44,32201,47,yes,1024
93.75,93.75,687.8125,687.8125,black,experiment,legacy,legacy,legacy,0,uniform,1,undefined,1,right,47,47,0,0,47,47,0,0,47,47,47,47,0,47,0,Sun Oct 20 20:49:33 2019,The main experiment item,yes,Sternbergtask.osexp,/Users/Linzi/Desktop,no,mono,no,18,no,white,no,no,768,legacy,35,11,/Users/Linzi/Desktop/LM-subject-1.csv,legacy,8 6 3 4 7,Kafkaesque Koffka,3.2.8,0,n,0,right,right,right,left,right,NA,814,1890,520589,6716,814,NA,2,legacy,5,1024,2,48000,-16,experiment,1,odd,1,847715,844104,5284,608595,845464,792583,5350,601875,849741,850561,845437,846489,525956,849740,NA,Sternberg task,45,33015,48,yes,1024
93.87755102,93.87755102,688.2857143,688.2857143,black,experiment,legacy,legacy,legacy,0,uniform,1,undefined,1,left,48,48,0,0,48,48,0,0,48,48,48,48,0,48,0,Sun Oct 20 20:49:33 2019,The main experiment item,yes,Sternbergtask.osexp,/Users/Linzi/Desktop,no,mono,no,18,no,white,no,no,768,legacy,36,11,/Users/Linzi/Desktop/LM-subject-1.csv,legacy,7 8 6 3 1,Kafkaesque Koffka,3.2.8,5,y,0,left,right,right,left,left,NA,711,1890,520589,6716,711,NA,2,legacy,5,1024,2,48000,-16,experiment,1,odd,1,854207,850602,5284,608595,851955,792583,5350,601875,856233,856949,851929,852981,525956,856232,NA,Sternberg task,46,33726,49,yes,1024
94,94,689.42,689.42,black,experiment,legacy,legacy,legacy,0,uniform,1,undefined,1,left,49,49,0,0,49,49,0,0,49,49,49,49,0,49,0,Sun Oct 20 20:49:33 2019,The main experiment item,yes,Sternbergtask.osexp,/Users/Linzi/Desktop,no,mono,no,18,no,white,no,no,768,legacy,37,11,/Users/Linzi/Desktop/LM-subject-1.csv,legacy,4 6 2 5 1,Kafkaesque Koffka,3.2.8,5,y,0,left,right,right,left,left,NA,745,1890,520589,6716,745,NA,2,legacy,5,1024,2,48000,-16,experiment,1,odd,1,860596,856986,5284,608595,858346,792583,5350,601875,862622,863372,858318,859371,525956,862621,NA,Sternberg task,47,34471,50,yes,1024
94.11764706,94.11764706,689.5098039,689.5098039,black,experiment,legacy,legacy,legacy,0,uniform,1,undefined,1,right,50,50,0,0,50,50,0,0,50,50,50,50,0,50,0,Sun Oct 20 20:49:33 2019,The main experiment item,yes,Sternbergtask.osexp,/Users/Linzi/Desktop,no,mono,no,18,no,white,no,no,768,legacy,38,11,/Users/Linzi/Desktop/LM-subject-1.csv,legacy,6 2 9 3 8 4,Kafkaesque Koffka,3.2.8,0,n,0,right,right,right,left,right,NA,694,1890,520589,6716,694,NA,2,legacy,6,1024,2,48000,-16,experiment,1,odd,1,867034,863410,5284,608595,864783,792583,5350,601875,869060,869759,864757,865809,525956,869059,NA,Sternberg task,48,35165,51,yes,1024
94.23076923,94.23076923,688.7692308,688.7692308,black,experiment,legacy,legacy,legacy,0,uniform,1,undefined,1,right,51,51,0,0,51,51,0,0,51,51,51,51,0,51,0,Sun Oct 20 20:49:33 2019,The main experiment item,yes,Sternbergtask.osexp,/Users/Linzi/Desktop,no,mono,no,18,no,white,no,no,768,legacy,39,11,/Users/Linzi/Desktop/LM-subject-1.csv,legacy,5 3 2 6 9 8,Kafkaesque Koffka,3.2.8,0,n,0,right,right,right,left,right,NA,651,1890,520589,6716,651,NA,2,legacy,6,1024,2,48000,-16,experiment,1,odd,4,873404,869792,5284,608595,871154,792583,5350,601875,875430,876086,871128,872180,525956,875430,NA,Sternberg task,49,35816,52,yes,1024
94.33962264,94.33962264,686.5471698,686.5471698,black,experiment,legacy,legacy,legacy,0,uniform,1,undefined,1,left,52,52,0,0,52,52,0,0,52,52,52,52,0,52,0,Sun Oct 20 20:49:33 2019,The main experiment item,yes,Sternbergtask.osexp,/Users/Linzi/Desktop,no,mono,no,18,no,white,no,no,768,legacy,40,11,/Users/Linzi/Desktop/LM-subject-1.csv,legacy,1 4 9 3 2 5,Kafkaesque Koffka,3.2.8,3,y,0,left,right,right,left,left,NA,571,1890,520589,6716,571,NA,2,legacy,6,1024,2,48000,-16,experiment,1,odd,9,879734,876121,5284,608595,877484,792583,5350,601875,881760,882337,877451,878509,525956,881760,NA,Sternberg task,50,36387,53,yes,1024
94.44444444,94.44444444,683.4444444,683.4444444,black,experiment,legacy,legacy,legacy,0,uniform,1,undefined,1,right,53,53,0,0,53,53,0,0,53,53,53,53,0,53,0,Sun Oct 20 20:49:33 2019,The main experiment item,yes,Sternbergtask.osexp,/Users/Linzi/Desktop,no,mono,no,18,no,white,no,no,768,legacy,41,11,/Users/Linzi/Desktop/LM-subject-1.csv,legacy,1 7 8 3 9,Kafkaesque Koffka,3.2.8,0,n,0,right,right,right,left,right,NA,519,1890,520589,6716,519,NA,2,legacy,5,1024,2,48000,-16,experiment,1,odd,2,885988,882375,5284,608595,883738,792583,5350,601875,888013,888537,883706,884763,525956,888012,NA,Sternberg task,51,36906,54,yes,1024
94.54545455,94.54545455,680.8909091,680.8909091,black,experiment,legacy,legacy,legacy,0,uniform,1,undefined,1,right,54,54,0,0,54,54,0,0,54,54,54,54,0,54,0,Sun Oct 20 20:49:33 2019,The main experiment item,yes,Sternbergtask.osexp,/Users/Linzi/Desktop,no,mono,no,18,no,white,no,no,768,legacy,42,11,/Users/Linzi/Desktop/LM-subject-1.csv,legacy,3 9 1,Kafkaesque Koffka,3.2.8,0,n,0,right,right,right,left,right,NA,543,1890,520589,6716,543,NA,2,legacy,3,1024,2,48000,-16,experiment,1,odd,7,892189,888571,5284,608595,889938,792583,5350,601875,894216,894765,889912,890964,525956,894215,NA,Sternberg task,52,37449,55,yes,1024
94.64285714,94.64285714,689.875,689.875,black,experiment,legacy,legacy,legacy,0,uniform,1,undefined,1,right,55,55,0,0,55,55,0,0,55,55,55,55,0,55,0,Sun Oct 20 20:49:33 2019,The main experiment item,yes,Sternbergtask.osexp,/Users/Linzi/Desktop,no,mono,no,18,no,white,no,no,768,legacy,43,11,/Users/Linzi/Desktop/LM-subject-1.csv,legacy,6 9 7 3 8 2,Kafkaesque Koffka,3.2.8,0,n,0,right,right,right,left,right,NA,1184,1890,520589,6716,1184,NA,2,legacy,6,1024,2,48000,-16,experiment,1,odd,5,898422,894801,5284,608595,896172,792583,5350,601875,900447,901636,896144,897197,525956,900447,NA,Sternberg task,53,38633,56,yes,1024
94.73684211,94.73684211,691.9473684,691.9473684,black,experiment,legacy,legacy,legacy,0,uniform,1,undefined,1,left,56,56,0,0,56,56,0,0,56,56,56,56,0,56,0,Sun Oct 20 20:49:33 2019,The main experiment item,yes,Sternbergtask.osexp,/Users/Linzi/Desktop,no,mono,no,18,no,white,no,no,768,legacy,44,11,/Users/Linzi/Desktop/LM-subject-1.csv,legacy,3 2 1 4 7,Kafkaesque Koffka,3.2.8,2,y,0,left,right,right,left,left,NA,808,1890,520589,6716,808,NA,2,legacy,5,1024,2,48000,-16,experiment,1,odd,2,905279,901670,5284,608595,903028,792583,5350,601875,907307,908121,903002,904054,525956,907306,NA,Sternberg task,54,39441,57,yes,1024
94.82758621,94.82758621,692.6206897,692.6206897,black,experiment,legacy,legacy,legacy,0,uniform,1,undefined,1,left,57,57,0,0,57,57,0,0,57,57,57,57,0,57,0,Sun Oct 20 20:49:33 2019,The main experiment item,yes,Sternbergtask.osexp,/Users/Linzi/Desktop,no,mono,no,18,no,white,no,no,768,legacy,45,11,/Users/Linzi/Desktop/LM-subject-1.csv,legacy,3 5 9 6 2 4,Kafkaesque Koffka,3.2.8,1,y,0,left,right,right,left,left,NA,731,1890,520589,6716,731,NA,2,legacy,6,1024,2,48000,-16,experiment,1,odd,3,911767,908157,5284,608595,909516,792583,5350,601875,913793,914529,909485,910542,525956,913792,NA,Sternberg task,55,40172,58,yes,1024
94.91525424,94.91525424,691.1186441,691.1186441,black,experiment,legacy,legacy,legacy,0,uniform,1,undefined,1,left,58,58,0,0,58,58,0,0,58,58,58,58,0,58,0,Sun Oct 20 20:49:33 2019,The main experiment item,yes,Sternbergtask.osexp,/Users/Linzi/Desktop,no,mono,no,18,no,white,no,no,768,legacy,46,11,/Users/Linzi/Desktop/LM-subject-1.csv,legacy,8 9 5 6 7,Kafkaesque Koffka,3.2.8,1,y,0,left,right,right,left,left,NA,604,1890,520589,6716,604,NA,2,legacy,5,1024,2,48000,-16,experiment,1,odd,8,918178,914572,5284,608595,915928,792583,5350,601875,920206,920818,915901,916953,525956,920205,NA,Sternberg task,56,40776,59,yes,1024
95,95,689.0666667,689.0666667,black,experiment,legacy,legacy,legacy,0,uniform,1,undefined,1,left,59,59,0,0,59,59,0,0,59,59,59,59,0,59,0,Sun Oct 20 20:49:33 2019,The main experiment item,yes,Sternbergtask.osexp,/Users/Linzi/Desktop,no,mono,no,18,no,white,no,no,768,legacy,47,11,/Users/Linzi/Desktop/LM-subject-1.csv,legacy,6 9 7 4 5 1,Kafkaesque Koffka,3.2.8,2,y,0,left,right,right,left,left,NA,568,1890,520589,6716,568,NA,2,legacy,6,1024,2,48000,-16,experiment,1,odd,9,924467,920856,5284,608595,922216,792583,5350,601875,926492,927066,922187,923241,525956,926492,NA,Sternberg task,57,41344,60,yes,1024
95.08196721,95.08196721,687.3278689,687.3278689,black,experiment,legacy,legacy,legacy,0,uniform,1,undefined,1,right,60,60,0,0,60,60,0,0,60,60,60,60,0,60,0,Sun Oct 20 20:49:33 2019,The main experiment item,yes,Sternbergtask.osexp,/Users/Linzi/Desktop,no,mono,no,18,no,white,no,no,768,legacy,48,11,/Users/Linzi/Desktop/LM-subject-1.csv,legacy,8 5 4 2 9 6,Kafkaesque Koffka,3.2.8,0,n,0,right,right,right,left,right,NA,583,1890,520589,6716,583,NA,2,legacy,6,1024,2,48000,-16,experiment,1,odd,3,930714,927100,5284,608595,928463,792583,5350,601875,932741,933330,928434,929488,525956,932740,NA,Sternberg task,58,41927,61,yes,1024
95.16129032,95.16129032,686.3870968,686.3870968,black,experiment,legacy,legacy,legacy,0,uniform,1,undefined,1,right,61,61,0,0,61,61,0,0,61,61,61,61,0,61,0,Sun Oct 20 20:49:33 2019,The main experiment item,yes,Sternbergtask.osexp,/Users/Linzi/Desktop,no,mono,no,18,no,white,no,no,768,legacy,49,11,/Users/Linzi/Desktop/LM-subject-1.csv,legacy,2 7 5,Kafkaesque Koffka,3.2.8,0,n,0,right,right,right,left,right,NA,629,1890,520589,6716,629,NA,2,legacy,3,1024,2,48000,-16,experiment,1,odd,8,936971,933363,5284,608595,934720,792583,5350,601875,938997,939632,934693,935745,525956,938997,NA,Sternberg task,59,42556,62,yes,1024
95.23809524,95.23809524,685.9365079,685.9365079,black,experiment,legacy,legacy,legacy,0,uniform,1,undefined,1,left,62,62,0,0,62,62,0,0,62,62,62,62,0,62,0,Sun Oct 20 20:49:33 2019,The main experiment item,yes,Sternbergtask.osexp,/Users/Linzi/Desktop,no,mono,no,18,no,white,no,no,768,legacy,50,11,/Users/Linzi/Desktop/LM-subject-1.csv,legacy,2 5 4 8 7,Kafkaesque Koffka,3.2.8,3,y,0,left,right,right,left,left,NA,658,1890,520589,6716,658,NA,2,legacy,5,1024,2,48000,-16,experiment,1,odd,4,943276,939668,5284,608595,941026,792583,5350,601875,945303,945966,941000,942051,525956,945302,NA,Sternberg task,60,43214,63,yes,1024
95.3125,95.3125,683.953125,683.953125,black,experiment,legacy,legacy,legacy,0,uniform,1,undefined,1,left,63,63,0,0,63,63,0,0,63,63,63,63,0,63,0,Sun Oct 20 20:49:33 2019,The main experiment item,yes,Sternbergtask.osexp,/Users/Linzi/Desktop,no,mono,no,18,no,white,no,no,768,legacy,51,11,/Users/Linzi/Desktop/LM-subject-1.csv,legacy,6 2,Kafkaesque Koffka,3.2.8,1,y,0,left,right,right,left,left,NA,559,1890,520589,6716,559,NA,2,legacy,2,1024,2,48000,-16,experiment,1,odd,6,949604,946000,5284,608595,947354,792583,5350,601875,951630,952196,947326,948379,525956,951629,NA,Sternberg task,61,43773,64,yes,1024
95.38461538,95.38461538,681.9076923,681.9076923,black,experiment,legacy,legacy,legacy,0,uniform,1,undefined,1,right,64,64,0,0,64,64,0,0,64,64,64,64,0,64,0,Sun Oct 20 20:49:33 2019,The main experiment item,yes,Sternbergtask.osexp,/Users/Linzi/Desktop,no,mono,no,18,no,white,no,no,768,legacy,52,11,/Users/Linzi/Desktop/LM-subject-1.csv,legacy,7 9,Kafkaesque Koffka,3.2.8,0,n,0,right,right,right,left,right,NA,551,1890,520589,6716,551,NA,2,legacy,2,1024,2,48000,-16,experiment,1,odd,1,955836,952230,5284,608595,953587,792583,5350,601875,957864,958421,953558,954612,525956,957863,NA,Sternberg task,62,44324,65,yes,1024
93.93939394,93.93939394,679.0151515,679.0151515,black,experiment,legacy,legacy,legacy,0,uniform,0,undefined,0,left,65,65,0,0,65,65,0,0,65,65,65,65,0,65,0,Sun Oct 20 20:49:33 2019,The main experiment item,yes,Sternbergtask.osexp,/Users/Linzi/Desktop,no,mono,no,18,no,white,no,no,768,legacy,53,11,/Users/Linzi/Desktop/LM-subject-1.csv,legacy,8 5 1 3 9,Kafkaesque Koffka,3.2.8,4,y,0,right,right,right,left,right,NA,491,1890,520589,6716,491,NA,2,legacy,5,1024,2,48000,-16,experiment,1,odd,3,962065,958455,5284,608595,959815,792583,5350,601875,964090,964590,959789,960840,525956,964090,NA,Sternberg task,62,44815,66,yes,1024
94.02985075,94.02985075,677.1492537,677.1492537,black,experiment,legacy,legacy,legacy,0,uniform,1,undefined,1,right,66,66,0,0,66,66,0,0,66,66,66,66,0,66,0,Sun Oct 20 20:49:33 2019,The main experiment item,yes,Sternbergtask.osexp,/Users/Linzi/Desktop,no,mono,no,18,no,white,no,no,768,legacy,54,11,/Users/Linzi/Desktop/LM-subject-1.csv,legacy,2 3 8 5 6 7,Kafkaesque Koffka,3.2.8,0,n,0,right,right,right,left,right,NA,554,2043,520589,6716,554,NA,2,legacy,6,1024,2,48000,-16,experiment,1,odd,1,969310,958455,5284,608595,967057,964628,5350,601875,971335,971895,967029,968082,525956,971335,NA,Sternberg task,63,45369,67,yes,1024
92.64705882,92.64705882,676.1470588,676.1470588,black,experiment,legacy,legacy,legacy,0,uniform,0,undefined,0,left,67,67,0,0,67,67,0,0,67,67,67,67,0,67,0,Sun Oct 20 20:49:33 2019,The main experiment item,yes,Sternbergtask.osexp,/Users/Linzi/Desktop,no,mono,no,18,no,white,no,no,768,legacy,55,11,/Users/Linzi/Desktop/LM-subject-1.csv,legacy,4 7 6 8 2 3,Kafkaesque Koffka,3.2.8,6,y,0,right,right,right,left,right,NA,609,2043,520589,6716,609,NA,2,legacy,6,1024,2,48000,-16,experiment,1,odd,3,975539,971931,5284,608595,973288,964628,5350,601875,977565,978180,973261,974313,525956,977564,NA,Sternberg task,63,45978,68,yes,1024
92.75362319,92.75362319,672.4347826,672.4347826,black,experiment,legacy,legacy,legacy,0,uniform,1,undefined,1,right,68,68,0,0,68,68,0,0,68,68,68,68,0,68,0,Sun Oct 20 20:49:33 2019,The main experiment item,yes,Sternbergtask.osexp,/Users/Linzi/Desktop,no,mono,no,18,no,white,no,no,768,legacy,56,11,/Users/Linzi/Desktop/LM-subject-1.csv,legacy,1,Kafkaesque Koffka,3.2.8,0,n,0,right,right,right,left,right,NA,420,6558,520589,6716,420,NA,2,legacy,1,1024,2,48000,-16,experiment,1,odd,7,987405,971931,5284,608595,985153,978211,5350,601875,989431,989859,985126,986179,525956,989431,NA,Sternberg task,64,46398,69,yes,1024
92.85714286,92.85714286,671.5714286,671.5714286,black,experiment,legacy,legacy,legacy,0,uniform,1,undefined,1,right,69,69,0,0,69,69,0,0,69,69,69,69,0,69,0,Sun Oct 20 20:49:33 2019,The main experiment item,yes,Sternbergtask.osexp,/Users/Linzi/Desktop,no,mono,no,18,no,white,no,no,768,legacy,57,11,/Users/Linzi/Desktop/LM-subject-1.csv,legacy,4 8 1 2,Kafkaesque Koffka,3.2.8,0,n,0,right,right,right,left,right,NA,612,6558,520589,6716,612,NA,2,legacy,4,1024,2,48000,-16,experiment,1,odd,7,993501,989893,5284,608595,991251,978211,5350,601875,995529,996147,991220,992276,525956,995528,NA,Sternberg task,65,47010,70,yes,1024
92.95774648,92.95774648,669.3098592,669.3098592,black,experiment,legacy,legacy,legacy,0,uniform,1,undefined,1,right,70,70,0,0,70,70,0,0,70,70,70,70,0,70,0,Sun Oct 20 20:49:33 2019,The main experiment item,yes,Sternbergtask.osexp,/Users/Linzi/Desktop,no,mono,no,18,no,white,no,no,768,legacy,58,11,/Users/Linzi/Desktop/LM-subject-1.csv,legacy,2 5 1 4,Kafkaesque Koffka,3.2.8,0,n,0,right,right,right,left,right,NA,511,6558,520589,6716,511,NA,2,legacy,4,1024,2,48000,-16,experiment,1,odd,6,999789,996182,5284,608595,997538,978211,5350,601875,1001815,1002332,997511,998564,525956,1001815,NA,Sternberg task,66,47521,71,yes,1024
93.05555556,93.05555556,667.4444444,667.4444444,black,experiment,legacy,legacy,legacy,0,uniform,1,undefined,1,right,71,71,0,0,71,71,0,0,71,71,71,71,0,71,0,Sun Oct 20 20:49:33 2019,The main experiment item,yes,Sternbergtask.osexp,/Users/Linzi/Desktop,no,mono,no,18,no,white,no,no,768,legacy,59,11,/Users/Linzi/Desktop/LM-subject-1.csv,legacy,7 9 1 6,Kafkaesque Koffka,3.2.8,0,n,0,right,right,right,left,right,NA,535,6558,520589,6716,535,NA,2,legacy,4,1024,2,48000,-16,experiment,1,odd,4,1005985,1002381,5284,608595,1003735,978211,5350,601875,1008009,1008551,1003708,1004760,525956,1008009,NA,Sternberg task,67,48056,72,yes,1024
93.15068493,93.15068493,667.7671233,667.7671233,black,experiment,legacy,legacy,legacy,0,uniform,1,undefined,1,right,72,72,0,0,72,72,0,0,72,72,72,72,0,72,0,Sun Oct 20 20:49:33 2019,The main experiment item,yes,Sternbergtask.osexp,/Users/Linzi/Desktop,no,mono,no,18,no,white,no,no,768,legacy,60,11,/Users/Linzi/Desktop/LM-subject-1.csv,legacy,7 4 2 8 1 9,Kafkaesque Koffka,3.2.8,0,n,0,right,right,right,left,right,NA,691,6558,520589,6716,691,NA,2,legacy,6,1024,2,48000,-16,experiment,1,odd,5,1012188,1008583,5284,608595,1009938,978211,5350,601875,1014214,1014911,1009911,1010963,525956,1014214,NA,Sternberg task,68,48747,73,yes,1024
91.89189189,91.89189189,668.0945946,668.0945946,black,experiment,legacy,legacy,legacy,0,uniform,0,undefined,0,left,73,73,0,0,73,73,0,0,73,73,73,73,0,73,0,Sun Oct 20 20:49:33 2019,The main experiment item,yes,Sternbergtask.osexp,/Users/Linzi/Desktop,no,mono,no,18,no,white,no,no,768,legacy,61,11,/Users/Linzi/Desktop/LM-subject-1.csv,legacy,8 5 3 7 4 6,Kafkaesque Koffka,3.2.8,6,y,0,right,right,right,left,right,NA,692,6558,520589,6716,692,NA,2,legacy,6,1024,2,48000,-16,experiment,1,odd,6,1018549,1014946,5284,608595,1016298,978211,5350,601875,1020574,1021272,1016271,1017322,525956,1020574,NA,Sternberg task,68,49439,74,yes,1024
92,92,672.9866667,672.9866667,black,experiment,legacy,legacy,legacy,0,uniform,1,undefined,1,left,74,74,0,0,74,74,0,0,74,74,74,74,0,74,0,Sun Oct 20 20:49:33 2019,The main experiment item,yes,Sternbergtask.osexp,/Users/Linzi/Desktop,no,mono,no,18,no,white,no,no,768,legacy,62,11,/Users/Linzi/Desktop/LM-subject-1.csv,legacy,9 3 1 2 5,Kafkaesque Koffka,3.2.8,4,y,0,left,right,right,left,left,NA,1035,5904,520589,6716,1035,NA,2,legacy,5,1024,2,48000,-16,experiment,1,odd,2,1029856,1014946,5284,608595,1027599,1021306,5350,601875,1031881,1032924,1027572,1028626,525956,1031881,NA,Sternberg task,69,50474,75,yes,1024
92.10526316,92.10526316,670.2894737,670.2894737,black,experiment,legacy,legacy,legacy,0,uniform,1,undefined,1,left,75,75,0,0,75,75,0,0,75,75,75,75,0,75,0,Sun Oct 20 20:49:33 2019,The main experiment item,yes,Sternbergtask.osexp,/Users/Linzi/Desktop,no,mono,no,18,no,white,no,no,768,legacy,63,11,/Users/Linzi/Desktop/LM-subject-1.csv,legacy,3 4,Kafkaesque Koffka,3.2.8,1,y,0,left,right,right,left,left,NA,468,5904,520589,6716,468,NA,2,legacy,2,1024,2,48000,-16,experiment,1,odd,3,1036574,1032958,5284,608595,1034324,1021306,5350,601875,1038600,1039075,1034298,1035349,525956,1038599,NA,Sternberg task,70,50942,76,yes,1024
92.20779221,92.20779221,669.1038961,669.1038961,black,experiment,legacy,legacy,legacy,0,uniform,1,undefined,1,right,76,76,0,0,76,76,0,0,76,76,76,76,0,76,0,Sun Oct 20 20:49:33 2019,The main experiment item,yes,Sternbergtask.osexp,/Users/Linzi/Desktop,no,mono,no,18,no,white,no,no,768,legacy,64,11,/Users/Linzi/Desktop/LM-subject-1.csv,legacy,6 8,Kafkaesque Koffka,3.2.8,0,n,0,right,right,right,left,right,NA,579,5904,520589,6716,579,NA,2,legacy,2,1024,2,48000,-16,experiment,1,odd,9,1042718,1039108,5284,608595,1040466,1021306,5350,601875,1044745,1045331,1040439,1041492,525956,1044744,NA,Sternberg task,71,51521,77,yes,1024
92.30769231,92.30769231,671.1282051,671.1282051,black,experiment,legacy,legacy,legacy,0,uniform,1,undefined,1,right,77,77,0,0,77,77,0,0,77,77,77,77,0,77,0,Sun Oct 20 20:49:33 2019,The main experiment item,yes,Sternbergtask.osexp,/Users/Linzi/Desktop,no,mono,no,18,no,white,no,no,768,legacy,65,11,/Users/Linzi/Desktop/LM-subject-1.csv,legacy,9 5 3 2 8 6,Kafkaesque Koffka,3.2.8,0,n,0,right,right,right,left,right,NA,827,5904,520589,6716,827,NA,2,legacy,6,1024,2,48000,-16,experiment,1,odd,7,1048986,1045366,5284,608595,1046736,1021306,5350,601875,1051011,1051845,1046709,1047761,525956,1051011,NA,Sternberg task,72,52348,78,yes,1024
92.40506329,92.40506329,669.9240506,669.9240506,black,experiment,legacy,legacy,legacy,0,uniform,1,undefined,1,left,78,78,0,0,78,78,0,0,78,78,78,78,0,78,0,Sun Oct 20 20:49:33 2019,The main experiment item,yes,Sternbergtask.osexp,/Users/Linzi/Desktop,no,mono,no,18,no,white,no,no,768,legacy,66,11,/Users/Linzi/Desktop/LM-subject-1.csv,legacy,5 2 6,Kafkaesque Koffka,3.2.8,2,y,0,left,right,right,left,left,NA,576,5904,520589,6716,576,NA,2,legacy,3,1024,2,48000,-16,experiment,1,odd,2,1055488,1051877,5284,608595,1053237,1021306,5350,601875,1057514,1058097,1053211,1054263,525956,1057514,NA,Sternberg task,73,52924,79,yes,1024
92.5,92.5,672.8,672.8,black,experiment,legacy,legacy,legacy,0,uniform,1,undefined,1,right,79,79,0,0,79,79,0,0,79,79,79,79,0,79,0,Sun Oct 20 20:49:33 2019,The main experiment item,yes,Sternbergtask.osexp,/Users/Linzi/Desktop,no,mono,no,18,no,white,no,no,768,legacy,67,11,/Users/Linzi/Desktop/LM-subject-1.csv,legacy,6 9 4 5 2,Kafkaesque Koffka,3.2.8,0,n,0,right,right,right,left,right,NA,900,5904,520589,6716,900,NA,2,legacy,5,1024,2,48000,-16,experiment,1,odd,1,1061737,1058132,5284,608595,1059487,1021306,5350,601875,1063764,1064670,1059461,1060512,525956,1063763,NA,Sternberg task,74,53824,80,yes,1024
92.59259259,92.59259259,671.8888889,671.8888889,black,experiment,legacy,legacy,legacy,0,uniform,1,undefined,1,right,80,80,0,0,80,80,0,0,80,80,80,80,0,80,0,Sun Oct 20 20:49:33 2019,The main experiment item,yes,Sternbergtask.osexp,/Users/Linzi/Desktop,no,mono,no,18,no,white,no,no,768,legacy,68,11,/Users/Linzi/Desktop/LM-subject-1.csv,legacy,2 8 7 9 5 3,Kafkaesque Koffka,3.2.8,0,n,0,right,right,right,left,right,NA,599,5904,520589,6716,599,NA,2,legacy,6,1024,2,48000,-16,experiment,1,odd,6,1068310,1064703,5284,608595,1066061,1021306,5350,601875,1070337,1070943,1066033,1067086,525956,1070336,NA,Sternberg task,75,54423,81,yes,1024
91.46341463,91.46341463,672.8170732,672.8170732,black,experiment,legacy,legacy,legacy,0,uniform,0,undefined,0,left,81,81,0,0,81,81,0,0,81,81,81,81,0,81,0,Sun Oct 20 20:49:33 2019,The main experiment item,yes,Sternbergtask.osexp,/Users/Linzi/Desktop,no,mono,no,18,no,white,no,no,768,legacy,69,11,/Users/Linzi/Desktop/LM-subject-1.csv,legacy,2 8 5 1,Kafkaesque Koffka,3.2.8,4,y,0,right,right,right,left,right,NA,748,5904,520589,6716,748,NA,2,legacy,4,1024,2,48000,-16,experiment,1,odd,1,1074584,1070980,5284,608595,1072334,1021306,5350,601875,1076610,1077365,1072306,1073359,525956,1076610,NA,Sternberg task,75,55171,82,yes,1024
91.56626506,91.56626506,673.9036145,673.9036145,black,experiment,legacy,legacy,legacy,0,uniform,1,undefined,1,right,82,82,0,0,82,82,0,0,82,82,82,82,0,82,0,Sun Oct 20 20:49:33 2019,The main experiment item,yes,Sternbergtask.osexp,/Users/Linzi/Desktop,no,mono,no,18,no,white,no,no,768,legacy,70,11,/Users/Linzi/Desktop/LM-subject-1.csv,legacy,9 7 4 5 8,Kafkaesque Koffka,3.2.8,0,n,0,right,right,right,left,right,NA,763,2710,520589,6716,763,NA,2,legacy,5,1024,2,48000,-16,experiment,1,odd,6,1082746,1070980,5284,608595,1080489,1077402,5350,601875,1084772,1085542,1080462,1081518,525956,1084772,NA,Sternberg task,76,55934,83,yes,1024
91.66666667,91.66666667,672.3928571,672.3928571,black,experiment,legacy,legacy,legacy,0,uniform,1,undefined,1,right,83,83,0,0,83,83,0,0,83,83,83,83,0,83,0,Sun Oct 20 20:49:33 2019,The main experiment item,yes,Sternbergtask.osexp,/Users/Linzi/Desktop,no,mono,no,18,no,white,no,no,768,legacy,71,11,/Users/Linzi/Desktop/LM-subject-1.csv,legacy,5 2,Kafkaesque Koffka,3.2.8,0,n,0,right,right,right,left,right,NA,547,2710,520589,6716,547,NA,2,legacy,2,1024,2,48000,-16,experiment,1,odd,7,1089186,1085578,5284,608595,1086935,1077402,5350,601875,1091213,1091767,1086908,1087961,525956,1091212,NA,Sternberg task,77,56481,84,yes,1024
91.76470588,91.76470588,677.3764706,677.3764706,black,experiment,legacy,legacy,legacy,0,uniform,1,undefined,1,right,84,84,0,0,84,84,0,0,84,84,84,84,0,84,0,Sun Oct 20 20:49:33 2019,The main experiment item,yes,Sternbergtask.osexp,/Users/Linzi/Desktop,no,mono,no,18,no,white,no,no,768,legacy,72,11,/Users/Linzi/Desktop/LM-subject-1.csv,legacy,4 2 7 6 1 3,Kafkaesque Koffka,3.2.8,0,n,0,right,right,right,left,right,NA,1096,2710,520589,6716,1096,NA,2,legacy,6,1024,2,48000,-16,experiment,1,odd,8,1095409,1091804,5284,608595,1093159,1077402,5350,601875,1097434,1098537,1093134,1094184,525956,1097434,NA,Sternberg task,78,57577,85,yes,1024
91.86046512,91.86046512,675.6976744,675.6976744,black,experiment,legacy,legacy,legacy,0,uniform,1,undefined,1,right,85,85,0,0,85,85,0,0,85,85,85,85,0,85,0,Sun Oct 20 20:49:33 2019,The main experiment item,yes,Sternbergtask.osexp,/Users/Linzi/Desktop,no,mono,no,18,no,white,no,no,768,legacy,73,11,/Users/Linzi/Desktop/LM-subject-1.csv,legacy,8 5 7 3 6,Kafkaesque Koffka,3.2.8,0,n,0,right,right,right,left,right,NA,533,2710,520589,6716,533,NA,2,legacy,5,1024,2,48000,-16,experiment,1,odd,9,1102183,1098569,5284,608595,1099933,1077402,5350,601875,1104208,1104748,1099903,1100958,525956,1104208,NA,Sternberg task,79,58110,86,yes,1024
91.95402299,91.95402299,676.1264368,676.1264368,black,experiment,legacy,legacy,legacy,0,uniform,1,undefined,1,left,86,86,0,0,86,86,0,0,86,86,86,86,0,86,0,Sun Oct 20 20:49:33 2019,The main experiment item,yes,Sternbergtask.osexp,/Users/Linzi/Desktop,no,mono,no,18,no,white,no,no,768,legacy,74,11,/Users/Linzi/Desktop/LM-subject-1.csv,legacy,4,Kafkaesque Koffka,3.2.8,1,y,0,left,right,right,left,left,NA,713,2710,520589,6716,713,NA,2,legacy,1,1024,2,48000,-16,experiment,1,odd,4,1108396,1104782,5284,608595,1106143,1077402,5350,601875,1110423,1111143,1106116,1107168,525956,1110422,NA,Sternberg task,80,58823,87,yes,1024
92.04545455,92.04545455,676.4772727,676.4772727,black,experiment,legacy,legacy,legacy,0,uniform,1,undefined,1,right,87,87,0,0,87,87,0,0,87,87,87,87,0,87,0,Sun Oct 20 20:49:33 2019,The main experiment item,yes,Sternbergtask.osexp,/Users/Linzi/Desktop,no,mono,no,18,no,white,no,no,768,legacy,75,11,/Users/Linzi/Desktop/LM-subject-1.csv,legacy,7 8 6 1,Kafkaesque Koffka,3.2.8,0,n,0,right,right,right,left,right,NA,707,2710,520589,6716,707,NA,2,legacy,4,1024,2,48000,-16,experiment,1,odd,3,1114791,1111175,5284,608595,1112541,1077402,5350,601875,1116816,1117530,1112515,1113566,525956,1116816,NA,Sternberg task,81,59530,88,yes,1024
92.13483146,92.13483146,677.3595506,677.3595506,black,experiment,legacy,legacy,legacy,0,uniform,1,undefined,1,left,88,88,0,0,88,88,0,0,88,88,88,88,0,88,0,Sun Oct 20 20:49:33 2019,The main experiment item,yes,Sternbergtask.osexp,/Users/Linzi/Desktop,no,mono,no,18,no,white,no,no,768,legacy,76,11,/Users/Linzi/Desktop/LM-subject-1.csv,legacy,2 4 8 5 1 3,Kafkaesque Koffka,3.2.8,1,y,0,left,right,right,left,left,NA,755,2710,520589,6716,755,NA,2,legacy,6,1024,2,48000,-16,experiment,1,odd,2,1121183,1117566,5284,608595,1118933,1077402,5350,601875,1123210,1123973,1118906,1119958,525956,1123210,NA,Sternberg task,82,60285,89,yes,1024
92.22222222,92.22222222,680.4222222,680.4222222,black,experiment,legacy,legacy,legacy,0,uniform,1,undefined,1,left,89,89,0,0,89,89,0,0,89,89,89,89,0,89,0,Sun Oct 20 20:49:33 2019,The main experiment item,yes,Sternbergtask.osexp,/Users/Linzi/Desktop,no,mono,no,18,no,white,no,no,768,legacy,77,11,/Users/Linzi/Desktop/LM-subject-1.csv,legacy,4 9 7 8 5 3,Kafkaesque Koffka,3.2.8,4,y,0,left,right,right,left,left,NA,953,2710,520589,6716,953,NA,2,legacy,6,1024,2,48000,-16,experiment,1,odd,8,1127613,1124006,5284,608595,1125363,1077402,5350,601875,1129639,1130601,1125337,1126388,525956,1129639,NA,Sternberg task,83,61238,90,yes,1024
92.30769231,92.30769231,682.7692308,682.7692308,black,experiment,legacy,legacy,legacy,0,uniform,1,undefined,1,right,90,90,0,0,90,90,0,0,90,90,90,90,0,90,0,Sun Oct 20 20:49:33 2019,The main experiment item,yes,Sternbergtask.osexp,/Users/Linzi/Desktop,no,mono,no,18,no,white,no,no,768,legacy,78,11,/Users/Linzi/Desktop/LM-subject-1.csv,legacy,5 9 2 3,Kafkaesque Koffka,3.2.8,0,n,0,right,right,right,left,right,NA,894,2710,520589,6716,894,NA,2,legacy,4,1024,2,48000,-16,experiment,1,odd,8,1134246,1130637,5284,608595,1131996,1077402,5350,601875,1136272,1137174,1131965,1133020,525956,1136272,NA,Sternberg task,84,62132,91,yes,1024
92.39130435,92.39130435,686.1195652,686.1195652,black,experiment,legacy,legacy,legacy,0,uniform,1,undefined,1,left,91,91,0,0,91,91,0,0,91,91,91,91,0,91,0,Sun Oct 20 20:49:33 2019,The main experiment item,yes,Sternbergtask.osexp,/Users/Linzi/Desktop,no,mono,no,18,no,white,no,no,768,legacy,79,11,/Users/Linzi/Desktop/LM-subject-1.csv,legacy,9 1 6 7 8,Kafkaesque Koffka,3.2.8,1,y,0,left,right,right,left,left,NA,991,2710,520589,6716,991,NA,2,legacy,5,1024,2,48000,-16,experiment,1,odd,9,1140824,1137212,5284,608595,1138574,1077402,5350,601875,1142849,1143847,1138543,1139599,525956,1142849,NA,Sternberg task,85,63123,92,yes,1024
92.47311828,92.47311828,685.9462366,685.9462366,black,experiment,legacy,legacy,legacy,0,uniform,1,undefined,1,left,92,92,0,0,92,92,0,0,92,92,92,92,0,92,0,Sun Oct 20 20:49:33 2019,The main experiment item,yes,Sternbergtask.osexp,/Users/Linzi/Desktop,no,mono,no,18,no,white,no,no,768,legacy,80,11,/Users/Linzi/Desktop/LM-subject-1.csv,legacy,8 9 5 7 1 6,Kafkaesque Koffka,3.2.8,4,y,0,left,right,right,left,left,NA,670,2710,520589,6716,670,NA,2,legacy,6,1024,2,48000,-16,experiment,1,odd,7,1147493,1143884,5284,608595,1145243,1077402,5350,601875,1149521,1150199,1145217,1146268,525956,1149520,NA,Sternberg task,86,63793,93,yes,1024
92.55319149,92.55319149,685.8617021,685.8617021,black,experiment,legacy,legacy,legacy,0,uniform,1,undefined,1,right,93,93,0,0,93,93,0,0,93,93,93,93,0,93,0,Sun Oct 20 20:49:33 2019,The main experiment item,yes,Sternbergtask.osexp,/Users/Linzi/Desktop,no,mono,no,18,no,white,no,no,768,legacy,81,11,/Users/Linzi/Desktop/LM-subject-1.csv,legacy,5 7 3,Kafkaesque Koffka,3.2.8,0,n,0,right,right,right,left,right,NA,678,2710,520589,6716,678,NA,2,legacy,3,1024,2,48000,-16,experiment,1,odd,9,1153854,1150233,5284,608595,1151603,1077402,5350,601875,1155880,1156565,1151576,1152629,525956,1155879,NA,Sternberg task,87,64471,94,yes,1024
92.63157895,92.63157895,685.6842105,685.6842105,black,experiment,legacy,legacy,legacy,0,uniform,1,undefined,1,right,94,94,0,0,94,94,0,0,94,94,94,94,0,94,0,Sun Oct 20 20:49:33 2019,The main experiment item,yes,Sternbergtask.osexp,/Users/Linzi/Desktop,no,mono,no,18,no,white,no,no,768,legacy,82,11,/Users/Linzi/Desktop/LM-subject-1.csv,legacy,1 3 2 6 9,Kafkaesque Koffka,3.2.8,0,n,0,right,right,right,left,right,NA,669,2710,520589,6716,669,NA,2,legacy,5,1024,2,48000,-16,experiment,1,odd,5,1160211,1156601,5284,608595,1157961,1077402,5350,601875,1162237,1162913,1157933,1158985,525956,1162237,NA,Sternberg task,88,65140,95,yes,1024
92.70833333,92.70833333,687.2395833,687.2395833,black,experiment,legacy,legacy,legacy,0,uniform,1,undefined,1,right,95,95,0,0,95,95,0,0,95,95,95,95,0,95,0,Sun Oct 20 20:49:33 2019,The main experiment item,yes,Sternbergtask.osexp,/Users/Linzi/Desktop,no,mono,no,18,no,white,no,no,768,legacy,83,11,/Users/Linzi/Desktop/LM-subject-1.csv,legacy,6 9 5,Kafkaesque Koffka,3.2.8,0,n,0,right,right,right,left,right,NA,835,2710,520589,6716,835,NA,2,legacy,3,1024,2,48000,-16,experiment,1,odd,8,1166559,1162948,5284,608595,1164308,1077402,5350,601875,1168585,1169427,1164282,1165334,525956,1168585,NA,Sternberg task,89,65975,96,yes,1024
92.78350515,92.78350515,686.7938144,686.7938144,black,experiment,legacy,legacy,legacy,0,uniform,1,undefined,1,right,96,96,0,0,96,96,0,0,96,96,96,96,0,96,0,Sun Oct 20 20:49:33 2019,The main experiment item,yes,Sternbergtask.osexp,/Users/Linzi/Desktop,no,mono,no,18,no,white,no,no,768,legacy,84,11,/Users/Linzi/Desktop/LM-subject-1.csv,legacy,2 8 6 3 1,Kafkaesque Koffka,3.2.8,0,n,0,right,right,right,left,right,NA,644,2710,520589,6716,644,NA,2,legacy,5,1024,2,48000,-16,experiment,1,odd,7,1173064,1169461,5284,608595,1170814,1077402,5350,601875,1175090,1175742,1170788,1171839,525956,1175090,NA,Sternberg task,90,66619,97,yes,1024
92.85714286,92.85714286,685.5816327,685.5816327,black,experiment,legacy,legacy,legacy,0,uniform,1,undefined,1,left,97,97,0,0,97,97,0,0,97,97,97,97,0,97,0,Sun Oct 20 20:49:33 2019,The main experiment item,yes,Sternbergtask.osexp,/Users/Linzi/Desktop,no,mono,no,18,no,white,no,no,768,legacy,85,11,/Users/Linzi/Desktop/LM-subject-1.csv,legacy,6 7 9 3 1 2,Kafkaesque Koffka,3.2.8,1,y,0,left,right,right,left,left,NA,568,2710,520589,6716,568,NA,2,legacy,6,1024,2,48000,-16,experiment,1,odd,6,1179384,1175780,5284,608595,1177134,1077402,5350,601875,1181410,1181985,1177109,1178160,525956,1181410,NA,Sternberg task,91,67187,98,yes,1024
92.92929293,92.92929293,686.9292929,686.9292929,black,experiment,legacy,legacy,legacy,0,uniform,1,undefined,1,right,98,98,0,0,98,98,0,0,98,98,98,98,0,98,0,Sun Oct 20 20:49:33 2019,The main experiment item,yes,Sternbergtask.osexp,/Users/Linzi/Desktop,no,mono,no,18,no,white,no,no,768,legacy,86,11,/Users/Linzi/Desktop/LM-subject-1.csv,legacy,8 2 1 4 5 9,Kafkaesque Koffka,3.2.8,0,n,0,right,right,right,left,right,NA,819,2710,520589,6716,819,NA,2,legacy,6,1024,2,48000,-16,experiment,1,odd,7,1185635,1182029,5284,608595,1183384,1077402,5350,601875,1187663,1188491,1183357,1184409,525956,1187663,NA,Sternberg task,92,68006,99,yes,1024
93,93,686.77,686.77,black,experiment,legacy,legacy,legacy,0,uniform,1,undefined,1,left,99,99,0,0,99,99,0,0,99,99,99,99,0,99,0,Sun Oct 20 20:49:33 2019,The main experiment item,yes,Sternbergtask.osexp,/Users/Linzi/Desktop,no,mono,no,18,no,white,no,no,768,legacy,87,11,/Users/Linzi/Desktop/LM-subject-1.csv,legacy,2 3 7 4,Kafkaesque Koffka,3.2.8,1,y,0,left,right,right,left,left,NA,671,2710,520589,6716,671,NA,2,legacy,4,1024,2,48000,-16,experiment,1,odd,2,1192135,1188525,5284,608595,1189884,1077402,5350,601875,1194160,1194838,1189850,1190910,525956,1194160,NA,Sternberg task,93,68677,100,yes,1024
93.06930693,93.06930693,684.5346535,684.5346535,black,experiment,legacy,legacy,legacy,0,uniform,1,undefined,1,right,100,100,0,0,100,100,0,0,100,100,100,100,0,100,0,Sun Oct 20 20:49:33 2019,The main experiment item,yes,Sternbergtask.osexp,/Users/Linzi/Desktop,no,mono,no,18,no,white,no,no,768,legacy,88,11,/Users/Linzi/Desktop/LM-subject-1.csv,legacy,5,Kafkaesque Koffka,3.2.8,0,n,0,right,right,right,left,right,NA,461,2710,520589,6716,461,NA,2,legacy,1,1024,2,48000,-16,experiment,1,odd,8,1198478,1194874,5284,608595,1196228,1077402,5350,601875,1200504,1200972,1196201,1197253,525956,1200503,NA,Sternberg task,94,69138,101,yes,1024
93.1372549,93.1372549,684.9509804,684.9509804,black,experiment,legacy,legacy,legacy,0,uniform,1,undefined,1,right,101,101,0,0,101,101,0,0,101,101,101,101,0,101,0,Sun Oct 20 20:49:33 2019,The main experiment item,yes,Sternbergtask.osexp,/Users/Linzi/Desktop,no,mono,no,18,no,white,no,no,768,legacy,89,11,/Users/Linzi/Desktop/LM-subject-1.csv,legacy,7 6 4 8 1 2,Kafkaesque Koffka,3.2.8,0,n,0,right,right,right,left,right,NA,727,2710,520589,6716,727,NA,2,legacy,6,1024,2,48000,-16,experiment,1,odd,9,1204625,1201005,5284,608595,1202376,1077402,5350,601875,1206652,1207387,1202350,1203400,525956,1206651,NA,Sternberg task,95,69865,102,yes,1024
93.2038835,93.2038835,682.8737864,682.8737864,black,experiment,legacy,legacy,legacy,0,uniform,1,undefined,1,right,102,102,0,0,102,102,0,0,102,102,102,102,0,102,0,Sun Oct 20 20:49:33 2019,The main experiment item,yes,Sternbergtask.osexp,/Users/Linzi/Desktop,no,mono,no,18,no,white,no,no,768,legacy,90,11,/Users/Linzi/Desktop/LM-subject-1.csv,legacy,4 1,Kafkaesque Koffka,3.2.8,0,n,0,right,right,right,left,right,NA,471,2710,520589,6716,471,NA,2,legacy,2,1024,2,48000,-16,experiment,1,odd,6,1211043,1207423,5284,608595,1208793,1077402,5350,601875,1213070,1213549,1208762,1209818,525956,1213069,NA,Sternberg task,96,70336,103,yes,1024
93.26923077,93.26923077,681.2019231,681.2019231,black,experiment,legacy,legacy,legacy,0,uniform,1,undefined,1,left,103,103,0,0,103,103,0,0,103,103,103,103,0,103,0,Sun Oct 20 20:49:33 2019,The main experiment item,yes,Sternbergtask.osexp,/Users/Linzi/Desktop,no,mono,no,18,no,white,no,no,768,legacy,91,11,/Users/Linzi/Desktop/LM-subject-1.csv,legacy,8 7 3,Kafkaesque Koffka,3.2.8,1,y,0,left,right,right,left,left,NA,509,2710,520589,6716,509,NA,2,legacy,3,1024,2,48000,-16,experiment,1,odd,8,1217200,1213593,5284,608595,1214950,1077402,5350,601875,1219226,1219742,1214922,1215975,525956,1219225,NA,Sternberg task,97,70845,104,yes,1024
93.33333333,93.33333333,680.9238095,680.9238095,black,experiment,legacy,legacy,legacy,0,uniform,1,undefined,1,right,104,104,0,0,104,104,0,0,104,104,104,104,0,104,0,Sun Oct 20 20:49:33 2019,The main experiment item,yes,Sternbergtask.osexp,/Users/Linzi/Desktop,no,mono,no,18,no,white,no,no,768,legacy,92,11,/Users/Linzi/Desktop/LM-subject-1.csv,legacy,1 5 3 2 8,Kafkaesque Koffka,3.2.8,0,n,0,right,right,right,left,right,NA,652,2710,520589,6716,652,NA,2,legacy,5,1024,2,48000,-16,experiment,1,odd,4,1223383,1219777,5284,608595,1221133,1077402,5350,601875,1225409,1226069,1221106,1222158,525956,1225409,NA,Sternberg task,98,71497,105,yes,1024
93.39622642,93.39622642,678.8867925,678.8867925,black,experiment,legacy,legacy,legacy,0,uniform,1,undefined,1,right,105,105,0,0,105,105,0,0,105,105,105,105,0,105,0,Sun Oct 20 20:49:33 2019,The main experiment item,yes,Sternbergtask.osexp,/Users/Linzi/Desktop,no,mono,no,18,no,white,no,no,768,legacy,93,11,/Users/Linzi/Desktop/LM-subject-1.csv,legacy,9,Kafkaesque Koffka,3.2.8,0,n,0,right,right,right,left,right,NA,465,2710,520589,6716,465,NA,2,legacy,1,1024,2,48000,-16,experiment,1,odd,6,1229715,1226103,5284,608595,1227463,1077402,5350,601875,1231740,1232214,1227435,1228489,525956,1231740,NA,Sternberg task,99,71962,106,yes,1024
93.45794393,93.45794393,682.6074766,682.6074766,black,experiment,legacy,legacy,legacy,0,uniform,1,undefined,1,right,106,106,0,0,106,106,0,0,106,106,106,106,0,106,0,Sun Oct 20 20:49:33 2019,The main experiment item,yes,Sternbergtask.osexp,/Users/Linzi/Desktop,no,mono,no,18,no,white,no,no,768,legacy,94,11,/Users/Linzi/Desktop/LM-subject-1.csv,legacy,1 4 9 2 5,Kafkaesque Koffka,3.2.8,0,n,0,right,right,right,left,right,NA,1077,2710,520589,6716,1077,NA,2,legacy,5,1024,2,48000,-16,experiment,1,odd,7,1235863,1232252,5284,608595,1233613,1077402,5350,601875,1237889,1238974,1233586,1234638,525956,1237889,NA,Sternberg task,100,73039,107,yes,1024
93.51851852,93.51851852,682.3703704,682.3703704,black,experiment,legacy,legacy,legacy,0,uniform,1,undefined,1,left,107,107,0,0,107,107,0,0,107,107,107,107,0,107,0,Sun Oct 20 20:49:33 2019,The main experiment item,yes,Sternbergtask.osexp,/Users/Linzi/Desktop,no,mono,no,18,no,white,no,no,768,legacy,95,11,/Users/Linzi/Desktop/LM-subject-1.csv,legacy,2 4 6 9,Kafkaesque Koffka,3.2.8,3,y,0,left,right,right,left,left,NA,657,2710,520589,6716,657,NA,2,legacy,4,1024,2,48000,-16,experiment,1,odd,6,1242620,1239009,5284,608595,1240369,1077402,5350,601875,1244646,1245311,1240339,1241394,525956,1244645,NA,Sternberg task,101,73696,108,yes,1024
93.57798165,93.57798165,683.0183486,683.0183486,black,experiment,legacy,legacy,legacy,0,uniform,1,undefined,1,left,108,108,0,0,108,108,0,0,108,108,108,108,0,108,0,Sun Oct 20 20:49:33 2019,The main experiment item,yes,Sternbergtask.osexp,/Users/Linzi/Desktop,no,mono,no,18,no,white,no,no,768,legacy,96,11,/Users/Linzi/Desktop/LM-subject-1.csv,legacy,7,Kafkaesque Koffka,3.2.8,1,y,0,left,right,right,left,left,NA,753,2710,520589,6716,753,NA,2,legacy,1,1024,2,48000,-16,experiment,1,odd,7,1248956,1245346,5284,608595,1246705,1077402,5350,601875,1250982,1251743,1246676,1247730,525956,1250982,NA,Sternberg task,102,74449,109,yes,1024
93.63636364,93.63636364,683.3363636,683.3363636,black,experiment,legacy,legacy,legacy,0,uniform,1,undefined,1,right,109,109,0,0,109,109,0,0,109,109,109,109,0,109,0,Sun Oct 20 20:49:33 2019,The main experiment item,yes,Sternbergtask.osexp,/Users/Linzi/Desktop,no,mono,no,18,no,white,no,no,768,legacy,97,11,/Users/Linzi/Desktop/LM-subject-1.csv,legacy,6 9 4 5 3 2,Kafkaesque Koffka,3.2.8,0,n,0,right,right,right,left,right,NA,718,2710,520589,6716,718,NA,2,legacy,6,1024,2,48000,-16,experiment,1,odd,8,1255388,1251776,5284,608595,1253137,1077402,5350,601875,1257414,1258140,1253103,1254162,525956,1257414,NA,Sternberg task,103,75167,110,yes,1024
93.69369369,93.69369369,684.1891892,684.1891892,black,experiment,legacy,legacy,legacy,0,uniform,1,undefined,1,left,110,110,0,0,110,110,0,0,110,110,110,110,0,110,0,Sun Oct 20 20:49:33 2019,The main experiment item,yes,Sternbergtask.osexp,/Users/Linzi/Desktop,no,mono,no,18,no,white,no,no,768,legacy,98,11,/Users/Linzi/Desktop/LM-subject-1.csv,legacy,9 3 8 2 1 4,Kafkaesque Koffka,3.2.8,3,y,0,left,right,right,left,left,NA,778,2710,520589,6716,778,NA,2,legacy,6,1024,2,48000,-16,experiment,1,odd,8,1261784,1258175,5284,608595,1259534,1077402,5350,601875,1263811,1264598,1259505,1260559,525956,1263810,NA,Sternberg task,104,75945,111,yes,1024
92.85714286,92.85714286,686.8303571,686.8303571,black,experiment,legacy,legacy,legacy,0,uniform,0,undefined,0,left,111,111,0,0,111,111,0,0,111,111,111,111,0,111,0,Sun Oct 20 20:49:33 2019,The main experiment item,yes,Sternbergtask.osexp,/Users/Linzi/Desktop,no,mono,no,18,no,white,no,no,768,legacy,99,11,/Users/Linzi/Desktop/LM-subject-1.csv,legacy,6 8 9 3 4 9,Kafkaesque Koffka,3.2.8,5,y,0,right,right,right,left,right,NA,980,2710,520589,6716,980,NA,2,legacy,6,1024,2,48000,-16,experiment,1,odd,4,1268240,1264632,5284,608595,1265991,1077402,5350,601875,1270266,1271255,1265958,1267015,525956,1270265,NA,Sternberg task,104,76925,112,yes,1024
92.03539823,92.03539823,690.079646,690.079646,black,experiment,legacy,legacy,legacy,0,uniform,0,undefined,0,left,112,112,0,0,112,112,0,0,112,112,112,112,0,112,0,Sun Oct 20 20:49:33 2019,The main experiment item,yes,Sternbergtask.osexp,/Users/Linzi/Desktop,no,mono,no,18,no,white,no,no,768,legacy,100,11,/Users/Linzi/Desktop/LM-subject-1.csv,legacy,3 4 9 6 2 9,Kafkaesque Koffka,3.2.8,5,y,0,right,left,right,left,right,NA,1054,3942,520589,6716,1054,NA,2,legacy,6,1024,2,48000,-16,experiment,1,odd,2,1277869,1264632,5284,608595,1275617,1271290,5350,601875,1279895,1280957,1275591,1276643,525956,1279895,NA,Sternberg task,104,77979,113,yes,1024
92.10526316,92.10526316,690.0175439,690.0175439,black,experiment,legacy,legacy,legacy,0,uniform,1,undefined,1,right,113,113,0,0,113,113,0,0,113,113,113,113,0,113,0,Sun Oct 20 20:49:33 2019,The main experiment item,yes,Sternbergtask.osexp,/Users/Linzi/Desktop,no,mono,no,18,no,white,no,no,768,legacy,101,11,/Users/Linzi/Desktop/LM-subject-1.csv,legacy,9 8 2 7 4,Kafkaesque Koffka,3.2.8,0,n,0,right,right,right,left,right,NA,683,4891,520589,6716,683,NA,2,legacy,5,1024,2,48000,-16,experiment,1,odd,5,1288517,1264632,5284,608595,1286261,1280993,5350,601875,1290543,1291236,1286236,1287289,525956,1290543,NA,Sternberg task,105,78662,114,yes,1024
92.17391304,92.17391304,690.173913,690.173913,black,experiment,legacy,legacy,legacy,0,uniform,1,undefined,1,left,114,114,0,0,114,114,0,0,114,114,114,114,0,114,0,Sun Oct 20 20:49:33 2019,The main experiment item,yes,Sternbergtask.osexp,/Users/Linzi/Desktop,no,mono,no,18,no,white,no,no,768,legacy,102,11,/Users/Linzi/Desktop/LM-subject-1.csv,legacy,8,Kafkaesque Koffka,3.2.8,1,y,0,left,right,right,left,left,NA,708,4891,520589,6716,708,NA,2,legacy,1,1024,2,48000,-16,experiment,1,odd,8,1294880,1291272,5284,608595,1292630,1280993,5350,601875,1296906,1297623,1292602,1293655,525956,1296906,NA,Sternberg task,106,79370,115,yes,1024
92.24137931,92.24137931,691.9137931,691.9137931,black,experiment,legacy,legacy,legacy,0,uniform,1,undefined,1,right,115,115,0,0,115,115,0,0,115,115,115,115,0,115,0,Sun Oct 20 20:49:33 2019,The main experiment item,yes,Sternbergtask.osexp,/Users/Linzi/Desktop,no,mono,no,18,no,white,no,no,768,legacy,103,11,/Users/Linzi/Desktop/LM-subject-1.csv,legacy,6 7 5 9,Kafkaesque Koffka,3.2.8,0,n,0,right,right,right,left,right,NA,892,4891,520589,6716,892,NA,2,legacy,4,1024,2,48000,-16,experiment,1,odd,2,1301273,1297658,5284,608595,1299022,1280993,5350,601875,1303298,1304198,1298987,1300047,525956,1303298,NA,Sternberg task,107,80262,116,yes,1024
92.30769231,92.30769231,689.9059829,689.9059829,black,experiment,legacy,legacy,legacy,0,uniform,1,undefined,1,right,116,116,0,0,116,116,0,0,116,116,116,116,0,116,0,Sun Oct 20 20:49:33 2019,The main experiment item,yes,Sternbergtask.osexp,/Users/Linzi/Desktop,no,mono,no,18,no,white,no,no,768,legacy,104,11,/Users/Linzi/Desktop/LM-subject-1.csv,legacy,8 9,Kafkaesque Koffka,3.2.8,0,n,0,right,right,right,left,right,NA,457,4891,520589,6716,457,NA,2,legacy,2,1024,2,48000,-16,experiment,1,odd,5,1307844,1304234,5284,608595,1305594,1280993,5350,601875,1309870,1310336,1305567,1306619,525956,1309869,NA,Sternberg task,108,80719,117,yes,1024
92.37288136,92.37288136,689.2881356,689.2881356,black,experiment,legacy,legacy,legacy,0,uniform,1,undefined,1,left,117,117,0,0,117,117,0,0,117,117,117,117,0,117,0,Sun Oct 20 20:49:33 2019,The main experiment item,yes,Sternbergtask.osexp,/Users/Linzi/Desktop,no,mono,no,18,no,white,no,no,768,legacy,105,11,/Users/Linzi/Desktop/LM-subject-1.csv,legacy,4 1 8 7 5,Kafkaesque Koffka,3.2.8,3,y,0,left,right,right,left,left,NA,617,4891,520589,6716,617,NA,2,legacy,5,1024,2,48000,-16,experiment,1,odd,8,1313973,1310369,5284,608595,1311724,1280993,5350,601875,1315999,1316625,1311697,1312749,525956,1315999,NA,Sternberg task,109,81336,118,yes,1024
92.43697479,92.43697479,696,696,black,experiment,legacy,legacy,legacy,0,uniform,1,undefined,1,left,118,118,0,0,118,118,0,0,118,118,118,118,0,118,0,Sun Oct 20 20:49:33 2019,The main experiment item,yes,Sternbergtask.osexp,/Users/Linzi/Desktop,no,mono,no,18,no,white,no,no,768,legacy,106,11,/Users/Linzi/Desktop/LM-subject-1.csv,legacy,6 9 3 1,Kafkaesque Koffka,3.2.8,4,y,0,left,right,right,left,left,NA,1488,4891,520589,6716,1488,NA,2,legacy,4,1024,2,48000,-16,experiment,1,odd,1,1320273,1316662,5284,608595,1318022,1280993,5350,601875,1322300,1323797,1317991,1319048,525956,1322299,NA,Sternberg task,110,82824,119,yes,1024
92.5,92.5,695.425,695.425,black,experiment,legacy,legacy,legacy,0,uniform,1,undefined,1,right,119,119,0,0,119,119,0,0,119,119,119,119,0,119,0,Sun Oct 20 20:49:33 2019,The main experiment item,yes,Sternbergtask.osexp,/Users/Linzi/Desktop,no,mono,no,18,no,white,no,no,768,legacy,107,11,/Users/Linzi/Desktop/LM-subject-1.csv,legacy,8 4 3 9,Kafkaesque Koffka,3.2.8,0,n,0,right,right,right,left,right,NA,627,4891,520589,6716,627,NA,2,legacy,4,1024,2,48000,-16,experiment,1,odd,5,1327439,1323832,5284,608595,1325189,1280993,5350,601875,1329465,1330100,1325160,1326214,525956,1329464,NA,Sternberg task,111,83451,120,yes,1024
92.56198347,92.56198347,695.4793388,695.4793388,black,experiment,legacy,legacy,legacy,0,uniform,1,undefined,1,left,120,120,0,0,120,120,0,0,120,120,120,120,0,120,0,Sun Oct 20 20:49:33 2019,The main experiment item,yes,Sternbergtask.osexp,/Users/Linzi/Desktop,no,mono,no,18,no,white,no,no,768,legacy,108,11,/Users/Linzi/Desktop/LM-subject-1.csv,legacy,6 7 8 5,Kafkaesque Koffka,3.2.8,3,y,0,left,right,right,left,left,NA,702,4891,520589,6716,702,NA,2,legacy,4,1024,2,48000,-16,experiment,1,odd,8,1333759,1330146,5284,608595,1331507,1280993,5350,601875,1335784,1336495,1331479,1332533,525956,1335784,NA,Sternberg task,112,84153,121,yes,1024
92.62295082,92.62295082,696.8606557,696.8606557,black,experiment,legacy,legacy,legacy,0,uniform,1,undefined,1,right,121,121,0,0,121,121,0,0,121,121,121,121,0,121,0,Sun Oct 20 20:49:33 2019,The main experiment item,yes,Sternbergtask.osexp,/Users/Linzi/Desktop,no,mono,no,18,no,white,no,no,768,legacy,109,11,/Users/Linzi/Desktop/LM-subject-1.csv,legacy,3 4 9 6 7 8,Kafkaesque Koffka,3.2.8,0,n,0,right,right,right,left,right,NA,864,4891,520589,6716,864,NA,2,legacy,6,1024,2,48000,-16,experiment,1,odd,2,1340153,1336544,5284,608595,1337904,1280993,5350,601875,1342180,1343052,1337878,1338929,525956,1342179,NA,Sternberg task,113,85017,122,yes,1024
92.68292683,92.68292683,696.796748,696.796748,black,experiment,legacy,legacy,legacy,0,uniform,1,undefined,1,right,122,122,0,0,122,122,0,0,122,122,122,122,0,122,0,Sun Oct 20 20:49:33 2019,The main experiment item,yes,Sternbergtask.osexp,/Users/Linzi/Desktop,no,mono,no,18,no,white,no,no,768,legacy,110,11,/Users/Linzi/Desktop/LM-subject-1.csv,legacy,3 9 8 1 6 4,Kafkaesque Koffka,3.2.8,0,n,0,right,right,right,left,right,NA,689,4891,520589,6716,689,NA,2,legacy,6,1024,2,48000,-16,experiment,1,odd,7,1346697,1343090,5284,608595,1344446,1280993,5350,601875,1348722,1349420,1344418,1345472,525956,1348722,NA,Sternberg task,114,85706,123,yes,1024
91.93548387,91.93548387,701.5241935,701.5241935,black,experiment,legacy,legacy,legacy,0,uniform,0,undefined,0,left,123,123,0,0,123,123,0,0,123,123,123,123,0,123,0,Sun Oct 20 20:49:33 2019,The main experiment item,yes,Sternbergtask.osexp,/Users/Linzi/Desktop,no,mono,no,18,no,white,no,no,768,legacy,111,11,/Users/Linzi/Desktop/LM-subject-1.csv,legacy,9 8 4,Kafkaesque Koffka,3.2.8,1,y,0,right,right,right,left,right,NA,1283,4891,520589,6716,1283,NA,2,legacy,3,1024,2,48000,-16,experiment,1,odd,9,1353064,1349456,5284,608595,1350814,1280993,5350,601875,1355091,1356383,1350784,1351839,525956,1355090,NA,Sternberg task,114,86989,124,yes,1024
92,92,700.24,700.24,black,experiment,legacy,legacy,legacy,0,uniform,1,undefined,1,left,124,124,0,0,124,124,0,0,124,124,124,124,0,124,0,Sun Oct 20 20:49:33 2019,The main experiment item,yes,Sternbergtask.osexp,/Users/Linzi/Desktop,no,mono,no,18,no,white,no,no,768,legacy,112,11,/Users/Linzi/Desktop/LM-subject-1.csv,legacy,9 6 2 4 1,Kafkaesque Koffka,3.2.8,4,y,0,left,right,right,left,left,NA,541,4948,520589,6716,541,NA,2,legacy,5,1024,2,48000,-16,experiment,1,odd,4,1364005,1349456,5284,608595,1361753,1356418,5350,601875,1366031,1366582,1361727,1362780,525956,1366030,NA,Sternberg task,115,87530,125,yes,1024
92.06349206,92.06349206,700.5396825,700.5396825,black,experiment,legacy,legacy,legacy,0,uniform,1,undefined,1,left,125,125,0,0,125,125,0,0,125,125,125,125,0,125,0,Sun Oct 20 20:49:33 2019,The main experiment item,yes,Sternbergtask.osexp,/Users/Linzi/Desktop,no,mono,no,18,no,white,no,no,768,legacy,113,11,/Users/Linzi/Desktop/LM-subject-1.csv,legacy,2 6 1 7 4,Kafkaesque Koffka,3.2.8,2,y,0,left,right,right,left,left,NA,738,4948,520589,6716,738,NA,2,legacy,5,1024,2,48000,-16,experiment,1,odd,6,1370225,1366617,5284,608595,1367976,1356418,5350,601875,1372251,1372997,1367948,1369001,525956,1372251,NA,Sternberg task,116,88268,126,yes,1024
92.12598425,92.12598425,699.0393701,699.0393701,black,experiment,legacy,legacy,legacy,0,uniform,1,undefined,1,left,126,126,0,0,126,126,0,0,126,126,126,126,0,126,0,Sun Oct 20 20:49:33 2019,The main experiment item,yes,Sternbergtask.osexp,/Users/Linzi/Desktop,no,mono,no,18,no,white,no,no,768,legacy,114,11,/Users/Linzi/Desktop/LM-subject-1.csv,legacy,7 6,Kafkaesque Koffka,3.2.8,2,y,0,left,right,right,left,left,NA,510,4948,520589,6716,510,NA,2,legacy,2,1024,2,48000,-16,experiment,1,odd,6,1376633,1373033,5284,608595,1374383,1356418,5350,601875,1378661,1379181,1374357,1375408,525956,1378660,NA,Sternberg task,117,88778,127,yes,1024
92.1875,92.1875,698.71875,698.71875,black,experiment,legacy,legacy,legacy,0,uniform,1,undefined,1,left,127,127,0,0,127,127,0,0,127,127,127,127,0,127,0,Sun Oct 20 20:49:33 2019,The main experiment item,yes,Sternbergtask.osexp,/Users/Linzi/Desktop,no,mono,no,18,no,white,no,no,768,legacy,115,11,/Users/Linzi/Desktop/LM-subject-1.csv,legacy,6 5,Kafkaesque Koffka,3.2.8,2,y,0,left,right,right,left,left,NA,658,4948,520589,6716,658,NA,2,legacy,2,1024,2,48000,-16,experiment,1,odd,5,1382824,1379217,5284,608595,1380574,1356418,5350,601875,1384850,1385519,1380548,1381599,525956,1384850,NA,Sternberg task,118,89436,128,yes,1024
92.24806202,92.24806202,699.2248062,699.2248062,black,experiment,legacy,legacy,legacy,0,uniform,1,undefined,1,right,128,128,0,0,128,128,0,0,128,128,128,128,0,128,0,Sun Oct 20 20:49:33 2019,The main experiment item,yes,Sternbergtask.osexp,/Users/Linzi/Desktop,no,mono,no,18,no,white,no,no,768,legacy,116,11,/Users/Linzi/Desktop/LM-subject-1.csv,legacy,1 4 3 6 5,Kafkaesque Koffka,3.2.8,0,n,0,right,right,right,left,right,NA,764,4948,520589,6716,764,NA,2,legacy,5,1024,2,48000,-16,experiment,1,odd,8,1389160,1385553,5284,608595,1386910,1356418,5350,601875,1391186,1391959,1386882,1387935,525956,1391185,NA,Sternberg task,119,90200,129,yes,1024
92.30769231,92.30769231,699.1846154,699.1846154,black,experiment,legacy,legacy,legacy,0,uniform,1,undefined,1,left,129,129,0,0,129,129,0,0,129,129,129,129,0,129,0,Sun Oct 20 20:49:33 2019,The main experiment item,yes,Sternbergtask.osexp,/Users/Linzi/Desktop,no,mono,no,18,no,white,no,no,768,legacy,117,11,/Users/Linzi/Desktop/LM-subject-1.csv,legacy,3 9 7 6 4,Kafkaesque Koffka,3.2.8,3,y,0,left,right,right,left,left,NA,694,4948,520589,6716,694,NA,2,legacy,5,1024,2,48000,-16,experiment,1,odd,7,1395606,1391994,5284,608595,1393356,1356418,5350,601875,1397631,1398337,1393330,1394381,525956,1397631,NA,Sternberg task,120,90894,130,yes,1024
92.36641221,92.36641221,699.1755725,699.1755725,black,experiment,legacy,legacy,legacy,0,uniform,1,undefined,1,left,130,130,0,0,130,130,0,0,130,130,130,130,0,130,0,Sun Oct 20 20:49:33 2019,The main experiment item,yes,Sternbergtask.osexp,/Users/Linzi/Desktop,no,mono,no,18,no,white,no,no,768,legacy,118,11,/Users/Linzi/Desktop/LM-subject-1.csv,legacy,7 4 2 6 3 5,Kafkaesque Koffka,3.2.8,6,y,0,left,right,right,left,left,NA,698,4948,520589,6716,698,NA,2,legacy,6,1024,2,48000,-16,experiment,1,odd,5,1401978,1398371,5284,608595,1399728,1356418,5350,601875,1404004,1404712,1399701,1400753,525956,1404003,NA,Sternberg task,121,91592,131,yes,1024
92.42424242,92.42424242,697.8409091,697.8409091,black,experiment,legacy,legacy,legacy,0,uniform,1,undefined,1,right,131,131,0,0,131,131,0,0,131,131,131,131,0,131,0,Sun Oct 20 20:49:33 2019,The main experiment item,yes,Sternbergtask.osexp,/Users/Linzi/Desktop,no,mono,no,18,no,white,no,no,768,legacy,119,11,/Users/Linzi/Desktop/LM-subject-1.csv,legacy,6 8 4,Kafkaesque Koffka,3.2.8,0,n,0,right,right,right,left,right,NA,523,4948,520589,6716,523,NA,2,legacy,3,1024,2,48000,-16,experiment,1,odd,1,1408354,1404748,5284,608595,1406104,1356418,5350,601875,1410380,1410914,1406077,1407129,525956,1410379,NA,Sternberg task,122,92115,132,yes,1024
92.48120301,92.48120301,699.1578947,699.1578947,black,experiment,legacy,legacy,legacy,0,uniform,1,undefined,1,right,132,132,0,0,132,132,0,0,132,132,132,132,0,132,0,Sun Oct 20 20:49:33 2019,The main experiment item,yes,Sternbergtask.osexp,/Users/Linzi/Desktop,no,mono,no,18,no,white,no,no,768,legacy,120,11,/Users/Linzi/Desktop/LM-subject-1.csv,legacy,2 8 9 4 1,Kafkaesque Koffka,3.2.8,0,n,0,right,right,right,left,right,NA,873,4948,520589,6716,873,NA,2,legacy,5,1024,2,48000,-16,experiment,1,odd,5,1414556,1410949,5284,608595,1412304,1356418,5350,601875,1416583,1417468,1412278,1413329,525956,1416582,NA,Sternberg task,123,92988,133,yes,1024
92.53731343,92.53731343,698.641791,698.641791,black,experiment,legacy,legacy,legacy,0,uniform,1,undefined,1,left,133,133,0,0,133,133,0,0,133,133,133,133,0,133,0,Sun Oct 20 20:49:33 2019,The main experiment item,yes,Sternbergtask.osexp,/Users/Linzi/Desktop,no,mono,no,18,no,white,no,no,768,legacy,121,11,/Users/Linzi/Desktop/LM-subject-1.csv,legacy,5 2 9 6 1 7,Kafkaesque Koffka,3.2.8,3,y,0,left,right,right,left,left,NA,630,4948,520589,6716,630,NA,2,legacy,6,1024,2,48000,-16,experiment,1,odd,9,1421143,1417511,5284,608595,1418891,1356418,5350,601875,1423170,1423809,1418865,1419916,525956,1423169,NA,Sternberg task,124,93618,134,yes,1024
92.59259259,92.59259259,700.1259259,700.1259259,black,experiment,legacy,legacy,legacy,0,uniform,1,undefined,1,left,134,134,0,0,134,134,0,0,134,134,134,134,0,134,0,Sun Oct 20 20:49:33 2019,The main experiment item,yes,Sternbergtask.osexp,/Users/Linzi/Desktop,no,mono,no,18,no,white,no,no,768,legacy,122,11,/Users/Linzi/Desktop/LM-subject-1.csv,legacy,9 4 2,Kafkaesque Koffka,3.2.8,1,y,0,left,right,right,left,left,NA,899,4948,520589,6716,899,NA,2,legacy,3,1024,2,48000,-16,experiment,1,odd,9,1427452,1423845,5284,608595,1425202,1356418,5350,601875,1429478,1430386,1425176,1426226,525956,1429478,NA,Sternberg task,125,94517,135,yes,1024
92.64705882,92.64705882,699.2279412,699.2279412,black,experiment,legacy,legacy,legacy,0,uniform,1,undefined,1,right,135,135,0,0,135,135,0,0,135,135,135,135,0,135,0,Sun Oct 20 20:49:33 2019,The main experiment item,yes,Sternbergtask.osexp,/Users/Linzi/Desktop,no,mono,no,18,no,white,no,no,768,legacy,123,11,/Users/Linzi/Desktop/LM-subject-1.csv,legacy,2 6 4 3 9,Kafkaesque Koffka,3.2.8,0,n,0,right,right,right,left,right,NA,578,4948,520589,6716,578,NA,2,legacy,5,1024,2,48000,-16,experiment,1,odd,1,1434039,1430419,5284,608595,1431790,1356418,5350,601875,1436065,1436652,1431764,1432815,525956,1436065,NA,Sternberg task,126,95095,136,yes,1024
92.70072993,92.70072993,702.0072993,702.0072993,black,experiment,legacy,legacy,legacy,0,uniform,1,undefined,1,left,136,136,0,0,136,136,0,0,136,136,136,136,0,136,0,Sun Oct 20 20:49:33 2019,The main experiment item,yes,Sternbergtask.osexp,/Users/Linzi/Desktop,no,mono,no,18,no,white,no,no,768,legacy,124,11,/Users/Linzi/Desktop/LM-subject-1.csv,legacy,7 1 3,Kafkaesque Koffka,3.2.8,2,y,0,left,right,right,left,left,NA,1080,4948,520589,6716,1080,NA,2,legacy,3,1024,2,48000,-16,experiment,1,odd,1,1440294,1436688,5284,608595,1438044,1356418,5350,601875,1442321,1443411,1438017,1439068,525956,1442320,NA,Sternberg task,127,96175,137,yes,1024
92.75362319,92.75362319,703.1449275,703.1449275,black,experiment,legacy,legacy,legacy,0,uniform,1,undefined,1,right,137,137,0,0,137,137,0,0,137,137,137,137,0,137,0,Sun Oct 20 20:49:33 2019,The main experiment item,yes,Sternbergtask.osexp,/Users/Linzi/Desktop,no,mono,no,18,no,white,no,no,768,legacy,125,11,/Users/Linzi/Desktop/LM-subject-1.csv,legacy,1 7 5 2 9,Kafkaesque Koffka,3.2.8,0,n,0,right,right,right,left,right,NA,859,4948,520589,6716,859,NA,2,legacy,5,1024,2,48000,-16,experiment,1,odd,3,1447053,1443444,5284,608595,1444802,1356418,5350,601875,1449079,1449947,1444776,1445828,525956,1449078,NA,Sternberg task,128,97034,138,yes,1024