"acc","accuracy","average_response_time","avg_rt","background","block","canvas_backend","clock_backend","color_backend","compensation","coordinates","correct","correct_instruction1","correct_keyboard_response","correct_response","count_ISI","count_correctFeedback","count_expSequence","count_experiment","count_experimentLoop","count_fixation","count_incorrectFeedback","count_instruction1","count_instruction2","count_keyboard_response","count_logger","count_memorySet","count_practiceLoop","count_probe","count_thankYou","datetime","description","disable_garbage_collection","experiment_file","experiment_path","font_bold","font_family","font_italic","font_size","font_underline","foreground","form_clicks","fullscreen","height","keyboard_backend","live_row","live_row_practiceLoop","logfile","mouse_backend","numberSet","opensesame_codename","opensesame_version","posInSet","present","repeat_cycle","response","response_instruction1","response_instruction2","response_keyboard_response","response_thankYou","response_time","response_time_instruction1","response_time_instruction2","response_time_keyboard_response","response_time_thankYou","round_decimals","sampler_backend","setSize","sound_buf_size","sound_channels","sound_freq","sound_sample_size","start","subject_nr","subject_parity","target","time_ISI","time_correctFeedback","time_expSequence","time_experiment","time_experimentLoop","time_fixation","time_incorrectFeedback","time_instruction1","time_instruction2","time_keyboard_response","time_logger","time_memorySet","time_practiceLoop","time_probe","time_thankYou","title","total_correct","total_response_time","total_responses","uniform_coordinates","width"
"100","100","943","943","black","practice","legacy","legacy","legacy","0","uniform","1","undefined","1","right","0","0","0","0","0","0","0","0","0","0","0","0","0","0","0","Sun Oct 23 14:43:21 2022","The main experiment item","yes","Sternbergtask.osexp","/Users/andrea/Desktop/Adv. Quant Methods/Lab 3.1","no","mono","no","18","no","white","no","yes","768","legacy","0","0","/Users/andrea/Desktop/Adv. Quant Methods/Lab 3.1/AS-subject-3.csv","legacy","5 7 8 4 1 2","Lentiform Loewenfeld","3.3.12","0","n","0","right","right","NA","right","NA","943","6175","NA","943","NA","2","legacy","6","1024","2","48000","-16","experiment","3","odd","6","12457","NA","10243","3910","NA","10246","NA","3918","NA","14462","15409","11252","10114","14462","NA","Sternberg task","1","943","1","yes","1024"
"100","100","842","842","black","practice","legacy","legacy","legacy","0","uniform","1","undefined","1","left","1","1","1","0","0","1","1","0","0","1","1","1","0","1","0","Sun Oct 23 14:43:21 2022","The main experiment item","yes","Sternbergtask.osexp","/Users/andrea/Desktop/Adv. Quant Methods/Lab 3.1","no","mono","no","18","no","white","no","yes","768","legacy","1","1","/Users/andrea/Desktop/Adv. Quant Methods/Lab 3.1/AS-subject-3.csv","legacy","4 8","Lentiform Loewenfeld","3.3.12","1","y","0","left","right","NA","left","NA","741","6175","NA","741","NA","2","legacy","2","1024","2","48000","-16","experiment","3","odd","4","18711","15433","16497","3910","NA","16499","NA","3918","NA","20715","21457","17505","10114","20715","NA","Sternberg task","2","1684","2","yes","1024"
"100","100","713.3333333333334","713.3333333333334","black","practice","legacy","legacy","legacy","0","uniform","1","undefined","1","left","2","2","2","0","0","2","2","0","0","2","2","2","0","2","0","Sun Oct 23 14:43:21 2022","The main experiment item","yes","Sternbergtask.osexp","/Users/andrea/Desktop/Adv. Quant Methods/Lab 3.1","no","mono","no","18","no","white","no","yes","768","legacy","2","2","/Users/andrea/Desktop/Adv. Quant Methods/Lab 3.1/AS-subject-3.csv","legacy","6","Lentiform Loewenfeld","3.3.12","1","y","0","left","right","NA","left","NA","456","6175","NA","456","NA","2","legacy","1","1024","2","48000","-16","experiment","3","odd","6","24725","21460","22514","3910","NA","22516","NA","3918","NA","26729","27185","23520","10114","26729","NA","Sternberg task","3","2140","3","yes","1024"
"100","100","666.5","666.5","black","practice","legacy","legacy","legacy","0","uniform","1","undefined","1","left","3","3","3","0","0","3","3","0","0","3","3","3","0","3","0","Sun Oct 23 14:43:21 2022","The main experiment item","yes","Sternbergtask.osexp","/Users/andrea/Desktop/Adv. Quant Methods/Lab 3.1","no","mono","no","18","no","white","no","yes","768","legacy","3","3","/Users/andrea/Desktop/Adv. Quant Methods/Lab 3.1/AS-subject-3.csv","legacy","1 5 2 9","Lentiform Loewenfeld","3.3.12","2","y","0","left","right","NA","left","NA","526","6175","NA","526","NA","2","legacy","4","1024","2","48000","-16","experiment","3","odd","5","30466","27198","28253","3910","NA","28256","NA","3918","NA","32470","32996","29260","10114","32470","NA","Sternberg task","4","2666","4","yes","1024"
"100","100","729.6","729.6","black","practice","legacy","legacy","legacy","0","uniform","1","undefined","1","left","4","4","4","0","0","4","4","0","0","4","4","4","0","4","0","Sun Oct 23 14:43:21 2022","The main experiment item","yes","Sternbergtask.osexp","/Users/andrea/Desktop/Adv. Quant Methods/Lab 3.1","no","mono","no","18","no","white","no","yes","768","legacy","4","4","/Users/andrea/Desktop/Adv. Quant Methods/Lab 3.1/AS-subject-3.csv","legacy","2 9 4","Lentiform Loewenfeld","3.3.12","3","y","0","left","right","NA","left","NA","982","6175","NA","982","NA","2","legacy","3","1024","2","48000","-16","experiment","3","odd","4","36266","32999","34054","3910","NA","34056","NA","3918","NA","38270","39253","35061","10114","38270","NA","Sternberg task","5","3648","5","yes","1024"
"100","100","862.5","862.5","black","practice","legacy","legacy","legacy","0","uniform","1","undefined","1","left","5","5","5","0","0","5","5","0","0","5","5","5","0","5","0","Sun Oct 23 14:43:21 2022","The main experiment item","yes","Sternbergtask.osexp","/Users/andrea/Desktop/Adv. Quant Methods/Lab 3.1","no","mono","no","18","no","white","no","yes","768","legacy","5","5","/Users/andrea/Desktop/Adv. Quant Methods/Lab 3.1/AS-subject-3.csv","legacy","1 7 9 8 5","Lentiform Loewenfeld","3.3.12","4","y","0","left","right","NA","left","NA","1527","6175","NA","1527","NA","2","legacy","5","1024","2","48000","-16","experiment","3","odd","8","42523","39256","40311","3910","NA","40313","NA","3918","NA","44526","46054","41317","10114","44526","NA","Sternberg task","6","5175","6","yes","1024"
"100","100","830.1428571428571","830.1428571428571","black","practice","legacy","legacy","legacy","0","uniform","1","undefined","1","right","6","6","6","0","0","6","6","0","0","6","6","6","0","6","0","Sun Oct 23 14:43:21 2022","The main experiment item","yes","Sternbergtask.osexp","/Users/andrea/Desktop/Adv. Quant Methods/Lab 3.1","no","mono","no","18","no","white","no","yes","768","legacy","6","6","/Users/andrea/Desktop/Adv. Quant Methods/Lab 3.1/AS-subject-3.csv","legacy","4 1 5","Lentiform Loewenfeld","3.3.12","0","n","0","right","right","NA","right","NA","636","6175","NA","636","NA","2","legacy","3","1024","2","48000","-16","experiment","3","odd","2","49321","46057","47110","3910","NA","47112","NA","3918","NA","51325","51962","48116","10114","51325","NA","Sternberg task","7","5811","7","yes","1024"
"100","100","801.75","801.75","black","practice","legacy","legacy","legacy","0","uniform","1","undefined","1","right","7","7","7","0","0","7","7","0","0","7","7","7","0","7","0","Sun Oct 23 14:43:21 2022","The main experiment item","yes","Sternbergtask.osexp","/Users/andrea/Desktop/Adv. Quant Methods/Lab 3.1","no","mono","no","18","no","white","no","yes","768","legacy","7","7","/Users/andrea/Desktop/Adv. Quant Methods/Lab 3.1/AS-subject-3.csv","legacy","9 6 7 4 5","Lentiform Loewenfeld","3.3.12","0","n","0","right","right","NA","right","NA","603","6175","NA","603","NA","2","legacy","5","1024","2","48000","-16","experiment","3","odd","3","55231","51965","53020","3910","NA","53022","NA","3918","NA","57235","57839","54026","10114","57235","NA","Sternberg task","8","6414","8","yes","1024"
"100","100","816.5555555555555","816.5555555555555","black","practice","legacy","legacy","legacy","0","uniform","1","undefined","1","right","8","8","8","0","0","8","8","0","0","8","8","8","0","8","0","Sun Oct 23 14:43:21 2022","The main experiment item","yes","Sternbergtask.osexp","/Users/andrea/Desktop/Adv. Quant Methods/Lab 3.1","no","mono","no","18","no","white","no","yes","768","legacy","8","8","/Users/andrea/Desktop/Adv. Quant Methods/Lab 3.1/AS-subject-3.csv","legacy","3 1 9 4","Lentiform Loewenfeld","3.3.12","0","n","0","right","right","NA","right","NA","935","6175","NA","935","NA","2","legacy","4","1024","2","48000","-16","experiment","3","odd","6","61106","57842","58895","3910","NA","58897","NA","3918","NA","63110","64046","59901","10114","63110","NA","Sternberg task","9","7349","9","yes","1024"
"100","100","796.9","796.9","black","practice","legacy","legacy","legacy","0","uniform","1","undefined","1","left","9","9","9","0","0","9","9","0","0","9","9","9","0","9","0","Sun Oct 23 14:43:21 2022","The main experiment item","yes","Sternbergtask.osexp","/Users/andrea/Desktop/Adv. Quant Methods/Lab 3.1","no","mono","no","18","no","white","no","yes","768","legacy","9","9","/Users/andrea/Desktop/Adv. Quant Methods/Lab 3.1/AS-subject-3.csv","legacy","4 3 1 7 9 8","Lentiform Loewenfeld","3.3.12","1","y","0","left","right","NA","left","NA","620","6175","NA","620","NA","2","legacy","6","1024","2","48000","-16","experiment","3","odd","4","67315","64049","65103","3910","NA","65105","NA","3918","NA","69319","69940","66109","10114","69319","NA","Sternberg task","10","7969","10","yes","1024"
"90.9090909090909","90.9090909090909","831.3636363636364","831.3636363636364","black","practice","legacy","legacy","legacy","0","uniform","0","undefined","0","right","10","10","10","0","0","10","10","0","0","10","10","10","0","10","0","Sun Oct 23 14:43:21 2022","The main experiment item","yes","Sternbergtask.osexp","/Users/andrea/Desktop/Adv. Quant Methods/Lab 3.1","no","mono","no","18","no","white","no","yes","768","legacy","10","10","/Users/andrea/Desktop/Adv. Quant Methods/Lab 3.1/AS-subject-3.csv","legacy","5","Lentiform Loewenfeld","3.3.12","0","n","0","left","right","NA","left","NA","1176","6175","NA","1176","NA","2","legacy","1","1024","2","48000","-16","experiment","3","odd","3","73208","69943","70996","3910","NA","70998","NA","3918","NA","75213","76390","72004","10114","75213","NA","Sternberg task","10","9145","11","yes","1024"
"91.66666666666667","91.66666666666667","836.3333333333334","836.3333333333334","black","practice","legacy","legacy","legacy","0","uniform","1","undefined","1","right","11","11","11","0","0","11","11","0","0","11","11","11","0","11","0","Sun Oct 23 14:43:21 2022","The main experiment item","yes","Sternbergtask.osexp","/Users/andrea/Desktop/Adv. Quant Methods/Lab 3.1","no","mono","no","18","no","white","no","yes","768","legacy","11","11","/Users/andrea/Desktop/Adv. Quant Methods/Lab 3.1/AS-subject-3.csv","legacy","2 1","Lentiform Loewenfeld","3.3.12","0","n","0","right","right","NA","right","NA","891","6175","NA","891","NA","2","legacy","2","1024","2","48000","-16","experiment","3","odd","5","79659","69943","77447","3910","NA","77449","76392","3918","NA","81663","82555","78453","10114","81662","NA","Sternberg task","11","10036","12","yes","1024"
"92.3076923076923","92.3076923076923","817.3846153846154","817.3846153846154","black","experiment","legacy","legacy","legacy","0","uniform","1","undefined","1","right","12","12","12","0","0","12","12","0","0","12","12","12","0","12","0","Sun Oct 23 14:43:21 2022","The main experiment item","yes","Sternbergtask.osexp","/Users/andrea/Desktop/Adv. Quant Methods/Lab 3.1","no","mono","no","18","no","white","no","yes","768","legacy","0","11","/Users/andrea/Desktop/Adv. Quant Methods/Lab 3.1/AS-subject-3.csv","legacy","1","Lentiform Loewenfeld","3.3.12","0","n","0","right","right","left","right","NA","590","6175","15623","590","NA","2","legacy","1","1024","2","48000","-16","experiment","3","odd","7","101466","82558","99254","3910","99214","99256","76392","3918","83590","103470","104060","100261","10114","103470","NA","Sternberg task","12","10626","13","yes","1024"
"92.85714285714286","92.85714285714286","804","804","black","experiment","legacy","legacy","legacy","0","uniform","1","undefined","1","right","13","13","13","0","0","13","13","0","0","13","13","13","0","13","0","Sun Oct 23 14:43:21 2022","The main experiment item","yes","Sternbergtask.osexp","/Users/andrea/Desktop/Adv. Quant Methods/Lab 3.1","no","mono","no","18","no","white","no","yes","768","legacy","1","11","/Users/andrea/Desktop/Adv. Quant Methods/Lab 3.1/AS-subject-3.csv","legacy","3 4 2","Lentiform Loewenfeld","3.3.12","0","n","0","right","right","left","right","NA","630","6175","15623","630","NA","2","legacy","3","1024","2","48000","-16","experiment","3","odd","5","107337","104072","105126","3910","99214","105128","76392","3918","83590","109341","109972","106132","10114","109341","NA","Sternberg task","13","11256","14","yes","1024"
"93.33333333333333","93.33333333333333","786.5333333333333","786.5333333333333","black","experiment","legacy","legacy","legacy","0","uniform","1","undefined","1","right","14","14","14","0","0","14","14","0","0","14","14","14","0","14","0","Sun Oct 23 14:43:21 2022","The main experiment item","yes","Sternbergtask.osexp","/Users/andrea/Desktop/Adv. Quant Methods/Lab 3.1","no","mono","no","18","no","white","no","yes","768","legacy","2","11","/Users/andrea/Desktop/Adv. Quant Methods/Lab 3.1/AS-subject-3.csv","legacy","5 2","Lentiform Loewenfeld","3.3.12","0","n","0","right","right","left","right","NA","542","6175","15623","542","NA","2","legacy","2","1024","2","48000","-16","experiment","3","odd","7","113240","109975","111028","3910","99214","111030","76392","3918","83590","115244","115786","112034","10114","115244","NA","Sternberg task","14","11798","15","yes","1024"
"93.75","93.75","783.375","783.375","black","experiment","legacy","legacy","legacy","0","uniform","1","undefined","1","right","15","15","15","0","0","15","15","0","0","15","15","15","0","15","0","Sun Oct 23 14:43:21 2022","The main experiment item","yes","Sternbergtask.osexp","/Users/andrea/Desktop/Adv. Quant Methods/Lab 3.1","no","mono","no","18","no","white","no","yes","768","legacy","3","11","/Users/andrea/Desktop/Adv. Quant Methods/Lab 3.1/AS-subject-3.csv","legacy","6 8","Lentiform Loewenfeld","3.3.12","0","n","0","right","right","left","right","NA","736","6175","15623","736","NA","2","legacy","2","1024","2","48000","-16","experiment","3","odd","9","119054","115789","116843","3910","99214","116845","76392","3918","83590","121059","121796","117849","10114","121059","NA","Sternberg task","15","12534","16","yes","1024"
"94.11764705882354","94.11764705882354","814.4705882352941","814.4705882352941","black","experiment","legacy","legacy","legacy","0","uniform","1","undefined","1","right","16","16","16","0","0","16","16","0","0","16","16","16","0","16","0","Sun Oct 23 14:43:21 2022","The main experiment item","yes","Sternbergtask.osexp","/Users/andrea/Desktop/Adv. Quant Methods/Lab 3.1","no","mono","no","18","no","white","no","yes","768","legacy","4","11","/Users/andrea/Desktop/Adv. Quant Methods/Lab 3.1/AS-subject-3.csv","legacy","2 8 6 3 1","Lentiform Loewenfeld","3.3.12","0","n","0","right","right","left","right","NA","1312","6175","15623","1312","NA","2","legacy","5","1024","2","48000","-16","experiment","3","odd","7","125065","121799","122853","3910","99214","122855","76392","3918","83590","127069","128382","123859","10114","127069","NA","Sternberg task","16","13846","17","yes","1024"
"94.44444444444444","94.44444444444444","815","815","black","experiment","legacy","legacy","legacy","0","uniform","1","undefined","1","left","17","17","17","0","0","17","17","0","0","17","17","17","0","17","0","Sun Oct 23 14:43:21 2022","The main experiment item","yes","Sternbergtask.osexp","/Users/andrea/Desktop/Adv. Quant Methods/Lab 3.1","no","mono","no","18","no","white","no","yes","768","legacy","5","11","/Users/andrea/Desktop/Adv. Quant Methods/Lab 3.1/AS-subject-3.csv","legacy","2 3 7 4","Lentiform Loewenfeld","3.3.12","1","y","0","left","right","left","left","NA","824","6175","15623","824","NA","2","legacy","4","1024","2","48000","-16","experiment","3","odd","2","131649","128385","129438","3910","99214","129440","76392","3918","83590","133653","134478","130444","10114","133653","NA","Sternberg task","17","14670","18","yes","1024"
"94.73684210526316","94.73684210526316","863.3157894736842","863.3157894736842","black","experiment","legacy","legacy","legacy","0","uniform","1","undefined","1","right","18","18","18","0","0","18","18","0","0","18","18","18","0","18","0","Sun Oct 23 14:43:21 2022","The main experiment item","yes","Sternbergtask.osexp","/Users/andrea/Desktop/Adv. Quant Methods/Lab 3.1","no","mono","no","18","no","white","no","yes","768","legacy","6","11","/Users/andrea/Desktop/Adv. Quant Methods/Lab 3.1/AS-subject-3.csv","legacy","6 9 4 5 3 2","Lentiform Loewenfeld","3.3.12","0","n","0","right","right","left","right","NA","1733","6175","15623","1733","NA","2","legacy","6","1024","2","48000","-16","experiment","3","odd","8","137741","134480","135530","3910","99214","135532","76392","3918","83590","139745","141478","136536","10114","139744","NA","Sternberg task","18","16403","19","yes","1024"
"95","95","870.15","870.15","black","experiment","legacy","legacy","legacy","0","uniform","1","undefined","1","right","19","19","19","0","0","19","19","0","0","19","19","19","0","19","0","Sun Oct 23 14:43:21 2022","The main experiment item","yes","Sternbergtask.osexp","/Users/andrea/Desktop/Adv. Quant Methods/Lab 3.1","no","mono","no","18","no","white","no","yes","768","legacy","7","11","/Users/andrea/Desktop/Adv. Quant Methods/Lab 3.1/AS-subject-3.csv","legacy","4 2 6 9","Lentiform Loewenfeld","3.3.12","0","n","0","right","right","left","right","NA","1000","6175","15623","1000","NA","2","legacy","4","1024","2","48000","-16","experiment","3","odd","7","144743","141481","142535","3910","99214","142537","76392","3918","83590","146746","147746","143541","10114","146746","NA","Sternberg task","19","17403","20","yes","1024"
"95.23809523809524","95.23809523809524","885.0952380952381","885.0952380952381","black","experiment","legacy","legacy","legacy","0","uniform","1","undefined","1","right","20","20","20","0","0","20","20","0","0","20","20","20","0","20","0","Sun Oct 23 14:43:21 2022","The main experiment item","yes","Sternbergtask.osexp","/Users/andrea/Desktop/Adv. Quant Methods/Lab 3.1","no","mono","no","18","no","white","no","yes","768","legacy","8","11","/Users/andrea/Desktop/Adv. Quant Methods/Lab 3.1/AS-subject-3.csv","legacy","5 3 8 7 2 4","Lentiform Loewenfeld","3.3.12","0","n","0","right","right","left","right","NA","1184","6175","15623","1184","NA","2","legacy","6","1024","2","48000","-16","experiment","3","odd","9","151017","147750","148804","3910","99214","148807","76392","3918","83590","153021","154206","149811","10114","153020","NA","Sternberg task","20","18587","21","yes","1024"
"95.45454545454545","95.45454545454545","882.3636363636364","882.3636363636364","black","experiment","legacy","legacy","legacy","0","uniform","1","undefined","1","left","21","21","21","0","0","21","21","0","0","21","21","21","0","21","0","Sun Oct 23 14:43:21 2022","The main experiment item","yes","Sternbergtask.osexp","/Users/andrea/Desktop/Adv. Quant Methods/Lab 3.1","no","mono","no","18","no","white","no","yes","768","legacy","9","11","/Users/andrea/Desktop/Adv. Quant Methods/Lab 3.1/AS-subject-3.csv","legacy","2 4 6 9","Lentiform Loewenfeld","3.3.12","3","y","0","left","right","left","left","NA","825","6175","15623","825","NA","2","legacy","4","1024","2","48000","-16","experiment","3","odd","6","157474","154209","155263","3910","99214","155265","76392","3918","83590","159477","160303","156269","10114","159477","NA","Sternberg task","21","19412","22","yes","1024"
"95.65217391304348","95.65217391304348","901.1739130434783","901.1739130434783","black","experiment","legacy","legacy","legacy","0","uniform","1","undefined","1","right","22","22","22","0","0","22","22","0","0","22","22","22","0","22","0","Sun Oct 23 14:43:21 2022","The main experiment item","yes","Sternbergtask.osexp","/Users/andrea/Desktop/Adv. Quant Methods/Lab 3.1","no","mono","no","18","no","white","no","yes","768","legacy","10","11","/Users/andrea/Desktop/Adv. Quant Methods/Lab 3.1/AS-subject-3.csv","legacy","2 5 1 4","Lentiform Loewenfeld","3.3.12","0","n","0","right","right","left","right","NA","1315","6175","15623","1315","NA","2","legacy","4","1024","2","48000","-16","experiment","3","odd","6","163572","160306","161360","3910","99214","161362","76392","3918","83590","165576","166892","162366","10114","165576","NA","Sternberg task","22","20727","23","yes","1024"
"95.83333333333333","95.83333333333333","891.0833333333334","891.0833333333334","black","experiment","legacy","legacy","legacy","0","uniform","1","undefined","1","left","23","23","23","0","0","23","23","0","0","23","23","23","0","23","0","Sun Oct 23 14:43:21 2022","The main experiment item","yes","Sternbergtask.osexp","/Users/andrea/Desktop/Adv. Quant Methods/Lab 3.1","no","mono","no","18","no","white","no","yes","768","legacy","11","11","/Users/andrea/Desktop/Adv. Quant Methods/Lab 3.1/AS-subject-3.csv","legacy","7 2 3","Lentiform Loewenfeld","3.3.12","3","y","0","left","right","left","left","NA","659","6175","15623","659","NA","2","legacy","3","1024","2","48000","-16","experiment","3","odd","3","170160","166895","167949","3910","99214","167951","76392","3918","83590","172162","172821","168955","10114","172162","NA","Sternberg task","23","21386","24","yes","1024"
"96","96","883.68","883.68","black","experiment","legacy","legacy","legacy","0","uniform","1","undefined","1","right","24","24","24","0","0","24","24","0","0","24","24","24","0","24","0","Sun Oct 23 14:43:21 2022","The main experiment item","yes","Sternbergtask.osexp","/Users/andrea/Desktop/Adv. Quant Methods/Lab 3.1","no","mono","no","18","no","white","no","yes","768","legacy","12","11","/Users/andrea/Desktop/Adv. Quant Methods/Lab 3.1/AS-subject-3.csv","legacy","2 7 5","Lentiform Loewenfeld","3.3.12","0","n","0","right","right","left","right","NA","706","6175","15623","706","NA","2","legacy","3","1024","2","48000","-16","experiment","3","odd","8","176095","172829","173883","3910","99214","173885","76392","3918","83590","178099","178805","174889","10114","178099","NA","Sternberg task","24","22092","25","yes","1024"
"96.15384615384616","96.15384615384616","885.0384615384615","885.0384615384615","black","experiment","legacy","legacy","legacy","0","uniform","1","undefined","1","right","25","25","25","0","0","25","25","0","0","25","25","25","0","25","0","Sun Oct 23 14:43:21 2022","The main experiment item","yes","Sternbergtask.osexp","/Users/andrea/Desktop/Adv. Quant Methods/Lab 3.1","no","mono","no","18","no","white","no","yes","768","legacy","13","11","/Users/andrea/Desktop/Adv. Quant Methods/Lab 3.1/AS-subject-3.csv","legacy","1 6 4 3 9 7","Lentiform Loewenfeld","3.3.12","0","n","0","right","right","left","right","NA","919","6175","15623","919","NA","2","legacy","6","1024","2","48000","-16","experiment","3","odd","8","182074","178808","179863","3910","99214","179865","76392","3918","83590","184078","184998","180869","10114","184078","NA","Sternberg task","25","23011","26","yes","1024"
"96.29629629629629","96.29629629629629","883.3703703703703","883.3703703703703","black","experiment","legacy","legacy","legacy","0","uniform","1","undefined","1","right","26","26","26","0","0","26","26","0","0","26","26","26","0","26","0","Sun Oct 23 14:43:21 2022","The main experiment item","yes","Sternbergtask.osexp","/Users/andrea/Desktop/Adv. Quant Methods/Lab 3.1","no","mono","no","18","no","white","no","yes","768","legacy","14","11","/Users/andrea/Desktop/Adv. Quant Methods/Lab 3.1/AS-subject-3.csv","legacy","8 4 3 9","Lentiform Loewenfeld","3.3.12","0","n","0","right","right","left","right","NA","840","6175","15623","840","NA","2","legacy","4","1024","2","48000","-16","experiment","3","odd","5","188267","185001","186055","3910","99214","186057","76392","3918","83590","190271","191112","187061","10114","190271","NA","Sternberg task","26","23851","27","yes","1024"
"96.42857142857143","96.42857142857143","887.3214285714286","887.3214285714286","black","experiment","legacy","legacy","legacy","0","uniform","1","undefined","1","right","27","27","27","0","0","27","27","0","0","27","27","27","0","27","0","Sun Oct 23 14:43:21 2022","The main experiment item","yes","Sternbergtask.osexp","/Users/andrea/Desktop/Adv. Quant Methods/Lab 3.1","no","mono","no","18","no","white","no","yes","768","legacy","15","11","/Users/andrea/Desktop/Adv. Quant Methods/Lab 3.1/AS-subject-3.csv","legacy","6 9 7 3 8 2","Lentiform Loewenfeld","3.3.12","0","n","0","right","right","left","right","NA","994","6175","15623","994","NA","2","legacy","6","1024","2","48000","-16","experiment","3","odd","5","194380","191115","192169","3910","99214","192171","76392","3918","83590","196385","197379","193175","10114","196384","NA","Sternberg task","27","24845","28","yes","1024"
"96.55172413793103","96.55172413793103","879.8965517241379","879.8965517241379","black","experiment","legacy","legacy","legacy","0","uniform","1","undefined","1","left","28","28","28","0","0","28","28","0","0","28","28","28","0","28","0","Sun Oct 23 14:43:21 2022","The main experiment item","yes","Sternbergtask.osexp","/Users/andrea/Desktop/Adv. Quant Methods/Lab 3.1","no","mono","no","18","no","white","no","yes","768","legacy","16","11","/Users/andrea/Desktop/Adv. Quant Methods/Lab 3.1/AS-subject-3.csv","legacy","6 1 2","Lentiform Loewenfeld","3.3.12","3","y","0","left","right","left","left","NA","672","6175","15623","672","NA","2","legacy","3","1024","2","48000","-16","experiment","3","odd","2","200648","197382","198435","3910","99214","198438","76392","3918","83590","202652","203324","199442","10114","202651","NA","Sternberg task","28","25517","29","yes","1024"
"96.66666666666667","96.66666666666667","882.1333333333333","882.1333333333333","black","experiment","legacy","legacy","legacy","0","uniform","1","undefined","1","left","29","29","29","0","0","29","29","0","0","29","29","29","0","29","0","Sun Oct 23 14:43:21 2022","The main experiment item","yes","Sternbergtask.osexp","/Users/andrea/Desktop/Adv. Quant Methods/Lab 3.1","no","mono","no","18","no","white","no","yes","768","legacy","17","11","/Users/andrea/Desktop/Adv. Quant Methods/Lab 3.1/AS-subject-3.csv","legacy","3 9 6 2","Lentiform Loewenfeld","3.3.12","4","y","0","left","right","left","left","NA","947","6175","15623","947","NA","2","legacy","4","1024","2","48000","-16","experiment","3","odd","2","206593","203328","204382","3910","99214","204384","76392","3918","83590","208598","209545","205388","10114","208598","NA","Sternberg task","29","26464","30","yes","1024"
"96.7741935483871","96.7741935483871","869.7096774193549","869.7096774193549","black","experiment","legacy","legacy","legacy","0","uniform","1","undefined","1","left","30","30","30","0","0","30","30","0","0","30","30","30","0","30","0","Sun Oct 23 14:43:21 2022","The main experiment item","yes","Sternbergtask.osexp","/Users/andrea/Desktop/Adv. Quant Methods/Lab 3.1","no","mono","no","18","no","white","no","yes","768","legacy","18","11","/Users/andrea/Desktop/Adv. Quant Methods/Lab 3.1/AS-subject-3.csv","legacy","5 7 8 2 3 8","Lentiform Loewenfeld","3.3.12","5","y","0","left","right","left","left","NA","497","6175","15623","497","NA","2","legacy","6","1024","2","48000","-16","experiment","3","odd","3","212815","209549","210603","3910","99214","210605","76392","3918","83590","214819","215317","211609","10114","214819","NA","Sternberg task","30","26961","31","yes","1024"
"96.875","96.875","867.03125","867.03125","black","experiment","legacy","legacy","legacy","0","uniform","1","undefined","1","left","31","31","31","0","0","31","31","0","0","31","31","31","0","31","0","Sun Oct 23 14:43:21 2022","The main experiment item","yes","Sternbergtask.osexp","/Users/andrea/Desktop/Adv. Quant Methods/Lab 3.1","no","mono","no","18","no","white","no","yes","768","legacy","19","11","/Users/andrea/Desktop/Adv. Quant Methods/Lab 3.1/AS-subject-3.csv","legacy","2 5 4 8 7","Lentiform Loewenfeld","3.3.12","3","y","0","left","right","left","left","NA","784","6175","15623","784","NA","2","legacy","5","1024","2","48000","-16","experiment","3","odd","4","218585","215320","216374","3910","99214","216376","76392","3918","83590","220590","221375","217380","10114","220590","NA","Sternberg task","31","27745","32","yes","1024"
"96.96969696969697","96.96969696969697","858.2424242424242","858.2424242424242","black","experiment","legacy","legacy","legacy","0","uniform","1","undefined","1","left","32","32","32","0","0","32","32","0","0","32","32","32","0","32","0","Sun Oct 23 14:43:21 2022","The main experiment item","yes","Sternbergtask.osexp","/Users/andrea/Desktop/Adv. Quant Methods/Lab 3.1","no","mono","no","18","no","white","no","yes","768","legacy","20","11","/Users/andrea/Desktop/Adv. Quant Methods/Lab 3.1/AS-subject-3.csv","legacy","4 3 2 5 8","Lentiform Loewenfeld","3.3.12","2","y","0","left","right","left","left","NA","577","6175","15623","577","NA","2","legacy","5","1024","2","48000","-16","experiment","3","odd","3","224639","221378","222426","3910","99214","222429","76392","3918","83590","226643","227221","223433","10114","226643","NA","Sternberg task","32","28322","33","yes","1024"
"97.05882352941177","97.05882352941177","849.6470588235294","849.6470588235294","black","experiment","legacy","legacy","legacy","0","uniform","1","undefined","1","right","33","33","33","0","0","33","33","0","0","33","33","33","0","33","0","Sun Oct 23 14:43:21 2022","The main experiment item","yes","Sternbergtask.osexp","/Users/andrea/Desktop/Adv. Quant Methods/Lab 3.1","no","mono","no","18","no","white","no","yes","768","legacy","21","11","/Users/andrea/Desktop/Adv. Quant Methods/Lab 3.1/AS-subject-3.csv","legacy","4 8 1 2","Lentiform Loewenfeld","3.3.12","0","n","0","right","right","left","right","NA","566","6175","15623","566","NA","2","legacy","4","1024","2","48000","-16","experiment","3","odd","7","230507","227245","228299","3910","99214","228301","76392","3918","83590","232509","233075","229305","10114","232509","NA","Sternberg task","33","28888","34","yes","1024"
"97.14285714285714","97.14285714285714","851.7428571428571","851.7428571428571","black","experiment","legacy","legacy","legacy","0","uniform","1","undefined","1","right","34","34","34","0","0","34","34","0","0","34","34","34","0","34","0","Sun Oct 23 14:43:21 2022","The main experiment item","yes","Sternbergtask.osexp","/Users/andrea/Desktop/Adv. Quant Methods/Lab 3.1","no","mono","no","18","no","white","no","yes","768","legacy","22","11","/Users/andrea/Desktop/Adv. Quant Methods/Lab 3.1/AS-subject-3.csv","legacy","5","Lentiform Loewenfeld","3.3.12","0","n","0","right","right","left","right","NA","923","6175","15623","923","NA","2","legacy","1","1024","2","48000","-16","experiment","3","odd","8","236343","233078","234131","3910","99214","234133","76392","3918","83590","238347","239271","235137","10114","238347","NA","Sternberg task","34","29811","35","yes","1024"
"97.22222222222223","97.22222222222223","858.3611111111111","858.3611111111111","black","experiment","legacy","legacy","legacy","0","uniform","1","undefined","1","left","35","35","35","0","0","35","35","0","0","35","35","35","0","35","0","Sun Oct 23 14:43:21 2022","The main experiment item","yes","Sternbergtask.osexp","/Users/andrea/Desktop/Adv. Quant Methods/Lab 3.1","no","mono","no","18","no","white","no","yes","768","legacy","23","11","/Users/andrea/Desktop/Adv. Quant Methods/Lab 3.1/AS-subject-3.csv","legacy","5 2 9 6 1 7","Lentiform Loewenfeld","3.3.12","3","y","0","left","right","left","left","NA","1090","6175","15623","1090","NA","2","legacy","6","1024","2","48000","-16","experiment","3","odd","9","242538","239274","240328","3910","99214","240330","76392","3918","83590","244543","245634","241334","10114","244543","NA","Sternberg task","35","30901","36","yes","1024"
"97.29729729729729","97.29729729729729","866.6756756756756","866.6756756756756","black","experiment","legacy","legacy","legacy","0","uniform","1","undefined","1","left","36","36","36","0","0","36","36","0","0","36","36","36","0","36","0","Sun Oct 23 14:43:21 2022","The main experiment item","yes","Sternbergtask.osexp","/Users/andrea/Desktop/Adv. Quant Methods/Lab 3.1","no","mono","no","18","no","white","no","yes","768","legacy","24","11","/Users/andrea/Desktop/Adv. Quant Methods/Lab 3.1/AS-subject-3.csv","legacy","7 4 2 6 3 5","Lentiform Loewenfeld","3.3.12","6","y","0","left","right","left","left","NA","1166","6175","15623","1166","NA","2","legacy","6","1024","2","48000","-16","experiment","3","odd","5","248903","245637","246691","3910","99214","246693","76392","3918","83590","250907","252074","247697","10114","250906","NA","Sternberg task","36","32067","37","yes","1024"
"97.36842105263158","97.36842105263158","883.5","883.5","black","experiment","legacy","legacy","legacy","0","uniform","1","undefined","1","left","37","37","37","0","0","37","37","0","0","37","37","37","0","37","0","Sun Oct 23 14:43:21 2022","The main experiment item","yes","Sternbergtask.osexp","/Users/andrea/Desktop/Adv. Quant Methods/Lab 3.1","no","mono","no","18","no","white","no","yes","768","legacy","25","11","/Users/andrea/Desktop/Adv. Quant Methods/Lab 3.1/AS-subject-3.csv","legacy","8 5 3 7 4 6","Lentiform Loewenfeld","3.3.12","6","y","0","left","right","left","left","NA","1506","6175","15623","1506","NA","2","legacy","6","1024","2","48000","-16","experiment","3","odd","6","255343","252077","253131","3910","99214","253134","76392","3918","83590","257348","258855","254138","10114","257348","NA","Sternberg task","37","33573","38","yes","1024"
"97.43589743589743","97.43589743589743","884.0769230769231","884.0769230769231","black","experiment","legacy","legacy","legacy","0","uniform","1","undefined","1","right","38","38","38","0","0","38","38","0","0","38","38","38","0","38","0","Sun Oct 23 14:43:21 2022","The main experiment item","yes","Sternbergtask.osexp","/Users/andrea/Desktop/Adv. Quant Methods/Lab 3.1","no","mono","no","18","no","white","no","yes","768","legacy","26","11","/Users/andrea/Desktop/Adv. Quant Methods/Lab 3.1/AS-subject-3.csv","legacy","6 9 4 5 2","Lentiform Loewenfeld","3.3.12","0","n","0","right","right","left","right","NA","906","6175","15623","906","NA","2","legacy","5","1024","2","48000","-16","experiment","3","odd","1","262124","258858","259911","3910","99214","259914","76392","3918","83590","264127","265034","260918","10114","264127","NA","Sternberg task","38","34479","39","yes","1024"
"97.5","97.5","874.175","874.175","black","experiment","legacy","legacy","legacy","0","uniform","1","undefined","1","left","39","39","39","0","0","39","39","0","0","39","39","39","0","39","0","Sun Oct 23 14:43:21 2022","The main experiment item","yes","Sternbergtask.osexp","/Users/andrea/Desktop/Adv. Quant Methods/Lab 3.1","no","mono","no","18","no","white","no","yes","768","legacy","27","11","/Users/andrea/Desktop/Adv. Quant Methods/Lab 3.1/AS-subject-3.csv","legacy","8","Lentiform Loewenfeld","3.3.12","1","y","0","left","right","left","left","NA","488","6175","15623","488","NA","2","legacy","1","1024","2","48000","-16","experiment","3","odd","8","268309","265037","266090","3910","99214","266093","76392","3918","83590","270314","270803","267097","10114","270314","NA","Sternberg task","39","34967","40","yes","1024"
"97.5609756097561","97.5609756097561","874.8536585365854","874.8536585365854","black","experiment","legacy","legacy","legacy","0","uniform","1","undefined","1","right","40","40","40","0","0","40","40","0","0","40","40","40","0","40","0","Sun Oct 23 14:43:21 2022","The main experiment item","yes","Sternbergtask.osexp","/Users/andrea/Desktop/Adv. Quant Methods/Lab 3.1","no","mono","no","18","no","white","no","yes","768","legacy","28","11","/Users/andrea/Desktop/Adv. Quant Methods/Lab 3.1/AS-subject-3.csv","legacy","1 7 5 2 9","Lentiform Loewenfeld","3.3.12","0","n","0","right","right","left","right","NA","902","6175","15623","902","NA","2","legacy","5","1024","2","48000","-16","experiment","3","odd","3","274073","270806","271860","3910","99214","271862","76392","3918","83590","276078","276981","272866","10114","276078","NA","Sternberg task","40","35869","41","yes","1024"
"97.61904761904762","97.61904761904762","868.452380952381","868.452380952381","black","experiment","legacy","legacy","legacy","0","uniform","1","undefined","1","left","41","41","41","0","0","41","41","0","0","41","41","41","0","41","0","Sun Oct 23 14:43:21 2022","The main experiment item","yes","Sternbergtask.osexp","/Users/andrea/Desktop/Adv. Quant Methods/Lab 3.1","no","mono","no","18","no","white","no","yes","768","legacy","29","11","/Users/andrea/Desktop/Adv. Quant Methods/Lab 3.1/AS-subject-3.csv","legacy","2 8 5 1","Lentiform Loewenfeld","3.3.12","4","y","0","left","right","left","left","NA","606","6175","15623","606","NA","2","legacy","4","1024","2","48000","-16","experiment","3","odd","1","280249","276984","278038","3910","99214","278040","76392","3918","83590","282255","282862","279044","10114","282255","NA","Sternberg task","41","36475","42","yes","1024"
"97.67441860465117","97.67441860465117","859.9767441860465","859.9767441860465","black","experiment","legacy","legacy","legacy","0","uniform","1","undefined","1","left","42","42","42","0","0","42","42","0","0","42","42","42","0","42","0","Sun Oct 23 14:43:21 2022","The main experiment item","yes","Sternbergtask.osexp","/Users/andrea/Desktop/Adv. Quant Methods/Lab 3.1","no","mono","no","18","no","white","no","yes","768","legacy","30","11","/Users/andrea/Desktop/Adv. Quant Methods/Lab 3.1/AS-subject-3.csv","legacy","5 2 6","Lentiform Loewenfeld","3.3.12","2","y","0","left","right","left","left","NA","504","6175","15623","504","NA","2","legacy","3","1024","2","48000","-16","experiment","3","odd","2","286131","282865","283919","3910","99214","283921","76392","3918","83590","288135","288640","284925","10114","288135","NA","Sternberg task","42","36979","43","yes","1024"
"97.72727272727273","97.72727272727273","861.8409090909091","861.8409090909091","black","experiment","legacy","legacy","legacy","0","uniform","1","undefined","1","left","43","43","43","0","0","43","43","0","0","43","43","43","0","43","0","Sun Oct 23 14:43:21 2022","The main experiment item","yes","Sternbergtask.osexp","/Users/andrea/Desktop/Adv. Quant Methods/Lab 3.1","no","mono","no","18","no","white","no","yes","768","legacy","31","11","/Users/andrea/Desktop/Adv. Quant Methods/Lab 3.1/AS-subject-3.csv","legacy","9 6 2 4 1","Lentiform Loewenfeld","3.3.12","4","y","0","left","right","left","left","NA","942","6175","15623","942","NA","2","legacy","5","1024","2","48000","-16","experiment","3","odd","4","291910","288643","289697","3910","99214","289699","76392","3918","83590","293917","294860","290703","10114","293917","NA","Sternberg task","43","37921","44","yes","1024"
"97.77777777777777","97.77777777777777","857.6","857.6","black","experiment","legacy","legacy","legacy","0","uniform","1","undefined","1","right","44","44","44","0","0","44","44","0","0","44","44","44","0","44","0","Sun Oct 23 14:43:21 2022","The main experiment item","yes","Sternbergtask.osexp","/Users/andrea/Desktop/Adv. Quant Methods/Lab 3.1","no","mono","no","18","no","white","no","yes","768","legacy","32","11","/Users/andrea/Desktop/Adv. Quant Methods/Lab 3.1/AS-subject-3.csv","legacy","2 8 9","Lentiform Loewenfeld","3.3.12","0","n","0","right","right","left","right","NA","671","6175","15623","671","NA","2","legacy","3","1024","2","48000","-16","experiment","3","odd","6","298132","294863","295916","3910","99214","295919","76392","3918","83590","300140","300811","296923","10114","300140","NA","Sternberg task","44","38592","45","yes","1024"
"97.82608695652173","97.82608695652173","865.1086956521739","865.1086956521739","black","experiment","legacy","legacy","legacy","0","uniform","1","undefined","1","left","45","45","45","0","0","45","45","0","0","45","45","45","0","45","0","Sun Oct 23 14:43:21 2022","The main experiment item","yes","Sternbergtask.osexp","/Users/andrea/Desktop/Adv. Quant Methods/Lab 3.1","no","mono","no","18","no","white","no","yes","768","legacy","33","11","/Users/andrea/Desktop/Adv. Quant Methods/Lab 3.1/AS-subject-3.csv","legacy","9 3 1 2 5","Lentiform Loewenfeld","3.3.12","4","y","0","left","right","left","left","NA","1203","6175","15623","1203","NA","2","legacy","5","1024","2","48000","-16","experiment","3","odd","2","304081","300814","301868","3910","99214","301870","76392","3918","83590","306087","307290","302874","10114","306086","NA","Sternberg task","45","39795","46","yes","1024"
"97.87234042553192","97.87234042553192","869.7872340425532","869.7872340425532","black","experiment","legacy","legacy","legacy","0","uniform","1","undefined","1","right","46","46","46","0","0","46","46","0","0","46","46","46","0","46","0","Sun Oct 23 14:43:21 2022","The main experiment item","yes","Sternbergtask.osexp","/Users/andrea/Desktop/Adv. Quant Methods/Lab 3.1","no","mono","no","18","no","white","no","yes","768","legacy","34","11","/Users/andrea/Desktop/Adv. Quant Methods/Lab 3.1/AS-subject-3.csv","legacy","5 9 2 3","Lentiform Loewenfeld","3.3.12","0","n","0","right","right","left","right","NA","1085","6175","15623","1085","NA","2","legacy","4","1024","2","48000","-16","experiment","3","odd","8","310561","307293","308347","3910","99214","308349","76392","3918","83590","312570","313655","309355","10114","312570","NA","Sternberg task","46","40880","47","yes","1024"
"97.91666666666667","97.91666666666667","870.0625","870.0625","black","experiment","legacy","legacy","legacy","0","uniform","1","undefined","1","right","47","47","47","0","0","47","47","0","0","47","47","47","0","47","0","Sun Oct 23 14:43:21 2022","The main experiment item","yes","Sternbergtask.osexp","/Users/andrea/Desktop/Adv. Quant Methods/Lab 3.1","no","mono","no","18","no","white","no","yes","768","legacy","35","11","/Users/andrea/Desktop/Adv. Quant Methods/Lab 3.1/AS-subject-3.csv","legacy","7 3 2 8","Lentiform Loewenfeld","3.3.12","0","n","0","right","right","left","right","NA","883","6175","15623","883","NA","2","legacy","4","1024","2","48000","-16","experiment","3","odd","4","316926","313659","314712","3910","99214","314715","76392","3918","83590","318931","319815","315720","10114","318931","NA","Sternberg task","47","41763","48","yes","1024"
"97.95918367346938","97.95918367346938","860.7142857142857","860.7142857142857","black","experiment","legacy","legacy","legacy","0","uniform","1","undefined","1","left","48","48","48","0","0","48","48","0","0","48","48","48","0","48","0","Sun Oct 23 14:43:21 2022","The main experiment item","yes","Sternbergtask.osexp","/Users/andrea/Desktop/Adv. Quant Methods/Lab 3.1","no","mono","no","18","no","white","no","yes","768","legacy","36","11","/Users/andrea/Desktop/Adv. Quant Methods/Lab 3.1/AS-subject-3.csv","legacy","7 1 3","Lentiform Loewenfeld","3.3.12","2","y","0","left","right","left","left","NA","412","6175","15623","412","NA","2","legacy","3","1024","2","48000","-16","experiment","3","odd","1","323087","319818","320875","3910","99214","320877","76392","3918","83590","325093","325506","321881","10114","325093","NA","Sternberg task","48","42175","49","yes","1024"
"98","98","852.56","852.56","black","experiment","legacy","legacy","legacy","0","uniform","1","undefined","1","left","49","49","49","0","0","49","49","0","0","49","49","49","0","49","0","Sun Oct 23 14:43:21 2022","The main experiment item","yes","Sternbergtask.osexp","/Users/andrea/Desktop/Adv. Quant Methods/Lab 3.1","no","mono","no","18","no","white","no","yes","768","legacy","37","11","/Users/andrea/Desktop/Adv. Quant Methods/Lab 3.1/AS-subject-3.csv","legacy","8 9 5 6 7","Lentiform Loewenfeld","3.3.12","1","y","0","left","right","left","left","NA","453","6175","15623","453","NA","2","legacy","5","1024","2","48000","-16","experiment","3","odd","8","328775","325509","326563","3910","99214","326565","76392","3918","83590","330783","331237","327570","10114","330782","NA","Sternberg task","49","42628","50","yes","1024"
"98.03921568627452","98.03921568627452","845.5098039215686","845.5098039215686","black","experiment","legacy","legacy","legacy","0","uniform","1","undefined","1","left","50","50","50","0","0","50","50","0","0","50","50","50","0","50","0","Sun Oct 23 14:43:21 2022","The main experiment item","yes","Sternbergtask.osexp","/Users/andrea/Desktop/Adv. Quant Methods/Lab 3.1","no","mono","no","18","no","white","no","yes","768","legacy","38","11","/Users/andrea/Desktop/Adv. Quant Methods/Lab 3.1/AS-subject-3.csv","legacy","9 5 8 1","Lentiform Loewenfeld","3.3.12","2","y","0","left","right","left","left","NA","493","6175","15623","493","NA","2","legacy","4","1024","2","48000","-16","experiment","3","odd","5","334504","331240","332293","3910","99214","332295","76392","3918","83590","336510","337003","333299","10114","336510","NA","Sternberg task","50","43121","51","yes","1024"
"98.07692307692308","98.07692307692308","845.2884615384615","845.2884615384615","black","experiment","legacy","legacy","legacy","0","uniform","1","undefined","1","right","51","51","51","0","0","51","51","0","0","51","51","51","0","51","0","Sun Oct 23 14:43:21 2022","The main experiment item","yes","Sternbergtask.osexp","/Users/andrea/Desktop/Adv. Quant Methods/Lab 3.1","no","mono","no","18","no","white","no","yes","768","legacy","39","11","/Users/andrea/Desktop/Adv. Quant Methods/Lab 3.1/AS-subject-3.csv","legacy","1 7 8 3 9","Lentiform Loewenfeld","3.3.12","0","n","0","right","right","left","right","NA","834","6175","15623","834","NA","2","legacy","5","1024","2","48000","-16","experiment","3","odd","2","340272","337007","338061","3910","99214","338063","76392","3918","83590","342276","343111","339067","10114","342276","NA","Sternberg task","51","43955","52","yes","1024"
"98.11320754716981","98.11320754716981","849.7358490566038","849.7358490566038","black","experiment","legacy","legacy","legacy","0","uniform","1","undefined","1","right","52","52","52","0","0","52","52","0","0","52","52","52","0","52","0","Sun Oct 23 14:43:21 2022","The main experiment item","yes","Sternbergtask.osexp","/Users/andrea/Desktop/Adv. Quant Methods/Lab 3.1","no","mono","no","18","no","white","no","yes","768","legacy","40","11","/Users/andrea/Desktop/Adv. Quant Methods/Lab 3.1/AS-subject-3.csv","legacy","2 3 8 5 6 7","Lentiform Loewenfeld","3.3.12","0","n","0","right","right","left","right","NA","1081","6175","15623","1081","NA","2","legacy","6","1024","2","48000","-16","experiment","3","odd","1","346381","343114","344168","3910","99214","344171","76392","3918","83590","348385","349466","345175","10114","348384","NA","Sternberg task","52","45036","53","yes","1024"
"98.14814814814815","98.14814814814815","856.3518518518518","856.3518518518518","black","experiment","legacy","legacy","legacy","0","uniform","1","undefined","1","right","53","53","53","0","0","53","53","0","0","53","53","53","0","53","0","Sun Oct 23 14:43:21 2022","The main experiment item","yes","Sternbergtask.osexp","/Users/andrea/Desktop/Adv. Quant Methods/Lab 3.1","no","mono","no","18","no","white","no","yes","768","legacy","41","11","/Users/andrea/Desktop/Adv. Quant Methods/Lab 3.1/AS-subject-3.csv","legacy","8 5 7 3 6","Lentiform Loewenfeld","3.3.12","0","n","0","right","right","left","right","NA","1207","6175","15623","1207","NA","2","legacy","5","1024","2","48000","-16","experiment","3","odd","9","352737","349470","350525","3910","99214","350527","76392","3918","83590","354741","355949","351531","10114","354741","NA","Sternberg task","53","46243","54","yes","1024"
"98.18181818181819","98.18181818181819","853.0727272727273","853.0727272727273","black","experiment","legacy","legacy","legacy","0","uniform","1","undefined","1","left","54","54","54","0","0","54","54","0","0","54","54","54","0","54","0","Sun Oct 23 14:43:21 2022","The main experiment item","yes","Sternbergtask.osexp","/Users/andrea/Desktop/Adv. Quant Methods/Lab 3.1","no","mono","no","18","no","white","no","yes","768","legacy","42","11","/Users/andrea/Desktop/Adv. Quant Methods/Lab 3.1/AS-subject-3.csv","legacy","2 3","Lentiform Loewenfeld","3.3.12","1","y","0","left","right","left","left","NA","676","6175","15623","676","NA","2","legacy","2","1024","2","48000","-16","experiment","3","odd","2","359218","355951","357005","3910","99214","357007","76392","3918","83590","361222","361899","358012","10114","361222","NA","Sternberg task","54","46919","55","yes","1024"
"98.21428571428571","98.21428571428571","857.2142857142857","857.2142857142857","black","experiment","legacy","legacy","legacy","0","uniform","1","undefined","1","left","55","55","55","0","0","55","55","0","0","55","55","55","0","55","0","Sun Oct 23 14:43:21 2022","The main experiment item","yes","Sternbergtask.osexp","/Users/andrea/Desktop/Adv. Quant Methods/Lab 3.1","no","mono","no","18","no","white","no","yes","768","legacy","43","11","/Users/andrea/Desktop/Adv. Quant Methods/Lab 3.1/AS-subject-3.csv","legacy","7 6","Lentiform Loewenfeld","3.3.12","2","y","0","left","right","left","left","NA","1085","6175","15623","1085","NA","2","legacy","2","1024","2","48000","-16","experiment","3","odd","6","365166","361902","362955","3910","99214","362957","76392","3918","83590","367170","368255","363961","10114","367170","NA","Sternberg task","55","48004","56","yes","1024"
"98.24561403508773","98.24561403508773","858.6140350877193","858.6140350877193","black","experiment","legacy","legacy","legacy","0","uniform","1","undefined","1","left","56","56","56","0","0","56","56","0","0","56","56","56","0","56","0","Sun Oct 23 14:43:21 2022","The main experiment item","yes","Sternbergtask.osexp","/Users/andrea/Desktop/Adv. Quant Methods/Lab 3.1","no","mono","no","18","no","white","no","yes","768","legacy","44","11","/Users/andrea/Desktop/Adv. Quant Methods/Lab 3.1/AS-subject-3.csv","legacy","4 6 5 8","Lentiform Loewenfeld","3.3.12","1","y","0","left","right","left","left","NA","937","6175","15623","937","NA","2","legacy","4","1024","2","48000","-16","experiment","3","odd","4","371525","368258","369313","3910","99214","369315","76392","3918","83590","373529","374467","370318","10114","373528","NA","Sternberg task","56","48941","57","yes","1024"
"98.27586206896552","98.27586206896552","853.3275862068965","853.3275862068965","black","experiment","legacy","legacy","legacy","0","uniform","1","undefined","1","left","57","57","57","0","0","57","57","0","0","57","57","57","0","57","0","Sun Oct 23 14:43:21 2022","The main experiment item","yes","Sternbergtask.osexp","/Users/andrea/Desktop/Adv. Quant Methods/Lab 3.1","no","mono","no","18","no","white","no","yes","768","legacy","45","11","/Users/andrea/Desktop/Adv. Quant Methods/Lab 3.1/AS-subject-3.csv","legacy","1 4 9 3 2 5","Lentiform Loewenfeld","3.3.12","3","y","0","left","right","left","left","NA","552","6175","15623","552","NA","2","legacy","6","1024","2","48000","-16","experiment","3","odd","9","377736","374470","375525","3910","99214","375527","76392","3918","83590","379741","380294","376531","10114","379741","NA","Sternberg task","57","49493","58","yes","1024"
"98.30508474576271","98.30508474576271","861.2372881355932","861.2372881355932","black","experiment","legacy","legacy","legacy","0","uniform","1","undefined","1","right","58","58","58","0","0","58","58","0","0","58","58","58","0","58","0","Sun Oct 23 14:43:21 2022","The main experiment item","yes","Sternbergtask.osexp","/Users/andrea/Desktop/Adv. Quant Methods/Lab 3.1","no","mono","no","18","no","white","no","yes","768","legacy","46","11","/Users/andrea/Desktop/Adv. Quant Methods/Lab 3.1/AS-subject-3.csv","legacy","9 5 3 2 8 6","Lentiform Loewenfeld","3.3.12","0","n","0","right","right","left","right","NA","1320","6175","15623","1320","NA","2","legacy","6","1024","2","48000","-16","experiment","3","odd","7","383563","380297","381351","3910","99214","381353","76392","3918","83590","385567","386887","382357","10114","385567","NA","Sternberg task","58","50813","59","yes","1024"
"98.33333333333333","98.33333333333333","859.65","859.65","black","experiment","legacy","legacy","legacy","0","uniform","1","undefined","1","right","59","59","59","0","0","59","59","0","0","59","59","59","0","59","0","Sun Oct 23 14:43:21 2022","The main experiment item","yes","Sternbergtask.osexp","/Users/andrea/Desktop/Adv. Quant Methods/Lab 3.1","no","mono","no","18","no","white","no","yes","768","legacy","47","11","/Users/andrea/Desktop/Adv. Quant Methods/Lab 3.1/AS-subject-3.csv","legacy","6 3 1 7 9 8","Lentiform Loewenfeld","3.3.12","0","n","0","right","right","left","right","NA","766","6175","15623","766","NA","2","legacy","6","1024","2","48000","-16","experiment","3","odd","4","390156","386891","387945","3910","99214","387947","76392","3918","83590","392160","392927","388951","10114","392160","NA","Sternberg task","59","51579","60","yes","1024"
"98.36065573770492","98.36065573770492","864.8032786885246","864.8032786885246","black","experiment","legacy","legacy","legacy","0","uniform","1","undefined","1","left","60","60","60","0","0","60","60","0","0","60","60","60","0","60","0","Sun Oct 23 14:43:21 2022","The main experiment item","yes","Sternbergtask.osexp","/Users/andrea/Desktop/Adv. Quant Methods/Lab 3.1","no","mono","no","18","no","white","no","yes","768","legacy","48","11","/Users/andrea/Desktop/Adv. Quant Methods/Lab 3.1/AS-subject-3.csv","legacy","3 5 4 7","Lentiform Loewenfeld","3.3.12","1","y","0","left","right","left","left","NA","1174","6175","15623","1174","NA","2","legacy","4","1024","2","48000","-16","experiment","3","odd","3","396197","392930","393985","3910","99214","393986","76392","3918","83590","398201","399375","394991","10114","398201","NA","Sternberg task","60","52753","61","yes","1024"
"98.38709677419355","98.38709677419355","859.758064516129","859.758064516129","black","experiment","legacy","legacy","legacy","0","uniform","1","undefined","1","left","61","61","61","0","0","61","61","0","0","61","61","61","0","61","0","Sun Oct 23 14:43:21 2022","The main experiment item","yes","Sternbergtask.osexp","/Users/andrea/Desktop/Adv. Quant Methods/Lab 3.1","no","mono","no","18","no","white","no","yes","768","legacy","49","11","/Users/andrea/Desktop/Adv. Quant Methods/Lab 3.1/AS-subject-3.csv","legacy","3 5 9 6 2 4","Lentiform Loewenfeld","3.3.12","1","y","0","left","right","left","left","NA","552","6175","15623","552","NA","2","legacy","6","1024","2","48000","-16","experiment","3","odd","3","402644","399379","400432","3910","99214","400435","76392","3918","83590","404648","405201","401439","10114","404648","NA","Sternberg task","61","53305","62","yes","1024"
"98.41269841269842","98.41269841269842","855","855","black","experiment","legacy","legacy","legacy","0","uniform","1","undefined","1","left","62","62","62","0","0","62","62","0","0","62","62","62","0","62","0","Sun Oct 23 14:43:21 2022","The main experiment item","yes","Sternbergtask.osexp","/Users/andrea/Desktop/Adv. Quant Methods/Lab 3.1","no","mono","no","18","no","white","no","yes","768","legacy","50","11","/Users/andrea/Desktop/Adv. Quant Methods/Lab 3.1/AS-subject-3.csv","legacy","8 7 3","Lentiform Loewenfeld","3.3.12","1","y","0","left","right","left","left","NA","560","6175","15623","560","NA","2","legacy","3","1024","2","48000","-16","experiment","3","odd","8","408470","405204","406258","3910","99214","406260","76392","3918","83590","410474","411035","407264","10114","410474","NA","Sternberg task","62","53865","63","yes","1024"
"98.4375","98.4375","859.59375","859.59375","black","experiment","legacy","legacy","legacy","0","uniform","1","undefined","1","right","63","63","63","0","0","63","63","0","0","63","63","63","0","63","0","Sun Oct 23 14:43:21 2022","The main experiment item","yes","Sternbergtask.osexp","/Users/andrea/Desktop/Adv. Quant Methods/Lab 3.1","no","mono","no","18","no","white","no","yes","768","legacy","51","11","/Users/andrea/Desktop/Adv. Quant Methods/Lab 3.1/AS-subject-3.csv","legacy","8 9","Lentiform Loewenfeld","3.3.12","0","n","0","right","right","left","right","NA","1149","6175","15623","1149","NA","2","legacy","2","1024","2","48000","-16","experiment","3","odd","5","414303","411038","412092","3910","99214","412094","76392","3918","83590","416307","417457","413098","10114","416307","NA","Sternberg task","63","55014","64","yes","1024"
"98.46153846153847","98.46153846153847","859.276923076923","859.276923076923","black","experiment","legacy","legacy","legacy","0","uniform","1","undefined","1","left","64","64","64","0","0","64","64","0","0","64","64","64","0","64","0","Sun Oct 23 14:43:21 2022","The main experiment item","yes","Sternbergtask.osexp","/Users/andrea/Desktop/Adv. Quant Methods/Lab 3.1","no","mono","no","18","no","white","no","yes","768","legacy","52","11","/Users/andrea/Desktop/Adv. Quant Methods/Lab 3.1/AS-subject-3.csv","legacy","9 5 3 8 4","Lentiform Loewenfeld","3.3.12","1","y","0","left","right","left","left","NA","839","6175","15623","839","NA","2","legacy","5","1024","2","48000","-16","experiment","3","odd","9","420727","417460","418514","3910","99214","418516","76392","3918","83590","422731","423571","419521","10114","422731","NA","Sternberg task","64","55853","65","yes","1024"
"98.48484848484848","98.48484848484848","862.1666666666666","862.1666666666666","black","experiment","legacy","legacy","legacy","0","uniform","1","undefined","1","right","65","65","65","0","0","65","65","0","0","65","65","65","0","65","0","Sun Oct 23 14:43:21 2022","The main experiment item","yes","Sternbergtask.osexp","/Users/andrea/Desktop/Adv. Quant Methods/Lab 3.1","no","mono","no","18","no","white","no","yes","768","legacy","53","11","/Users/andrea/Desktop/Adv. Quant Methods/Lab 3.1/AS-subject-3.csv","legacy","1 4 9 3","Lentiform Loewenfeld","3.3.12","0","n","0","right","right","left","right","NA","1050","6175","15623","1050","NA","2","legacy","4","1024","2","48000","-16","experiment","3","odd","5","426838","423573","424627","3910","99214","424629","76392","3918","83590","428843","429894","425633","10114","428843","NA","Sternberg task","65","56903","66","yes","1024"
"98.50746268656717","98.50746268656717","870.6119402985074","870.6119402985074","black","experiment","legacy","legacy","legacy","0","uniform","1","undefined","1","left","66","66","66","0","0","66","66","0","0","66","66","66","0","66","0","Sun Oct 23 14:43:21 2022","The main experiment item","yes","Sternbergtask.osexp","/Users/andrea/Desktop/Adv. Quant Methods/Lab 3.1","no","mono","no","18","no","white","no","yes","768","legacy","54","11","/Users/andrea/Desktop/Adv. Quant Methods/Lab 3.1/AS-subject-3.csv","legacy","6 7 8 5","Lentiform Loewenfeld","3.3.12","3","y","0","left","right","left","left","NA","1428","6175","15623","1428","NA","2","legacy","4","1024","2","48000","-16","experiment","3","odd","8","433163","429897","430951","3910","99214","430953","76392","3918","83590","435168","436597","431958","10114","435167","NA","Sternberg task","66","58331","67","yes","1024"
"97.05882352941177","97.05882352941177","887.2205882352941","887.2205882352941","black","experiment","legacy","legacy","legacy","0","uniform","0","undefined","0","right","67","67","67","0","0","67","67","0","0","67","67","67","0","67","0","Sun Oct 23 14:43:21 2022","The main experiment item","yes","Sternbergtask.osexp","/Users/andrea/Desktop/Adv. Quant Methods/Lab 3.1","no","mono","no","18","no","white","no","yes","768","legacy","55","11","/Users/andrea/Desktop/Adv. Quant Methods/Lab 3.1/AS-subject-3.csv","legacy","9 8 2 7 4","Lentiform Loewenfeld","3.3.12","0","n","0","None","right","left","None","NA","2000","6175","15623","2000","NA","2","legacy","5","1024","2","48000","-16","experiment","3","odd","5","439866","436600","437655","3910","99214","437657","76392","3918","83590","441870","443870","438661","10114","441870","NA","Sternberg task","66","60331","68","yes","1024"
"97.10144927536231","97.10144927536231","889.3768115942029","889.3768115942029","black","experiment","legacy","legacy","legacy","0","uniform","1","undefined","1","right","68","68","68","0","0","68","68","0","0","68","68","68","0","68","0","Sun Oct 23 14:43:21 2022","The main experiment item","yes","Sternbergtask.osexp","/Users/andrea/Desktop/Adv. Quant Methods/Lab 3.1","no","mono","no","18","no","white","no","yes","768","legacy","56","11","/Users/andrea/Desktop/Adv. Quant Methods/Lab 3.1/AS-subject-3.csv","legacy","3 4 9 6 7 8","Lentiform Loewenfeld","3.3.12","0","n","0","right","right","left","right","NA","1036","6175","15623","1036","NA","2","legacy","6","1024","2","48000","-16","experiment","3","odd","2","447139","436600","444926","3910","99214","444929","443873","3918","83590","449143","450180","445933","10114","449143","NA","Sternberg task","67","61367","69","yes","1024"
"97.14285714285714","97.14285714285714","889.2","889.2","black","experiment","legacy","legacy","legacy","0","uniform","1","undefined","1","right","69","69","69","0","0","69","69","0","0","69","69","69","0","69","0","Sun Oct 23 14:43:21 2022","The main experiment item","yes","Sternbergtask.osexp","/Users/andrea/Desktop/Adv. Quant Methods/Lab 3.1","no","mono","no","18","no","white","no","yes","768","legacy","57","11","/Users/andrea/Desktop/Adv. Quant Methods/Lab 3.1/AS-subject-3.csv","legacy","2 6 4 3 9","Lentiform Loewenfeld","3.3.12","0","n","0","right","right","left","right","NA","877","6175","15623","877","NA","2","legacy","5","1024","2","48000","-16","experiment","3","odd","1","453448","450183","451237","3910","99214","451239","443873","3918","83590","455453","456330","452243","10114","455453","NA","Sternberg task","68","62244","70","yes","1024"
"97.1830985915493","97.1830985915493","893.943661971831","893.943661971831","black","experiment","legacy","legacy","legacy","0","uniform","1","undefined","1","right","70","70","70","0","0","70","70","0","0","70","70","70","0","70","0","Sun Oct 23 14:43:21 2022","The main experiment item","yes","Sternbergtask.osexp","/Users/andrea/Desktop/Adv. Quant Methods/Lab 3.1","no","mono","no","18","no","white","no","yes","768","legacy","58","11","/Users/andrea/Desktop/Adv. Quant Methods/Lab 3.1/AS-subject-3.csv","legacy","1 6 4","Lentiform Loewenfeld","3.3.12","0","n","0","right","right","left","right","NA","1226","6175","15623","1226","NA","2","legacy","3","1024","2","48000","-16","experiment","3","odd","7","459600","456333","457387","3910","99214","457390","443873","3918","83590","461604","462831","458394","10114","461603","NA","Sternberg task","69","63470","71","yes","1024"
"97.22222222222223","97.22222222222223","898.8888888888889","898.8888888888889","black","experiment","legacy","legacy","legacy","0","uniform","1","undefined","1","right","71","71","71","0","0","71","71","0","0","71","71","71","0","71","0","Sun Oct 23 14:43:21 2022","The main experiment item","yes","Sternbergtask.osexp","/Users/andrea/Desktop/Adv. Quant Methods/Lab 3.1","no","mono","no","18","no","white","no","yes","768","legacy","59","11","/Users/andrea/Desktop/Adv. Quant Methods/Lab 3.1/AS-subject-3.csv","legacy","7 9","Lentiform Loewenfeld","3.3.12","0","n","0","right","right","left","right","NA","1250","6175","15623","1250","NA","2","legacy","2","1024","2","48000","-16","experiment","3","odd","1","466100","462834","463888","3910","99214","463890","443873","3918","83590","468105","469356","464895","10114","468105","NA","Sternberg task","70","64720","72","yes","1024"
"97.26027397260275","97.26027397260275","896.4109589041096","896.4109589041096","black","experiment","legacy","legacy","legacy","0","uniform","1","undefined","1","left","72","72","72","0","0","72","72","0","0","72","72","72","0","72","0","Sun Oct 23 14:43:21 2022","The main experiment item","yes","Sternbergtask.osexp","/Users/andrea/Desktop/Adv. Quant Methods/Lab 3.1","no","mono","no","18","no","white","no","yes","768","legacy","60","11","/Users/andrea/Desktop/Adv. Quant Methods/Lab 3.1/AS-subject-3.csv","legacy","3 4 9 6 2 9","Lentiform Loewenfeld","3.3.12","5","y","0","left","right","left","left","NA","718","6175","15623","718","NA","2","legacy","6","1024","2","48000","-16","experiment","3","odd","2","472626","469359","470413","3910","99214","470415","443873","3918","83590","474630","475349","471420","10114","474629","NA","Sternberg task","71","65438","73","yes","1024"
"97.29729729729729","97.29729729729729","893.418918918919","893.418918918919","black","experiment","legacy","legacy","legacy","0","uniform","1","undefined","1","right","73","73","73","0","0","73","73","0","0","73","73","73","0","73","0","Sun Oct 23 14:43:21 2022","The main experiment item","yes","Sternbergtask.osexp","/Users/andrea/Desktop/Adv. Quant Methods/Lab 3.1","no","mono","no","18","no","white","no","yes","768","legacy","61","11","/Users/andrea/Desktop/Adv. Quant Methods/Lab 3.1/AS-subject-3.csv","legacy","4 1","Lentiform Loewenfeld","3.3.12","0","n","0","right","right","left","right","NA","675","6175","15623","675","NA","2","legacy","2","1024","2","48000","-16","experiment","3","odd","6","478618","475352","476406","3910","99214","476408","443873","3918","83590","480623","481299","477413","10114","480623","NA","Sternberg task","72","66113","74","yes","1024"
"97.33333333333333","97.33333333333333","895.7733333333333","895.7733333333333","black","experiment","legacy","legacy","legacy","0","uniform","1","undefined","1","left","74","74","74","0","0","74","74","0","0","74","74","74","0","74","0","Sun Oct 23 14:43:21 2022","The main experiment item","yes","Sternbergtask.osexp","/Users/andrea/Desktop/Adv. Quant Methods/Lab 3.1","no","mono","no","18","no","white","no","yes","768","legacy","62","11","/Users/andrea/Desktop/Adv. Quant Methods/Lab 3.1/AS-subject-3.csv","legacy","7 8 4 6 9 5","Lentiform Loewenfeld","3.3.12","4","y","0","left","right","left","left","NA","1070","6175","15623","1070","NA","2","legacy","6","1024","2","48000","-16","experiment","3","odd","6","484568","481302","482357","3910","99214","482358","443873","3918","83590","486574","487644","483362","10114","486574","NA","Sternberg task","73","67183","75","yes","1024"
"97.36842105263158","97.36842105263158","893.5921052631579","893.5921052631579","black","experiment","legacy","legacy","legacy","0","uniform","1","undefined","1","right","75","75","75","0","0","75","75","0","0","75","75","75","0","75","0","Sun Oct 23 14:43:21 2022","The main experiment item","yes","Sternbergtask.osexp","/Users/andrea/Desktop/Adv. Quant Methods/Lab 3.1","no","mono","no","18","no","white","no","yes","768","legacy","63","11","/Users/andrea/Desktop/Adv. Quant Methods/Lab 3.1/AS-subject-3.csv","legacy","7 8 6 1","Lentiform Loewenfeld","3.3.12","0","n","0","right","right","left","right","NA","730","6175","15623","730","NA","2","legacy","4","1024","2","48000","-16","experiment","3","odd","3","490928","487648","488717","3910","99214","488719","443873","3918","83590","492933","493664","489723","10114","492933","NA","Sternberg task","74","67913","76","yes","1024"
"97.40259740259741","97.40259740259741","889.3766233766233","889.3766233766233","black","experiment","legacy","legacy","legacy","0","uniform","1","undefined","1","right","76","76","76","0","0","76","76","0","0","76","76","76","0","76","0","Sun Oct 23 14:43:21 2022","The main experiment item","yes","Sternbergtask.osexp","/Users/andrea/Desktop/Adv. Quant Methods/Lab 3.1","no","mono","no","18","no","white","no","yes","768","legacy","64","11","/Users/andrea/Desktop/Adv. Quant Methods/Lab 3.1/AS-subject-3.csv","legacy","9","Lentiform Loewenfeld","3.3.12","0","n","0","right","right","left","right","NA","569","6175","15623","569","NA","2","legacy","1","1024","2","48000","-16","experiment","3","odd","6","496930","493666","494719","3910","99214","494721","443873","3918","83590","498934","499504","495725","10114","498934","NA","Sternberg task","75","68482","77","yes","1024"
"97.43589743589743","97.43589743589743","886.9487179487179","886.9487179487179","black","experiment","legacy","legacy","legacy","0","uniform","1","undefined","1","right","77","77","77","0","0","77","77","0","0","77","77","77","0","77","0","Sun Oct 23 14:43:21 2022","The main experiment item","yes","Sternbergtask.osexp","/Users/andrea/Desktop/Adv. Quant Methods/Lab 3.1","no","mono","no","18","no","white","no","yes","768","legacy","65","11","/Users/andrea/Desktop/Adv. Quant Methods/Lab 3.1/AS-subject-3.csv","legacy","2 8 9 4 1","Lentiform Loewenfeld","3.3.12","0","n","0","right","right","left","right","NA","700","6175","15623","700","NA","2","legacy","5","1024","2","48000","-16","experiment","3","odd","5","502771","499507","500560","3910","99214","500562","443873","3918","83590","504775","505476","501566","10114","504775","NA","Sternberg task","76","69182","78","yes","1024"
"97.46835443037975","97.46835443037975","884.6962025316456","884.6962025316456","black","experiment","legacy","legacy","legacy","0","uniform","1","undefined","1","right","78","78","78","0","0","78","78","0","0","78","78","78","0","78","0","Sun Oct 23 14:43:21 2022","The main experiment item","yes","Sternbergtask.osexp","/Users/andrea/Desktop/Adv. Quant Methods/Lab 3.1","no","mono","no","18","no","white","no","yes","768","legacy","66","11","/Users/andrea/Desktop/Adv. Quant Methods/Lab 3.1/AS-subject-3.csv","legacy","7 1 8 4 9 3","Lentiform Loewenfeld","3.3.12","0","n","0","right","right","left","right","NA","709","6175","15623","709","NA","2","legacy","6","1024","2","48000","-16","experiment","3","odd","6","508745","505479","506533","3910","99214","506535","443873","3918","83590","510749","511459","507539","10114","510749","NA","Sternberg task","77","69891","79","yes","1024"
"97.5","97.5","894.6875","894.6875","black","experiment","legacy","legacy","legacy","0","uniform","1","undefined","1","left","79","79","79","0","0","79","79","0","0","79","79","79","0","79","0","Sun Oct 23 14:43:21 2022","The main experiment item","yes","Sternbergtask.osexp","/Users/andrea/Desktop/Adv. Quant Methods/Lab 3.1","no","mono","no","18","no","white","no","yes","768","legacy","67","11","/Users/andrea/Desktop/Adv. Quant Methods/Lab 3.1/AS-subject-3.csv","legacy","3 2 1 4 7","Lentiform Loewenfeld","3.3.12","2","y","0","left","right","left","left","NA","1684","6175","15623","1684","NA","2","legacy","5","1024","2","48000","-16","experiment","3","odd","2","514727","511462","512516","3910","99214","512518","443873","3918","83590","516732","518416","513522","10114","516732","NA","Sternberg task","78","71575","80","yes","1024"
"97.53086419753086","97.53086419753086","890.8641975308642","890.8641975308642","black","experiment","legacy","legacy","legacy","0","uniform","1","undefined","1","left","80","80","80","0","0","80","80","0","0","80","80","80","0","80","0","Sun Oct 23 14:43:21 2022","The main experiment item","yes","Sternbergtask.osexp","/Users/andrea/Desktop/Adv. Quant Methods/Lab 3.1","no","mono","no","18","no","white","no","yes","768","legacy","68","11","/Users/andrea/Desktop/Adv. Quant Methods/Lab 3.1/AS-subject-3.csv","legacy","6 2","Lentiform Loewenfeld","3.3.12","1","y","0","left","right","left","left","NA","585","6175","15623","585","NA","2","legacy","2","1024","2","48000","-16","experiment","3","odd","6","521686","518419","519473","3910","99214","519476","443873","3918","83590","523689","524275","520480","10114","523689","NA","Sternberg task","79","72160","81","yes","1024"
"97.5609756097561","97.5609756097561","894.4024390243902","894.4024390243902","black","experiment","legacy","legacy","legacy","0","uniform","1","undefined","1","left","81","81","81","0","0","81","81","0","0","81","81","81","0","81","0","Sun Oct 23 14:43:21 2022","The main experiment item","yes","Sternbergtask.osexp","/Users/andrea/Desktop/Adv. Quant Methods/Lab 3.1","no","mono","no","18","no","white","no","yes","768","legacy","69","11","/Users/andrea/Desktop/Adv. Quant Methods/Lab 3.1/AS-subject-3.csv","legacy","7 1 8 5 6 2","Lentiform Loewenfeld","3.3.12","2","y","0","left","right","left","left","NA","1181","6175","15623","1181","NA","2","legacy","6","1024","2","48000","-16","experiment","3","odd","1","527543","524278","525331","3910","99214","525333","443873","3918","83590","529547","530729","526338","10114","529547","NA","Sternberg task","80","73341","82","yes","1024"
"97.59036144578313","97.59036144578313","893.2650602409639","893.2650602409639","black","experiment","legacy","legacy","legacy","0","uniform","1","undefined","1","left","82","82","82","0","0","82","82","0","0","82","82","82","0","82","0","Sun Oct 23 14:43:21 2022","The main experiment item","yes","Sternbergtask.osexp","/Users/andrea/Desktop/Adv. Quant Methods/Lab 3.1","no","mono","no","18","no","white","no","yes","768","legacy","70","11","/Users/andrea/Desktop/Adv. Quant Methods/Lab 3.1/AS-subject-3.csv","legacy","9 8 4","Lentiform Loewenfeld","3.3.12","1","y","0","left","right","left","left","NA","800","6175","15623","800","NA","2","legacy","3","1024","2","48000","-16","experiment","3","odd","9","533997","530732","531785","3910","99214","531787","443873","3918","83590","536002","536803","532792","10114","536001","NA","Sternberg task","81","74141","83","yes","1024"
"97.61904761904762","97.61904761904762","892.297619047619","892.297619047619","black","experiment","legacy","legacy","legacy","0","uniform","1","undefined","1","left","83","83","83","0","0","83","83","0","0","83","83","83","0","83","0","Sun Oct 23 14:43:21 2022","The main experiment item","yes","Sternbergtask.osexp","/Users/andrea/Desktop/Adv. Quant Methods/Lab 3.1","no","mono","no","18","no","white","no","yes","768","legacy","71","11","/Users/andrea/Desktop/Adv. Quant Methods/Lab 3.1/AS-subject-3.csv","legacy","8 9 5 7 1 6","Lentiform Loewenfeld","3.3.12","4","y","0","left","right","left","left","NA","812","6175","15623","812","NA","2","legacy","6","1024","2","48000","-16","experiment","3","odd","7","540073","536806","537861","3910","99214","537863","443873","3918","83590","542078","542891","538867","10114","542077","NA","Sternberg task","82","74953","84","yes","1024"
"96.47058823529412","96.47058823529412","889.6235294117647","889.6235294117647","black","experiment","legacy","legacy","legacy","0","uniform","0","undefined","0","right","84","84","84","0","0","84","84","0","0","84","84","84","0","84","0","Sun Oct 23 14:43:21 2022","The main experiment item","yes","Sternbergtask.osexp","/Users/andrea/Desktop/Adv. Quant Methods/Lab 3.1","no","mono","no","18","no","white","no","yes","768","legacy","72","11","/Users/andrea/Desktop/Adv. Quant Methods/Lab 3.1/AS-subject-3.csv","legacy","6 2 9 3 8 4","Lentiform Loewenfeld","3.3.12","0","n","0","left","right","left","left","NA","665","6175","15623","665","NA","2","legacy","6","1024","2","48000","-16","experiment","3","odd","1","546159","542894","543947","3910","99214","543949","443873","3918","83590","548163","548829","544953","10114","548163","NA","Sternberg task","82","75618","85","yes","1024"
"96.51162790697674","96.51162790697674","891.8255813953489","891.8255813953489","black","experiment","legacy","legacy","legacy","0","uniform","1","undefined","1","left","85","85","85","0","0","85","85","0","0","85","85","85","0","85","0","Sun Oct 23 14:43:21 2022","The main experiment item","yes","Sternbergtask.osexp","/Users/andrea/Desktop/Adv. Quant Methods/Lab 3.1","no","mono","no","18","no","white","no","yes","768","legacy","73","11","/Users/andrea/Desktop/Adv. Quant Methods/Lab 3.1/AS-subject-3.csv","legacy","2 6 1 7 4","Lentiform Loewenfeld","3.3.12","2","y","0","left","right","left","left","NA","1079","6175","15623","1079","NA","2","legacy","5","1024","2","48000","-16","experiment","3","odd","6","552097","542894","549885","3910","99214","549887","548832","3918","83590","554101","555181","550892","10114","554101","NA","Sternberg task","83","76697","86","yes","1024"
"95.40229885057471","95.40229885057471","890.3563218390805","890.3563218390805","black","experiment","legacy","legacy","legacy","0","uniform","0","undefined","0","right","86","86","86","0","0","86","86","0","0","86","86","86","0","86","0","Sun Oct 23 14:43:21 2022","The main experiment item","yes","Sternbergtask.osexp","/Users/andrea/Desktop/Adv. Quant Methods/Lab 3.1","no","mono","no","18","no","white","no","yes","768","legacy","74","11","/Users/andrea/Desktop/Adv. Quant Methods/Lab 3.1/AS-subject-3.csv","legacy","1 4 9 2 5","Lentiform Loewenfeld","3.3.12","0","n","0","left","right","left","left","NA","764","6175","15623","764","NA","2","legacy","5","1024","2","48000","-16","experiment","3","odd","7","558450","555183","556238","3910","99214","556240","548832","3918","83590","560454","561219","557243","10114","560454","NA","Sternberg task","83","77461","87","yes","1024"
"95.45454545454545","95.45454545454545","898.5795454545455","898.5795454545455","black","experiment","legacy","legacy","legacy","0","uniform","1","undefined","1","right","87","87","87","0","0","87","87","0","0","87","87","87","0","87","0","Sun Oct 23 14:43:21 2022","The main experiment item","yes","Sternbergtask.osexp","/Users/andrea/Desktop/Adv. Quant Methods/Lab 3.1","no","mono","no","18","no","white","no","yes","768","legacy","75","11","/Users/andrea/Desktop/Adv. Quant Methods/Lab 3.1/AS-subject-3.csv","legacy","9 7 4 5 8","Lentiform Loewenfeld","3.3.12","0","n","0","right","right","left","right","NA","1614","6175","15623","1614","NA","2","legacy","5","1024","2","48000","-16","experiment","3","odd","6","564487","555183","562276","3910","99214","562277","561222","3918","83590","566492","568107","563282","10114","566492","NA","Sternberg task","84","79075","88","yes","1024"
"95.50561797752809","95.50561797752809","895.3483146067416","895.3483146067416","black","experiment","legacy","legacy","legacy","0","uniform","1","undefined","1","right","88","88","88","0","0","88","88","0","0","88","88","88","0","88","0","Sun Oct 23 14:43:21 2022","The main experiment item","yes","Sternbergtask.osexp","/Users/andrea/Desktop/Adv. Quant Methods/Lab 3.1","no","mono","no","18","no","white","no","yes","768","legacy","76","11","/Users/andrea/Desktop/Adv. Quant Methods/Lab 3.1/AS-subject-3.csv","legacy","7 1 5 6 3","Lentiform Loewenfeld","3.3.12","0","n","0","right","right","left","right","NA","611","6175","15623","611","NA","2","legacy","5","1024","2","48000","-16","experiment","3","odd","8","571377","568110","569165","3910","99214","569167","561222","3918","83590","573381","573993","570171","10114","573381","NA","Sternberg task","85","79686","89","yes","1024"
"95.55555555555556","95.55555555555556","906.4777777777778","906.4777777777778","black","experiment","legacy","legacy","legacy","0","uniform","1","undefined","1","left","89","89","89","0","0","89","89","0","0","89","89","89","0","89","0","Sun Oct 23 14:43:21 2022","The main experiment item","yes","Sternbergtask.osexp","/Users/andrea/Desktop/Adv. Quant Methods/Lab 3.1","no","mono","no","18","no","white","no","yes","768","legacy","77","11","/Users/andrea/Desktop/Adv. Quant Methods/Lab 3.1/AS-subject-3.csv","legacy","7 8 6 3 1","Lentiform Loewenfeld","3.3.12","5","y","0","left","right","left","left","NA","1897","6175","15623","1897","NA","2","legacy","5","1024","2","48000","-16","experiment","3","odd","1","577260","573996","575050","3910","99214","575052","561222","3918","83590","579264","581162","576056","10114","579264","NA","Sternberg task","86","81583","90","yes","1024"
"95.6043956043956","95.6043956043956","907.4615384615385","907.4615384615385","black","experiment","legacy","legacy","legacy","0","uniform","1","undefined","1","right","90","90","90","0","0","90","90","0","0","90","90","90","0","90","0","Sun Oct 23 14:43:21 2022","The main experiment item","yes","Sternbergtask.osexp","/Users/andrea/Desktop/Adv. Quant Methods/Lab 3.1","no","mono","no","18","no","white","no","yes","768","legacy","78","11","/Users/andrea/Desktop/Adv. Quant Methods/Lab 3.1/AS-subject-3.csv","legacy","8 2 1 4 5 9","Lentiform Loewenfeld","3.3.12","0","n","0","right","right","left","right","NA","996","6175","15623","996","NA","2","legacy","6","1024","2","48000","-16","experiment","3","odd","7","584431","581165","582219","3910","99214","582221","561222","3918","83590","586435","587432","583225","10114","586434","NA","Sternberg task","87","82579","91","yes","1024"
"95.65217391304348","95.65217391304348","908.9565217391304","908.9565217391304","black","experiment","legacy","legacy","legacy","0","uniform","1","undefined","1","left","91","91","91","0","0","91","91","0","0","91","91","91","0","91","0","Sun Oct 23 14:43:21 2022","The main experiment item","yes","Sternbergtask.osexp","/Users/andrea/Desktop/Adv. Quant Methods/Lab 3.1","no","mono","no","18","no","white","no","yes","768","legacy","79","11","/Users/andrea/Desktop/Adv. Quant Methods/Lab 3.1/AS-subject-3.csv","legacy","4 9 7 8 5 3","Lentiform Loewenfeld","3.3.12","4","y","0","left","right","left","left","NA","1045","6175","15623","1045","NA","2","legacy","6","1024","2","48000","-16","experiment","3","odd","8","590700","587435","588489","3910","99214","588490","561222","3918","83590","592705","593751","589495","10114","592705","NA","Sternberg task","88","83624","92","yes","1024"
"95.6989247311828","95.6989247311828","906.1720430107526","906.1720430107526","black","experiment","legacy","legacy","legacy","0","uniform","1","undefined","1","left","92","92","92","0","0","92","92","0","0","92","92","92","0","92","0","Sun Oct 23 14:43:21 2022","The main experiment item","yes","Sternbergtask.osexp","/Users/andrea/Desktop/Adv. Quant Methods/Lab 3.1","no","mono","no","18","no","white","no","yes","768","legacy","80","11","/Users/andrea/Desktop/Adv. Quant Methods/Lab 3.1/AS-subject-3.csv","legacy","5 7 3 6 2","Lentiform Loewenfeld","3.3.12","5","y","0","left","right","left","left","NA","650","6175","15623","650","NA","2","legacy","5","1024","2","48000","-16","experiment","3","odd","2","597022","593754","594809","3910","99214","594811","561222","3918","83590","599026","599677","595816","10114","599026","NA","Sternberg task","89","84274","93","yes","1024"
"95.74468085106383","95.74468085106383","907.8936170212766","907.8936170212766","black","experiment","legacy","legacy","legacy","0","uniform","1","undefined","1","right","93","93","93","0","0","93","93","0","0","93","93","93","0","93","0","Sun Oct 23 14:43:21 2022","The main experiment item","yes","Sternbergtask.osexp","/Users/andrea/Desktop/Adv. Quant Methods/Lab 3.1","no","mono","no","18","no","white","no","yes","768","legacy","81","11","/Users/andrea/Desktop/Adv. Quant Methods/Lab 3.1/AS-subject-3.csv","legacy","8 5 4 2 9 6","Lentiform Loewenfeld","3.3.12","0","n","0","right","right","left","right","NA","1068","6175","15623","1068","NA","2","legacy","6","1024","2","48000","-16","experiment","3","odd","3","602944","599679","600733","3910","99214","600735","561222","3918","83590","604950","606019","601739","10114","604950","NA","Sternberg task","90","85342","94","yes","1024"
"95.78947368421052","95.78947368421052","908.1263157894737","908.1263157894737","black","experiment","legacy","legacy","legacy","0","uniform","1","undefined","1","left","94","94","94","0","0","94","94","0","0","94","94","94","0","94","0","Sun Oct 23 14:43:21 2022","The main experiment item","yes","Sternbergtask.osexp","/Users/andrea/Desktop/Adv. Quant Methods/Lab 3.1","no","mono","no","18","no","white","no","yes","768","legacy","82","11","/Users/andrea/Desktop/Adv. Quant Methods/Lab 3.1/AS-subject-3.csv","legacy","6 9 7 4 5 1","Lentiform Loewenfeld","3.3.12","2","y","0","left","right","left","left","NA","930","6175","15623","930","NA","2","legacy","6","1024","2","48000","-16","experiment","3","odd","9","609288","606022","607076","3910","99214","607078","561222","3918","83590","611292","612223","608082","10114","611291","NA","Sternberg task","91","86272","95","yes","1024"
"95.83333333333333","95.83333333333333","904.90625","904.90625","black","experiment","legacy","legacy","legacy","0","uniform","1","undefined","1","right","95","95","95","0","0","95","95","0","0","95","95","95","0","95","0","Sun Oct 23 14:43:21 2022","The main experiment item","yes","Sternbergtask.osexp","/Users/andrea/Desktop/Adv. Quant Methods/Lab 3.1","no","mono","no","18","no","white","no","yes","768","legacy","83","11","/Users/andrea/Desktop/Adv. Quant Methods/Lab 3.1/AS-subject-3.csv","legacy","6 9 5","Lentiform Loewenfeld","3.3.12","0","n","0","right","right","left","right","NA","599","6175","15623","599","NA","2","legacy","3","1024","2","48000","-16","experiment","3","odd","8","615490","612226","613280","3910","99214","613281","561222","3918","83590","617495","618095","614285","10114","617494","NA","Sternberg task","92","86871","96","yes","1024"
"95.87628865979381","95.87628865979381","914.3505154639175","914.3505154639175","black","experiment","legacy","legacy","legacy","0","uniform","1","undefined","1","left","96","96","96","0","0","96","96","0","0","96","96","96","0","96","0","Sun Oct 23 14:43:21 2022","The main experiment item","yes","Sternbergtask.osexp","/Users/andrea/Desktop/Adv. Quant Methods/Lab 3.1","no","mono","no","18","no","white","no","yes","768","legacy","84","11","/Users/andrea/Desktop/Adv. Quant Methods/Lab 3.1/AS-subject-3.csv","legacy","8 5 1 3 9","Lentiform Loewenfeld","3.3.12","4","y","0","left","right","left","left","NA","1821","6175","15623","1821","NA","2","legacy","5","1024","2","48000","-16","experiment","3","odd","3","621365","618098","619152","3910","99214","619154","561222","3918","83590","623369","625191","620158","10114","623369","NA","Sternberg task","93","88692","97","yes","1024"
"94.89795918367346","94.89795918367346","913.1428571428571","913.1428571428571","black","experiment","legacy","legacy","legacy","0","uniform","0","undefined","0","right","97","97","97","0","0","97","97","0","0","97","97","97","0","97","0","Sun Oct 23 14:43:21 2022","The main experiment item","yes","Sternbergtask.osexp","/Users/andrea/Desktop/Adv. Quant Methods/Lab 3.1","no","mono","no","18","no","white","no","yes","768","legacy","85","11","/Users/andrea/Desktop/Adv. Quant Methods/Lab 3.1/AS-subject-3.csv","legacy","2 8 7 9 5 3","Lentiform Loewenfeld","3.3.12","0","n","0","left","right","left","left","NA","796","6175","15623","796","NA","2","legacy","6","1024","2","48000","-16","experiment","3","odd","6","628459","625194","626248","3910","99214","626250","561222","3918","83590","630463","631260","627254","10114","630463","NA","Sternberg task","93","89488","98","yes","1024"
"94.94949494949495","94.94949494949495","916.8686868686868","916.8686868686868","black","experiment","legacy","legacy","legacy","0","uniform","1","undefined","1","right","98","98","98","0","0","98","98","0","0","98","98","98","0","98","0","Sun Oct 23 14:43:21 2022","The main experiment item","yes","Sternbergtask.osexp","/Users/andrea/Desktop/Adv. Quant Methods/Lab 3.1","no","mono","no","18","no","white","no","yes","768","legacy","86","11","/Users/andrea/Desktop/Adv. Quant Methods/Lab 3.1/AS-subject-3.csv","legacy","8 4 3 5","Lentiform Loewenfeld","3.3.12","0","n","0","right","right","left","right","NA","1282","6175","15623","1282","NA","2","legacy","4","1024","2","48000","-16","experiment","3","odd","6","634530","625194","632317","3910","99214","632319","631263","3918","83590","636534","637817","633323","10114","636534","NA","Sternberg task","94","90770","99","yes","1024"
"95","95","927.34","927.34","black","experiment","legacy","legacy","legacy","0","uniform","1","undefined","1","left","99","99","99","0","0","99","99","0","0","99","99","99","0","99","0","Sun Oct 23 14:43:21 2022","The main experiment item","yes","Sternbergtask.osexp","/Users/andrea/Desktop/Adv. Quant Methods/Lab 3.1","no","mono","no","18","no","white","no","yes","768","legacy","87","11","/Users/andrea/Desktop/Adv. Quant Methods/Lab 3.1/AS-subject-3.csv","legacy","3 9 7 6 4","Lentiform Loewenfeld","3.3.12","3","y","0","left","right","left","left","NA","1964","6175","15623","1964","NA","2","legacy","5","1024","2","48000","-16","experiment","3","odd","7","641094","637820","638882","3910","99214","638884","631263","3918","83590","643098","645063","639888","10114","643098","NA","Sternberg task","95","92734","100","yes","1024"
"95.04950495049505","95.04950495049505","930.4752475247525","930.4752475247525","black","experiment","legacy","legacy","legacy","0","uniform","1","undefined","1","right","100","100","100","0","0","100","100","0","0","100","100","100","0","100","0","Sun Oct 23 14:43:21 2022","The main experiment item","yes","Sternbergtask.osexp","/Users/andrea/Desktop/Adv. Quant Methods/Lab 3.1","no","mono","no","18","no","white","no","yes","768","legacy","88","11","/Users/andrea/Desktop/Adv. Quant Methods/Lab 3.1/AS-subject-3.csv","legacy","4 2 7 6 1 3","Lentiform Loewenfeld","3.3.12","0","n","0","right","right","left","right","NA","1244","6175","15623","1244","NA","2","legacy","6","1024","2","48000","-16","experiment","3","odd","8","648333","645066","646121","3910","99214","646123","631263","3918","83590","650337","651582","647127","10114","650337","NA","Sternberg task","96","93978","101","yes","1024"
"95.09803921568627","95.09803921568627","931.8725490196078","931.8725490196078","black","experiment","legacy","legacy","legacy","0","uniform","1","undefined","1","left","101","101","101","0","0","101","101","0","0","101","101","101","0","101","0","Sun Oct 23 14:43:21 2022","The main experiment item","yes","Sternbergtask.osexp","/Users/andrea/Desktop/Adv. Quant Methods/Lab 3.1","no","mono","no","18","no","white","no","yes","768","legacy","89","11","/Users/andrea/Desktop/Adv. Quant Methods/Lab 3.1/AS-subject-3.csv","legacy","9 1 7 2","Lentiform Loewenfeld","3.3.12","2","y","0","left","right","left","left","NA","1073","6175","15623","1073","NA","2","legacy","4","1024","2","48000","-16","experiment","3","odd","1","654851","651585","652639","3910","99214","652641","631263","3918","83590","656855","657929","653645","10114","656855","NA","Sternberg task","97","95051","102","yes","1024"
"95.14563106796116","95.14563106796116","929.0679611650486","929.0679611650486","black","experiment","legacy","legacy","legacy","0","uniform","1","undefined","1","left","102","102","102","0","0","102","102","0","0","102","102","102","0","102","0","Sun Oct 23 14:43:21 2022","The main experiment item","yes","Sternbergtask.osexp","/Users/andrea/Desktop/Adv. Quant Methods/Lab 3.1","no","mono","no","18","no","white","no","yes","768","legacy","90","11","/Users/andrea/Desktop/Adv. Quant Methods/Lab 3.1/AS-subject-3.csv","legacy","8 5 4 7 3 1","Lentiform Loewenfeld","3.3.12","2","y","0","left","right","left","left","NA","643","6175","15623","643","NA","2","legacy","6","1024","2","48000","-16","experiment","3","odd","5","661199","657932","658986","3910","99214","658988","631263","3918","83590","663203","663847","659994","10114","663203","NA","Sternberg task","98","95694","103","yes","1024"
"95.1923076923077","95.1923076923077","929.0576923076923","929.0576923076923","black","experiment","legacy","legacy","legacy","0","uniform","1","undefined","1","left","103","103","103","0","0","103","103","0","0","103","103","103","0","103","0","Sun Oct 23 14:43:21 2022","The main experiment item","yes","Sternbergtask.osexp","/Users/andrea/Desktop/Adv. Quant Methods/Lab 3.1","no","mono","no","18","no","white","no","yes","768","legacy","91","11","/Users/andrea/Desktop/Adv. Quant Methods/Lab 3.1/AS-subject-3.csv","legacy","4 6 2 5 1","Lentiform Loewenfeld","3.3.12","5","y","0","left","right","left","left","NA","928","6175","15623","928","NA","2","legacy","5","1024","2","48000","-16","experiment","3","odd","1","667116","663850","664903","3910","99214","664905","631263","3918","83590","669120","670049","665910","10114","669120","NA","Sternberg task","99","96622","104","yes","1024"
"95.23809523809524","95.23809523809524","928.6857142857143","928.6857142857143","black","experiment","legacy","legacy","legacy","0","uniform","1","undefined","1","right","104","104","104","0","0","104","104","0","0","104","104","104","0","104","0","Sun Oct 23 14:43:21 2022","The main experiment item","yes","Sternbergtask.osexp","/Users/andrea/Desktop/Adv. Quant Methods/Lab 3.1","no","mono","no","18","no","white","no","yes","768","legacy","92","11","/Users/andrea/Desktop/Adv. Quant Methods/Lab 3.1/AS-subject-3.csv","legacy","5 3 2 6 9 8","Lentiform Loewenfeld","3.3.12","0","n","0","right","right","left","right","NA","890","6175","15623","890","NA","2","legacy","6","1024","2","48000","-16","experiment","3","odd","4","673320","670052","671108","3910","99214","671110","631263","3918","83590","675327","676218","672114","10114","675326","NA","Sternberg task","100","97512","105","yes","1024"
"95.28301886792453","95.28301886792453","925.8490566037735","925.8490566037735","black","experiment","legacy","legacy","legacy","0","uniform","1","undefined","1","right","105","105","105","0","0","105","105","0","0","105","105","105","0","105","0","Sun Oct 23 14:43:21 2022","The main experiment item","yes","Sternbergtask.osexp","/Users/andrea/Desktop/Adv. Quant Methods/Lab 3.1","no","mono","no","18","no","white","no","yes","768","legacy","93","11","/Users/andrea/Desktop/Adv. Quant Methods/Lab 3.1/AS-subject-3.csv","legacy","1 7 5 2","Lentiform Loewenfeld","3.3.12","0","n","0","right","right","left","right","NA","628","6175","15623","628","NA","2","legacy","4","1024","2","48000","-16","experiment","3","odd","3","679487","676221","677276","3910","99214","677278","631263","3918","83590","681491","682120","678282","10114","681491","NA","Sternberg task","101","98140","106","yes","1024"
"95.32710280373831","95.32710280373831","921.9719626168225","921.9719626168225","black","experiment","legacy","legacy","legacy","0","uniform","1","undefined","1","left","106","106","106","0","0","106","106","0","0","106","106","106","0","106","0","Sun Oct 23 14:43:21 2022","The main experiment item","yes","Sternbergtask.osexp","/Users/andrea/Desktop/Adv. Quant Methods/Lab 3.1","no","mono","no","18","no","white","no","yes","768","legacy","94","11","/Users/andrea/Desktop/Adv. Quant Methods/Lab 3.1/AS-subject-3.csv","legacy","9 1 6 7 8","Lentiform Loewenfeld","3.3.12","1","y","0","left","right","left","left","NA","511","6175","15623","511","NA","2","legacy","5","1024","2","48000","-16","experiment","3","odd","9","685389","682123","683177","3910","99214","683179","631263","3918","83590","687393","687905","684183","10114","687392","NA","Sternberg task","102","98651","107","yes","1024"
"95.37037037037037","95.37037037037037","921.0648148148148","921.0648148148148","black","experiment","legacy","legacy","legacy","0","uniform","1","undefined","1","right","107","107","107","0","0","107","107","0","0","107","107","107","0","107","0","Sun Oct 23 14:43:21 2022","The main experiment item","yes","Sternbergtask.osexp","/Users/andrea/Desktop/Adv. Quant Methods/Lab 3.1","no","mono","no","18","no","white","no","yes","768","legacy","95","11","/Users/andrea/Desktop/Adv. Quant Methods/Lab 3.1/AS-subject-3.csv","legacy","8 6 3 4 7","Lentiform Loewenfeld","3.3.12","0","n","0","right","right","left","right","NA","824","6175","15623","824","NA","2","legacy","5","1024","2","48000","-16","experiment","3","odd","1","691174","687909","688963","3910","99214","688965","631263","3918","83590","693179","694004","689969","10114","693179","NA","Sternberg task","103","99475","108","yes","1024"
"95.41284403669725","95.41284403669725","923.348623853211","923.348623853211","black","experiment","legacy","legacy","legacy","0","uniform","1","undefined","1","right","108","108","108","0","0","108","108","0","0","108","108","108","0","108","0","Sun Oct 23 14:43:21 2022","The main experiment item","yes","Sternbergtask.osexp","/Users/andrea/Desktop/Adv. Quant Methods/Lab 3.1","no","mono","no","18","no","white","no","yes","768","legacy","96","11","/Users/andrea/Desktop/Adv. Quant Methods/Lab 3.1/AS-subject-3.csv","legacy","7 6 4 8 1 2","Lentiform Loewenfeld","3.3.12","0","n","0","right","right","left","right","NA","1170","6175","15623","1170","NA","2","legacy","6","1024","2","48000","-16","experiment","3","odd","9","697272","694007","695060","3910","99214","695062","631263","3918","83590","699275","700446","696066","10114","699275","NA","Sternberg task","104","100645","109","yes","1024"
"95.45454545454545","95.45454545454545","923.1545454545454","923.1545454545454","black","experiment","legacy","legacy","legacy","0","uniform","1","undefined","1","right","109","109","109","0","0","109","109","0","0","109","109","109","0","109","0","Sun Oct 23 14:43:21 2022","The main experiment item","yes","Sternbergtask.osexp","/Users/andrea/Desktop/Adv. Quant Methods/Lab 3.1","no","mono","no","18","no","white","no","yes","768","legacy","97","11","/Users/andrea/Desktop/Adv. Quant Methods/Lab 3.1/AS-subject-3.csv","legacy","1 4 3 6 5","Lentiform Loewenfeld","3.3.12","0","n","0","right","right","left","right","NA","902","6175","15623","902","NA","2","legacy","5","1024","2","48000","-16","experiment","3","odd","8","703715","700449","701503","3910","99214","701505","631263","3918","83590","705719","706622","702510","10114","705719","NA","Sternberg task","105","101547","110","yes","1024"
"95.49549549549549","95.49549549549549","920.7567567567568","920.7567567567568","black","experiment","legacy","legacy","legacy","0","uniform","1","undefined","1","left","110","110","110","0","0","110","110","0","0","110","110","110","0","110","0","Sun Oct 23 14:43:21 2022","The main experiment item","yes","Sternbergtask.osexp","/Users/andrea/Desktop/Adv. Quant Methods/Lab 3.1","no","mono","no","18","no","white","no","yes","768","legacy","98","11","/Users/andrea/Desktop/Adv. Quant Methods/Lab 3.1/AS-subject-3.csv","legacy","6 9 3 1","Lentiform Loewenfeld","3.3.12","4","y","0","left","right","left","left","NA","657","6175","15623","657","NA","2","legacy","4","1024","2","48000","-16","experiment","3","odd","1","709891","706625","707679","3910","99214","707681","631263","3918","83590","711895","712553","708685","10114","711895","NA","Sternberg task","106","102204","111","yes","1024"
"95.53571428571429","95.53571428571429","925.6875","925.6875","black","experiment","legacy","legacy","legacy","0","uniform","1","undefined","1","left","111","111","111","0","0","111","111","0","0","111","111","111","0","111","0","Sun Oct 23 14:43:21 2022","The main experiment item","yes","Sternbergtask.osexp","/Users/andrea/Desktop/Adv. Quant Methods/Lab 3.1","no","mono","no","18","no","white","no","yes","768","legacy","99","11","/Users/andrea/Desktop/Adv. Quant Methods/Lab 3.1/AS-subject-3.csv","legacy","4 7 6 8 2 3","Lentiform Loewenfeld","3.3.12","6","y","0","left","right","left","left","NA","1473","6175","15623","1473","NA","2","legacy","6","1024","2","48000","-16","experiment","3","odd","3","715822","712556","713611","3910","99214","713613","631263","3918","83590","717827","719301","714617","10114","717827","NA","Sternberg task","107","103677","112","yes","1024"
"95.57522123893806","95.57522123893806","928.5132743362832","928.5132743362832","black","experiment","legacy","legacy","legacy","0","uniform","1","undefined","1","right","112","112","112","0","0","112","112","0","0","112","112","112","0","112","0","Sun Oct 23 14:43:21 2022","The main experiment item","yes","Sternbergtask.osexp","/Users/andrea/Desktop/Adv. Quant Methods/Lab 3.1","no","mono","no","18","no","white","no","yes","768","legacy","100","11","/Users/andrea/Desktop/Adv. Quant Methods/Lab 3.1/AS-subject-3.csv","legacy","6 7 5 9","Lentiform Loewenfeld","3.3.12","0","n","0","right","right","left","right","NA","1245","6175","15623","1245","NA","2","legacy","4","1024","2","48000","-16","experiment","3","odd","2","722568","719304","720357","3910","99214","720359","631263","3918","83590","724572","725818","721362","10114","724572","NA","Sternberg task","108","104922","113","yes","1024"
