acc,accuracy,average_response_time,avg_rt,background,block,canvas_backend,clock_backend,color_backend,compensation,coordinates,correct,correct_instruction1,correct_keyboard_response,correct_response,count_ISI,count_correctFeedback,count_expSequence,count_experiment,count_experimentLoop,count_fixation,count_incorrectFeedback,count_instruction1,count_instructions2,count_keyboard_response,count_memorySet,count_new_logger,count_new_sketchpad,count_practiceLoop,count_probe,count_thankYou,datetime,description,disable_garbage_collection,experiment_file,experiment_path,font_bold,font_family,font_italic,font_size,font_underline,foreground,form_clicks,fullscreen,height,keyboard_backend,live_row,live_row_practiceLoop,logfile,mouse_backend,numberSet,opensesame_codename,opensesame_version,posInSet,present,repeat_cycle,response,response_instruction1,response_instructions2,response_keyboard_response,response_new_sketchpad,response_thankYou,response_time,response_time_instruction1,response_time_instructions2,response_time_keyboard_response,response_time_new_sketchpad,response_time_thankYou,round_decimals,sampler_backend,setSize,sound_buf_size,sound_channels,sound_freq,sound_sample_size,start,subject_nr,subject_parity,target,time_ISI,time_correctFeedback,time_expSequence,time_experiment,time_experimentLoop,time_fixation,time_incorrectFeedback,time_instruction1,time_instructions2,time_keyboard_response,time_memorySet,time_new_logger,time_new_sketchpad,time_practiceLoop,time_probe,time_thankYou,title,total_correct,total_response_time,total_responses,uniform_coordinates,width
0,0,1134,1134,black,practice,legacy,legacy,legacy,0,uniform,0,undefined,0,right,0,0,0,0,0,0,0,0,0,0,0,0,NA,0,0,0,10/26/19 20:50,The main experiment item,yes,SternbergTask.osexp,C:\Users\Jeanette\Desktop\Jeanette Master's\AQM&ED,no,mono,no,18,no,white,no,yes,768,legacy,0,0,C:/Users/Jeanette/Desktop/Jeanette Master's/AQM&ED/jh-subject-2.csv,legacy,9 6 7 4 5,Kafkaesque Koffka,3.2.8,0,n,0,left,right,NA,left,NA,NA,1134,72246,NA,1134,NA,NA,2,legacy,5,1024,2,48000,-16,experiment,2,even,3,84290,NA,82077,5398,NA,82080,NA,5408,NA,86295,83085,87430,NA,77655,86295,NA,Sternberg Task,0,1134,1,yes,1024
50,50,981,981,black,practice,legacy,legacy,legacy,0,uniform,1,undefined,1,left,1,1,1,0,0,1,1,0,0,1,1,1,NA,0,1,0,10/26/19 20:50,The main experiment item,yes,SternbergTask.osexp,C:\Users\Jeanette\Desktop\Jeanette Master's\AQM&ED,no,mono,no,18,no,white,no,yes,768,legacy,1,1,C:/Users/Jeanette/Desktop/Jeanette Master's/AQM&ED/jh-subject-2.csv,legacy,2 9 4,Kafkaesque Koffka,3.2.8,3,y,0,left,right,NA,left,NA,NA,828,72246,NA,828,NA,NA,2,legacy,3,1024,2,48000,-16,experiment,2,even,4,90852,NA,88639,5398,NA,88642,87538,5408,NA,92858,89647,93686,NA,77655,92857,NA,Sternberg Task,1,1962,2,yes,1024
66.66666667,66.66666667,923.6666667,923.6666667,black,practice,legacy,legacy,legacy,0,uniform,1,undefined,1,left,2,2,2,0,0,2,2,0,0,2,2,2,NA,0,2,0,10/26/19 20:50,The main experiment item,yes,SternbergTask.osexp,C:\Users\Jeanette\Desktop\Jeanette Master's\AQM&ED,no,mono,no,18,no,white,no,yes,768,legacy,2,2,C:/Users/Jeanette/Desktop/Jeanette Master's/AQM&ED/jh-subject-2.csv,legacy,1 7 9 8 5,Kafkaesque Koffka,3.2.8,4,y,0,left,right,NA,left,NA,NA,809,72246,NA,809,NA,NA,2,legacy,5,1024,2,48000,-16,experiment,2,even,8,97058,93727,94846,5398,NA,94848,87538,5408,NA,99061,95853,99870,NA,77655,99061,NA,Sternberg Task,2,2771,3,yes,1024
75,75,840,840,black,practice,legacy,legacy,legacy,0,uniform,1,undefined,1,left,3,3,3,0,0,3,3,0,0,3,3,3,NA,0,3,0,10/26/19 20:50,The main experiment item,yes,SternbergTask.osexp,C:\Users\Jeanette\Desktop\Jeanette Master's\AQM&ED,no,mono,no,18,no,white,no,yes,768,legacy,3,3,C:/Users/Jeanette/Desktop/Jeanette Master's/AQM&ED/jh-subject-2.csv,legacy,1 5 2 9,Kafkaesque Koffka,3.2.8,2,y,0,left,right,NA,left,NA,NA,589,72246,NA,589,NA,NA,2,legacy,4,1024,2,48000,-16,experiment,2,even,5,103235,99911,101022,5398,NA,101025,87538,5408,NA,105241,102030,105830,NA,77655,105240,NA,Sternberg Task,3,3360,4,yes,1024
80,80,767.6,767.6,black,practice,legacy,legacy,legacy,0,uniform,1,undefined,1,left,4,4,4,0,0,4,4,0,0,4,4,4,NA,0,4,0,10/26/19 20:50,The main experiment item,yes,SternbergTask.osexp,C:\Users\Jeanette\Desktop\Jeanette Master's\AQM&ED,no,mono,no,18,no,white,no,yes,768,legacy,4,4,C:/Users/Jeanette/Desktop/Jeanette Master's/AQM&ED/jh-subject-2.csv,legacy,6,Kafkaesque Koffka,3.2.8,1,y,0,left,right,NA,left,NA,NA,478,72246,NA,478,NA,NA,2,legacy,1,1024,2,48000,-16,experiment,2,even,6,109179,105875,106964,5398,NA,106967,87538,5408,NA,111184,107972,111662,NA,77655,111184,NA,Sternberg Task,4,3838,5,yes,1024
83.33333333,83.33333333,789.6666667,789.6666667,black,practice,legacy,legacy,legacy,0,uniform,1,undefined,1,right,5,5,5,0,0,5,5,0,0,5,5,5,NA,0,5,0,10/26/19 20:50,The main experiment item,yes,SternbergTask.osexp,C:\Users\Jeanette\Desktop\Jeanette Master's\AQM&ED,no,mono,no,18,no,white,no,yes,768,legacy,5,5,C:/Users/Jeanette/Desktop/Jeanette Master's/AQM&ED/jh-subject-2.csv,legacy,2 1,Kafkaesque Koffka,3.2.8,0,n,0,right,right,NA,right,NA,NA,900,72246,NA,900,NA,NA,2,legacy,2,1024,2,48000,-16,experiment,2,even,5,115027,111705,112814,5398,NA,112817,87538,5408,NA,117034,113822,117934,NA,77655,117034,NA,Sternberg Task,5,4738,6,yes,1024
85.71428571,85.71428571,767.1428571,767.1428571,black,practice,legacy,legacy,legacy,0,uniform,1,undefined,1,left,6,6,6,0,0,6,6,0,0,6,6,6,NA,0,6,0,10/26/19 20:50,The main experiment item,yes,SternbergTask.osexp,C:\Users\Jeanette\Desktop\Jeanette Master's\AQM&ED,no,mono,no,18,no,white,no,yes,768,legacy,6,6,C:/Users/Jeanette/Desktop/Jeanette Master's/AQM&ED/jh-subject-2.csv,legacy,4 3 1 7 9 8,Kafkaesque Koffka,3.2.8,1,y,0,left,right,NA,left,NA,NA,632,72246,NA,632,NA,NA,2,legacy,6,1024,2,48000,-16,experiment,2,even,4,121439,118143,119229,5398,NA,119232,87538,5408,NA,123446,120234,124078,NA,77655,123445,NA,Sternberg Task,6,5370,7,yes,1024
87.5,87.5,751.625,751.625,black,practice,legacy,legacy,legacy,0,uniform,1,undefined,1,right,7,7,7,0,0,7,7,0,0,7,7,7,NA,0,7,0,10/26/19 20:50,The main experiment item,yes,SternbergTask.osexp,C:\Users\Jeanette\Desktop\Jeanette Master's\AQM&ED,no,mono,no,18,no,white,no,yes,768,legacy,7,7,C:/Users/Jeanette/Desktop/Jeanette Master's/AQM&ED/jh-subject-2.csv,legacy,3 1 9 4,Kafkaesque Koffka,3.2.8,0,n,0,right,right,NA,right,NA,NA,643,72246,NA,643,NA,NA,2,legacy,4,1024,2,48000,-16,experiment,2,even,6,127445,124111,125231,5398,NA,125233,87538,5408,NA,129451,126240,130094,NA,77655,129451,NA,Sternberg Task,7,6013,8,yes,1024
88.88888889,88.88888889,751.3333333,751.3333333,black,practice,legacy,legacy,legacy,0,uniform,1,undefined,1,right,8,8,8,0,0,8,8,0,0,8,8,8,NA,0,8,0,10/26/19 20:50,The main experiment item,yes,SternbergTask.osexp,C:\Users\Jeanette\Desktop\Jeanette Master's\AQM&ED,no,mono,no,18,no,white,no,yes,768,legacy,8,8,C:/Users/Jeanette/Desktop/Jeanette Master's/AQM&ED/jh-subject-2.csv,legacy,5 7 8 4 1 2,Kafkaesque Koffka,3.2.8,0,n,0,right,right,NA,right,NA,NA,749,72246,NA,749,NA,NA,2,legacy,6,1024,2,48000,-16,experiment,2,even,6,133411,130112,131197,5398,NA,131199,87538,5408,NA,135417,132205,136166,NA,77655,135416,NA,Sternberg Task,8,6762,9,yes,1024
90,90,731.1,731.1,black,practice,legacy,legacy,legacy,0,uniform,1,undefined,1,left,9,9,9,0,0,9,9,0,0,9,9,9,NA,0,9,0,10/26/19 20:50,The main experiment item,yes,SternbergTask.osexp,C:\Users\Jeanette\Desktop\Jeanette Master's\AQM&ED,no,mono,no,18,no,white,no,yes,768,legacy,9,9,C:/Users/Jeanette/Desktop/Jeanette Master's/AQM&ED/jh-subject-2.csv,legacy,4 8,Kafkaesque Koffka,3.2.8,1,y,0,left,right,NA,left,NA,NA,549,72246,NA,549,NA,NA,2,legacy,2,1024,2,48000,-16,experiment,2,even,4,139523,136188,137309,5398,NA,137312,87538,5408,NA,141529,138317,142078,NA,77655,141528,NA,Sternberg Task,9,7311,10,yes,1024
90.90909091,90.90909091,716.3636364,716.3636364,black,practice,legacy,legacy,legacy,0,uniform,1,undefined,1,right,10,10,10,0,0,10,10,0,0,10,10,10,NA,0,10,0,10/26/19 20:50,The main experiment item,yes,SternbergTask.osexp,C:\Users\Jeanette\Desktop\Jeanette Master's\AQM&ED,no,mono,no,18,no,white,no,yes,768,legacy,10,10,C:/Users/Jeanette/Desktop/Jeanette Master's/AQM&ED/jh-subject-2.csv,legacy,4 1 5,Kafkaesque Koffka,3.2.8,0,n,0,right,right,NA,right,NA,NA,569,72246,NA,569,NA,NA,2,legacy,3,1024,2,48000,-16,experiment,2,even,2,145431,142099,143218,5398,NA,143220,87538,5408,NA,147437,144225,148006,NA,77655,147437,NA,Sternberg Task,10,7880,11,yes,1024
91.66666667,91.66666667,695,695,black,practice,legacy,legacy,legacy,0,uniform,1,undefined,1,right,11,11,11,0,0,11,11,0,0,11,11,11,NA,0,11,0,10/26/19 20:50,The main experiment item,yes,SternbergTask.osexp,C:\Users\Jeanette\Desktop\Jeanette Master's\AQM&ED,no,mono,no,18,no,white,no,yes,768,legacy,11,11,C:/Users/Jeanette/Desktop/Jeanette Master's/AQM&ED/jh-subject-2.csv,legacy,5,Kafkaesque Koffka,3.2.8,0,n,0,right,right,NA,right,NA,NA,460,72246,NA,460,NA,NA,2,legacy,1,1024,2,48000,-16,experiment,2,even,3,151357,148044,149144,5398,NA,149147,87538,5408,NA,153362,150152,153823,NA,77655,153362,NA,Sternberg Task,11,8340,12,yes,1024
92.30769231,92.30769231,687.4615385,687.4615385,black,experiment,legacy,legacy,legacy,0,uniform,1,undefined,1,left,12,12,12,0,0,12,12,0,0,12,12,12,NA,0,12,0,10/26/19 20:50,The main experiment item,yes,SternbergTask.osexp,C:\Users\Jeanette\Desktop\Jeanette Master's\AQM&ED,no,mono,no,18,no,white,no,yes,768,legacy,0,11,C:/Users/Jeanette/Desktop/Jeanette Master's/AQM&ED/jh-subject-2.csv,legacy,3 9 7 6 4,Kafkaesque Koffka,3.2.8,3,y,0,left,right,right,left,NA,NA,597,72246,8234,597,NA,NA,2,legacy,5,1024,2,48000,-16,experiment,2,even,7,165442,153851,163229,5398,163127,163231,87538,5408,154892,167449,164236,168046,NA,77655,167448,NA,Sternberg Task,12,8937,13,yes,1024
92.85714286,92.85714286,673.5,673.5,black,experiment,legacy,legacy,legacy,0,uniform,1,undefined,1,right,13,13,13,0,0,13,13,0,0,13,13,13,NA,0,13,0,10/26/19 20:50,The main experiment item,yes,SternbergTask.osexp,C:\Users\Jeanette\Desktop\Jeanette Master's\AQM&ED,no,mono,no,18,no,white,no,yes,768,legacy,1,11,C:/Users/Jeanette/Desktop/Jeanette Master's/AQM&ED/jh-subject-2.csv,legacy,1 5 3 2 8,Kafkaesque Koffka,3.2.8,0,n,0,right,right,right,right,NA,NA,492,72246,8234,492,NA,NA,2,legacy,5,1024,2,48000,-16,experiment,2,even,4,171372,168058,169159,5398,163127,169161,87538,5408,154892,173378,170166,173870,NA,77655,173377,NA,Sternberg Task,13,9429,14,yes,1024
93.33333333,93.33333333,676.5333333,676.5333333,black,experiment,legacy,legacy,legacy,0,uniform,1,undefined,1,right,14,14,14,0,0,14,14,0,0,14,14,14,NA,0,14,0,10/26/19 20:50,The main experiment item,yes,SternbergTask.osexp,C:\Users\Jeanette\Desktop\Jeanette Master's\AQM&ED,no,mono,no,18,no,white,no,yes,768,legacy,2,11,C:/Users/Jeanette/Desktop/Jeanette Master's/AQM&ED/jh-subject-2.csv,legacy,3 9 8 1 6 4,Kafkaesque Koffka,3.2.8,0,n,0,right,right,right,right,NA,NA,719,72246,8234,719,NA,NA,2,legacy,6,1024,2,48000,-16,experiment,2,even,7,177218,173884,175005,5398,163127,175007,87538,5408,154892,179223,176013,179943,NA,77655,179223,NA,Sternberg Task,14,10148,15,yes,1024
87.5,87.5,678.5,678.5,black,experiment,legacy,legacy,legacy,0,uniform,0,undefined,0,right,15,15,15,0,0,15,15,0,0,15,15,15,NA,0,15,0,10/26/19 20:50,The main experiment item,yes,SternbergTask.osexp,C:\Users\Jeanette\Desktop\Jeanette Master's\AQM&ED,no,mono,no,18,no,white,no,yes,768,legacy,3,11,C:/Users/Jeanette/Desktop/Jeanette Master's/AQM&ED/jh-subject-2.csv,legacy,4 8 1 2,Kafkaesque Koffka,3.2.8,0,n,0,left,right,right,left,NA,NA,708,72246,8234,708,NA,NA,2,legacy,4,1024,2,48000,-16,experiment,2,even,7,183293,179960,181084,5398,163127,181086,87538,5408,154892,185298,182091,186006,NA,77655,185298,NA,Sternberg Task,14,10856,16,yes,1024
88.23529412,88.23529412,665.0588235,665.0588235,black,experiment,legacy,legacy,legacy,0,uniform,1,undefined,1,left,16,16,16,0,0,16,16,0,0,16,16,16,NA,0,16,0,10/26/19 20:50,The main experiment item,yes,SternbergTask.osexp,C:\Users\Jeanette\Desktop\Jeanette Master's\AQM&ED,no,mono,no,18,no,white,no,yes,768,legacy,4,11,C:/Users/Jeanette/Desktop/Jeanette Master's/AQM&ED/jh-subject-2.csv,legacy,8 5 4 7 3 1,Kafkaesque Koffka,3.2.8,2,y,0,left,right,right,left,NA,NA,450,72246,8234,450,NA,NA,2,legacy,6,1024,2,48000,-16,experiment,2,even,5,189335,179960,187122,5398,163127,187125,186018,5408,154892,191340,188130,191791,NA,77655,191340,NA,Sternberg Task,15,11306,17,yes,1024
88.88888889,88.88888889,653.2222222,653.2222222,black,experiment,legacy,legacy,legacy,0,uniform,1,undefined,1,right,17,17,17,0,0,17,17,0,0,17,17,17,NA,0,17,0,10/26/19 20:50,The main experiment item,yes,SternbergTask.osexp,C:\Users\Jeanette\Desktop\Jeanette Master's\AQM&ED,no,mono,no,18,no,white,no,yes,768,legacy,5,11,C:/Users/Jeanette/Desktop/Jeanette Master's/AQM&ED/jh-subject-2.csv,legacy,6 8,Kafkaesque Koffka,3.2.8,0,n,0,right,right,right,right,NA,NA,452,72246,8234,452,NA,NA,2,legacy,2,1024,2,48000,-16,experiment,2,even,9,195149,191811,192937,5398,163127,192939,186018,5408,154892,197154,193944,197607,NA,77655,197154,NA,Sternberg Task,16,11758,18,yes,1024
84.21052632,84.21052632,645.2631579,645.2631579,black,experiment,legacy,legacy,legacy,0,uniform,0,undefined,0,right,18,18,18,0,0,18,18,0,0,18,18,18,NA,0,18,0,10/26/19 20:50,The main experiment item,yes,SternbergTask.osexp,C:\Users\Jeanette\Desktop\Jeanette Master's\AQM&ED,no,mono,no,18,no,white,no,yes,768,legacy,6,11,C:/Users/Jeanette/Desktop/Jeanette Master's/AQM&ED/jh-subject-2.csv,legacy,1 7 8 3 9,Kafkaesque Koffka,3.2.8,0,n,0,left,right,right,left,NA,NA,502,72246,8234,502,NA,NA,2,legacy,5,1024,2,48000,-16,experiment,2,even,2,200971,197648,198757,5398,163127,198759,186018,5408,154892,202976,199764,203479,NA,77655,202976,NA,Sternberg Task,16,12260,19,yes,1024
85,85,638.2,638.2,black,experiment,legacy,legacy,legacy,0,uniform,1,undefined,1,left,19,19,19,0,0,19,19,0,0,19,19,19,NA,0,19,0,10/26/19 20:50,The main experiment item,yes,SternbergTask.osexp,C:\Users\Jeanette\Desktop\Jeanette Master's\AQM&ED,no,mono,no,18,no,white,no,yes,768,legacy,7,11,C:/Users/Jeanette/Desktop/Jeanette Master's/AQM&ED/jh-subject-2.csv,legacy,6 2,Kafkaesque Koffka,3.2.8,1,y,0,left,right,right,left,NA,NA,504,72246,8234,504,NA,NA,2,legacy,2,1024,2,48000,-16,experiment,2,even,6,206823,197648,204610,5398,163127,204612,203496,5408,154892,208830,205617,209335,NA,77655,208829,NA,Sternberg Task,17,12764,20,yes,1024
85.71428571,85.71428571,635.2857143,635.2857143,black,experiment,legacy,legacy,legacy,0,uniform,1,undefined,1,left,20,20,20,0,0,20,20,0,0,20,20,20,NA,0,20,0,10/26/19 20:50,The main experiment item,yes,SternbergTask.osexp,C:\Users\Jeanette\Desktop\Jeanette Master's\AQM&ED,no,mono,no,18,no,white,no,yes,768,legacy,8,11,C:/Users/Jeanette/Desktop/Jeanette Master's/AQM&ED/jh-subject-2.csv,legacy,5 7 8 2 3 8,Kafkaesque Koffka,3.2.8,5,y,0,left,right,right,left,NA,NA,577,72246,8234,577,NA,NA,2,legacy,6,1024,2,48000,-16,experiment,2,even,3,212680,209358,210467,5398,163127,210469,203496,5408,154892,214685,211474,215263,NA,77655,214685,NA,Sternberg Task,18,13341,21,yes,1024
86.36363636,86.36363636,639.5454545,639.5454545,black,experiment,legacy,legacy,legacy,0,uniform,1,undefined,1,right,21,21,21,0,0,21,21,0,0,21,21,21,NA,0,21,0,10/26/19 20:50,The main experiment item,yes,SternbergTask.osexp,C:\Users\Jeanette\Desktop\Jeanette Master's\AQM&ED,no,mono,no,18,no,white,no,yes,768,legacy,9,11,C:/Users/Jeanette/Desktop/Jeanette Master's/AQM&ED/jh-subject-2.csv,legacy,7 6 4 8 1 2,Kafkaesque Koffka,3.2.8,0,n,0,right,right,right,right,NA,NA,729,72246,8234,729,NA,NA,2,legacy,6,1024,2,48000,-16,experiment,2,even,9,218614,215280,216401,5398,163127,216404,203496,5408,154892,220621,217409,221351,NA,77655,220621,NA,Sternberg Task,19,14070,22,yes,1024
86.95652174,86.95652174,635.4782609,635.4782609,black,experiment,legacy,legacy,legacy,0,uniform,1,undefined,1,left,22,22,22,0,0,22,22,0,0,22,22,22,NA,0,22,0,10/26/19 20:50,The main experiment item,yes,SternbergTask.osexp,C:\Users\Jeanette\Desktop\Jeanette Master's\AQM&ED,no,mono,no,18,no,white,no,yes,768,legacy,10,11,C:/Users/Jeanette/Desktop/Jeanette Master's/AQM&ED/jh-subject-2.csv,legacy,8 7 3,Kafkaesque Koffka,3.2.8,1,y,0,left,right,right,left,NA,NA,546,72246,8234,546,NA,NA,2,legacy,3,1024,2,48000,-16,experiment,2,even,8,224709,221381,222495,5398,163127,222498,203496,5408,154892,226715,223504,227262,NA,77655,226715,NA,Sternberg Task,20,14616,23,yes,1024
87.5,87.5,629.4166667,629.4166667,black,experiment,legacy,legacy,legacy,0,uniform,1,undefined,1,right,23,23,23,0,0,23,23,0,0,23,23,23,NA,0,23,0,10/26/19 20:50,The main experiment item,yes,SternbergTask.osexp,C:\Users\Jeanette\Desktop\Jeanette Master's\AQM&ED,no,mono,no,18,no,white,no,yes,768,legacy,11,11,C:/Users/Jeanette/Desktop/Jeanette Master's/AQM&ED/jh-subject-2.csv,legacy,6 8 4,Kafkaesque Koffka,3.2.8,0,n,0,right,right,right,right,NA,NA,490,72246,8234,490,NA,NA,2,legacy,3,1024,2,48000,-16,experiment,2,even,1,230629,227288,228417,5398,163127,228419,203496,5408,154892,232636,229424,233126,NA,77655,232636,NA,Sternberg Task,21,15106,24,yes,1024
88,88,630.56,630.56,black,experiment,legacy,legacy,legacy,0,uniform,1,undefined,1,left,24,24,24,0,0,24,24,0,0,24,24,24,NA,0,24,0,10/26/19 20:50,The main experiment item,yes,SternbergTask.osexp,C:\Users\Jeanette\Desktop\Jeanette Master's\AQM&ED,no,mono,no,18,no,white,no,yes,768,legacy,12,11,C:/Users/Jeanette/Desktop/Jeanette Master's/AQM&ED/jh-subject-2.csv,legacy,9 3 8 2 1 4,Kafkaesque Koffka,3.2.8,3,y,0,left,right,right,left,NA,NA,658,72246,8234,658,NA,NA,2,legacy,6,1024,2,48000,-16,experiment,2,even,8,236494,233155,234281,5398,163127,234283,203496,5408,154892,238500,235289,239158,NA,77655,238500,NA,Sternberg Task,22,15764,25,yes,1024
88.46153846,88.46153846,629.3076923,629.3076923,black,experiment,legacy,legacy,legacy,0,uniform,1,undefined,1,left,25,25,25,0,0,25,25,0,0,25,25,25,NA,0,25,0,10/26/19 20:50,The main experiment item,yes,SternbergTask.osexp,C:\Users\Jeanette\Desktop\Jeanette Master's\AQM&ED,no,mono,no,18,no,white,no,yes,768,legacy,13,11,C:/Users/Jeanette/Desktop/Jeanette Master's/AQM&ED/jh-subject-2.csv,legacy,2 3,Kafkaesque Koffka,3.2.8,1,y,0,left,right,right,left,NA,NA,598,72246,8234,598,NA,NA,2,legacy,2,1024,2,48000,-16,experiment,2,even,2,242531,239181,240316,5398,163127,240319,203496,5408,154892,244536,241324,245134,NA,77655,244536,NA,Sternberg Task,23,16362,26,yes,1024
88.88888889,88.88888889,625.4814815,625.4814815,black,experiment,legacy,legacy,legacy,0,uniform,1,undefined,1,right,26,26,26,0,0,26,26,0,0,26,26,26,NA,0,26,0,10/26/19 20:50,The main experiment item,yes,SternbergTask.osexp,C:\Users\Jeanette\Desktop\Jeanette Master's\AQM&ED,no,mono,no,18,no,white,no,yes,768,legacy,14,11,C:/Users/Jeanette/Desktop/Jeanette Master's/AQM&ED/jh-subject-2.csv,legacy,8 9,Kafkaesque Koffka,3.2.8,0,n,0,right,right,right,right,NA,NA,526,72246,8234,526,NA,NA,2,legacy,2,1024,2,48000,-16,experiment,2,even,5,248498,245161,246286,5398,163127,246288,203496,5408,154892,250504,247293,251031,NA,77655,250503,NA,Sternberg Task,24,16888,27,yes,1024
89.28571429,89.28571429,630.6785714,630.6785714,black,experiment,legacy,legacy,legacy,0,uniform,1,undefined,1,right,27,27,27,0,0,27,27,0,0,27,27,27,NA,0,27,0,10/26/19 20:50,The main experiment item,yes,SternbergTask.osexp,C:\Users\Jeanette\Desktop\Jeanette Master's\AQM&ED,no,mono,no,18,no,white,no,yes,768,legacy,15,11,C:/Users/Jeanette/Desktop/Jeanette Master's/AQM&ED/jh-subject-2.csv,legacy,6 9 5,Kafkaesque Koffka,3.2.8,0,n,0,right,right,right,right,NA,NA,771,72246,8234,771,NA,NA,2,legacy,3,1024,2,48000,-16,experiment,2,even,8,254358,251049,252145,5398,163127,252147,203496,5408,154892,256363,253152,257135,NA,77655,256363,NA,Sternberg Task,25,17659,28,yes,1024
89.65517241,89.65517241,631.0344828,631.0344828,black,experiment,legacy,legacy,legacy,0,uniform,1,undefined,1,right,28,28,28,0,0,28,28,0,0,28,28,28,NA,0,28,0,10/26/19 20:50,The main experiment item,yes,SternbergTask.osexp,C:\Users\Jeanette\Desktop\Jeanette Master's\AQM&ED,no,mono,no,18,no,white,no,yes,768,legacy,16,11,C:/Users/Jeanette/Desktop/Jeanette Master's/AQM&ED/jh-subject-2.csv,legacy,8 6 3 4 7,Kafkaesque Koffka,3.2.8,0,n,0,right,right,right,right,NA,NA,641,72246,8234,641,NA,NA,2,legacy,5,1024,2,48000,-16,experiment,2,even,1,260494,257163,258281,5398,163127,258284,203496,5408,154892,262501,259289,263143,NA,77655,262501,NA,Sternberg Task,26,18300,29,yes,1024
90,90,631.6,631.6,black,experiment,legacy,legacy,legacy,0,uniform,1,undefined,1,right,29,29,29,0,0,29,29,0,0,29,29,29,NA,0,29,0,10/26/19 20:50,The main experiment item,yes,SternbergTask.osexp,C:\Users\Jeanette\Desktop\Jeanette Master's\AQM&ED,no,mono,no,18,no,white,no,yes,768,legacy,17,11,C:/Users/Jeanette/Desktop/Jeanette Master's/AQM&ED/jh-subject-2.csv,legacy,3 9 1,Kafkaesque Koffka,3.2.8,0,n,0,right,right,right,right,NA,NA,648,72246,8234,648,NA,NA,2,legacy,3,1024,2,48000,-16,experiment,2,even,7,266496,263171,264283,5398,163127,264285,203496,5408,154892,268502,265290,269150,NA,77655,268502,NA,Sternberg Task,27,18948,30,yes,1024
90.32258065,90.32258065,632.483871,632.483871,black,experiment,legacy,legacy,legacy,0,uniform,1,undefined,1,left,30,30,30,0,0,30,30,0,0,30,30,30,NA,0,30,0,10/26/19 20:50,The main experiment item,yes,SternbergTask.osexp,C:\Users\Jeanette\Desktop\Jeanette Master's\AQM&ED,no,mono,no,18,no,white,no,yes,768,legacy,18,11,C:/Users/Jeanette/Desktop/Jeanette Master's/AQM&ED/jh-subject-2.csv,legacy,3 4 9 6 2 9,Kafkaesque Koffka,3.2.8,5,y,0,left,right,right,left,NA,NA,659,72246,8234,659,NA,NA,2,legacy,6,1024,2,48000,-16,experiment,2,even,2,272517,269176,270304,5398,163127,270306,203496,5408,154892,274523,271311,275183,NA,77655,274523,NA,Sternberg Task,28,19607,31,yes,1024
90.625,90.625,630.875,630.875,black,experiment,legacy,legacy,legacy,0,uniform,1,undefined,1,left,31,31,31,0,0,31,31,0,0,31,31,31,NA,0,31,0,10/26/19 20:50,The main experiment item,yes,SternbergTask.osexp,C:\Users\Jeanette\Desktop\Jeanette Master's\AQM&ED,no,mono,no,18,no,white,no,yes,768,legacy,19,11,C:/Users/Jeanette/Desktop/Jeanette Master's/AQM&ED/jh-subject-2.csv,legacy,3 5 4 7,Kafkaesque Koffka,3.2.8,1,y,0,left,right,right,left,NA,NA,581,72246,8234,581,NA,NA,2,legacy,4,1024,2,48000,-16,experiment,2,even,3,278549,275206,276335,5398,163127,276338,203496,5408,154892,280553,277343,281135,NA,77655,280552,NA,Sternberg Task,29,20188,32,yes,1024
90.90909091,90.90909091,630.9393939,630.9393939,black,experiment,legacy,legacy,legacy,0,uniform,1,undefined,1,right,32,32,32,0,0,32,32,0,0,32,32,32,NA,0,32,0,10/26/19 20:50,The main experiment item,yes,SternbergTask.osexp,C:\Users\Jeanette\Desktop\Jeanette Master's\AQM&ED,no,mono,no,18,no,white,no,yes,768,legacy,20,11,C:/Users/Jeanette/Desktop/Jeanette Master's/AQM&ED/jh-subject-2.csv,legacy,7 1,Kafkaesque Koffka,3.2.8,0,n,0,right,right,right,right,NA,NA,633,72246,8234,633,NA,NA,2,legacy,2,1024,2,48000,-16,experiment,2,even,8,284495,281161,282281,5398,163127,282283,203496,5408,154892,286501,283290,287135,NA,77655,286501,NA,Sternberg Task,30,20821,33,yes,1024
91.17647059,91.17647059,635.7352941,635.7352941,black,experiment,legacy,legacy,legacy,0,uniform,1,undefined,1,right,33,33,33,0,0,33,33,0,0,33,33,33,NA,0,33,0,10/26/19 20:50,The main experiment item,yes,SternbergTask.osexp,C:\Users\Jeanette\Desktop\Jeanette Master's\AQM&ED,no,mono,no,18,no,white,no,yes,768,legacy,21,11,C:/Users/Jeanette/Desktop/Jeanette Master's/AQM&ED/jh-subject-2.csv,legacy,2 6 4 3 9,Kafkaesque Koffka,3.2.8,0,n,0,right,right,right,right,NA,NA,794,72246,8234,794,NA,NA,2,legacy,5,1024,2,48000,-16,experiment,2,even,1,290495,287162,288281,5398,163127,288283,203496,5408,154892,292500,289289,293295,NA,77655,292500,NA,Sternberg Task,31,21615,34,yes,1024
88.57142857,88.57142857,635.8857143,635.8857143,black,experiment,legacy,legacy,legacy,0,uniform,0,undefined,0,left,34,34,34,0,0,34,34,0,0,34,34,34,NA,0,34,0,10/26/19 20:50,The main experiment item,yes,SternbergTask.osexp,C:\Users\Jeanette\Desktop\Jeanette Master's\AQM&ED,no,mono,no,18,no,white,no,yes,768,legacy,22,11,C:/Users/Jeanette/Desktop/Jeanette Master's/AQM&ED/jh-subject-2.csv,legacy,7 1 8 5 6 2,Kafkaesque Koffka,3.2.8,2,y,0,right,right,right,right,NA,NA,641,72246,8234,641,NA,NA,2,legacy,6,1024,2,48000,-16,experiment,2,even,1,296645,293321,294433,5398,163127,294435,203496,5408,154892,298652,295440,299294,NA,77655,298652,NA,Sternberg Task,31,22256,35,yes,1024
88.88888889,88.88888889,637.7777778,637.7777778,black,experiment,legacy,legacy,legacy,0,uniform,1,undefined,1,left,35,35,35,0,0,35,35,0,0,35,35,35,NA,0,35,0,10/26/19 20:50,The main experiment item,yes,SternbergTask.osexp,C:\Users\Jeanette\Desktop\Jeanette Master's\AQM&ED,no,mono,no,18,no,white,no,yes,768,legacy,23,11,C:/Users/Jeanette/Desktop/Jeanette Master's/AQM&ED/jh-subject-2.csv,legacy,2 3 7 4,Kafkaesque Koffka,3.2.8,1,y,0,left,right,right,left,NA,NA,704,72246,8234,704,NA,NA,2,legacy,4,1024,2,48000,-16,experiment,2,even,2,302647,293321,300435,5398,163127,300437,299321,5408,154892,304654,301442,305358,NA,77655,304653,NA,Sternberg Task,32,22960,36,yes,1024
89.18918919,89.18918919,644.6216216,644.6216216,black,experiment,legacy,legacy,legacy,0,uniform,1,undefined,1,left,36,36,36,0,0,36,36,0,0,36,36,36,NA,0,36,0,10/26/19 20:50,The main experiment item,yes,SternbergTask.osexp,C:\Users\Jeanette\Desktop\Jeanette Master's\AQM&ED,no,mono,no,18,no,white,no,yes,768,legacy,24,11,C:/Users/Jeanette/Desktop/Jeanette Master's/AQM&ED/jh-subject-2.csv,legacy,7 6,Kafkaesque Koffka,3.2.8,2,y,0,left,right,right,left,NA,NA,891,72246,8234,891,NA,NA,2,legacy,2,1024,2,48000,-16,experiment,2,even,6,308760,305400,306547,5398,163127,306550,299321,5408,154892,310763,307555,311655,NA,77655,310763,NA,Sternberg Task,33,23851,37,yes,1024
89.47368421,89.47368421,648.3684211,648.3684211,black,experiment,legacy,legacy,legacy,0,uniform,1,undefined,1,right,37,37,37,0,0,37,37,0,0,37,37,37,NA,0,37,0,10/26/19 20:50,The main experiment item,yes,SternbergTask.osexp,C:\Users\Jeanette\Desktop\Jeanette Master's\AQM&ED,no,mono,no,18,no,white,no,yes,768,legacy,25,11,C:/Users/Jeanette/Desktop/Jeanette Master's/AQM&ED/jh-subject-2.csv,legacy,7 3 2 8,Kafkaesque Koffka,3.2.8,0,n,0,right,right,right,right,NA,NA,787,72246,8234,787,NA,NA,2,legacy,4,1024,2,48000,-16,experiment,2,even,4,315006,311681,312792,5398,163127,312794,299321,5408,154892,317011,313801,317799,NA,77655,317011,NA,Sternberg Task,34,24638,38,yes,1024
89.74358974,89.74358974,643.5641026,643.5641026,black,experiment,legacy,legacy,legacy,0,uniform,1,undefined,1,left,38,38,38,0,0,38,38,0,0,38,38,38,NA,0,38,0,10/26/19 20:50,The main experiment item,yes,SternbergTask.osexp,C:\Users\Jeanette\Desktop\Jeanette Master's\AQM&ED,no,mono,no,18,no,white,no,yes,768,legacy,26,11,C:/Users/Jeanette/Desktop/Jeanette Master's/AQM&ED/jh-subject-2.csv,legacy,5 2 6,Kafkaesque Koffka,3.2.8,2,y,0,left,right,right,left,NA,NA,461,72246,8234,461,NA,NA,2,legacy,3,1024,2,48000,-16,experiment,2,even,2,321156,317827,318943,5398,163127,318945,299321,5408,154892,323161,319950,323623,NA,77655,323161,NA,Sternberg Task,35,25099,39,yes,1024
90,90,639.15,639.15,black,experiment,legacy,legacy,legacy,0,uniform,1,undefined,1,right,39,39,39,0,0,39,39,0,0,39,39,39,NA,0,39,0,10/26/19 20:50,The main experiment item,yes,SternbergTask.osexp,C:\Users\Jeanette\Desktop\Jeanette Master's\AQM&ED,no,mono,no,18,no,white,no,yes,768,legacy,27,11,C:/Users/Jeanette/Desktop/Jeanette Master's/AQM&ED/jh-subject-2.csv,legacy,1,Kafkaesque Koffka,3.2.8,0,n,0,right,right,right,right,NA,NA,467,72246,8234,467,NA,NA,2,legacy,1,1024,2,48000,-16,experiment,2,even,7,326989,323649,324777,5398,163127,324779,299321,5408,154892,328995,325784,329463,NA,77655,328994,NA,Sternberg Task,36,25566,40,yes,1024
90.24390244,90.24390244,637.4146341,637.4146341,black,experiment,legacy,legacy,legacy,0,uniform,1,undefined,1,right,40,40,40,0,0,40,40,0,0,40,40,40,NA,0,40,0,10/26/19 20:50,The main experiment item,yes,SternbergTask.osexp,C:\Users\Jeanette\Desktop\Jeanette Master's\AQM&ED,no,mono,no,18,no,white,no,yes,768,legacy,28,11,C:/Users/Jeanette/Desktop/Jeanette Master's/AQM&ED/jh-subject-2.csv,legacy,9 8 2 7 4,Kafkaesque Koffka,3.2.8,0,n,0,right,right,right,right,NA,NA,568,72246,8234,568,NA,NA,2,legacy,5,1024,2,48000,-16,experiment,2,even,5,332801,329483,330587,5398,163127,330589,299321,5408,154892,334806,331595,335375,NA,77655,334806,NA,Sternberg Task,37,26134,41,yes,1024
90.47619048,90.47619048,635.6904762,635.6904762,black,experiment,legacy,legacy,legacy,0,uniform,1,undefined,1,right,41,41,41,0,0,41,41,0,0,41,41,41,NA,0,41,0,10/26/19 20:50,The main experiment item,yes,SternbergTask.osexp,C:\Users\Jeanette\Desktop\Jeanette Master's\AQM&ED,no,mono,no,18,no,white,no,yes,768,legacy,29,11,C:/Users/Jeanette/Desktop/Jeanette Master's/AQM&ED/jh-subject-2.csv,legacy,2 8 6 3 1,Kafkaesque Koffka,3.2.8,0,n,0,right,right,right,right,NA,NA,565,72246,8234,565,NA,NA,2,legacy,5,1024,2,48000,-16,experiment,2,even,7,338755,335404,336543,5398,163127,336545,299321,5408,154892,340761,337550,341326,NA,77655,340761,NA,Sternberg Task,38,26699,42,yes,1024
90.69767442,90.69767442,634.1627907,634.1627907,black,experiment,legacy,legacy,legacy,0,uniform,1,undefined,1,right,42,42,42,0,0,42,42,0,0,42,42,42,NA,0,42,0,10/26/19 20:50,The main experiment item,yes,SternbergTask.osexp,C:\Users\Jeanette\Desktop\Jeanette Master's\AQM&ED,no,mono,no,18,no,white,no,yes,768,legacy,30,11,C:/Users/Jeanette/Desktop/Jeanette Master's/AQM&ED/jh-subject-2.csv,legacy,3 4 2,Kafkaesque Koffka,3.2.8,0,n,0,right,right,right,right,NA,NA,570,72246,8234,570,NA,NA,2,legacy,3,1024,2,48000,-16,experiment,2,even,5,344677,341354,342464,5398,163127,342467,299321,5408,154892,346684,343472,347255,NA,77655,346683,NA,Sternberg Task,39,27269,43,yes,1024
90.90909091,90.90909091,629.9318182,629.9318182,black,experiment,legacy,legacy,legacy,0,uniform,1,undefined,1,left,43,43,43,0,0,43,43,0,0,43,43,43,NA,0,43,0,10/26/19 20:50,The main experiment item,yes,SternbergTask.osexp,C:\Users\Jeanette\Desktop\Jeanette Master's\AQM&ED,no,mono,no,18,no,white,no,yes,768,legacy,31,11,C:/Users/Jeanette/Desktop/Jeanette Master's/AQM&ED/jh-subject-2.csv,legacy,9 1 7 2,Kafkaesque Koffka,3.2.8,2,y,0,left,right,right,left,NA,NA,448,72246,8234,448,NA,NA,2,legacy,4,1024,2,48000,-16,experiment,2,even,1,350592,347276,348379,5398,163127,348381,299321,5408,154892,352598,349386,353047,NA,77655,352598,NA,Sternberg Task,40,27717,44,yes,1024
91.11111111,91.11111111,628,628,black,experiment,legacy,legacy,legacy,0,uniform,1,undefined,1,right,44,44,44,0,0,44,44,0,0,44,44,44,NA,0,44,0,10/26/19 20:50,The main experiment item,yes,SternbergTask.osexp,C:\Users\Jeanette\Desktop\Jeanette Master's\AQM&ED,no,mono,no,18,no,white,no,yes,768,legacy,32,11,C:/Users/Jeanette/Desktop/Jeanette Master's/AQM&ED/jh-subject-2.csv,legacy,1 4 3 6 5,Kafkaesque Koffka,3.2.8,0,n,0,right,right,right,right,NA,NA,543,72246,8234,543,NA,NA,2,legacy,5,1024,2,48000,-16,experiment,2,even,8,356384,353069,354170,5398,163127,354173,299321,5408,154892,358390,355178,358934,NA,77655,358390,NA,Sternberg Task,41,28260,45,yes,1024
91.30434783,91.30434783,627.4782609,627.4782609,black,experiment,legacy,legacy,legacy,0,uniform,1,undefined,1,left,45,45,45,0,0,45,45,0,0,45,45,45,NA,0,45,0,10/26/19 20:50,The main experiment item,yes,SternbergTask.osexp,C:\Users\Jeanette\Desktop\Jeanette Master's\AQM&ED,no,mono,no,18,no,white,no,yes,768,legacy,33,11,C:/Users/Jeanette/Desktop/Jeanette Master's/AQM&ED/jh-subject-2.csv,legacy,6 8 9 3 4 9,Kafkaesque Koffka,3.2.8,5,y,0,left,right,right,left,NA,NA,604,72246,8234,604,NA,NA,2,legacy,6,1024,2,48000,-16,experiment,2,even,4,362283,358956,360071,5398,163127,360073,299321,5408,154892,364290,361078,364894,NA,77655,364290,NA,Sternberg Task,42,28864,46,yes,1024
91.4893617,91.4893617,626.5106383,626.5106383,black,experiment,legacy,legacy,legacy,0,uniform,1,undefined,1,right,46,46,46,0,0,46,46,0,0,46,46,46,NA,0,46,0,10/26/19 20:50,The main experiment item,yes,SternbergTask.osexp,C:\Users\Jeanette\Desktop\Jeanette Master's\AQM&ED,no,mono,no,18,no,white,no,yes,768,legacy,34,11,C:/Users/Jeanette/Desktop/Jeanette Master's/AQM&ED/jh-subject-2.csv,legacy,6 9 4 5 3 2,Kafkaesque Koffka,3.2.8,0,n,0,right,right,right,right,NA,NA,582,72246,8234,582,NA,NA,2,legacy,6,1024,2,48000,-16,experiment,2,even,8,368257,364924,366044,5398,163127,366046,299321,5408,154892,370263,367052,370847,NA,77655,370263,NA,Sternberg Task,43,29446,47,yes,1024
91.66666667,91.66666667,627.0416667,627.0416667,black,experiment,legacy,legacy,legacy,0,uniform,1,undefined,1,left,47,47,47,0,0,47,47,0,0,47,47,47,NA,0,47,0,10/26/19 20:50,The main experiment item,yes,SternbergTask.osexp,C:\Users\Jeanette\Desktop\Jeanette Master's\AQM&ED,no,mono,no,18,no,white,no,yes,768,legacy,35,11,C:/Users/Jeanette/Desktop/Jeanette Master's/AQM&ED/jh-subject-2.csv,legacy,4 9 7 8 5 3,Kafkaesque Koffka,3.2.8,4,y,0,left,right,right,left,NA,NA,652,72246,8234,652,NA,NA,2,legacy,6,1024,2,48000,-16,experiment,2,even,8,374202,370875,371989,5398,163127,371991,299321,5408,154892,376210,372997,376863,NA,77655,376210,NA,Sternberg Task,44,30098,48,yes,1024
91.83673469,91.83673469,626.8367347,626.8367347,black,experiment,legacy,legacy,legacy,0,uniform,1,undefined,1,right,48,48,48,0,0,48,48,0,0,48,48,48,NA,0,48,0,10/26/19 20:50,The main experiment item,yes,SternbergTask.osexp,C:\Users\Jeanette\Desktop\Jeanette Master's\AQM&ED,no,mono,no,18,no,white,no,yes,768,legacy,36,11,C:/Users/Jeanette/Desktop/Jeanette Master's/AQM&ED/jh-subject-2.csv,legacy,8 4 3 5,Kafkaesque Koffka,3.2.8,0,n,0,right,right,right,right,NA,NA,617,72246,8234,617,NA,NA,2,legacy,4,1024,2,48000,-16,experiment,2,even,6,380224,376892,378010,5398,163127,378012,299321,5408,154892,382229,379017,382847,NA,77655,382229,NA,Sternberg Task,45,30715,49,yes,1024
92,92,626.72,626.72,black,experiment,legacy,legacy,legacy,0,uniform,1,undefined,1,right,49,49,49,0,0,49,49,0,0,49,49,49,NA,0,49,0,10/26/19 20:50,The main experiment item,yes,SternbergTask.osexp,C:\Users\Jeanette\Desktop\Jeanette Master's\AQM&ED,no,mono,no,18,no,white,no,yes,768,legacy,37,11,C:/Users/Jeanette/Desktop/Jeanette Master's/AQM&ED/jh-subject-2.csv,legacy,7 1 8 4 9 3,Kafkaesque Koffka,3.2.8,0,n,0,right,right,right,right,NA,NA,621,72246,8234,621,NA,NA,2,legacy,6,1024,2,48000,-16,experiment,2,even,6,386225,382897,384011,5398,163127,384014,299321,5408,154892,388232,385019,388854,NA,77655,388232,NA,Sternberg Task,46,31336,50,yes,1024
92.15686275,92.15686275,630.3137255,630.3137255,black,experiment,legacy,legacy,legacy,0,uniform,1,undefined,1,left,50,50,50,0,0,50,50,0,0,50,50,50,NA,0,50,0,10/26/19 20:50,The main experiment item,yes,SternbergTask.osexp,C:\Users\Jeanette\Desktop\Jeanette Master's\AQM&ED,no,mono,no,18,no,white,no,yes,768,legacy,38,11,C:/Users/Jeanette/Desktop/Jeanette Master's/AQM&ED/jh-subject-2.csv,legacy,3 4,Kafkaesque Koffka,3.2.8,1,y,0,left,right,right,left,NA,NA,810,72246,8234,810,NA,NA,2,legacy,2,1024,2,48000,-16,experiment,2,even,3,392221,388881,390009,5398,163127,390011,299321,5408,154892,394228,391016,395038,NA,77655,394228,NA,Sternberg Task,47,32146,51,yes,1024
90.38461538,90.38461538,629.0192308,629.0192308,black,experiment,legacy,legacy,legacy,0,uniform,0,undefined,0,left,51,51,51,0,0,51,51,0,0,51,51,51,NA,0,51,0,10/26/19 20:50,The main experiment item,yes,SternbergTask.osexp,C:\Users\Jeanette\Desktop\Jeanette Master's\AQM&ED,no,mono,no,18,no,white,no,yes,768,legacy,39,11,C:/Users/Jeanette/Desktop/Jeanette Master's/AQM&ED/jh-subject-2.csv,legacy,8 9 5 7 1 6,Kafkaesque Koffka,3.2.8,4,y,0,right,right,right,right,NA,NA,563,72246,8234,563,NA,NA,2,legacy,6,1024,2,48000,-16,experiment,2,even,7,398381,395065,396168,5398,163127,396170,299321,5408,154892,400387,397175,400951,NA,77655,400387,NA,Sternberg Task,47,32709,52,yes,1024
90.56603774,90.56603774,628.9245283,628.9245283,black,experiment,legacy,legacy,legacy,0,uniform,1,undefined,1,right,52,52,52,0,0,52,52,0,0,52,52,52,NA,0,52,0,10/26/19 20:50,The main experiment item,yes,SternbergTask.osexp,C:\Users\Jeanette\Desktop\Jeanette Master's\AQM&ED,no,mono,no,18,no,white,no,yes,768,legacy,40,11,C:/Users/Jeanette/Desktop/Jeanette Master's/AQM&ED/jh-subject-2.csv,legacy,4 1,Kafkaesque Koffka,3.2.8,0,n,0,right,right,right,right,NA,NA,624,72246,8234,624,NA,NA,2,legacy,2,1024,2,48000,-16,experiment,2,even,6,404312,395065,402099,5398,163127,402101,400975,5408,154892,406318,403106,406942,NA,77655,406318,NA,Sternberg Task,48,33333,53,yes,1024
88.88888889,88.88888889,626.7962963,626.7962963,black,experiment,legacy,legacy,legacy,0,uniform,0,undefined,0,left,53,53,53,0,0,53,53,0,0,53,53,53,NA,0,53,0,10/26/19 20:50,The main experiment item,yes,SternbergTask.osexp,C:\Users\Jeanette\Desktop\Jeanette Master's\AQM&ED,no,mono,no,18,no,white,no,yes,768,legacy,41,11,C:/Users/Jeanette/Desktop/Jeanette Master's/AQM&ED/jh-subject-2.csv,legacy,5 2 9 6 1 7,Kafkaesque Koffka,3.2.8,3,y,0,right,right,right,right,NA,NA,514,72246,8234,514,NA,NA,2,legacy,6,1024,2,48000,-16,experiment,2,even,9,410287,406966,408075,5398,163127,408077,400975,5408,154892,412292,409082,412807,NA,77655,412292,NA,Sternberg Task,48,33847,54,yes,1024
89.09090909,89.09090909,627.4727273,627.4727273,black,experiment,legacy,legacy,legacy,0,uniform,1,undefined,1,left,54,54,54,0,0,54,54,0,0,54,54,54,NA,0,54,0,10/26/19 20:50,The main experiment item,yes,SternbergTask.osexp,C:\Users\Jeanette\Desktop\Jeanette Master's\AQM&ED,no,mono,no,18,no,white,no,yes,768,legacy,42,11,C:/Users/Jeanette/Desktop/Jeanette Master's/AQM&ED/jh-subject-2.csv,legacy,7 8 4 6 9 5,Kafkaesque Koffka,3.2.8,4,y,0,left,right,right,left,NA,NA,664,72246,8234,664,NA,NA,2,legacy,6,1024,2,48000,-16,experiment,2,even,6,416175,406966,413963,5398,163127,413965,412834,5408,154892,418182,414970,418847,NA,77655,418181,NA,Sternberg Task,49,34511,55,yes,1024
89.28571429,89.28571429,629.8214286,629.8214286,black,experiment,legacy,legacy,legacy,0,uniform,1,undefined,1,right,55,55,55,0,0,55,55,0,0,55,55,55,NA,0,55,0,10/26/19 20:50,The main experiment item,yes,SternbergTask.osexp,C:\Users\Jeanette\Desktop\Jeanette Master's\AQM&ED,no,mono,no,18,no,white,no,yes,768,legacy,43,11,C:/Users/Jeanette/Desktop/Jeanette Master's/AQM&ED/jh-subject-2.csv,legacy,6 3 1 7 9 8,Kafkaesque Koffka,3.2.8,0,n,0,right,right,right,right,NA,NA,759,72246,8234,759,NA,NA,2,legacy,6,1024,2,48000,-16,experiment,2,even,4,422193,418868,419981,5398,163127,419983,412834,5408,154892,424199,420988,424959,NA,77655,424199,NA,Sternberg Task,50,35270,56,yes,1024
89.47368421,89.47368421,627,627,black,experiment,legacy,legacy,legacy,0,uniform,1,undefined,1,left,56,56,56,0,0,56,56,0,0,56,56,56,NA,0,56,0,10/26/19 20:50,The main experiment item,yes,SternbergTask.osexp,C:\Users\Jeanette\Desktop\Jeanette Master's\AQM&ED,no,mono,no,18,no,white,no,yes,768,legacy,44,11,C:/Users/Jeanette/Desktop/Jeanette Master's/AQM&ED/jh-subject-2.csv,legacy,9 8 4,Kafkaesque Koffka,3.2.8,1,y,0,left,right,right,left,NA,NA,469,72246,8234,469,NA,NA,2,legacy,3,1024,2,48000,-16,experiment,2,even,9,428315,424985,426100,5398,163127,426103,412834,5408,154892,430321,427109,430791,NA,77655,430321,NA,Sternberg Task,51,35739,57,yes,1024
87.93103448,87.93103448,624.3103448,624.3103448,black,experiment,legacy,legacy,legacy,0,uniform,0,undefined,0,left,57,57,57,0,0,57,57,0,0,57,57,57,NA,0,57,0,10/26/19 20:50,The main experiment item,yes,SternbergTask.osexp,C:\Users\Jeanette\Desktop\Jeanette Master's\AQM&ED,no,mono,no,18,no,white,no,yes,768,legacy,45,11,C:/Users/Jeanette/Desktop/Jeanette Master's/AQM&ED/jh-subject-2.csv,legacy,3 9 6 2,Kafkaesque Koffka,3.2.8,4,y,0,right,right,right,right,NA,NA,471,72246,8234,471,NA,NA,2,legacy,4,1024,2,48000,-16,experiment,2,even,2,434154,430811,431940,5398,163127,431943,412834,5408,154892,436159,432948,436631,NA,77655,436159,NA,Sternberg Task,51,36210,58,yes,1024
86.44067797,86.44067797,622.6440678,622.6440678,black,experiment,legacy,legacy,legacy,0,uniform,0,undefined,0,right,58,58,58,0,0,58,58,0,0,58,58,58,NA,0,58,0,10/26/19 20:50,The main experiment item,yes,SternbergTask.osexp,C:\Users\Jeanette\Desktop\Jeanette Master's\AQM&ED,no,mono,no,18,no,white,no,yes,768,legacy,46,11,C:/Users/Jeanette/Desktop/Jeanette Master's/AQM&ED/jh-subject-2.csv,legacy,2 8 9,Kafkaesque Koffka,3.2.8,0,n,0,left,right,right,left,NA,NA,526,72246,8234,526,NA,NA,2,legacy,3,1024,2,48000,-16,experiment,2,even,6,439986,430811,437773,5398,163127,437775,436657,5408,154892,441992,438780,442519,NA,77655,441991,NA,Sternberg Task,51,36736,59,yes,1024
86.66666667,86.66666667,622.1333333,622.1333333,black,experiment,legacy,legacy,legacy,0,uniform,1,undefined,1,left,59,59,59,0,0,59,59,0,0,59,59,59,NA,0,59,0,10/26/19 20:50,The main experiment item,yes,SternbergTask.osexp,C:\Users\Jeanette\Desktop\Jeanette Master's\AQM&ED,no,mono,no,18,no,white,no,yes,768,legacy,47,11,C:/Users/Jeanette/Desktop/Jeanette Master's/AQM&ED/jh-subject-2.csv,legacy,5 7 3 6 2,Kafkaesque Koffka,3.2.8,5,y,0,left,right,right,left,NA,NA,592,72246,8234,592,NA,NA,2,legacy,5,1024,2,48000,-16,experiment,2,even,2,445872,430811,443660,5398,163127,443662,442545,5408,154892,447878,444667,448471,NA,77655,447877,NA,Sternberg Task,52,37328,60,yes,1024
86.8852459,86.8852459,620.7704918,620.7704918,black,experiment,legacy,legacy,legacy,0,uniform,1,undefined,1,right,60,60,60,0,0,60,60,0,0,60,60,60,NA,0,60,0,10/26/19 20:50,The main experiment item,yes,SternbergTask.osexp,C:\Users\Jeanette\Desktop\Jeanette Master's\AQM&ED,no,mono,no,18,no,white,no,yes,768,legacy,48,11,C:/Users/Jeanette/Desktop/Jeanette Master's/AQM&ED/jh-subject-2.csv,legacy,1 6 4 3 9 7,Kafkaesque Koffka,3.2.8,0,n,0,right,right,right,right,NA,NA,539,72246,8234,539,NA,NA,2,legacy,6,1024,2,48000,-16,experiment,2,even,8,451830,448496,449618,5398,163127,449620,442545,5408,154892,453835,450625,454375,NA,77655,453835,NA,Sternberg Task,53,37867,61,yes,1024
87.09677419,87.09677419,618.6774194,618.6774194,black,experiment,legacy,legacy,legacy,0,uniform,1,undefined,1,right,61,61,61,0,0,61,61,0,0,61,61,61,NA,0,61,0,10/26/19 20:50,The main experiment item,yes,SternbergTask.osexp,C:\Users\Jeanette\Desktop\Jeanette Master's\AQM&ED,no,mono,no,18,no,white,no,yes,768,legacy,49,11,C:/Users/Jeanette/Desktop/Jeanette Master's/AQM&ED/jh-subject-2.csv,legacy,5,Kafkaesque Koffka,3.2.8,0,n,0,right,right,right,right,NA,NA,491,72246,8234,491,NA,NA,2,legacy,1,1024,2,48000,-16,experiment,2,even,8,457741,454400,455528,5398,163127,455530,442545,5408,154892,459747,456535,460239,NA,77655,459746,NA,Sternberg Task,54,38358,62,yes,1024
87.3015873,87.3015873,618.8571429,618.8571429,black,experiment,legacy,legacy,legacy,0,uniform,1,undefined,1,left,62,62,62,0,0,62,62,0,0,62,62,62,NA,0,62,0,10/26/19 20:50,The main experiment item,yes,SternbergTask.osexp,C:\Users\Jeanette\Desktop\Jeanette Master's\AQM&ED,no,mono,no,18,no,white,no,yes,768,legacy,50,11,C:/Users/Jeanette/Desktop/Jeanette Master's/AQM&ED/jh-subject-2.csv,legacy,6 5,Kafkaesque Koffka,3.2.8,2,y,0,left,right,right,left,NA,NA,630,72246,8234,630,NA,NA,2,legacy,2,1024,2,48000,-16,experiment,2,even,5,463594,460264,461382,5398,163127,461384,442545,5408,154892,465599,462389,466230,NA,77655,465599,NA,Sternberg Task,55,38988,63,yes,1024
87.5,87.5,618.34375,618.34375,black,experiment,legacy,legacy,legacy,0,uniform,1,undefined,1,right,63,63,63,0,0,63,63,0,0,63,63,63,NA,0,63,0,10/26/19 20:50,The main experiment item,yes,SternbergTask.osexp,C:\Users\Jeanette\Desktop\Jeanette Master's\AQM&ED,no,mono,no,18,no,white,no,yes,768,legacy,51,11,C:/Users/Jeanette/Desktop/Jeanette Master's/AQM&ED/jh-subject-2.csv,legacy,6 2 9 3 8 4,Kafkaesque Koffka,3.2.8,0,n,0,right,right,right,right,NA,NA,586,72246,8234,586,NA,NA,2,legacy,6,1024,2,48000,-16,experiment,2,even,1,469591,466257,467379,5398,163127,467381,442545,5408,154892,471596,468386,472183,NA,77655,471596,NA,Sternberg Task,56,39574,64,yes,1024
86.15384615,86.15384615,618.1076923,618.1076923,black,experiment,legacy,legacy,legacy,0,uniform,0,undefined,0,right,64,64,64,0,0,64,64,0,0,64,64,64,NA,0,64,0,10/26/19 20:50,The main experiment item,yes,SternbergTask.osexp,C:\Users\Jeanette\Desktop\Jeanette Master's\AQM&ED,no,mono,no,18,no,white,no,yes,768,legacy,52,11,C:/Users/Jeanette/Desktop/Jeanette Master's/AQM&ED/jh-subject-2.csv,legacy,2 8 9 4 1,Kafkaesque Koffka,3.2.8,0,n,0,left,right,right,left,NA,NA,603,72246,8234,603,NA,NA,2,legacy,5,1024,2,48000,-16,experiment,2,even,5,475518,472207,473305,5398,163127,473307,442545,5408,154892,477523,474312,478127,NA,77655,477523,NA,Sternberg Task,56,40177,65,yes,1024
86.36363636,86.36363636,616.6818182,616.6818182,black,experiment,legacy,legacy,legacy,0,uniform,1,undefined,1,left,65,65,65,0,0,65,65,0,0,65,65,65,NA,0,65,0,10/26/19 20:50,The main experiment item,yes,SternbergTask.osexp,C:\Users\Jeanette\Desktop\Jeanette Master's\AQM&ED,no,mono,no,18,no,white,no,yes,768,legacy,53,11,C:/Users/Jeanette/Desktop/Jeanette Master's/AQM&ED/jh-subject-2.csv,legacy,8 3,Kafkaesque Koffka,3.2.8,2,y,0,left,right,right,left,NA,NA,524,72246,8234,524,NA,NA,2,legacy,2,1024,2,48000,-16,experiment,2,even,3,481475,472207,479262,5398,163127,479265,478153,5408,154892,483482,480270,484007,NA,77655,483481,NA,Sternberg Task,57,40701,66,yes,1024
86.56716418,86.56716418,617.7313433,617.7313433,black,experiment,legacy,legacy,legacy,0,uniform,1,undefined,1,right,66,66,66,0,0,66,66,0,0,66,66,66,NA,0,66,0,10/26/19 20:50,The main experiment item,yes,SternbergTask.osexp,C:\Users\Jeanette\Desktop\Jeanette Master's\AQM&ED,no,mono,no,18,no,white,no,yes,768,legacy,54,11,C:/Users/Jeanette/Desktop/Jeanette Master's/AQM&ED/jh-subject-2.csv,legacy,7 4 2 8 1 9,Kafkaesque Koffka,3.2.8,0,n,0,right,right,right,right,NA,NA,687,72246,8234,687,NA,NA,2,legacy,6,1024,2,48000,-16,experiment,2,even,5,487352,484033,485139,5398,163127,485141,478153,5408,154892,489358,486146,490046,NA,77655,489357,NA,Sternberg Task,58,41388,67,yes,1024
86.76470588,86.76470588,616.9117647,616.9117647,black,experiment,legacy,legacy,legacy,0,uniform,1,undefined,1,left,67,67,67,0,0,67,67,0,0,67,67,67,NA,0,67,0,10/26/19 20:50,The main experiment item,yes,SternbergTask.osexp,C:\Users\Jeanette\Desktop\Jeanette Master's\AQM&ED,no,mono,no,18,no,white,no,yes,768,legacy,55,11,C:/Users/Jeanette/Desktop/Jeanette Master's/AQM&ED/jh-subject-2.csv,legacy,4 6 5 8,Kafkaesque Koffka,3.2.8,1,y,0,left,right,right,left,NA,NA,562,72246,8234,562,NA,NA,2,legacy,4,1024,2,48000,-16,experiment,2,even,4,493373,490067,491161,5398,163127,491163,478153,5408,154892,495380,492168,495943,NA,77655,495380,NA,Sternberg Task,59,41950,68,yes,1024
86.95652174,86.95652174,619.4782609,619.4782609,black,experiment,legacy,legacy,legacy,0,uniform,1,undefined,1,right,68,68,68,0,0,68,68,0,0,68,68,68,NA,0,68,0,10/26/19 20:50,The main experiment item,yes,SternbergTask.osexp,C:\Users\Jeanette\Desktop\Jeanette Master's\AQM&ED,no,mono,no,18,no,white,no,yes,768,legacy,56,11,C:/Users/Jeanette/Desktop/Jeanette Master's/AQM&ED/jh-subject-2.csv,legacy,1 4 9 3,Kafkaesque Koffka,3.2.8,0,n,0,right,right,right,right,NA,NA,794,72246,8234,794,NA,NA,2,legacy,4,1024,2,48000,-16,experiment,2,even,5,499311,495968,497098,5398,163127,497100,478153,5408,154892,501316,498105,502110,NA,77655,501316,NA,Sternberg Task,60,42744,69,yes,1024
87.14285714,87.14285714,621.1428571,621.1428571,black,experiment,legacy,legacy,legacy,0,uniform,1,undefined,1,left,69,69,69,0,0,69,69,0,0,69,69,69,NA,0,69,0,10/26/19 20:50,The main experiment item,yes,SternbergTask.osexp,C:\Users\Jeanette\Desktop\Jeanette Master's\AQM&ED,no,mono,no,18,no,white,no,yes,768,legacy,57,11,C:/Users/Jeanette/Desktop/Jeanette Master's/AQM&ED/jh-subject-2.csv,legacy,6 9 7 4 5 1,Kafkaesque Koffka,3.2.8,2,y,0,left,right,right,left,NA,NA,736,72246,8234,736,NA,NA,2,legacy,6,1024,2,48000,-16,experiment,2,even,9,505479,502130,503265,5398,163127,503267,478153,5408,154892,507485,504273,508222,NA,77655,507484,NA,Sternberg Task,61,43480,70,yes,1024
87.32394366,87.32394366,620.8732394,620.8732394,black,experiment,legacy,legacy,legacy,0,uniform,1,undefined,1,left,70,70,70,0,0,70,70,0,0,70,70,70,NA,0,70,0,10/26/19 20:50,The main experiment item,yes,SternbergTask.osexp,C:\Users\Jeanette\Desktop\Jeanette Master's\AQM&ED,no,mono,no,18,no,white,no,yes,768,legacy,58,11,C:/Users/Jeanette/Desktop/Jeanette Master's/AQM&ED/jh-subject-2.csv,legacy,6 9 3 1,Kafkaesque Koffka,3.2.8,4,y,0,left,right,right,left,NA,NA,602,72246,8234,602,NA,NA,2,legacy,4,1024,2,48000,-16,experiment,2,even,1,511566,508244,509353,5398,163127,509356,478153,5408,154892,513572,510361,514175,NA,77655,513571,NA,Sternberg Task,62,44082,71,yes,1024
87.5,87.5,620.7638889,620.7638889,black,experiment,legacy,legacy,legacy,0,uniform,1,undefined,1,right,71,71,71,0,0,71,71,0,0,71,71,71,NA,0,71,0,10/26/19 20:50,The main experiment item,yes,SternbergTask.osexp,C:\Users\Jeanette\Desktop\Jeanette Master's\AQM&ED,no,mono,no,18,no,white,no,yes,768,legacy,59,11,C:/Users/Jeanette/Desktop/Jeanette Master's/AQM&ED/jh-subject-2.csv,legacy,2 3 8 5 6 7,Kafkaesque Koffka,3.2.8,0,n,0,right,right,right,right,NA,NA,613,72246,8234,613,NA,NA,2,legacy,6,1024,2,48000,-16,experiment,2,even,1,517532,514195,515320,5398,163127,515322,478153,5408,154892,519537,516327,520150,NA,77655,519537,NA,Sternberg Task,63,44695,72,yes,1024
87.67123288,87.67123288,620.5342466,620.5342466,black,experiment,legacy,legacy,legacy,0,uniform,1,undefined,1,right,72,72,72,0,0,72,72,0,0,72,72,72,NA,0,72,0,10/26/19 20:50,The main experiment item,yes,SternbergTask.osexp,C:\Users\Jeanette\Desktop\Jeanette Master's\AQM&ED,no,mono,no,18,no,white,no,yes,768,legacy,60,11,C:/Users/Jeanette/Desktop/Jeanette Master's/AQM&ED/jh-subject-2.csv,legacy,7 8 6 1,Kafkaesque Koffka,3.2.8,0,n,0,right,right,right,right,NA,NA,604,72246,8234,604,NA,NA,2,legacy,4,1024,2,48000,-16,experiment,2,even,3,523500,520178,521288,5398,163127,521290,478153,5408,154892,525506,522295,526111,NA,77655,525506,NA,Sternberg Task,64,45299,73,yes,1024
87.83783784,87.83783784,622.3378378,622.3378378,black,experiment,legacy,legacy,legacy,0,uniform,1,undefined,1,right,73,73,73,0,0,73,73,0,0,73,73,73,NA,0,73,0,10/26/19 20:50,The main experiment item,yes,SternbergTask.osexp,C:\Users\Jeanette\Desktop\Jeanette Master's\AQM&ED,no,mono,no,18,no,white,no,yes,768,legacy,61,11,C:/Users/Jeanette/Desktop/Jeanette Master's/AQM&ED/jh-subject-2.csv,legacy,7 1 5 6 3,Kafkaesque Koffka,3.2.8,0,n,0,right,right,right,right,NA,NA,754,72246,8234,754,NA,NA,2,legacy,5,1024,2,48000,-16,experiment,2,even,8,529471,526138,527257,5398,163127,527260,478153,5408,154892,531476,528265,532231,NA,77655,531476,NA,Sternberg Task,65,46053,74,yes,1024
86.66666667,86.66666667,621.5466667,621.5466667,black,experiment,legacy,legacy,legacy,0,uniform,0,undefined,0,right,74,74,74,0,0,74,74,0,0,74,74,74,NA,0,74,0,10/26/19 20:50,The main experiment item,yes,SternbergTask.osexp,C:\Users\Jeanette\Desktop\Jeanette Master's\AQM&ED,no,mono,no,18,no,white,no,yes,768,legacy,62,11,C:/Users/Jeanette/Desktop/Jeanette Master's/AQM&ED/jh-subject-2.csv,legacy,6 7 5 9,Kafkaesque Koffka,3.2.8,0,n,0,left,right,right,left,NA,NA,563,72246,8234,563,NA,NA,2,legacy,4,1024,2,48000,-16,experiment,2,even,2,535596,532259,533384,5398,163127,533386,478153,5408,154892,537602,534391,538166,NA,77655,537602,NA,Sternberg Task,65,46616,75,yes,1024
86.84210526,86.84210526,618.9210526,618.9210526,black,experiment,legacy,legacy,legacy,0,uniform,1,undefined,1,left,75,75,75,0,0,75,75,0,0,75,75,75,NA,0,75,0,10/26/19 20:50,The main experiment item,yes,SternbergTask.osexp,C:\Users\Jeanette\Desktop\Jeanette Master's\AQM&ED,no,mono,no,18,no,white,no,yes,768,legacy,63,11,C:/Users/Jeanette/Desktop/Jeanette Master's/AQM&ED/jh-subject-2.csv,legacy,7 1 3,Kafkaesque Koffka,3.2.8,2,y,0,left,right,right,left,NA,NA,422,72246,8234,422,NA,NA,2,legacy,3,1024,2,48000,-16,experiment,2,even,1,541539,532259,539325,5398,163127,539328,538193,5408,154892,543544,540333,543967,NA,77655,543544,NA,Sternberg Task,66,47038,76,yes,1024
87.01298701,87.01298701,617.8311688,617.8311688,black,experiment,legacy,legacy,legacy,0,uniform,1,undefined,1,right,76,76,76,0,0,76,76,0,0,76,76,76,NA,0,76,0,10/26/19 20:50,The main experiment item,yes,SternbergTask.osexp,C:\Users\Jeanette\Desktop\Jeanette Master's\AQM&ED,no,mono,no,18,no,white,no,yes,768,legacy,64,11,C:/Users/Jeanette/Desktop/Jeanette Master's/AQM&ED/jh-subject-2.csv,legacy,5 3 8 7 2 4,Kafkaesque Koffka,3.2.8,0,n,0,right,right,right,right,NA,NA,535,72246,8234,535,NA,NA,2,legacy,6,1024,2,48000,-16,experiment,2,even,9,547321,543985,545108,5398,163127,545110,538193,5408,154892,549327,546116,549863,NA,77655,549326,NA,Sternberg Task,67,47573,77,yes,1024
87.17948718,87.17948718,618.3333333,618.3333333,black,experiment,legacy,legacy,legacy,0,uniform,1,undefined,1,right,77,77,77,0,0,77,77,0,0,77,77,77,NA,0,77,0,10/26/19 20:50,The main experiment item,yes,SternbergTask.osexp,C:\Users\Jeanette\Desktop\Jeanette Master's\AQM&ED,no,mono,no,18,no,white,no,yes,768,legacy,65,11,C:/Users/Jeanette/Desktop/Jeanette Master's/AQM&ED/jh-subject-2.csv,legacy,7 9 1 6,Kafkaesque Koffka,3.2.8,0,n,0,right,right,right,right,NA,NA,657,72246,8234,657,NA,NA,2,legacy,4,1024,2,48000,-16,experiment,2,even,4,553208,549878,550998,5398,163127,551001,538193,5408,154892,555213,552003,555871,NA,77655,555213,NA,Sternberg Task,68,48230,78,yes,1024
86.07594937,86.07594937,617.7594937,617.7594937,black,experiment,legacy,legacy,legacy,0,uniform,0,undefined,0,left,78,78,78,0,0,78,78,0,0,78,78,78,NA,0,78,0,10/26/19 20:50,The main experiment item,yes,SternbergTask.osexp,C:\Users\Jeanette\Desktop\Jeanette Master's\AQM&ED,no,mono,no,18,no,white,no,yes,768,legacy,66,11,C:/Users/Jeanette/Desktop/Jeanette Master's/AQM&ED/jh-subject-2.csv,legacy,4 3 2 5 8,Kafkaesque Koffka,3.2.8,2,y,0,right,right,right,right,NA,NA,573,72246,8234,573,NA,NA,2,legacy,5,1024,2,48000,-16,experiment,2,even,3,559228,555886,557016,5398,163127,557018,538193,5408,154892,561233,558023,561807,NA,77655,561233,NA,Sternberg Task,68,48803,79,yes,1024
86.25,86.25,618.0375,618.0375,black,experiment,legacy,legacy,legacy,0,uniform,1,undefined,1,right,79,79,79,0,0,79,79,0,0,79,79,79,NA,0,79,0,10/26/19 20:50,The main experiment item,yes,SternbergTask.osexp,C:\Users\Jeanette\Desktop\Jeanette Master's\AQM&ED,no,mono,no,18,no,white,no,yes,768,legacy,67,11,C:/Users/Jeanette/Desktop/Jeanette Master's/AQM&ED/jh-subject-2.csv,legacy,2 7 5,Kafkaesque Koffka,3.2.8,0,n,0,right,right,right,right,NA,NA,640,72246,8234,640,NA,NA,2,legacy,3,1024,2,48000,-16,experiment,2,even,8,565168,555886,562955,5398,163127,562958,561829,5408,154892,567174,563963,567815,NA,77655,567173,NA,Sternberg Task,69,49443,80,yes,1024
86.41975309,86.41975309,617.3333333,617.3333333,black,experiment,legacy,legacy,legacy,0,uniform,1,undefined,1,right,80,80,80,0,0,80,80,0,0,80,80,80,NA,0,80,0,10/26/19 20:50,The main experiment item,yes,SternbergTask.osexp,C:\Users\Jeanette\Desktop\Jeanette Master's\AQM&ED,no,mono,no,18,no,white,no,yes,768,legacy,68,11,C:/Users/Jeanette/Desktop/Jeanette Master's/AQM&ED/jh-subject-2.csv,legacy,2 8 7 9 5 3,Kafkaesque Koffka,3.2.8,0,n,0,right,right,right,right,NA,NA,561,72246,8234,561,NA,NA,2,legacy,6,1024,2,48000,-16,experiment,2,even,6,571166,567829,568952,5398,163127,568954,561829,5408,154892,573172,569961,573734,NA,77655,573172,NA,Sternberg Task,70,50004,81,yes,1024
86.58536585,86.58536585,616.1707317,616.1707317,black,experiment,legacy,legacy,legacy,0,uniform,1,undefined,1,left,81,81,81,0,0,81,81,0,0,81,81,81,NA,0,81,0,10/26/19 20:50,The main experiment item,yes,SternbergTask.osexp,C:\Users\Jeanette\Desktop\Jeanette Master's\AQM&ED,no,mono,no,18,no,white,no,yes,768,legacy,69,11,C:/Users/Jeanette/Desktop/Jeanette Master's/AQM&ED/jh-subject-2.csv,legacy,3 5 9 6 2 4,Kafkaesque Koffka,3.2.8,1,y,0,left,right,right,left,NA,NA,522,72246,8234,522,NA,NA,2,legacy,6,1024,2,48000,-16,experiment,2,even,3,577102,573755,574890,5398,163127,574893,561829,5408,154892,579108,575898,579631,NA,77655,579108,NA,Sternberg Task,71,50526,82,yes,1024
85.54216867,85.54216867,619.2409639,619.2409639,black,experiment,legacy,legacy,legacy,0,uniform,0,undefined,0,right,82,82,82,0,0,82,82,0,0,82,82,82,NA,0,82,0,10/26/19 20:50,The main experiment item,yes,SternbergTask.osexp,C:\Users\Jeanette\Desktop\Jeanette Master's\AQM&ED,no,mono,no,18,no,white,no,yes,768,legacy,70,11,C:/Users/Jeanette/Desktop/Jeanette Master's/AQM&ED/jh-subject-2.csv,legacy,5 3 2 6 9 8,Kafkaesque Koffka,3.2.8,0,n,0,left,right,right,left,NA,NA,871,72246,8234,871,NA,NA,2,legacy,6,1024,2,48000,-16,experiment,2,even,4,582985,579648,580772,5398,163127,580774,561829,5408,154892,584991,581780,585863,NA,77655,584991,NA,Sternberg Task,71,51397,83,yes,1024
85.71428571,85.71428571,622.6190476,622.6190476,black,experiment,legacy,legacy,legacy,0,uniform,1,undefined,1,left,83,83,83,0,0,83,83,0,0,83,83,83,NA,0,83,0,10/26/19 20:50,The main experiment item,yes,SternbergTask.osexp,C:\Users\Jeanette\Desktop\Jeanette Master's\AQM&ED,no,mono,no,18,no,white,no,yes,768,legacy,71,11,C:/Users/Jeanette/Desktop/Jeanette Master's/AQM&ED/jh-subject-2.csv,legacy,2 4 6 9,Kafkaesque Koffka,3.2.8,3,y,0,left,right,right,left,NA,NA,903,72246,8234,903,NA,NA,2,legacy,4,1024,2,48000,-16,experiment,2,even,6,589233,579648,587019,5398,163127,587021,585892,5408,154892,591239,588026,592143,NA,77655,591239,NA,Sternberg Task,72,52300,84,yes,1024
84.70588235,84.70588235,621.6,621.6,black,experiment,legacy,legacy,legacy,0,uniform,0,undefined,0,left,84,84,84,0,0,84,84,0,0,84,84,84,NA,0,84,0,10/26/19 20:50,The main experiment item,yes,SternbergTask.osexp,C:\Users\Jeanette\Desktop\Jeanette Master's\AQM&ED,no,mono,no,18,no,white,no,yes,768,legacy,72,11,C:/Users/Jeanette/Desktop/Jeanette Master's/AQM&ED/jh-subject-2.csv,legacy,8 1 6,Kafkaesque Koffka,3.2.8,3,y,0,right,right,right,right,NA,NA,536,72246,8234,536,NA,NA,2,legacy,3,1024,2,48000,-16,experiment,2,even,6,595496,592166,593282,5398,163127,593285,585892,5408,154892,597502,594290,598039,NA,77655,597502,NA,Sternberg Task,72,52836,85,yes,1024
84.88372093,84.88372093,623.9418605,623.9418605,black,experiment,legacy,legacy,legacy,0,uniform,1,undefined,1,left,85,85,85,0,0,85,85,0,0,85,85,85,NA,0,85,0,10/26/19 20:50,The main experiment item,yes,SternbergTask.osexp,C:\Users\Jeanette\Desktop\Jeanette Master's\AQM&ED,no,mono,no,18,no,white,no,yes,768,legacy,73,11,C:/Users/Jeanette/Desktop/Jeanette Master's/AQM&ED/jh-subject-2.csv,legacy,8 9 6 1,Kafkaesque Koffka,3.2.8,2,y,0,left,right,right,left,NA,NA,823,72246,8234,823,NA,NA,2,legacy,4,1024,2,48000,-16,experiment,2,even,9,601377,592166,599165,5398,163127,599167,598066,5408,154892,603383,600171,604207,NA,77655,603383,NA,Sternberg Task,73,53659,86,yes,1024
85.05747126,85.05747126,624.5402299,624.5402299,black,experiment,legacy,legacy,legacy,0,uniform,1,undefined,1,left,86,86,86,0,0,86,86,0,0,86,86,86,NA,0,86,0,10/26/19 20:50,The main experiment item,yes,SternbergTask.osexp,C:\Users\Jeanette\Desktop\Jeanette Master's\AQM&ED,no,mono,no,18,no,white,no,yes,768,legacy,74,11,C:/Users/Jeanette/Desktop/Jeanette Master's/AQM&ED/jh-subject-2.csv,legacy,8 5 3 7 4 6,Kafkaesque Koffka,3.2.8,6,y,0,left,right,right,left,NA,NA,676,72246,8234,676,NA,NA,2,legacy,6,1024,2,48000,-16,experiment,2,even,6,607541,604225,605328,5398,163127,605330,598066,5408,154892,609546,606335,610223,NA,77655,609546,NA,Sternberg Task,74,54335,87,yes,1024
85.22727273,85.22727273,623.6477273,623.6477273,black,experiment,legacy,legacy,legacy,0,uniform,1,undefined,1,left,87,87,87,0,0,87,87,0,0,87,87,87,NA,0,87,0,10/26/19 20:50,The main experiment item,yes,SternbergTask.osexp,C:\Users\Jeanette\Desktop\Jeanette Master's\AQM&ED,no,mono,no,18,no,white,no,yes,768,legacy,75,11,C:/Users/Jeanette/Desktop/Jeanette Master's/AQM&ED/jh-subject-2.csv,legacy,6 7 8 5,Kafkaesque Koffka,3.2.8,3,y,0,left,right,right,left,NA,NA,546,72246,8234,546,NA,NA,2,legacy,4,1024,2,48000,-16,experiment,2,even,8,613566,610242,611352,5398,163127,611354,598066,5408,154892,615572,612361,616119,NA,77655,615572,NA,Sternberg Task,75,54881,88,yes,1024
85.39325843,85.39325843,621.7640449,621.7640449,black,experiment,legacy,legacy,legacy,0,uniform,1,undefined,1,left,88,88,88,0,0,88,88,0,0,88,88,88,NA,0,88,0,10/26/19 20:50,The main experiment item,yes,SternbergTask.osexp,C:\Users\Jeanette\Desktop\Jeanette Master's\AQM&ED,no,mono,no,18,no,white,no,yes,768,legacy,76,11,C:/Users/Jeanette/Desktop/Jeanette Master's/AQM&ED/jh-subject-2.csv,legacy,9 3 1 2 5,Kafkaesque Koffka,3.2.8,4,y,0,left,right,right,left,NA,NA,456,72246,8234,456,NA,NA,2,legacy,5,1024,2,48000,-16,experiment,2,even,2,619473,616143,617261,5398,163127,617263,598066,5408,154892,621478,618268,621935,NA,77655,621478,NA,Sternberg Task,76,55337,89,yes,1024
85.55555556,85.55555556,619.9333333,619.9333333,black,experiment,legacy,legacy,legacy,0,uniform,1,undefined,1,left,89,89,89,0,0,89,89,0,0,89,89,89,NA,0,89,0,10/26/19 20:50,The main experiment item,yes,SternbergTask.osexp,C:\Users\Jeanette\Desktop\Jeanette Master's\AQM&ED,no,mono,no,18,no,white,no,yes,768,legacy,77,11,C:/Users/Jeanette/Desktop/Jeanette Master's/AQM&ED/jh-subject-2.csv,legacy,4,Kafkaesque Koffka,3.2.8,1,y,0,left,right,right,left,NA,NA,457,72246,8234,457,NA,NA,2,legacy,1,1024,2,48000,-16,experiment,2,even,4,625288,621960,623075,5398,163127,623077,598066,5408,154892,627293,624082,627751,NA,77655,627293,NA,Sternberg Task,77,55794,90,yes,1024
85.71428571,85.71428571,619.5934066,619.5934066,black,experiment,legacy,legacy,legacy,0,uniform,1,undefined,1,left,90,90,90,0,0,90,90,0,0,90,90,90,NA,0,90,0,10/26/19 20:50,The main experiment item,yes,SternbergTask.osexp,C:\Users\Jeanette\Desktop\Jeanette Master's\AQM&ED,no,mono,no,18,no,white,no,yes,768,legacy,78,11,C:/Users/Jeanette/Desktop/Jeanette Master's/AQM&ED/jh-subject-2.csv,legacy,6 7 9 3 1 2,Kafkaesque Koffka,3.2.8,1,y,0,left,right,right,left,NA,NA,589,72246,8234,589,NA,NA,2,legacy,6,1024,2,48000,-16,experiment,2,even,6,631115,627778,628901,5398,163127,628904,598066,5408,154892,633121,629909,633711,NA,77655,633121,NA,Sternberg Task,78,56383,91,yes,1024
85.86956522,85.86956522,620.423913,620.423913,black,experiment,legacy,legacy,legacy,0,uniform,1,undefined,1,right,91,91,91,0,0,91,91,0,0,91,91,91,NA,0,91,0,10/26/19 20:50,The main experiment item,yes,SternbergTask.osexp,C:\Users\Jeanette\Desktop\Jeanette Master's\AQM&ED,no,mono,no,18,no,white,no,yes,768,legacy,79,11,C:/Users/Jeanette/Desktop/Jeanette Master's/AQM&ED/jh-subject-2.csv,legacy,1 7 5 2 9,Kafkaesque Koffka,3.2.8,0,n,0,right,right,right,right,NA,NA,696,72246,8234,696,NA,NA,2,legacy,5,1024,2,48000,-16,experiment,2,even,3,637056,633729,634843,5398,163127,634846,598066,5408,154892,639062,635851,639759,NA,77655,639061,NA,Sternberg Task,79,57079,92,yes,1024
86.02150538,86.02150538,619.9784946,619.9784946,black,experiment,legacy,legacy,legacy,0,uniform,1,undefined,1,left,92,92,92,0,0,92,92,0,0,92,92,92,NA,0,92,0,10/26/19 20:50,The main experiment item,yes,SternbergTask.osexp,C:\Users\Jeanette\Desktop\Jeanette Master's\AQM&ED,no,mono,no,18,no,white,no,yes,768,legacy,80,11,C:/Users/Jeanette/Desktop/Jeanette Master's/AQM&ED/jh-subject-2.csv,legacy,9 5 3 8 4,Kafkaesque Koffka,3.2.8,1,y,0,left,right,right,left,NA,NA,579,72246,8234,579,NA,NA,2,legacy,5,1024,2,48000,-16,experiment,2,even,9,643117,639787,640905,5398,163127,640907,598066,5408,154892,645123,641912,645703,NA,77655,645123,NA,Sternberg Task,80,57658,93,yes,1024
86.17021277,86.17021277,618.4042553,618.4042553,black,experiment,legacy,legacy,legacy,0,uniform,1,undefined,1,left,93,93,93,0,0,93,93,0,0,93,93,93,NA,0,93,0,10/26/19 20:50,The main experiment item,yes,SternbergTask.osexp,C:\Users\Jeanette\Desktop\Jeanette Master's\AQM&ED,no,mono,no,18,no,white,no,yes,768,legacy,81,11,C:/Users/Jeanette/Desktop/Jeanette Master's/AQM&ED/jh-subject-2.csv,legacy,9 1 6 7 8,Kafkaesque Koffka,3.2.8,1,y,0,left,right,right,left,NA,NA,472,72246,8234,472,NA,NA,2,legacy,5,1024,2,48000,-16,experiment,2,even,9,649055,645722,646841,5398,163127,646844,598066,5408,154892,651062,647849,651535,NA,77655,651062,NA,Sternberg Task,81,58130,94,yes,1024
86.31578947,86.31578947,618.6210526,618.6210526,black,experiment,legacy,legacy,legacy,0,uniform,1,undefined,1,left,94,94,94,0,0,94,94,0,0,94,94,94,NA,0,94,0,10/26/19 20:50,The main experiment item,yes,SternbergTask.osexp,C:\Users\Jeanette\Desktop\Jeanette Master's\AQM&ED,no,mono,no,18,no,white,no,yes,768,legacy,82,11,C:/Users/Jeanette/Desktop/Jeanette Master's/AQM&ED/jh-subject-2.csv,legacy,2 6 1 7 4,Kafkaesque Koffka,3.2.8,2,y,0,left,right,right,left,NA,NA,639,72246,8234,639,NA,NA,2,legacy,5,1024,2,48000,-16,experiment,2,even,6,654873,651556,652660,5398,163127,652663,598066,5408,154892,656879,653668,657519,NA,77655,656879,NA,Sternberg Task,82,58769,95,yes,1024
86.45833333,86.45833333,617.5729167,617.5729167,black,experiment,legacy,legacy,legacy,0,uniform,1,undefined,1,left,95,95,95,0,0,95,95,0,0,95,95,95,NA,0,95,0,10/26/19 20:50,The main experiment item,yes,SternbergTask.osexp,C:\Users\Jeanette\Desktop\Jeanette Master's\AQM&ED,no,mono,no,18,no,white,no,yes,768,legacy,83,11,C:/Users/Jeanette/Desktop/Jeanette Master's/AQM&ED/jh-subject-2.csv,legacy,4 1 5,Kafkaesque Koffka,3.2.8,2,y,0,left,right,right,left,NA,NA,518,72246,8234,518,NA,NA,2,legacy,3,1024,2,48000,-16,experiment,2,even,1,660854,657540,658640,5398,163127,658642,598066,5408,154892,662856,659649,663375,NA,77655,662856,NA,Sternberg Task,83,59287,96,yes,1024
86.59793814,86.59793814,617.257732,617.257732,black,experiment,legacy,legacy,legacy,0,uniform,1,undefined,1,right,96,96,96,0,0,96,96,0,0,96,96,96,NA,0,96,0,10/26/19 20:50,The main experiment item,yes,SternbergTask.osexp,C:\Users\Jeanette\Desktop\Jeanette Master's\AQM&ED,no,mono,no,18,no,white,no,yes,768,legacy,84,11,C:/Users/Jeanette/Desktop/Jeanette Master's/AQM&ED/jh-subject-2.csv,legacy,2 5 1 4,Kafkaesque Koffka,3.2.8,0,n,0,right,right,right,right,NA,NA,587,72246,8234,587,NA,NA,2,legacy,4,1024,2,48000,-16,experiment,2,even,6,666725,663399,664513,5398,163127,664515,598066,5408,154892,668731,665520,669319,NA,77655,668730,NA,Sternberg Task,84,59874,97,yes,1024
86.73469388,86.73469388,617.1122449,617.1122449,black,experiment,legacy,legacy,legacy,0,uniform,1,undefined,1,right,97,97,97,0,0,97,97,0,0,97,97,97,NA,0,97,0,10/26/19 20:50,The main experiment item,yes,SternbergTask.osexp,C:\Users\Jeanette\Desktop\Jeanette Master's\AQM&ED,no,mono,no,18,no,white,no,yes,768,legacy,85,11,C:/Users/Jeanette/Desktop/Jeanette Master's/AQM&ED/jh-subject-2.csv,legacy,1 7 5 2,Kafkaesque Koffka,3.2.8,0,n,0,right,right,right,right,NA,NA,603,72246,8234,603,NA,NA,2,legacy,4,1024,2,48000,-16,experiment,2,even,3,672693,669341,670481,5398,163127,670483,598066,5408,154892,674699,671488,675303,NA,77655,674699,NA,Sternberg Task,85,60477,98,yes,1024
86.86868687,86.86868687,616.1313131,616.1313131,black,experiment,legacy,legacy,legacy,0,uniform,1,undefined,1,right,98,98,98,0,0,98,98,0,0,98,98,98,NA,0,98,0,10/26/19 20:50,The main experiment item,yes,SternbergTask.osexp,C:\Users\Jeanette\Desktop\Jeanette Master's\AQM&ED,no,mono,no,18,no,white,no,yes,768,legacy,86,11,C:/Users/Jeanette/Desktop/Jeanette Master's/AQM&ED/jh-subject-2.csv,legacy,8 4 3 9,Kafkaesque Koffka,3.2.8,0,n,0,right,right,right,right,NA,NA,520,72246,8234,520,NA,NA,2,legacy,4,1024,2,48000,-16,experiment,2,even,5,678656,675325,676442,5398,163127,676445,598066,5408,154892,680662,677450,681183,NA,77655,680662,NA,Sternberg Task,86,60997,99,yes,1024
87,87,614.86,614.86,black,experiment,legacy,legacy,legacy,0,uniform,1,undefined,1,right,99,99,99,0,0,99,99,0,0,99,99,99,NA,0,99,0,10/26/19 20:50,The main experiment item,yes,SternbergTask.osexp,C:\Users\Jeanette\Desktop\Jeanette Master's\AQM&ED,no,mono,no,18,no,white,no,yes,768,legacy,87,11,C:/Users/Jeanette/Desktop/Jeanette Master's/AQM&ED/jh-subject-2.csv,legacy,1 4 9 2 5,Kafkaesque Koffka,3.2.8,0,n,0,right,right,right,right,NA,NA,489,72246,8234,489,NA,NA,2,legacy,5,1024,2,48000,-16,experiment,2,even,7,684519,681200,682305,5398,163127,682308,598066,5408,154892,686525,683313,687015,NA,77655,686525,NA,Sternberg Task,87,61486,100,yes,1024
87.12871287,87.12871287,616.3663366,616.3663366,black,experiment,legacy,legacy,legacy,0,uniform,1,undefined,1,right,100,100,100,0,0,100,100,0,0,100,100,100,NA,0,100,0,10/26/19 20:50,The main experiment item,yes,SternbergTask.osexp,C:\Users\Jeanette\Desktop\Jeanette Master's\AQM&ED,no,mono,no,18,no,white,no,yes,768,legacy,88,11,C:/Users/Jeanette/Desktop/Jeanette Master's/AQM&ED/jh-subject-2.csv,legacy,3 4 9 6 7 8,Kafkaesque Koffka,3.2.8,0,n,0,right,right,right,right,NA,NA,767,72246,8234,767,NA,NA,2,legacy,6,1024,2,48000,-16,experiment,2,even,2,690370,687054,688156,5398,163127,688158,598066,5408,154892,692375,689163,693143,NA,77655,692375,NA,Sternberg Task,88,62253,101,yes,1024
87.25490196,87.25490196,616.254902,616.254902,black,experiment,legacy,legacy,legacy,0,uniform,1,undefined,1,right,101,101,101,0,0,101,101,0,0,101,101,101,NA,0,101,0,10/26/19 20:50,The main experiment item,yes,SternbergTask.osexp,C:\Users\Jeanette\Desktop\Jeanette Master's\AQM&ED,no,mono,no,18,no,white,no,yes,768,legacy,89,11,C:/Users/Jeanette/Desktop/Jeanette Master's/AQM&ED/jh-subject-2.csv,legacy,8 5 4 2 9 6,Kafkaesque Koffka,3.2.8,0,n,0,right,right,right,right,NA,NA,605,72246,8234,605,NA,NA,2,legacy,6,1024,2,48000,-16,experiment,2,even,3,696491,693160,694278,5398,163127,694281,598066,5408,154892,698497,695286,699103,NA,77655,698497,NA,Sternberg Task,89,62858,102,yes,1024
87.37864078,87.37864078,616.5631068,616.5631068,black,experiment,legacy,legacy,legacy,0,uniform,1,undefined,1,left,102,102,102,0,0,102,102,0,0,102,102,102,NA,0,102,0,10/26/19 20:50,The main experiment item,yes,SternbergTask.osexp,C:\Users\Jeanette\Desktop\Jeanette Master's\AQM&ED,no,mono,no,18,no,white,no,yes,768,legacy,90,11,C:/Users/Jeanette/Desktop/Jeanette Master's/AQM&ED/jh-subject-2.csv,legacy,8 9 5 6 7,Kafkaesque Koffka,3.2.8,1,y,0,left,right,right,left,NA,NA,648,72246,8234,648,NA,NA,2,legacy,5,1024,2,48000,-16,experiment,2,even,8,702454,699127,700240,5398,163127,700242,598066,5408,154892,704462,701249,705111,NA,77655,704462,NA,Sternberg Task,90,63506,103,yes,1024
87.5,87.5,615.8076923,615.8076923,black,experiment,legacy,legacy,legacy,0,uniform,1,undefined,1,right,103,103,103,0,0,103,103,0,0,103,103,103,NA,0,103,0,10/26/19 20:50,The main experiment item,yes,SternbergTask.osexp,C:\Users\Jeanette\Desktop\Jeanette Master's\AQM&ED,no,mono,no,18,no,white,no,yes,768,legacy,91,11,C:/Users/Jeanette/Desktop/Jeanette Master's/AQM&ED/jh-subject-2.csv,legacy,9,Kafkaesque Koffka,3.2.8,0,n,0,right,right,right,right,NA,NA,538,72246,8234,538,NA,NA,2,legacy,1,1024,2,48000,-16,experiment,2,even,6,708454,705129,706242,5398,163127,706244,598066,5408,154892,710460,707249,710999,NA,77655,710459,NA,Sternberg Task,91,64044,104,yes,1024
87.61904762,87.61904762,615.0380952,615.0380952,black,experiment,legacy,legacy,legacy,0,uniform,1,undefined,1,right,104,104,104,0,0,104,104,0,0,104,104,104,NA,0,104,0,10/26/19 20:50,The main experiment item,yes,SternbergTask.osexp,C:\Users\Jeanette\Desktop\Jeanette Master's\AQM&ED,no,mono,no,18,no,white,no,yes,768,legacy,92,11,C:/Users/Jeanette/Desktop/Jeanette Master's/AQM&ED/jh-subject-2.csv,legacy,1 6 4,Kafkaesque Koffka,3.2.8,0,n,0,right,right,right,right,NA,NA,535,72246,8234,535,NA,NA,2,legacy,3,1024,2,48000,-16,experiment,2,even,7,714353,711021,712140,5398,163127,712143,598066,5408,154892,716359,713148,716895,NA,77655,716359,NA,Sternberg Task,92,64579,105,yes,1024
87.73584906,87.73584906,613.7169811,613.7169811,black,experiment,legacy,legacy,legacy,0,uniform,1,undefined,1,right,105,105,105,0,0,105,105,0,0,105,105,105,NA,0,105,0,10/26/19 20:50,The main experiment item,yes,SternbergTask.osexp,C:\Users\Jeanette\Desktop\Jeanette Master's\AQM&ED,no,mono,no,18,no,white,no,yes,768,legacy,93,11,C:/Users/Jeanette/Desktop/Jeanette Master's/AQM&ED/jh-subject-2.csv,legacy,7 9,Kafkaesque Koffka,3.2.8,0,n,0,right,right,right,right,NA,NA,475,72246,8234,475,NA,NA,2,legacy,2,1024,2,48000,-16,experiment,2,even,1,720245,716921,718033,5398,163127,718035,598066,5408,154892,722251,719040,722727,NA,77655,722251,NA,Sternberg Task,93,65054,106,yes,1024
87.85046729,87.85046729,615.3271028,615.3271028,black,experiment,legacy,legacy,legacy,0,uniform,1,undefined,1,left,106,106,106,0,0,106,106,0,0,106,106,106,NA,0,106,0,10/26/19 20:50,The main experiment item,yes,SternbergTask.osexp,C:\Users\Jeanette\Desktop\Jeanette Master's\AQM&ED,no,mono,no,18,no,white,no,yes,768,legacy,94,11,C:/Users/Jeanette/Desktop/Jeanette Master's/AQM&ED/jh-subject-2.csv,legacy,7 4 2 6 3 5,Kafkaesque Koffka,3.2.8,6,y,0,left,right,right,left,NA,NA,786,72246,8234,786,NA,NA,2,legacy,6,1024,2,48000,-16,experiment,2,even,5,726093,722746,723879,5398,163127,723881,598066,5408,154892,728099,724887,728887,NA,77655,728099,NA,Sternberg Task,94,65840,107,yes,1024
87.96296296,87.96296296,614.7222222,614.7222222,black,experiment,legacy,legacy,legacy,0,uniform,1,undefined,1,left,107,107,107,0,0,107,107,0,0,107,107,107,NA,0,107,0,10/26/19 20:50,The main experiment item,yes,SternbergTask.osexp,C:\Users\Jeanette\Desktop\Jeanette Master's\AQM&ED,no,mono,no,18,no,white,no,yes,768,legacy,95,11,C:/Users/Jeanette/Desktop/Jeanette Master's/AQM&ED/jh-subject-2.csv,legacy,9 5 8 1,Kafkaesque Koffka,3.2.8,2,y,0,left,right,right,left,NA,NA,550,72246,8234,550,NA,NA,2,legacy,4,1024,2,48000,-16,experiment,2,even,5,732242,728905,730030,5398,163127,730032,598066,5408,154892,734248,731037,734799,NA,77655,734248,NA,Sternberg Task,95,66390,108,yes,1024
88.0733945,88.0733945,614.3761468,614.3761468,black,experiment,legacy,legacy,legacy,0,uniform,1,undefined,1,left,108,108,108,0,0,108,108,0,0,108,108,108,NA,0,108,0,10/26/19 20:50,The main experiment item,yes,SternbergTask.osexp,C:\Users\Jeanette\Desktop\Jeanette Master's\AQM&ED,no,mono,no,18,no,white,no,yes,768,legacy,96,11,C:/Users/Jeanette/Desktop/Jeanette Master's/AQM&ED/jh-subject-2.csv,legacy,9 6 2 4 1,Kafkaesque Koffka,3.2.8,4,y,0,left,right,right,left,NA,NA,577,72246,8234,577,NA,NA,2,legacy,5,1024,2,48000,-16,experiment,2,even,4,738152,734815,735940,5398,163127,735942,598066,5408,154892,740157,736947,740735,NA,77655,740157,NA,Sternberg Task,96,66967,109,yes,1024
87.27272727,87.27272727,615.4454545,615.4454545,black,experiment,legacy,legacy,legacy,0,uniform,0,undefined,0,left,109,109,109,0,0,109,109,0,0,109,109,109,NA,0,109,0,10/26/19 20:50,The main experiment item,yes,SternbergTask.osexp,C:\Users\Jeanette\Desktop\Jeanette Master's\AQM&ED,no,mono,no,18,no,white,no,yes,768,legacy,97,11,C:/Users/Jeanette/Desktop/Jeanette Master's/AQM&ED/jh-subject-2.csv,legacy,4 7 6 8 2 3,Kafkaesque Koffka,3.2.8,6,y,0,right,right,right,right,NA,NA,732,72246,8234,732,NA,NA,2,legacy,6,1024,2,48000,-16,experiment,2,even,3,744084,740757,741875,5398,163127,741877,598066,5408,154892,746090,742879,746824,NA,77655,746090,NA,Sternberg Task,96,67699,110,yes,1024
87.38738739,87.38738739,615.3333333,615.3333333,black,experiment,legacy,legacy,legacy,0,uniform,1,undefined,1,right,110,110,110,0,0,110,110,0,0,110,110,110,NA,0,110,0,10/26/19 20:50,The main experiment item,yes,SternbergTask.osexp,C:\Users\Jeanette\Desktop\Jeanette Master's\AQM&ED,no,mono,no,18,no,white,no,yes,768,legacy,98,11,C:/Users/Jeanette/Desktop/Jeanette Master's/AQM&ED/jh-subject-2.csv,legacy,1 8 7,Kafkaesque Koffka,3.2.8,0,n,0,right,right,right,right,NA,NA,603,72246,8234,603,NA,NA,2,legacy,3,1024,2,48000,-16,experiment,2,even,4,750214,740757,748002,5398,163127,748004,746887,5408,154892,752219,749009,752823,NA,77655,752219,NA,Sternberg Task,97,68302,111,yes,1024
87.5,87.5,615.5803571,615.5803571,black,experiment,legacy,legacy,legacy,0,uniform,1,undefined,1,right,111,111,111,0,0,111,111,0,0,111,111,111,NA,0,111,0,10/26/19 20:50,The main experiment item,yes,SternbergTask.osexp,C:\Users\Jeanette\Desktop\Jeanette Master's\AQM&ED,no,mono,no,18,no,white,no,yes,768,legacy,99,11,C:/Users/Jeanette/Desktop/Jeanette Master's/AQM&ED/jh-subject-2.csv,legacy,1 3 2 6 9,Kafkaesque Koffka,3.2.8,0,n,0,right,right,right,right,NA,NA,643,72246,8234,643,NA,NA,2,legacy,5,1024,2,48000,-16,experiment,2,even,5,756205,752850,753993,5398,163127,753995,746887,5408,154892,758211,755000,758855,NA,77655,758211,NA,Sternberg Task,98,68945,112,yes,1024
87.61061947,87.61061947,615.5486726,615.5486726,black,experiment,legacy,legacy,legacy,0,uniform,1,undefined,1,right,112,112,112,0,0,112,112,0,0,112,112,112,NA,0,112,0,10/26/19 20:50,The main experiment item,yes,SternbergTask.osexp,C:\Users\Jeanette\Desktop\Jeanette Master's\AQM&ED,no,mono,no,18,no,white,no,yes,768,legacy,100,11,C:/Users/Jeanette/Desktop/Jeanette Master's/AQM&ED/jh-subject-2.csv,legacy,4 2 6 9,Kafkaesque Koffka,3.2.8,0,n,0,right,right,right,right,NA,NA,612,72246,8234,612,NA,NA,2,legacy,4,1024,2,48000,-16,experiment,2,even,7,762197,758876,759984,5398,163127,759986,746887,5408,154892,764202,760991,764816,NA,77655,764202,NA,Sternberg Task,99,69557,113,yes,1024
87.71929825,87.71929825,614.5964912,614.5964912,black,experiment,legacy,legacy,legacy,0,uniform,1,undefined,1,left,113,113,113,0,0,113,113,0,0,113,113,113,NA,0,113,0,10/26/19 20:50,The main experiment item,yes,SternbergTask.osexp,C:\Users\Jeanette\Desktop\Jeanette Master's\AQM&ED,no,mono,no,18,no,white,no,yes,768,legacy,101,11,C:/Users/Jeanette/Desktop/Jeanette Master's/AQM&ED/jh-subject-2.csv,legacy,3 5 7 1,Kafkaesque Koffka,3.2.8,3,y,0,left,right,right,left,NA,NA,507,72246,8234,507,NA,NA,2,legacy,4,1024,2,48000,-16,experiment,2,even,7,768157,764835,765944,5398,163127,765946,746887,5408,154892,770163,766951,770672,NA,77655,770162,NA,Sternberg Task,100,70064,114,yes,1024
87.82608696,87.82608696,613.4956522,613.4956522,black,experiment,legacy,legacy,legacy,0,uniform,1,undefined,1,right,114,114,114,0,0,114,114,0,0,114,114,114,NA,0,114,0,10/26/19 20:50,The main experiment item,yes,SternbergTask.osexp,C:\Users\Jeanette\Desktop\Jeanette Master's\AQM&ED,no,mono,no,18,no,white,no,yes,768,legacy,102,11,C:/Users/Jeanette/Desktop/Jeanette Master's/AQM&ED/jh-subject-2.csv,legacy,5 2,Kafkaesque Koffka,3.2.8,0,n,0,right,right,right,right,NA,NA,488,72246,8234,488,NA,NA,2,legacy,2,1024,2,48000,-16,experiment,2,even,7,774009,770686,771797,5398,163127,771799,746887,5408,154892,776014,772804,776503,NA,77655,776014,NA,Sternberg Task,101,70552,115,yes,1024
87.93103448,87.93103448,613.1034483,613.1034483,black,experiment,legacy,legacy,legacy,0,uniform,1,undefined,1,left,115,115,115,0,0,115,115,0,0,115,115,115,NA,0,115,0,10/26/19 20:50,The main experiment item,yes,SternbergTask.osexp,C:\Users\Jeanette\Desktop\Jeanette Master's\AQM&ED,no,mono,no,18,no,white,no,yes,768,legacy,103,11,C:/Users/Jeanette/Desktop/Jeanette Master's/AQM&ED/jh-subject-2.csv,legacy,6 1 2,Kafkaesque Koffka,3.2.8,3,y,0,left,right,right,left,NA,NA,568,72246,8234,568,NA,NA,2,legacy,3,1024,2,48000,-16,experiment,2,even,2,779831,776519,777618,5398,163127,777621,746887,5408,154892,781837,778626,782407,NA,77655,781837,NA,Sternberg Task,102,71120,116,yes,1024
88.03418803,88.03418803,612.3760684,612.3760684,black,experiment,legacy,legacy,legacy,0,uniform,1,undefined,1,left,116,116,116,0,0,116,116,0,0,116,116,116,NA,0,116,0,10/26/19 20:50,The main experiment item,yes,SternbergTask.osexp,C:\Users\Jeanette\Desktop\Jeanette Master's\AQM&ED,no,mono,no,18,no,white,no,yes,768,legacy,104,11,C:/Users/Jeanette/Desktop/Jeanette Master's/AQM&ED/jh-subject-2.csv,legacy,4 1 8 7 5,Kafkaesque Koffka,3.2.8,3,y,0,left,right,right,left,NA,NA,528,72246,8234,528,NA,NA,2,legacy,5,1024,2,48000,-16,experiment,2,even,8,785724,782428,783510,5398,163127,783513,746887,5408,154892,787726,784519,788255,NA,77655,787726,NA,Sternberg Task,103,71648,117,yes,1024
88.13559322,88.13559322,613.2542373,613.2542373,black,experiment,legacy,legacy,legacy,0,uniform,1,undefined,1,right,117,117,117,0,0,117,117,0,0,117,117,117,NA,0,117,0,10/26/19 20:50,The main experiment item,yes,SternbergTask.osexp,C:\Users\Jeanette\Desktop\Jeanette Master's\AQM&ED,no,mono,no,18,no,white,no,yes,768,legacy,105,11,C:/Users/Jeanette/Desktop/Jeanette Master's/AQM&ED/jh-subject-2.csv,legacy,9 7 4 5 8,Kafkaesque Koffka,3.2.8,0,n,0,right,right,right,right,NA,NA,716,72246,8234,716,NA,NA,2,legacy,5,1024,2,48000,-16,experiment,2,even,6,791588,788270,789376,5398,163127,789378,746887,5408,154892,793594,790383,794311,NA,77655,793594,NA,Sternberg Task,104,72364,118,yes,1024
88.23529412,88.23529412,613.6302521,613.6302521,black,experiment,legacy,legacy,legacy,0,uniform,1,undefined,1,left,118,118,118,0,0,118,118,0,0,118,118,118,NA,0,118,0,10/26/19 20:50,The main experiment item,yes,SternbergTask.osexp,C:\Users\Jeanette\Desktop\Jeanette Master's\AQM&ED,no,mono,no,18,no,white,no,yes,768,legacy,106,11,C:/Users/Jeanette/Desktop/Jeanette Master's/AQM&ED/jh-subject-2.csv,legacy,7 2 3,Kafkaesque Koffka,3.2.8,3,y,0,left,right,right,left,NA,NA,658,72246,8234,658,NA,NA,2,legacy,3,1024,2,48000,-16,experiment,2,even,3,797671,794329,795458,5398,163127,795460,746887,5408,154892,799676,796465,800336,NA,77655,799676,NA,Sternberg Task,105,73022,119,yes,1024
88.33333333,88.33333333,612.7583333,612.7583333,black,experiment,legacy,legacy,legacy,0,uniform,1,undefined,1,right,119,119,119,0,0,119,119,0,0,119,119,119,NA,0,119,0,10/26/19 20:50,The main experiment item,yes,SternbergTask.osexp,C:\Users\Jeanette\Desktop\Jeanette Master's\AQM&ED,no,mono,no,18,no,white,no,yes,768,legacy,107,11,C:/Users/Jeanette/Desktop/Jeanette Master's/AQM&ED/jh-subject-2.csv,legacy,5 7 3,Kafkaesque Koffka,3.2.8,0,n,0,right,right,right,right,NA,NA,509,72246,8234,509,NA,NA,2,legacy,3,1024,2,48000,-16,experiment,2,even,9,803682,800356,801469,5398,163127,801471,746887,5408,154892,805688,802476,806199,NA,77655,805688,NA,Sternberg Task,106,73531,120,yes,1024
88.42975207,88.42975207,612.4958678,612.4958678,black,experiment,legacy,legacy,legacy,0,uniform,1,undefined,1,left,120,120,120,0,0,120,120,0,0,120,120,120,NA,0,120,0,10/26/19 20:50,The main experiment item,yes,SternbergTask.osexp,C:\Users\Jeanette\Desktop\Jeanette Master's\AQM&ED,no,mono,no,18,no,white,no,yes,768,legacy,108,11,C:/Users/Jeanette/Desktop/Jeanette Master's/AQM&ED/jh-subject-2.csv,legacy,9 4 2,Kafkaesque Koffka,3.2.8,1,y,0,left,right,right,left,NA,NA,581,72246,8234,581,NA,NA,2,legacy,3,1024,2,48000,-16,experiment,2,even,9,809554,806222,807341,5398,163127,807344,746887,5408,154892,811560,808349,812143,NA,77655,811560,NA,Sternberg Task,107,74112,121,yes,1024
88.52459016,88.52459016,611.7704918,611.7704918,black,experiment,legacy,legacy,legacy,0,uniform,1,undefined,1,right,121,121,121,0,0,121,121,0,0,121,121,121,NA,0,121,0,10/26/19 20:50,The main experiment item,yes,SternbergTask.osexp,C:\Users\Jeanette\Desktop\Jeanette Master's\AQM&ED,no,mono,no,18,no,white,no,yes,768,legacy,109,11,C:/Users/Jeanette/Desktop/Jeanette Master's/AQM&ED/jh-subject-2.csv,legacy,4 2 7 6 1 3,Kafkaesque Koffka,3.2.8,0,n,0,right,right,right,right,NA,NA,524,72246,8234,524,NA,NA,2,legacy,6,1024,2,48000,-16,experiment,2,even,8,815523,812194,813311,5398,163127,813313,746887,5408,154892,817530,814318,818055,NA,77655,817530,NA,Sternberg Task,108,74636,122,yes,1024
88.61788618,88.61788618,613.4146341,613.4146341,black,experiment,legacy,legacy,legacy,0,uniform,1,undefined,1,left,122,122,122,0,0,122,122,0,0,122,122,122,NA,0,122,0,10/26/19 20:50,The main experiment item,yes,SternbergTask.osexp,C:\Users\Jeanette\Desktop\Jeanette Master's\AQM&ED,no,mono,no,18,no,white,no,yes,768,legacy,110,11,C:/Users/Jeanette/Desktop/Jeanette Master's/AQM&ED/jh-subject-2.csv,legacy,1 4 9 3 2 5,Kafkaesque Koffka,3.2.8,3,y,0,left,right,right,left,NA,NA,814,72246,8234,814,NA,NA,2,legacy,6,1024,2,48000,-16,experiment,2,even,9,821386,818074,819174,5398,163127,819176,746887,5408,154892,823391,820181,824207,NA,77655,823391,NA,Sternberg Task,109,75450,123,yes,1024
87.90322581,87.90322581,612.5806452,612.5806452,black,experiment,legacy,legacy,legacy,0,uniform,0,undefined,0,left,123,123,123,0,0,123,123,0,0,123,123,123,NA,0,123,0,10/26/19 20:50,The main experiment item,yes,SternbergTask.osexp,C:\Users\Jeanette\Desktop\Jeanette Master's\AQM&ED,no,mono,no,18,no,white,no,yes,768,legacy,111,11,C:/Users/Jeanette/Desktop/Jeanette Master's/AQM&ED/jh-subject-2.csv,legacy,8 5 1 3 9,Kafkaesque Koffka,3.2.8,4,y,0,right,right,right,right,NA,NA,510,72246,8234,510,NA,NA,2,legacy,5,1024,2,48000,-16,experiment,2,even,3,827553,824224,825340,5398,163127,825343,746887,5408,154892,829559,826348,830071,NA,77655,829559,NA,Sternberg Task,109,75960,124,yes,1024
88,88,612.28,612.28,black,experiment,legacy,legacy,legacy,0,uniform,1,undefined,1,left,124,124,124,0,0,124,124,0,0,124,124,124,NA,0,124,0,10/26/19 20:50,The main experiment item,yes,SternbergTask.osexp,C:\Users\Jeanette\Desktop\Jeanette Master's\AQM&ED,no,mono,no,18,no,white,no,yes,768,legacy,112,11,C:/Users/Jeanette/Desktop/Jeanette Master's/AQM&ED/jh-subject-2.csv,legacy,2 5 4 8 7,Kafkaesque Koffka,3.2.8,3,y,0,left,right,right,left,NA,NA,575,72246,8234,575,NA,NA,2,legacy,5,1024,2,48000,-16,experiment,2,even,4,833433,824224,831218,5398,163127,831221,830091,5408,154892,835439,832227,836015,NA,77655,835439,NA,Sternberg Task,110,76535,125,yes,1024
88.0952381,88.0952381,613.8571429,613.8571429,black,experiment,legacy,legacy,legacy,0,uniform,1,undefined,1,right,125,125,125,0,0,125,125,0,0,125,125,125,NA,0,125,0,10/26/19 20:50,The main experiment item,yes,SternbergTask.osexp,C:\Users\Jeanette\Desktop\Jeanette Master's\AQM&ED,no,mono,no,18,no,white,no,yes,768,legacy,113,11,C:/Users/Jeanette/Desktop/Jeanette Master's/AQM&ED/jh-subject-2.csv,legacy,6 9 7 3 8 2,Kafkaesque Koffka,3.2.8,0,n,0,right,right,right,right,NA,NA,811,72246,8234,811,NA,NA,2,legacy,6,1024,2,48000,-16,experiment,2,even,5,839350,836034,837137,5398,163127,837139,830091,5408,154892,841355,838144,842168,NA,77655,841355,NA,Sternberg Task,111,77346,126,yes,1024
88.18897638,88.18897638,613.480315,613.480315,black,experiment,legacy,legacy,legacy,0,uniform,1,undefined,1,right,126,126,126,0,0,126,126,0,0,126,126,126,NA,0,126,0,10/26/19 20:50,The main experiment item,yes,SternbergTask.osexp,C:\Users\Jeanette\Desktop\Jeanette Master's\AQM&ED,no,mono,no,18,no,white,no,yes,768,legacy,114,11,C:/Users/Jeanette/Desktop/Jeanette Master's/AQM&ED/jh-subject-2.csv,legacy,5 9 2 3,Kafkaesque Koffka,3.2.8,0,n,0,right,right,right,right,NA,NA,566,72246,8234,566,NA,NA,2,legacy,4,1024,2,48000,-16,experiment,2,even,8,845515,842185,843302,5398,163127,843304,830091,5408,154892,847520,844309,848087,NA,77655,847520,NA,Sternberg Task,112,77912,127,yes,1024
88.28125,88.28125,614.0859375,614.0859375,black,experiment,legacy,legacy,legacy,0,uniform,1,undefined,1,left,127,127,127,0,0,127,127,0,0,127,127,127,NA,0,127,0,10/26/19 20:50,The main experiment item,yes,SternbergTask.osexp,C:\Users\Jeanette\Desktop\Jeanette Master's\AQM&ED,no,mono,no,18,no,white,no,yes,768,legacy,115,11,C:/Users/Jeanette/Desktop/Jeanette Master's/AQM&ED/jh-subject-2.csv,legacy,7,Kafkaesque Koffka,3.2.8,1,y,0,left,right,right,left,NA,NA,691,72246,8234,691,NA,NA,2,legacy,1,1024,2,48000,-16,experiment,2,even,7,851436,848110,849222,5398,163127,849224,830091,5408,154892,853442,850231,854135,NA,77655,853441,NA,Sternberg Task,113,78603,128,yes,1024
88.37209302,88.37209302,613.8527132,613.8527132,black,experiment,legacy,legacy,legacy,0,uniform,1,undefined,1,right,128,128,128,0,0,128,128,0,0,128,128,128,NA,0,128,0,10/26/19 20:50,The main experiment item,yes,SternbergTask.osexp,C:\Users\Jeanette\Desktop\Jeanette Master's\AQM&ED,no,mono,no,18,no,white,no,yes,768,legacy,116,11,C:/Users/Jeanette/Desktop/Jeanette Master's/AQM&ED/jh-subject-2.csv,legacy,6 9 4 5 2,Kafkaesque Koffka,3.2.8,0,n,0,right,right,right,right,NA,NA,584,72246,8234,584,NA,NA,2,legacy,5,1024,2,48000,-16,experiment,2,even,1,857495,854162,855281,5398,163127,855283,830091,5408,154892,859501,856289,860087,NA,77655,859500,NA,Sternberg Task,114,79187,129,yes,1024
88.46153846,88.46153846,615.2538462,615.2538462,black,experiment,legacy,legacy,legacy,0,uniform,1,undefined,1,left,129,129,129,0,0,129,129,0,0,129,129,129,NA,0,129,0,10/26/19 20:50,The main experiment item,yes,SternbergTask.osexp,C:\Users\Jeanette\Desktop\Jeanette Master's\AQM&ED,no,mono,no,18,no,white,no,yes,768,legacy,117,11,C:/Users/Jeanette/Desktop/Jeanette Master's/AQM&ED/jh-subject-2.csv,legacy,2 8 5 1,Kafkaesque Koffka,3.2.8,4,y,0,left,right,right,left,NA,NA,796,72246,8234,796,NA,NA,2,legacy,4,1024,2,48000,-16,experiment,2,even,1,863413,860103,861200,5398,163127,861203,830091,5408,154892,865418,862208,866215,NA,77655,865418,NA,Sternberg Task,115,79983,130,yes,1024
88.54961832,88.54961832,614.8396947,614.8396947,black,experiment,legacy,legacy,legacy,0,uniform,1,undefined,1,right,130,130,130,0,0,130,130,0,0,130,130,130,NA,0,130,0,10/26/19 20:50,The main experiment item,yes,SternbergTask.osexp,C:\Users\Jeanette\Desktop\Jeanette Master's\AQM&ED,no,mono,no,18,no,white,no,yes,768,legacy,118,11,C:/Users/Jeanette/Desktop/Jeanette Master's/AQM&ED/jh-subject-2.csv,legacy,8 2 1 4 5 9,Kafkaesque Koffka,3.2.8,0,n,0,right,right,right,right,NA,NA,561,72246,8234,561,NA,NA,2,legacy,6,1024,2,48000,-16,experiment,2,even,7,869559,866238,867346,5398,163127,867348,830091,5408,154892,871565,868354,872127,NA,77655,871564,NA,Sternberg Task,116,80544,131,yes,1024
88.63636364,88.63636364,613.8712121,613.8712121,black,experiment,legacy,legacy,legacy,0,uniform,1,undefined,1,left,131,131,131,0,0,131,131,0,0,131,131,131,NA,0,131,0,10/26/19 20:50,The main experiment item,yes,SternbergTask.osexp,C:\Users\Jeanette\Desktop\Jeanette Master's\AQM&ED,no,mono,no,18,no,white,no,yes,768,legacy,119,11,C:/Users/Jeanette/Desktop/Jeanette Master's/AQM&ED/jh-subject-2.csv,legacy,2 4 8 5 1 3,Kafkaesque Koffka,3.2.8,1,y,0,left,right,right,left,NA,NA,487,72246,8234,487,NA,NA,2,legacy,6,1024,2,48000,-16,experiment,2,even,2,875464,872146,873251,5398,163127,873253,830091,5408,154892,877471,874258,877960,NA,77655,877471,NA,Sternberg Task,117,81031,132,yes,1024
88.72180451,88.72180451,614.3759399,614.3759399,black,experiment,legacy,legacy,legacy,0,uniform,1,undefined,1,right,132,132,132,0,0,132,132,0,0,132,132,132,NA,0,132,0,10/26/19 20:50,The main experiment item,yes,SternbergTask.osexp,C:\Users\Jeanette\Desktop\Jeanette Master's\AQM&ED,no,mono,no,18,no,white,no,yes,768,legacy,120,11,C:/Users/Jeanette/Desktop/Jeanette Master's/AQM&ED/jh-subject-2.csv,legacy,9 5 3 2 8 6,Kafkaesque Koffka,3.2.8,0,n,0,right,right,right,right,NA,NA,681,72246,8234,681,NA,NA,2,legacy,6,1024,2,48000,-16,experiment,2,even,7,881310,877981,879097,5398,163127,879100,830091,5408,154892,883317,880105,883999,NA,77655,883317,NA,Sternberg Task,118,81712,133,yes,1024
88.80597015,88.80597015,613.9253731,613.9253731,black,experiment,legacy,legacy,legacy,0,uniform,1,undefined,1,right,133,133,133,0,0,133,133,0,0,133,133,133,NA,0,133,0,10/26/19 20:50,The main experiment item,yes,SternbergTask.osexp,C:\Users\Jeanette\Desktop\Jeanette Master's\AQM&ED,no,mono,no,18,no,white,no,yes,768,legacy,121,11,C:/Users/Jeanette/Desktop/Jeanette Master's/AQM&ED/jh-subject-2.csv,legacy,8 5 7 3 6,Kafkaesque Koffka,3.2.8,0,n,0,right,right,right,right,NA,NA,554,72246,8234,554,NA,NA,2,legacy,5,1024,2,48000,-16,experiment,2,even,9,887342,884014,885130,5398,163127,885132,830091,5408,154892,889347,886137,889903,NA,77655,889347,NA,Sternberg Task,119,82266,134,yes,1024
88.88888889,88.88888889,612.6148148,612.6148148,black,experiment,legacy,legacy,legacy,0,uniform,1,undefined,1,left,134,134,134,0,0,134,134,0,0,134,134,134,NA,0,134,0,10/26/19 20:50,The main experiment item,yes,SternbergTask.osexp,C:\Users\Jeanette\Desktop\Jeanette Master's\AQM&ED,no,mono,no,18,no,white,no,yes,768,legacy,122,11,C:/Users/Jeanette/Desktop/Jeanette Master's/AQM&ED/jh-subject-2.csv,legacy,3 2 1 4 7,Kafkaesque Koffka,3.2.8,2,y,0,left,right,right,left,NA,NA,437,72246,8234,437,NA,NA,2,legacy,5,1024,2,48000,-16,experiment,2,even,2,893243,889923,891029,5398,163127,891031,830091,5408,154892,895249,892036,895688,NA,77655,895249,NA,Sternberg Task,120,82703,135,yes,1024
88.97058824,88.97058824,611.6838235,611.6838235,black,experiment,legacy,legacy,legacy,0,uniform,1,undefined,1,left,135,135,135,0,0,135,135,0,0,135,135,135,NA,0,135,0,10/26/19 20:50,The main experiment item,yes,SternbergTask.osexp,C:\Users\Jeanette\Desktop\Jeanette Master's\AQM&ED,no,mono,no,18,no,white,no,yes,768,legacy,123,11,C:/Users/Jeanette/Desktop/Jeanette Master's/AQM&ED/jh-subject-2.csv,legacy,8,Kafkaesque Koffka,3.2.8,1,y,0,left,right,right,left,NA,NA,486,72246,8234,486,NA,NA,2,legacy,1,1024,2,48000,-16,experiment,2,even,8,899048,895707,896834,5398,163127,896836,830091,5408,154892,901056,897841,901543,NA,77655,901055,NA,Sternberg Task,121,83189,136,yes,1024
89.05109489,89.05109489,611.2481752,611.2481752,black,experiment,legacy,legacy,legacy,0,uniform,1,undefined,1,left,136,136,136,0,0,136,136,0,0,136,136,136,NA,0,136,0,10/26/19 20:50,The main experiment item,yes,SternbergTask.osexp,C:\Users\Jeanette\Desktop\Jeanette Master's\AQM&ED,no,mono,no,18,no,white,no,yes,768,legacy,124,11,C:/Users/Jeanette/Desktop/Jeanette Master's/AQM&ED/jh-subject-2.csv,legacy,4 6 2 5 1,Kafkaesque Koffka,3.2.8,5,y,0,left,right,right,left,NA,NA,552,72246,8234,552,NA,NA,2,legacy,5,1024,2,48000,-16,experiment,2,even,1,904879,901566,902666,5398,163127,902669,830091,5408,154892,906886,903674,907439,NA,77655,906886,NA,Sternberg Task,122,83741,137,yes,1024
89.13043478,89.13043478,609.942029,609.942029,black,experiment,legacy,legacy,legacy,0,uniform,1,undefined,1,left,137,137,137,0,0,137,137,0,0,137,137,137,NA,0,137,0,10/26/19 20:50,The main experiment item,yes,SternbergTask.osexp,C:\Users\Jeanette\Desktop\Jeanette Master's\AQM&ED,no,mono,no,18,no,white,no,yes,768,legacy,125,11,C:/Users/Jeanette/Desktop/Jeanette Master's/AQM&ED/jh-subject-2.csv,legacy,7 8 6 3 1,Kafkaesque Koffka,3.2.8,5,y,0,left,right,right,left,NA,NA,431,72246,8234,431,NA,NA,2,legacy,5,1024,2,48000,-16,experiment,2,even,1,910792,907459,908582,5398,163127,908584,830091,5408,154892,912799,909587,913231,NA,77655,912798,NA,Sternberg Task,123,84172,138,yes,1024