acc,accuracy,average_response_time,avg_rt,background,block,canvas_backend,clock_backend,color_backend,compensation,coordinates,correct,correct_instruction1,correct_keyboard_response,correct_response,count_ISI,count_correctFeedback,count_expSequence,count_experiment,count_fixation,count_incorrectFeedback,count_instruction1,count_instruction2,count_keyboard_response,count_logger,count_memorySet,count_new_loop,count_practiceLoop,count_probe,count_thankYou,datetime,description,disable_garbage_collection,experiment_file,experiment_path,font_bold,font_family,font_italic,font_size,font_underline,foreground,form_clicks,fullscreen,height,keyboard_backend,live_row,live_row_practiceLoop,logfile,mouse_backend,numberSet,opensesame_codename,opensesame_version,posInSet,present,repeat_cycle,response,response_instruction1,response_instruction2,response_keyboard_response,response_thankYou,response_time,response_time_instruction1,response_time_instruction2,response_time_keyboard_response,response_time_thankYou,round_decimals,sampler_backend,setSize,sound_buf_size,sound_channels,sound_freq,sound_sample_size,start,subject_nr,subject_parity,target,time_ISI,time_correctFeedback,time_expSequence,time_experiment,time_fixation,time_incorrectFeedback,time_instruction1,time_instruction2,time_keyboard_response,time_logger,time_memorySet,time_new_loop,time_practiceLoop,time_probe,time_thankYou,title,total_correct,total_response_time,total_responses,uniform_coordinates,width
100,100,660,660,black,practice,legacy,legacy,legacy,0,uniform,1,undefined,1,left,0,0,0,0,0,0,0,0,0,0,0,0,0,0,0,10/27/19 15:46,sternberg task,yes,sternbergtask.osexp,C:/Users/DLGoupil/Desktop,no,mono,no,18,no,white,no,yes,768,legacy,0,0,C:/Users/DLGoupil/Desktop/dg-subject-2.csv,legacy,6,Kafkaesque Koffka,3.2.8,1,y,0,left,right,NA,left,NA,660,2255,NA,660,NA,2,legacy,1,1024,2,48000,-16,experiment,2,even,6,7448,NA,5240,2044,5242,NA,2048,NA,9451,10112,6245,NA,4304,9451,NA,New experiment,1,660,1,yes,1024
100,100,887.5,887.5,black,practice,legacy,legacy,legacy,0,uniform,1,undefined,1,right,1,1,1,0,1,1,0,0,1,1,1,0,0,1,0,10/27/19 15:46,sternberg task,yes,sternbergtask.osexp,C:/Users/DLGoupil/Desktop,no,mono,no,18,no,white,no,yes,768,legacy,1,1,C:/Users/DLGoupil/Desktop/dg-subject-2.csv,legacy,4 1 5,Kafkaesque Koffka,3.2.8,0,n,0,right,right,NA,right,NA,1115,2255,NA,1115,NA,2,legacy,3,1024,2,48000,-16,experiment,2,even,2,13537,10185,11329,2044,11331,NA,2048,NA,15540,16656,12334,NA,4304,15540,NA,New experiment,2,1775,2,yes,1024
100,100,962,962,black,practice,legacy,legacy,legacy,0,uniform,1,undefined,1,left,2,2,2,0,2,2,0,0,2,2,2,0,0,2,0,10/27/19 15:46,sternberg task,yes,sternbergtask.osexp,C:/Users/DLGoupil/Desktop,no,mono,no,18,no,white,no,yes,768,legacy,2,2,C:/Users/DLGoupil/Desktop/dg-subject-2.csv,legacy,1 7 9 8 5,Kafkaesque Koffka,3.2.8,4,y,0,left,right,NA,left,NA,1111,2255,NA,1111,NA,2,legacy,5,1024,2,48000,-16,experiment,2,even,8,20013,16661,17804,2044,17806,NA,2048,NA,22016,23128,18810,NA,4304,22016,NA,New experiment,3,2886,3,yes,1024
100,100,937.75,937.75,black,practice,legacy,legacy,legacy,0,uniform,1,undefined,1,left,3,3,3,0,3,3,0,0,3,3,3,0,0,3,0,10/27/19 15:46,sternberg task,yes,sternbergtask.osexp,C:/Users/DLGoupil/Desktop,no,mono,no,18,no,white,no,yes,768,legacy,3,3,C:/Users/DLGoupil/Desktop/dg-subject-2.csv,legacy,2 9 4,Kafkaesque Koffka,3.2.8,3,y,0,left,right,NA,left,NA,865,2255,NA,865,NA,2,legacy,3,1024,2,48000,-16,experiment,2,even,4,26475,23133,24267,2044,24269,NA,2048,NA,28478,29344,25272,NA,4304,28478,NA,New experiment,4,3751,4,yes,1024
100,100,919.6,919.6,black,practice,legacy,legacy,legacy,0,uniform,1,undefined,1,right,4,4,4,0,4,4,0,0,4,4,4,0,0,4,0,10/27/19 15:46,sternberg task,yes,sternbergtask.osexp,C:/Users/DLGoupil/Desktop,no,mono,no,18,no,white,no,yes,768,legacy,4,4,C:/Users/DLGoupil/Desktop/dg-subject-2.csv,legacy,3 1 9 4,Kafkaesque Koffka,3.2.8,0,n,0,right,right,NA,right,NA,847,2255,NA,847,NA,2,legacy,4,1024,2,48000,-16,experiment,2,even,6,32701,29349,30492,2044,30495,NA,2048,NA,34704,35552,31498,NA,4304,34704,NA,New experiment,5,4598,5,yes,1024
100,100,982.8333333,982.8333333,black,practice,legacy,legacy,legacy,0,uniform,1,undefined,1,right,5,5,5,0,5,5,0,0,5,5,5,0,0,5,0,10/27/19 15:46,sternberg task,yes,sternbergtask.osexp,C:/Users/DLGoupil/Desktop,no,mono,no,18,no,white,no,yes,768,legacy,5,5,C:/Users/DLGoupil/Desktop/dg-subject-2.csv,legacy,5 7 8 4 1 2,Kafkaesque Koffka,3.2.8,0,n,0,right,right,NA,right,NA,1299,2255,NA,1299,NA,2,legacy,6,1024,2,48000,-16,experiment,2,even,6,38897,35557,36688,2044,36691,NA,2048,NA,40900,42199,37694,NA,4304,40900,NA,New experiment,6,5897,6,yes,1024
100,100,953.2857143,953.2857143,black,practice,legacy,legacy,legacy,0,uniform,1,undefined,1,left,6,6,6,0,6,6,0,0,6,6,6,0,0,6,0,10/27/19 15:46,sternberg task,yes,sternbergtask.osexp,C:/Users/DLGoupil/Desktop,no,mono,no,18,no,white,no,yes,768,legacy,6,6,C:/Users/DLGoupil/Desktop/dg-subject-2.csv,legacy,4 3 1 7 9 8,Kafkaesque Koffka,3.2.8,1,y,0,left,right,NA,left,NA,776,2255,NA,776,NA,2,legacy,6,1024,2,48000,-16,experiment,2,even,4,45548,42204,43340,2044,43342,NA,2048,NA,47551,48328,44345,NA,4304,47551,NA,New experiment,7,6673,7,yes,1024
100,100,939.375,939.375,black,practice,legacy,legacy,legacy,0,uniform,1,undefined,1,right,7,7,7,0,7,7,0,0,7,7,7,0,0,7,0,10/27/19 15:46,sternberg task,yes,sternbergtask.osexp,C:/Users/DLGoupil/Desktop,no,mono,no,18,no,white,no,yes,768,legacy,7,7,C:/Users/DLGoupil/Desktop/dg-subject-2.csv,legacy,5,Kafkaesque Koffka,3.2.8,0,n,0,right,right,NA,right,NA,842,2255,NA,842,NA,2,legacy,1,1024,2,48000,-16,experiment,2,even,3,51674,48333,49466,2044,49468,NA,2048,NA,53677,54520,50471,NA,4304,53677,NA,New experiment,8,7515,8,yes,1024
100,100,946.4444444,946.4444444,black,practice,legacy,legacy,legacy,0,uniform,1,undefined,1,right,8,8,8,0,8,8,0,0,8,8,8,0,0,8,0,10/27/19 15:46,sternberg task,yes,sternbergtask.osexp,C:/Users/DLGoupil/Desktop,no,mono,no,18,no,white,no,yes,768,legacy,8,8,C:/Users/DLGoupil/Desktop/dg-subject-2.csv,legacy,2 1,Kafkaesque Koffka,3.2.8,0,n,0,right,right,NA,right,NA,1003,2255,NA,1003,NA,2,legacy,2,1024,2,48000,-16,experiment,2,even,5,57872,54525,55665,2044,55667,NA,2048,NA,59876,60880,56670,NA,4304,59876,NA,New experiment,9,8518,9,yes,1024
100,100,931.3,931.3,black,practice,legacy,legacy,legacy,0,uniform,1,undefined,1,left,9,9,9,0,9,9,0,0,9,9,9,0,0,9,0,10/27/19 15:46,sternberg task,yes,sternbergtask.osexp,C:/Users/DLGoupil/Desktop,no,mono,no,18,no,white,no,yes,768,legacy,9,9,C:/Users/DLGoupil/Desktop/dg-subject-2.csv,legacy,4 8,Kafkaesque Koffka,3.2.8,1,y,0,left,right,NA,left,NA,795,2255,NA,795,NA,2,legacy,2,1024,2,48000,-16,experiment,2,even,4,64233,60884,62025,2044,62027,NA,2048,NA,66236,67032,63030,NA,4304,66236,NA,New experiment,10,9313,10,yes,1024
100,100,928.3636364,928.3636364,black,practice,legacy,legacy,legacy,0,uniform,1,undefined,1,right,10,10,10,0,10,10,0,0,10,10,10,0,0,10,0,10/27/19 15:46,sternberg task,yes,sternbergtask.osexp,C:/Users/DLGoupil/Desktop,no,mono,no,18,no,white,no,yes,768,legacy,10,10,C:/Users/DLGoupil/Desktop/dg-subject-2.csv,legacy,9 6 7 4 5,Kafkaesque Koffka,3.2.8,0,n,0,right,right,NA,right,NA,899,2255,NA,899,NA,2,legacy,5,1024,2,48000,-16,experiment,2,even,3,70385,67037,68176,2044,68179,NA,2048,NA,72388,73288,69182,NA,4304,72388,NA,New experiment,11,10212,11,yes,1024
100,100,927.75,927.75,black,practice,legacy,legacy,legacy,0,uniform,1,undefined,1,left,11,11,11,0,11,11,0,0,11,11,11,0,0,11,0,10/27/19 15:46,sternberg task,yes,sternbergtask.osexp,C:/Users/DLGoupil/Desktop,no,mono,no,18,no,white,no,yes,768,legacy,11,11,C:/Users/DLGoupil/Desktop/dg-subject-2.csv,legacy,1 5 2 9,Kafkaesque Koffka,3.2.8,2,y,0,left,right,NA,left,NA,921,2255,NA,921,NA,2,legacy,4,1024,2,48000,-16,experiment,2,even,5,76635,73293,74427,2044,74429,NA,2048,NA,78638,79560,75432,NA,4304,78638,NA,New experiment,12,11133,12,yes,1024
100,100,974.6923077,974.6923077,black,experiment,legacy,legacy,legacy,0,uniform,1,undefined,1,right,12,12,12,0,12,12,0,0,12,12,12,0,0,12,0,10/27/19 15:46,sternberg task,yes,sternbergtask.osexp,C:/Users/DLGoupil/Desktop,no,mono,no,18,no,white,no,yes,768,legacy,0,11,C:/Users/DLGoupil/Desktop/dg-subject-2.csv,legacy,7 9,Kafkaesque Koffka,3.2.8,0,n,0,right,right,right,right,NA,1538,2255,3816,1538,NA,2,legacy,2,1024,2,48000,-16,experiment,2,even,1,86778,79565,84569,2044,84572,NA,2048,80591,88781,90319,85575,84407,4304,88781,NA,New experiment,13,12671,13,yes,1024
100,100,949.0714286,949.0714286,black,experiment,legacy,legacy,legacy,0,uniform,1,undefined,1,left,13,13,13,0,13,13,0,0,13,13,13,0,0,13,0,10/27/19 15:46,sternberg task,yes,sternbergtask.osexp,C:/Users/DLGoupil/Desktop,no,mono,no,18,no,white,no,yes,768,legacy,1,11,C:/Users/DLGoupil/Desktop/dg-subject-2.csv,legacy,2 3 7 4,Kafkaesque Koffka,3.2.8,1,y,0,left,right,right,left,NA,616,2255,3816,616,NA,2,legacy,4,1024,2,48000,-16,experiment,2,even,2,93669,90324,91461,2044,91463,NA,2048,80591,95671,96287,92466,84407,4304,95671,NA,New experiment,14,13287,14,yes,1024
100,100,958.8,958.8,black,experiment,legacy,legacy,legacy,0,uniform,1,undefined,1,right,14,14,14,0,14,14,0,0,14,14,14,0,0,14,0,10/27/19 15:46,sternberg task,yes,sternbergtask.osexp,C:/Users/DLGoupil/Desktop,no,mono,no,18,no,white,no,yes,768,legacy,2,11,C:/Users/DLGoupil/Desktop/dg-subject-2.csv,legacy,7 8 6 1,Kafkaesque Koffka,3.2.8,0,n,0,right,right,right,right,NA,1095,2255,3816,1095,NA,2,legacy,4,1024,2,48000,-16,experiment,2,even,3,99637,96292,97429,2044,97431,NA,2048,80591,101640,102736,98434,84407,4304,101640,NA,New experiment,15,14382,15,yes,1024
93.75,93.75,979.625,979.625,black,experiment,legacy,legacy,legacy,0,uniform,0,undefined,0,left,15,15,15,0,15,15,0,0,15,15,15,0,0,15,0,10/27/19 15:46,sternberg task,yes,sternbergtask.osexp,C:/Users/DLGoupil/Desktop,no,mono,no,18,no,white,no,yes,768,legacy,3,11,C:/Users/DLGoupil/Desktop/dg-subject-2.csv,legacy,3 4 9 6 2 9,Kafkaesque Koffka,3.2.8,5,y,0,right,right,right,right,NA,1292,2255,3816,1292,NA,2,legacy,6,1024,2,48000,-16,experiment,2,even,2,106088,102740,103881,2044,103883,NA,2048,80591,108091,109384,104885,84407,4304,108091,NA,New experiment,15,15674,16,yes,1024
94.11764706,94.11764706,971.4117647,971.4117647,black,experiment,legacy,legacy,legacy,0,uniform,1,undefined,1,right,16,16,16,0,16,16,0,0,16,16,16,0,0,16,0,10/27/19 15:46,sternberg task,yes,sternbergtask.osexp,C:/Users/DLGoupil/Desktop,no,mono,no,18,no,white,no,yes,768,legacy,4,11,C:/Users/DLGoupil/Desktop/dg-subject-2.csv,legacy,4 8 1 2,Kafkaesque Koffka,3.2.8,0,n,0,right,right,right,right,NA,840,2255,3816,840,NA,2,legacy,4,1024,2,48000,-16,experiment,2,even,7,112740,102740,110532,2044,110534,109389,2048,80591,114743,115584,111537,84407,4304,114743,NA,New experiment,16,16514,17,yes,1024
94.44444444,94.44444444,982.6666667,982.6666667,black,experiment,legacy,legacy,legacy,0,uniform,1,undefined,1,right,17,17,17,0,17,17,0,0,17,17,17,0,0,17,0,10/27/19 15:46,sternberg task,yes,sternbergtask.osexp,C:/Users/DLGoupil/Desktop,no,mono,no,18,no,white,no,yes,768,legacy,5,11,C:/Users/DLGoupil/Desktop/dg-subject-2.csv,legacy,6 8,Kafkaesque Koffka,3.2.8,0,n,0,right,right,right,right,NA,1174,2255,3816,1174,NA,2,legacy,2,1024,2,48000,-16,experiment,2,even,9,118934,115588,116726,2044,116728,109389,2048,80591,120937,122112,117731,84407,4304,120937,NA,New experiment,17,17688,18,yes,1024
94.73684211,94.73684211,984.6315789,984.6315789,black,experiment,legacy,legacy,legacy,0,uniform,1,undefined,1,left,18,18,18,0,18,18,0,0,18,18,18,0,0,18,0,10/27/19 15:46,sternberg task,yes,sternbergtask.osexp,C:/Users/DLGoupil/Desktop,no,mono,no,18,no,white,no,yes,768,legacy,6,11,C:/Users/DLGoupil/Desktop/dg-subject-2.csv,legacy,4 1 8 7 5,Kafkaesque Koffka,3.2.8,3,y,0,left,right,right,left,NA,1020,2255,3816,1020,NA,2,legacy,5,1024,2,48000,-16,experiment,2,even,8,125464,122116,123255,2044,123258,109389,2048,80591,127467,128488,124261,84407,4304,127467,NA,New experiment,18,18708,19,yes,1024
95,95,994.3,994.3,black,experiment,legacy,legacy,legacy,0,uniform,1,undefined,1,right,19,19,19,0,19,19,0,0,19,19,19,0,0,19,0,10/27/19 15:46,sternberg task,yes,sternbergtask.osexp,C:/Users/DLGoupil/Desktop,no,mono,no,18,no,white,no,yes,768,legacy,7,11,C:/Users/DLGoupil/Desktop/dg-subject-2.csv,legacy,2 8 9 4 1,Kafkaesque Koffka,3.2.8,0,n,0,right,right,right,right,NA,1178,2255,3816,1178,NA,2,legacy,5,1024,2,48000,-16,experiment,2,even,5,131834,128493,129625,2044,129628,109389,2048,80591,133837,135016,130631,84407,4304,133837,NA,New experiment,19,19886,20,yes,1024
95.23809524,95.23809524,989.047619,989.047619,black,experiment,legacy,legacy,legacy,0,uniform,1,undefined,1,left,20,20,20,0,20,20,0,0,20,20,20,0,0,20,0,10/27/19 15:46,sternberg task,yes,sternbergtask.osexp,C:/Users/DLGoupil/Desktop,no,mono,no,18,no,white,no,yes,768,legacy,8,11,C:/Users/DLGoupil/Desktop/dg-subject-2.csv,legacy,8 9 5 7 1 6,Kafkaesque Koffka,3.2.8,4,y,0,left,right,right,left,NA,884,2255,3816,884,NA,2,legacy,6,1024,2,48000,-16,experiment,2,even,7,138368,135021,136159,2044,136162,109389,2048,80591,140371,141256,137165,84407,4304,140371,NA,New experiment,20,20770,21,yes,1024
95.45454545,95.45454545,986.5,986.5,black,experiment,legacy,legacy,legacy,0,uniform,1,undefined,1,left,21,21,21,0,21,21,0,0,21,21,21,0,0,21,0,10/27/19 15:46,sternberg task,yes,sternbergtask.osexp,C:/Users/DLGoupil/Desktop,no,mono,no,18,no,white,no,yes,768,legacy,9,11,C:/Users/DLGoupil/Desktop/dg-subject-2.csv,legacy,9 3 8 2 1 4,Kafkaesque Koffka,3.2.8,3,y,0,left,right,right,left,NA,933,2255,3816,933,NA,2,legacy,6,1024,2,48000,-16,experiment,2,even,8,144607,141260,142399,2044,142401,109389,2048,80591,146610,147544,143404,84407,4304,146610,NA,New experiment,21,21703,22,yes,1024
95.65217391,95.65217391,977.0869565,977.0869565,black,experiment,legacy,legacy,legacy,0,uniform,1,undefined,1,left,22,22,22,0,22,22,0,0,22,22,22,0,0,22,0,10/27/19 15:46,sternberg task,yes,sternbergtask.osexp,C:/Users/DLGoupil/Desktop,no,mono,no,18,no,white,no,yes,768,legacy,10,11,C:/Users/DLGoupil/Desktop/dg-subject-2.csv,legacy,2 4 8 5 1 3,Kafkaesque Koffka,3.2.8,1,y,0,left,right,right,left,NA,770,2255,3816,770,NA,2,legacy,6,1024,2,48000,-16,experiment,2,even,2,150898,147548,148691,2044,148693,109389,2048,80591,152901,153672,149696,84407,4304,152901,NA,New experiment,22,22473,23,yes,1024
95.83333333,95.83333333,977.875,977.875,black,experiment,legacy,legacy,legacy,0,uniform,1,undefined,1,left,23,23,23,0,23,23,0,0,23,23,23,0,0,23,0,10/27/19 15:46,sternberg task,yes,sternbergtask.osexp,C:/Users/DLGoupil/Desktop,no,mono,no,18,no,white,no,yes,768,legacy,11,11,C:/Users/DLGoupil/Desktop/dg-subject-2.csv,legacy,7 6,Kafkaesque Koffka,3.2.8,2,y,0,left,right,right,left,NA,996,2255,3816,996,NA,2,legacy,2,1024,2,48000,-16,experiment,2,even,6,157023,153677,154814,2044,154817,109389,2048,80591,159027,160024,155820,84407,4304,159026,NA,New experiment,23,23469,24,yes,1024
96,96,963.2,963.2,black,experiment,legacy,legacy,legacy,0,uniform,1,undefined,1,left,24,24,24,0,24,24,0,0,24,24,24,0,0,24,0,10/27/19 15:46,sternberg task,yes,sternbergtask.osexp,C:/Users/DLGoupil/Desktop,no,mono,no,18,no,white,no,yes,768,legacy,12,11,C:/Users/DLGoupil/Desktop/dg-subject-2.csv,legacy,6 2,Kafkaesque Koffka,3.2.8,1,y,0,left,right,right,left,NA,611,2255,3816,611,NA,2,legacy,2,1024,2,48000,-16,experiment,2,even,6,163369,160028,161161,2044,161163,109389,2048,80591,165372,165984,162166,84407,4304,165372,NA,New experiment,24,24080,25,yes,1024
96.15384615,96.15384615,959.6153846,959.6153846,black,experiment,legacy,legacy,legacy,0,uniform,1,undefined,1,right,25,25,25,0,25,25,0,0,25,25,25,0,0,25,0,10/27/19 15:46,sternberg task,yes,sternbergtask.osexp,C:/Users/DLGoupil/Desktop,no,mono,no,18,no,white,no,yes,768,legacy,13,11,C:/Users/DLGoupil/Desktop/dg-subject-2.csv,legacy,7 6 4 8 1 2,Kafkaesque Koffka,3.2.8,0,n,0,right,right,right,right,NA,870,2255,3816,870,NA,2,legacy,6,1024,2,48000,-16,experiment,2,even,9,169335,165989,167127,2044,167129,109389,2048,80591,171338,172208,168132,84407,4304,171338,NA,New experiment,25,24950,26,yes,1024
96.2962963,96.2962963,959.7407407,959.7407407,black,experiment,legacy,legacy,legacy,0,uniform,1,undefined,1,left,26,26,26,0,26,26,0,0,26,26,26,0,0,26,0,10/27/19 15:46,sternberg task,yes,sternbergtask.osexp,C:/Users/DLGoupil/Desktop,no,mono,no,18,no,white,no,yes,768,legacy,14,11,C:/Users/DLGoupil/Desktop/dg-subject-2.csv,legacy,6 9 3 1,Kafkaesque Koffka,3.2.8,4,y,0,left,right,right,left,NA,963,2255,3816,963,NA,2,legacy,4,1024,2,48000,-16,experiment,2,even,1,175561,172213,173353,2044,173355,109389,2048,80591,177564,178527,174358,84407,4304,177564,NA,New experiment,26,25913,27,yes,1024
96.42857143,96.42857143,971.8214286,971.8214286,black,experiment,legacy,legacy,legacy,0,uniform,1,undefined,1,left,27,27,27,0,27,27,0,0,27,27,27,0,0,27,0,10/27/19 15:46,sternberg task,yes,sternbergtask.osexp,C:/Users/DLGoupil/Desktop,no,mono,no,18,no,white,no,yes,768,legacy,15,11,C:/Users/DLGoupil/Desktop/dg-subject-2.csv,legacy,4 3 2 5 8,Kafkaesque Koffka,3.2.8,2,y,0,left,right,right,left,NA,1298,2255,3816,1298,NA,2,legacy,5,1024,2,48000,-16,experiment,2,even,3,181874,178532,179666,2044,179668,109389,2048,80591,183877,185175,180671,84407,4304,183877,NA,New experiment,27,27211,28,yes,1024
96.55172414,96.55172414,969.1724138,969.1724138,black,experiment,legacy,legacy,legacy,0,uniform,1,undefined,1,right,28,28,28,0,28,28,0,0,28,28,28,0,0,28,0,10/27/19 15:46,sternberg task,yes,sternbergtask.osexp,C:/Users/DLGoupil/Desktop,no,mono,no,18,no,white,no,yes,768,legacy,16,11,C:/Users/DLGoupil/Desktop/dg-subject-2.csv,legacy,1 4 9 2 5,Kafkaesque Koffka,3.2.8,0,n,0,right,right,right,right,NA,895,2255,3816,895,NA,2,legacy,5,1024,2,48000,-16,experiment,2,even,7,188525,185180,186317,2044,186319,109389,2048,80591,190528,191423,187322,84407,4304,190528,NA,New experiment,28,28106,29,yes,1024
96.66666667,96.66666667,969.6666667,969.6666667,black,experiment,legacy,legacy,legacy,0,uniform,1,undefined,1,right,29,29,29,0,29,29,0,0,29,29,29,0,0,29,0,10/27/19 15:46,sternberg task,yes,sternbergtask.osexp,C:/Users/DLGoupil/Desktop,no,mono,no,18,no,white,no,yes,768,legacy,17,11,C:/Users/DLGoupil/Desktop/dg-subject-2.csv,legacy,2 8 9,Kafkaesque Koffka,3.2.8,0,n,0,right,right,right,right,NA,984,2255,3816,984,NA,2,legacy,3,1024,2,48000,-16,experiment,2,even,6,194772,191428,192564,2044,192566,109389,2048,80591,196775,197760,193569,84407,4304,196775,NA,New experiment,29,29090,30,yes,1024
96.77419355,96.77419355,960.2258065,960.2258065,black,experiment,legacy,legacy,legacy,0,uniform,1,undefined,1,left,30,30,30,0,30,30,0,0,30,30,30,0,0,30,0,10/27/19 15:46,sternberg task,yes,sternbergtask.osexp,C:/Users/DLGoupil/Desktop,no,mono,no,18,no,white,no,yes,768,legacy,18,11,C:/Users/DLGoupil/Desktop/dg-subject-2.csv,legacy,9 1 7 2,Kafkaesque Koffka,3.2.8,2,y,0,left,right,right,left,NA,677,2255,3816,677,NA,2,legacy,4,1024,2,48000,-16,experiment,2,even,1,201111,197766,198903,2044,198905,109389,2048,80591,203114,203792,199908,84407,4304,203114,NA,New experiment,30,29767,31,yes,1024
96.875,96.875,959.59375,959.59375,black,experiment,legacy,legacy,legacy,0,uniform,1,undefined,1,left,31,31,31,0,31,31,0,0,31,31,31,0,0,31,0,10/27/19 15:46,sternberg task,yes,sternbergtask.osexp,C:/Users/DLGoupil/Desktop,no,mono,no,18,no,white,no,yes,768,legacy,19,11,C:/Users/DLGoupil/Desktop/dg-subject-2.csv,legacy,9 6 2 4 1,Kafkaesque Koffka,3.2.8,4,y,0,left,right,right,left,NA,940,2255,3816,940,NA,2,legacy,5,1024,2,48000,-16,experiment,2,even,4,207137,203797,204929,2044,204931,109389,2048,80591,209140,210080,205934,84407,4304,209140,NA,New experiment,31,30707,32,yes,1024
96.96969697,96.96969697,962.7272727,962.7272727,black,experiment,legacy,legacy,legacy,0,uniform,1,undefined,1,right,32,32,32,0,32,32,0,0,32,32,32,0,0,32,0,10/27/19 15:46,sternberg task,yes,sternbergtask.osexp,C:/Users/DLGoupil/Desktop,no,mono,no,18,no,white,no,yes,768,legacy,20,11,C:/Users/DLGoupil/Desktop/dg-subject-2.csv,legacy,7 3 2 8,Kafkaesque Koffka,3.2.8,0,n,0,right,right,right,right,NA,1063,2255,3816,1063,NA,2,legacy,4,1024,2,48000,-16,experiment,2,even,4,213429,210085,211221,2044,211223,109389,2048,80591,215432,216496,212226,84407,4304,215432,NA,New experiment,32,31770,33,yes,1024
97.05882353,97.05882353,955.0882353,955.0882353,black,experiment,legacy,legacy,legacy,0,uniform,1,undefined,1,right,33,33,33,0,33,33,0,0,33,33,33,0,0,33,0,10/27/19 15:46,sternberg task,yes,sternbergtask.osexp,C:/Users/DLGoupil/Desktop,no,mono,no,18,no,white,no,yes,768,legacy,21,11,C:/Users/DLGoupil/Desktop/dg-subject-2.csv,legacy,1,Kafkaesque Koffka,3.2.8,0,n,0,right,right,right,right,NA,703,2255,3816,703,NA,2,legacy,1,1024,2,48000,-16,experiment,2,even,7,219845,216501,217636,2044,217639,109389,2048,80591,221848,222552,218642,84407,4304,221848,NA,New experiment,33,32473,34,yes,1024
97.14285714,97.14285714,954.2571429,954.2571429,black,experiment,legacy,legacy,legacy,0,uniform,1,undefined,1,right,34,34,34,0,34,34,0,0,34,34,34,0,0,34,0,10/27/19 15:46,sternberg task,yes,sternbergtask.osexp,C:/Users/DLGoupil/Desktop,no,mono,no,18,no,white,no,yes,768,legacy,22,11,C:/Users/DLGoupil/Desktop/dg-subject-2.csv,legacy,7 9 1 6,Kafkaesque Koffka,3.2.8,0,n,0,right,right,right,right,NA,926,2255,3816,926,NA,2,legacy,4,1024,2,48000,-16,experiment,2,even,4,225903,222557,223695,2044,223697,109389,2048,80591,227905,228832,224700,84407,4304,227905,NA,New experiment,34,33399,35,yes,1024
97.22222222,97.22222222,945,945,black,experiment,legacy,legacy,legacy,0,uniform,1,undefined,1,left,35,35,35,0,35,35,0,0,35,35,35,0,0,35,0,10/27/19 15:46,sternberg task,yes,sternbergtask.osexp,C:/Users/DLGoupil/Desktop,no,mono,no,18,no,white,no,yes,768,legacy,23,11,C:/Users/DLGoupil/Desktop/dg-subject-2.csv,legacy,7 1 3,Kafkaesque Koffka,3.2.8,2,y,0,left,right,right,left,NA,621,2255,3816,621,NA,2,legacy,3,1024,2,48000,-16,experiment,2,even,1,232183,228837,229975,2044,229977,109389,2048,80591,234186,234808,230980,84407,4304,234186,NA,New experiment,35,34020,36,yes,1024
97.2972973,97.2972973,939.8918919,939.8918919,black,experiment,legacy,legacy,legacy,0,uniform,1,undefined,1,right,36,36,36,0,36,36,0,0,36,36,36,0,0,36,0,10/27/19 15:46,sternberg task,yes,sternbergtask.osexp,C:/Users/DLGoupil/Desktop,no,mono,no,18,no,white,no,yes,768,legacy,24,11,C:/Users/DLGoupil/Desktop/dg-subject-2.csv,legacy,5 2,Kafkaesque Koffka,3.2.8,0,n,0,right,right,right,right,NA,756,2255,3816,756,NA,2,legacy,2,1024,2,48000,-16,experiment,2,even,7,238152,234813,235944,2044,235946,109389,2048,80591,240155,240912,236949,84407,4304,240155,NA,New experiment,36,34776,37,yes,1024
97.36842105,97.36842105,939.2631579,939.2631579,black,experiment,legacy,legacy,legacy,0,uniform,1,undefined,1,right,37,37,37,0,37,37,0,0,37,37,37,0,0,37,0,10/27/19 15:46,sternberg task,yes,sternbergtask.osexp,C:/Users/DLGoupil/Desktop,no,mono,no,18,no,white,no,yes,768,legacy,25,11,C:/Users/DLGoupil/Desktop/dg-subject-2.csv,legacy,6 9 7 3 8 2,Kafkaesque Koffka,3.2.8,0,n,0,right,right,right,right,NA,916,2255,3816,916,NA,2,legacy,6,1024,2,48000,-16,experiment,2,even,5,244264,240917,242056,2044,242058,109389,2048,80591,246267,247184,243061,84407,4304,246267,NA,New experiment,37,35692,38,yes,1024
97.43589744,97.43589744,938.9230769,938.9230769,black,experiment,legacy,legacy,legacy,0,uniform,1,undefined,1,right,38,38,38,0,38,38,0,0,38,38,38,0,0,38,0,10/27/19 15:46,sternberg task,yes,sternbergtask.osexp,C:/Users/DLGoupil/Desktop,no,mono,no,18,no,white,no,yes,768,legacy,26,11,C:/Users/DLGoupil/Desktop/dg-subject-2.csv,legacy,6 9 4 5 3 2,Kafkaesque Koffka,3.2.8,0,n,0,right,right,right,right,NA,926,2255,3816,926,NA,2,legacy,6,1024,2,48000,-16,experiment,2,even,8,250534,247188,248325,2044,248328,109389,2048,80591,252537,253464,249331,84407,4304,252537,NA,New experiment,38,36618,39,yes,1024
97.5,97.5,939.275,939.275,black,experiment,legacy,legacy,legacy,0,uniform,1,undefined,1,left,39,39,39,0,39,39,0,0,39,39,39,0,0,39,0,10/27/19 15:46,sternberg task,yes,sternbergtask.osexp,C:/Users/DLGoupil/Desktop,no,mono,no,18,no,white,no,yes,768,legacy,27,11,C:/Users/DLGoupil/Desktop/dg-subject-2.csv,legacy,5 7 3 6 2,Kafkaesque Koffka,3.2.8,5,y,0,left,right,right,left,NA,953,2255,3816,953,NA,2,legacy,5,1024,2,48000,-16,experiment,2,even,2,256811,253469,254602,2044,254605,109389,2048,80591,258814,259768,255608,84407,4304,258814,NA,New experiment,39,37571,40,yes,1024
97.56097561,97.56097561,930.2439024,930.2439024,black,experiment,legacy,legacy,legacy,0,uniform,1,undefined,1,left,40,40,40,0,40,40,0,0,40,40,40,0,0,40,0,10/27/19 15:46,sternberg task,yes,sternbergtask.osexp,C:/Users/DLGoupil/Desktop,no,mono,no,18,no,white,no,yes,768,legacy,28,11,C:/Users/DLGoupil/Desktop/dg-subject-2.csv,legacy,3 4,Kafkaesque Koffka,3.2.8,1,y,0,left,right,right,left,NA,569,2255,3816,569,NA,2,legacy,2,1024,2,48000,-16,experiment,2,even,3,263115,259773,260906,2044,260908,109389,2048,80591,265118,265688,261912,84407,4304,265118,NA,New experiment,40,38140,41,yes,1024
97.61904762,97.61904762,935.7619048,935.7619048,black,experiment,legacy,legacy,legacy,0,uniform,1,undefined,1,right,41,41,41,0,41,41,0,0,41,41,41,0,0,41,0,10/27/19 15:46,sternberg task,yes,sternbergtask.osexp,C:/Users/DLGoupil/Desktop,no,mono,no,18,no,white,no,yes,768,legacy,29,11,C:/Users/DLGoupil/Desktop/dg-subject-2.csv,legacy,6 8 4,Kafkaesque Koffka,3.2.8,0,n,0,right,right,right,right,NA,1162,2255,3816,1162,NA,2,legacy,3,1024,2,48000,-16,experiment,2,even,1,269042,265693,266833,2044,266836,109389,2048,80591,271045,272208,267839,84407,4304,271045,NA,New experiment,41,39302,42,yes,1024
97.6744186,97.6744186,934.0465116,934.0465116,black,experiment,legacy,legacy,legacy,0,uniform,1,undefined,1,left,42,42,42,0,42,42,0,0,42,42,42,0,0,42,0,10/27/19 15:46,sternberg task,yes,sternbergtask.osexp,C:/Users/DLGoupil/Desktop,no,mono,no,18,no,white,no,yes,768,legacy,30,11,C:/Users/DLGoupil/Desktop/dg-subject-2.csv,legacy,7 8 4 6 9 5,Kafkaesque Koffka,3.2.8,4,y,0,left,right,right,left,NA,862,2255,3816,862,NA,2,legacy,6,1024,2,48000,-16,experiment,2,even,6,275558,272212,273349,2044,273351,109389,2048,80591,277561,278424,274355,84407,4304,277561,NA,New experiment,42,40164,43,yes,1024
97.72727273,97.72727273,929.75,929.75,black,experiment,legacy,legacy,legacy,0,uniform,1,undefined,1,right,43,43,43,0,43,43,0,0,43,43,43,0,0,43,0,10/27/19 15:46,sternberg task,yes,sternbergtask.osexp,C:/Users/DLGoupil/Desktop,no,mono,no,18,no,white,no,yes,768,legacy,31,11,C:/Users/DLGoupil/Desktop/dg-subject-2.csv,legacy,1 4 9 3,Kafkaesque Koffka,3.2.8,0,n,0,right,right,right,right,NA,745,2255,3816,745,NA,2,legacy,4,1024,2,48000,-16,experiment,2,even,5,281771,278428,279563,2044,279565,109389,2048,80591,283774,284520,280568,84407,4304,283774,NA,New experiment,43,40909,44,yes,1024
97.77777778,97.77777778,929.2444444,929.2444444,black,experiment,legacy,legacy,legacy,0,uniform,1,undefined,1,left,44,44,44,0,44,44,0,0,44,44,44,0,0,44,0,10/27/19 15:46,sternberg task,yes,sternbergtask.osexp,C:/Users/DLGoupil/Desktop,no,mono,no,18,no,white,no,yes,768,legacy,32,11,C:/Users/DLGoupil/Desktop/dg-subject-2.csv,legacy,4 6 2 5 1,Kafkaesque Koffka,3.2.8,5,y,0,left,right,right,left,NA,907,2255,3816,907,NA,2,legacy,5,1024,2,48000,-16,experiment,2,even,1,287865,284524,285657,2044,285659,109389,2048,80591,289868,290776,286662,84407,4304,289868,NA,New experiment,44,41816,45,yes,1024
97.82608696,97.82608696,926.7608696,926.7608696,black,experiment,legacy,legacy,legacy,0,uniform,1,undefined,1,right,45,45,45,0,45,45,0,0,45,45,45,0,0,45,0,10/27/19 15:46,sternberg task,yes,sternbergtask.osexp,C:/Users/DLGoupil/Desktop,no,mono,no,18,no,white,no,yes,768,legacy,33,11,C:/Users/DLGoupil/Desktop/dg-subject-2.csv,legacy,7 1,Kafkaesque Koffka,3.2.8,0,n,0,right,right,right,right,NA,815,2255,3816,815,NA,2,legacy,2,1024,2,48000,-16,experiment,2,even,8,294125,290781,291917,2044,291919,109389,2048,80591,296128,296944,292922,84407,4304,296128,NA,New experiment,45,42631,46,yes,1024
97.87234043,97.87234043,920.7021277,920.7021277,black,experiment,legacy,legacy,legacy,0,uniform,1,undefined,1,left,46,46,46,0,46,46,0,0,46,46,46,0,0,46,0,10/27/19 15:46,sternberg task,yes,sternbergtask.osexp,C:/Users/DLGoupil/Desktop,no,mono,no,18,no,white,no,yes,768,legacy,34,11,C:/Users/DLGoupil/Desktop/dg-subject-2.csv,legacy,8 7 3,Kafkaesque Koffka,3.2.8,1,y,0,left,right,right,left,NA,642,2255,3816,642,NA,2,legacy,3,1024,2,48000,-16,experiment,2,even,8,300298,296949,298089,2044,298092,109389,2048,80591,302301,302944,299095,84407,4304,302301,NA,New experiment,46,43273,47,yes,1024
97.91666667,97.91666667,917.1666667,917.1666667,black,experiment,legacy,legacy,legacy,0,uniform,1,undefined,1,left,47,47,47,0,47,47,0,0,47,47,47,0,0,47,0,10/27/19 15:46,sternberg task,yes,sternbergtask.osexp,C:/Users/DLGoupil/Desktop,no,mono,no,18,no,white,no,yes,768,legacy,35,11,C:/Users/DLGoupil/Desktop/dg-subject-2.csv,legacy,3 5 9 6 2 4,Kafkaesque Koffka,3.2.8,1,y,0,left,right,right,left,NA,751,2255,3816,751,NA,2,legacy,6,1024,2,48000,-16,experiment,2,even,3,306301,302949,304092,2044,304095,109389,2048,80591,308304,309056,305098,84407,4304,308304,NA,New experiment,47,44024,48,yes,1024
97.95918367,97.95918367,915.3877551,915.3877551,black,experiment,legacy,legacy,legacy,0,uniform,1,undefined,1,left,48,48,48,0,48,48,0,0,48,48,48,0,0,48,0,10/27/19 15:46,sternberg task,yes,sternbergtask.osexp,C:/Users/DLGoupil/Desktop,no,mono,no,18,no,white,no,yes,768,legacy,36,11,C:/Users/DLGoupil/Desktop/dg-subject-2.csv,legacy,8 1 6,Kafkaesque Koffka,3.2.8,3,y,0,left,right,right,left,NA,830,2255,3816,830,NA,2,legacy,3,1024,2,48000,-16,experiment,2,even,6,312406,309061,310198,2044,310200,109389,2048,80591,314409,315240,311203,84407,4304,314409,NA,New experiment,48,44854,49,yes,1024
98,98,909.9,909.9,black,experiment,legacy,legacy,legacy,0,uniform,1,undefined,1,left,49,49,49,0,49,49,0,0,49,49,49,0,0,49,0,10/27/19 15:46,sternberg task,yes,sternbergtask.osexp,C:/Users/DLGoupil/Desktop,no,mono,no,18,no,white,no,yes,768,legacy,37,11,C:/Users/DLGoupil/Desktop/dg-subject-2.csv,legacy,6 7 9 3 1 2,Kafkaesque Koffka,3.2.8,1,y,0,left,right,right,left,NA,641,2255,3816,641,NA,2,legacy,6,1024,2,48000,-16,experiment,2,even,6,318587,315245,316379,2044,316381,109389,2048,80591,320590,321232,317384,84407,4304,320590,NA,New experiment,49,45495,50,yes,1024
98.03921569,98.03921569,909.1372549,909.1372549,black,experiment,legacy,legacy,legacy,0,uniform,1,undefined,1,right,50,50,50,0,50,50,0,0,50,50,50,0,0,50,0,10/27/19 15:46,sternberg task,yes,sternbergtask.osexp,C:/Users/DLGoupil/Desktop,no,mono,no,18,no,white,no,yes,768,legacy,38,11,C:/Users/DLGoupil/Desktop/dg-subject-2.csv,legacy,6 9 5,Kafkaesque Koffka,3.2.8,0,n,0,right,right,right,right,NA,871,2255,3816,871,NA,2,legacy,3,1024,2,48000,-16,experiment,2,even,8,324581,321237,322372,2044,322374,109389,2048,80591,326584,327456,323378,84407,4304,326584,NA,New experiment,50,46366,51,yes,1024
98.07692308,98.07692308,904.1153846,904.1153846,black,experiment,legacy,legacy,legacy,0,uniform,1,undefined,1,left,51,51,51,0,51,51,0,0,51,51,51,0,0,51,0,10/27/19 15:46,sternberg task,yes,sternbergtask.osexp,C:/Users/DLGoupil/Desktop,no,mono,no,18,no,white,no,yes,768,legacy,39,11,C:/Users/DLGoupil/Desktop/dg-subject-2.csv,legacy,9 4 2,Kafkaesque Koffka,3.2.8,1,y,0,left,right,right,left,NA,648,2255,3816,648,NA,2,legacy,3,1024,2,48000,-16,experiment,2,even,9,330812,327462,328604,2044,328606,109389,2048,80591,332815,333464,329609,84407,4304,332815,NA,New experiment,51,47014,52,yes,1024
98.11320755,98.11320755,907.2075472,907.2075472,black,experiment,legacy,legacy,legacy,0,uniform,1,undefined,1,right,52,52,52,0,52,52,0,0,52,52,52,0,0,52,0,10/27/19 15:46,sternberg task,yes,sternbergtask.osexp,C:/Users/DLGoupil/Desktop,no,mono,no,18,no,white,no,yes,768,legacy,40,11,C:/Users/DLGoupil/Desktop/dg-subject-2.csv,legacy,8 5 7 3 6,Kafkaesque Koffka,3.2.8,0,n,0,right,right,right,right,NA,1068,2255,3816,1068,NA,2,legacy,5,1024,2,48000,-16,experiment,2,even,9,336816,333469,334608,2044,334610,109389,2048,80591,338819,339888,335613,84407,4304,338819,NA,New experiment,52,48082,53,yes,1024
98.14814815,98.14814815,903.5925926,903.5925926,black,experiment,legacy,legacy,legacy,0,uniform,1,undefined,1,left,53,53,53,0,53,53,0,0,53,53,53,0,0,53,0,10/27/19 15:46,sternberg task,yes,sternbergtask.osexp,C:/Users/DLGoupil/Desktop,no,mono,no,18,no,white,no,yes,768,legacy,41,11,C:/Users/DLGoupil/Desktop/dg-subject-2.csv,legacy,5 2 6,Kafkaesque Koffka,3.2.8,2,y,0,left,right,right,left,NA,712,2255,3816,712,NA,2,legacy,3,1024,2,48000,-16,experiment,2,even,2,343236,339893,341028,2044,341030,109389,2048,80591,345239,345952,342033,84407,4304,345239,NA,New experiment,53,48794,54,yes,1024
96.36363636,96.36363636,911.3090909,911.3090909,black,experiment,legacy,legacy,legacy,0,uniform,0,undefined,0,left,54,54,54,0,54,54,0,0,54,54,54,0,0,54,0,10/27/19 15:46,sternberg task,yes,sternbergtask.osexp,C:/Users/DLGoupil/Desktop,no,mono,no,18,no,white,no,yes,768,legacy,42,11,C:/Users/DLGoupil/Desktop/dg-subject-2.csv,legacy,5 2 9 6 1 7,Kafkaesque Koffka,3.2.8,3,y,0,right,right,right,right,NA,1328,2255,3816,1328,NA,2,legacy,6,1024,2,48000,-16,experiment,2,even,9,349300,345957,347092,2044,347094,109389,2048,80591,351303,352632,348097,84407,4304,351303,NA,New experiment,53,50122,55,yes,1024
96.42857143,96.42857143,910.6607143,910.6607143,black,experiment,legacy,legacy,legacy,0,uniform,1,undefined,1,right,55,55,55,0,55,55,0,0,55,55,55,0,0,55,0,10/27/19 15:46,sternberg task,yes,sternbergtask.osexp,C:/Users/DLGoupil/Desktop,no,mono,no,18,no,white,no,yes,768,legacy,43,11,C:/Users/DLGoupil/Desktop/dg-subject-2.csv,legacy,1 7 5 2 9,Kafkaesque Koffka,3.2.8,0,n,0,right,right,right,right,NA,875,2255,3816,875,NA,2,legacy,5,1024,2,48000,-16,experiment,2,even,3,355984,345957,353776,2044,353778,352637,2048,80591,357988,358864,354781,84407,4304,357987,NA,New experiment,54,50997,56,yes,1024
96.49122807,96.49122807,913.3333333,913.3333333,black,experiment,legacy,legacy,legacy,0,uniform,1,undefined,1,left,56,56,56,0,56,56,0,0,56,56,56,0,0,56,0,10/27/19 15:46,sternberg task,yes,sternbergtask.osexp,C:/Users/DLGoupil/Desktop,no,mono,no,18,no,white,no,yes,768,legacy,44,11,C:/Users/DLGoupil/Desktop/dg-subject-2.csv,legacy,8 5 3 7 4 6,Kafkaesque Koffka,3.2.8,6,y,0,left,right,right,left,NA,1063,2255,3816,1063,NA,2,legacy,6,1024,2,48000,-16,experiment,2,even,6,362221,358869,360013,2044,360015,352637,2048,80591,364224,365288,361018,84407,4304,364224,NA,New experiment,55,52060,57,yes,1024
96.55172414,96.55172414,908.8793103,908.8793103,black,experiment,legacy,legacy,legacy,0,uniform,1,undefined,1,left,57,57,57,0,57,57,0,0,57,57,57,0,0,57,0,10/27/19 15:46,sternberg task,yes,sternbergtask.osexp,C:/Users/DLGoupil/Desktop,no,mono,no,18,no,white,no,yes,768,legacy,45,11,C:/Users/DLGoupil/Desktop/dg-subject-2.csv,legacy,4 6 5 8,Kafkaesque Koffka,3.2.8,1,y,0,left,right,right,left,NA,655,2255,3816,655,NA,2,legacy,4,1024,2,48000,-16,experiment,2,even,4,368637,365293,366428,2044,366431,352637,2048,80591,370640,371296,367434,84407,4304,370640,NA,New experiment,56,52715,58,yes,1024
96.61016949,96.61016949,907.8305085,907.8305085,black,experiment,legacy,legacy,legacy,0,uniform,1,undefined,1,right,58,58,58,0,58,58,0,0,58,58,58,0,0,58,0,10/27/19 15:46,sternberg task,yes,sternbergtask.osexp,C:/Users/DLGoupil/Desktop,no,mono,no,18,no,white,no,yes,768,legacy,46,11,C:/Users/DLGoupil/Desktop/dg-subject-2.csv,legacy,4 2 7 6 1 3,Kafkaesque Koffka,3.2.8,0,n,0,right,right,right,right,NA,847,2255,3816,847,NA,2,legacy,6,1024,2,48000,-16,experiment,2,even,8,374645,371301,372438,2044,372440,352637,2048,80591,376648,377496,373442,84407,4304,376648,NA,New experiment,57,53562,59,yes,1024
95,95,908.5833333,908.5833333,black,experiment,legacy,legacy,legacy,0,uniform,0,undefined,0,left,59,59,59,0,59,59,0,0,59,59,59,0,0,59,0,10/27/19 15:46,sternberg task,yes,sternbergtask.osexp,C:/Users/DLGoupil/Desktop,no,mono,no,18,no,white,no,yes,768,legacy,47,11,C:/Users/DLGoupil/Desktop/dg-subject-2.csv,legacy,6 7 8 5,Kafkaesque Koffka,3.2.8,3,y,0,right,right,right,right,NA,953,2255,3816,953,NA,2,legacy,4,1024,2,48000,-16,experiment,2,even,8,380851,377501,378642,2044,378645,352637,2048,80591,382854,383808,379648,84407,4304,382854,NA,New experiment,57,54515,60,yes,1024
95.08196721,95.08196721,912.8688525,912.8688525,black,experiment,legacy,legacy,legacy,0,uniform,1,undefined,1,right,60,60,60,0,60,60,0,0,60,60,60,0,0,60,0,10/27/19 15:46,sternberg task,yes,sternbergtask.osexp,C:/Users/DLGoupil/Desktop,no,mono,no,18,no,white,no,yes,768,legacy,48,11,C:/Users/DLGoupil/Desktop/dg-subject-2.csv,legacy,1 6 4 3 9 7,Kafkaesque Koffka,3.2.8,0,n,0,right,right,right,right,NA,1170,2255,3816,1170,NA,2,legacy,6,1024,2,48000,-16,experiment,2,even,8,387162,377501,384954,2044,384956,383813,2048,80591,389165,390336,385959,84407,4304,389165,NA,New experiment,58,55685,61,yes,1024
95.16129032,95.16129032,912.3548387,912.3548387,black,experiment,legacy,legacy,legacy,0,uniform,1,undefined,1,right,61,61,61,0,61,61,0,0,61,61,61,0,0,61,0,10/27/19 15:46,sternberg task,yes,sternbergtask.osexp,C:/Users/DLGoupil/Desktop,no,mono,no,18,no,white,no,yes,768,legacy,49,11,C:/Users/DLGoupil/Desktop/dg-subject-2.csv,legacy,4 2 6 9,Kafkaesque Koffka,3.2.8,0,n,0,right,right,right,right,NA,881,2255,3816,881,NA,2,legacy,4,1024,2,48000,-16,experiment,2,even,7,393691,390341,391483,2044,391485,383813,2048,80591,395694,396576,392488,84407,4304,395694,NA,New experiment,59,56566,62,yes,1024
95.23809524,95.23809524,908.7142857,908.7142857,black,experiment,legacy,legacy,legacy,0,uniform,1,undefined,1,left,62,62,62,0,62,62,0,0,62,62,62,0,0,62,0,10/27/19 15:46,sternberg task,yes,sternbergtask.osexp,C:/Users/DLGoupil/Desktop,no,mono,no,18,no,white,no,yes,768,legacy,50,11,C:/Users/DLGoupil/Desktop/dg-subject-2.csv,legacy,3 5 4 7,Kafkaesque Koffka,3.2.8,1,y,0,left,right,right,left,NA,683,2255,3816,683,NA,2,legacy,4,1024,2,48000,-16,experiment,2,even,3,399930,396581,397722,2044,397724,383813,2048,80591,401933,402617,398727,84407,4304,401933,NA,New experiment,60,57249,63,yes,1024
95.3125,95.3125,906.109375,906.109375,black,experiment,legacy,legacy,legacy,0,uniform,1,undefined,1,right,63,63,63,0,63,63,0,0,63,63,63,0,0,63,0,10/27/19 15:46,sternberg task,yes,sternbergtask.osexp,C:/Users/DLGoupil/Desktop,no,mono,no,18,no,white,no,yes,768,legacy,51,11,C:/Users/DLGoupil/Desktop/dg-subject-2.csv,legacy,1 8 7,Kafkaesque Koffka,3.2.8,0,n,0,right,right,right,right,NA,742,2255,3816,742,NA,2,legacy,3,1024,2,48000,-16,experiment,2,even,4,405966,402621,403757,2044,403760,383813,2048,80591,407969,408712,404763,84407,4304,407969,NA,New experiment,61,57991,64,yes,1024
95.38461538,95.38461538,907.0307692,907.0307692,black,experiment,legacy,legacy,legacy,0,uniform,1,undefined,1,left,64,64,64,0,64,64,0,0,64,64,64,0,0,64,0,10/27/19 15:46,sternberg task,yes,sternbergtask.osexp,C:/Users/DLGoupil/Desktop,no,mono,no,18,no,white,no,yes,768,legacy,52,11,C:/Users/DLGoupil/Desktop/dg-subject-2.csv,legacy,7 8 6 3 1,Kafkaesque Koffka,3.2.8,5,y,0,left,right,right,left,NA,966,2255,3816,966,NA,2,legacy,5,1024,2,48000,-16,experiment,2,even,1,412062,408717,409853,2044,409856,383813,2048,80591,414065,415032,410859,84407,4304,414065,NA,New experiment,62,58957,65,yes,1024
95.45454545,95.45454545,904.7272727,904.7272727,black,experiment,legacy,legacy,legacy,0,uniform,1,undefined,1,left,65,65,65,0,65,65,0,0,65,65,65,0,0,65,0,10/27/19 15:46,sternberg task,yes,sternbergtask.osexp,C:/Users/DLGoupil/Desktop,no,mono,no,18,no,white,no,yes,768,legacy,53,11,C:/Users/DLGoupil/Desktop/dg-subject-2.csv,legacy,9 5 3 8 4,Kafkaesque Koffka,3.2.8,1,y,0,left,right,right,left,NA,755,2255,3816,755,NA,2,legacy,5,1024,2,48000,-16,experiment,2,even,9,418385,415037,416177,2044,416179,383813,2048,80591,420388,421144,417182,84407,4304,420388,NA,New experiment,63,59712,66,yes,1024
95.52238806,95.52238806,903.641791,903.641791,black,experiment,legacy,legacy,legacy,0,uniform,1,undefined,1,right,66,66,66,0,66,66,0,0,66,66,66,0,0,66,0,10/27/19 15:46,sternberg task,yes,sternbergtask.osexp,C:/Users/DLGoupil/Desktop,no,mono,no,18,no,white,no,yes,768,legacy,54,11,C:/Users/DLGoupil/Desktop/dg-subject-2.csv,legacy,1 6 4,Kafkaesque Koffka,3.2.8,0,n,0,right,right,right,right,NA,832,2255,3816,832,NA,2,legacy,3,1024,2,48000,-16,experiment,2,even,7,424500,421149,422292,2044,422294,383813,2048,80591,426503,427336,423297,84407,4304,426503,NA,New experiment,64,60544,67,yes,1024
95.58823529,95.58823529,905.3529412,905.3529412,black,experiment,legacy,legacy,legacy,0,uniform,1,undefined,1,left,67,67,67,0,67,67,0,0,67,67,67,0,0,67,0,10/27/19 15:46,sternberg task,yes,sternbergtask.osexp,C:/Users/DLGoupil/Desktop,no,mono,no,18,no,white,no,yes,768,legacy,55,11,C:/Users/DLGoupil/Desktop/dg-subject-2.csv,legacy,3 9 6 2,Kafkaesque Koffka,3.2.8,4,y,0,left,right,right,left,NA,1020,2255,3816,1020,NA,2,legacy,4,1024,2,48000,-16,experiment,2,even,2,430688,427341,428480,2044,428482,383813,2048,80591,432691,433712,429485,84407,4304,432691,NA,New experiment,65,61564,68,yes,1024
95.65217391,95.65217391,904.5362319,904.5362319,black,experiment,legacy,legacy,legacy,0,uniform,1,undefined,1,right,68,68,68,0,68,68,0,0,68,68,68,0,0,68,0,10/27/19 15:46,sternberg task,yes,sternbergtask.osexp,C:/Users/DLGoupil/Desktop,no,mono,no,18,no,white,no,yes,768,legacy,56,11,C:/Users/DLGoupil/Desktop/dg-subject-2.csv,legacy,7 1 5 6 3,Kafkaesque Koffka,3.2.8,0,n,0,right,right,right,right,NA,849,2255,3816,849,NA,2,legacy,5,1024,2,48000,-16,experiment,2,even,8,437059,433717,434851,2044,434853,383813,2048,80591,439062,439913,435856,84407,4304,439062,NA,New experiment,66,62413,69,yes,1024
95.71428571,95.71428571,902.2571429,902.2571429,black,experiment,legacy,legacy,legacy,0,uniform,1,undefined,1,left,69,69,69,0,69,69,0,0,69,69,69,0,0,69,0,10/27/19 15:46,sternberg task,yes,sternbergtask.osexp,C:/Users/DLGoupil/Desktop,no,mono,no,18,no,white,no,yes,768,legacy,57,11,C:/Users/DLGoupil/Desktop/dg-subject-2.csv,legacy,3 9 7 6 4,Kafkaesque Koffka,3.2.8,3,y,0,left,right,right,left,NA,745,2255,3816,745,NA,2,legacy,5,1024,2,48000,-16,experiment,2,even,7,443260,439917,441052,2044,441054,383813,2048,80591,445263,446009,442057,84407,4304,445263,NA,New experiment,67,63158,70,yes,1024
95.77464789,95.77464789,897.5492958,897.5492958,black,experiment,legacy,legacy,legacy,0,uniform,1,undefined,1,right,70,70,70,0,70,70,0,0,70,70,70,0,0,70,0,10/27/19 15:46,sternberg task,yes,sternbergtask.osexp,C:/Users/DLGoupil/Desktop,no,mono,no,18,no,white,no,yes,768,legacy,58,11,C:/Users/DLGoupil/Desktop/dg-subject-2.csv,legacy,5,Kafkaesque Koffka,3.2.8,0,n,0,right,right,right,right,NA,568,2255,3816,568,NA,2,legacy,1,1024,2,48000,-16,experiment,2,even,8,449356,446014,447148,2044,447150,383813,2048,80591,451359,451928,448153,84407,4304,451359,NA,New experiment,68,63726,71,yes,1024
95.83333333,95.83333333,904,904,black,experiment,legacy,legacy,legacy,0,uniform,1,undefined,1,right,71,71,71,0,71,71,0,0,71,71,71,0,0,71,0,10/27/19 15:46,sternberg task,yes,sternbergtask.osexp,C:/Users/DLGoupil/Desktop,no,mono,no,18,no,white,no,yes,768,legacy,59,11,C:/Users/DLGoupil/Desktop/dg-subject-2.csv,legacy,8 4 3 9,Kafkaesque Koffka,3.2.8,0,n,0,right,right,right,right,NA,1362,2255,3816,1362,NA,2,legacy,4,1024,2,48000,-16,experiment,2,even,5,455282,451933,453074,2044,453076,383813,2048,80591,457285,458648,454079,84407,4304,457285,NA,New experiment,69,65088,72,yes,1024
95.89041096,95.89041096,905.2191781,905.2191781,black,experiment,legacy,legacy,legacy,0,uniform,1,undefined,1,right,72,72,72,0,72,72,0,0,72,72,72,0,0,72,0,10/27/19 15:46,sternberg task,yes,sternbergtask.osexp,C:/Users/DLGoupil/Desktop,no,mono,no,18,no,white,no,yes,768,legacy,60,11,C:/Users/DLGoupil/Desktop/dg-subject-2.csv,legacy,6 2 9 3 8 4,Kafkaesque Koffka,3.2.8,0,n,0,right,right,right,right,NA,993,2255,3816,993,NA,2,legacy,6,1024,2,48000,-16,experiment,2,even,1,462003,458653,459794,2044,459797,383813,2048,80591,464007,465001,460800,84407,4304,464007,NA,New experiment,70,66081,73,yes,1024
95.94594595,95.94594595,902.0540541,902.0540541,black,experiment,legacy,legacy,legacy,0,uniform,1,undefined,1,left,73,73,73,0,73,73,0,0,73,73,73,0,0,73,0,10/27/19 15:46,sternberg task,yes,sternbergtask.osexp,C:/Users/DLGoupil/Desktop,no,mono,no,18,no,white,no,yes,768,legacy,61,11,C:/Users/DLGoupil/Desktop/dg-subject-2.csv,legacy,2 3,Kafkaesque Koffka,3.2.8,1,y,0,left,right,right,left,NA,671,2255,3816,671,NA,2,legacy,2,1024,2,48000,-16,experiment,2,even,2,468350,465006,466142,2044,466144,383813,2048,80591,470353,471025,467147,84407,4304,470353,NA,New experiment,71,66752,74,yes,1024
96,96,899.5333333,899.5333333,black,experiment,legacy,legacy,legacy,0,uniform,1,undefined,1,right,74,74,74,0,74,74,0,0,74,74,74,0,0,74,0,10/27/19 15:46,sternberg task,yes,sternbergtask.osexp,C:/Users/DLGoupil/Desktop,no,mono,no,18,no,white,no,yes,768,legacy,62,11,C:/Users/DLGoupil/Desktop/dg-subject-2.csv,legacy,3 9 1,Kafkaesque Koffka,3.2.8,0,n,0,right,right,right,right,NA,713,2255,3816,713,NA,2,legacy,3,1024,2,48000,-16,experiment,2,even,7,474371,471030,472163,2044,472165,383813,2048,80591,476374,477088,473168,84407,4304,476374,NA,New experiment,72,67465,75,yes,1024
96.05263158,96.05263158,899.9342105,899.9342105,black,experiment,legacy,legacy,legacy,0,uniform,1,undefined,1,right,75,75,75,0,75,75,0,0,75,75,75,0,0,75,0,10/27/19 15:46,sternberg task,yes,sternbergtask.osexp,C:/Users/DLGoupil/Desktop,no,mono,no,18,no,white,no,yes,768,legacy,63,11,C:/Users/DLGoupil/Desktop/dg-subject-2.csv,legacy,3 4 9 6 7 8,Kafkaesque Koffka,3.2.8,0,n,0,right,right,right,right,NA,930,2255,3816,930,NA,2,legacy,6,1024,2,48000,-16,experiment,2,even,2,480434,477093,478226,2044,478228,383813,2048,80591,482437,483368,479231,84407,4304,482437,NA,New experiment,73,68395,76,yes,1024
96.1038961,96.1038961,900.038961,900.038961,black,experiment,legacy,legacy,legacy,0,uniform,1,undefined,1,right,76,76,76,0,76,76,0,0,76,76,76,0,0,76,0,10/27/19 15:46,sternberg task,yes,sternbergtask.osexp,C:/Users/DLGoupil/Desktop,no,mono,no,18,no,white,no,yes,768,legacy,64,11,C:/Users/DLGoupil/Desktop/dg-subject-2.csv,legacy,8 5 4 2 9 6,Kafkaesque Koffka,3.2.8,0,n,0,right,right,right,right,NA,908,2255,3816,908,NA,2,legacy,6,1024,2,48000,-16,experiment,2,even,3,486720,483373,484513,2044,484515,383813,2048,80591,488723,489632,485518,84407,4304,488723,NA,New experiment,74,69303,77,yes,1024
96.15384615,96.15384615,903.3076923,903.3076923,black,experiment,legacy,legacy,legacy,0,uniform,1,undefined,1,right,77,77,77,0,77,77,0,0,77,77,77,0,0,77,0,10/27/19 15:46,sternberg task,yes,sternbergtask.osexp,C:/Users/DLGoupil/Desktop,no,mono,no,18,no,white,no,yes,768,legacy,65,11,C:/Users/DLGoupil/Desktop/dg-subject-2.csv,legacy,7 1 8 4 9 3,Kafkaesque Koffka,3.2.8,0,n,0,right,right,right,right,NA,1155,2255,3816,1155,NA,2,legacy,6,1024,2,48000,-16,experiment,2,even,6,492977,489637,490768,2044,490770,383813,2048,80591,494980,496136,491774,84407,4304,494980,NA,New experiment,75,70458,78,yes,1024
96.20253165,96.20253165,903.4936709,903.4936709,black,experiment,legacy,legacy,legacy,0,uniform,1,undefined,1,right,78,78,78,0,78,78,0,0,78,78,78,0,0,78,0,10/27/19 15:46,sternberg task,yes,sternbergtask.osexp,C:/Users/DLGoupil/Desktop,no,mono,no,18,no,white,no,yes,768,legacy,66,11,C:/Users/DLGoupil/Desktop/dg-subject-2.csv,legacy,5 9 2 3,Kafkaesque Koffka,3.2.8,0,n,0,right,right,right,right,NA,918,2255,3816,918,NA,2,legacy,4,1024,2,48000,-16,experiment,2,even,8,499478,496141,497270,2044,497272,383813,2048,80591,501481,502400,498275,84407,4304,501481,NA,New experiment,76,71376,79,yes,1024
96.25,96.25,900.3875,900.3875,black,experiment,legacy,legacy,legacy,0,uniform,1,undefined,1,left,79,79,79,0,79,79,0,0,79,79,79,0,0,79,0,10/27/19 15:46,sternberg task,yes,sternbergtask.osexp,C:/Users/DLGoupil/Desktop,no,mono,no,18,no,white,no,yes,768,legacy,67,11,C:/Users/DLGoupil/Desktop/dg-subject-2.csv,legacy,7 1 8 5 6 2,Kafkaesque Koffka,3.2.8,2,y,0,left,right,right,left,NA,655,2255,3816,655,NA,2,legacy,6,1024,2,48000,-16,experiment,2,even,1,505749,502405,503540,2044,503543,383813,2048,80591,507752,508408,504546,84407,4304,507752,NA,New experiment,77,72031,80,yes,1024
96.2962963,96.2962963,896.9753086,896.9753086,black,experiment,legacy,legacy,legacy,0,uniform,1,undefined,1,left,80,80,80,0,80,80,0,0,80,80,80,0,0,80,0,10/27/19 15:46,sternberg task,yes,sternbergtask.osexp,C:/Users/DLGoupil/Desktop,no,mono,no,18,no,white,no,yes,768,legacy,68,11,C:/Users/DLGoupil/Desktop/dg-subject-2.csv,legacy,4 1 5,Kafkaesque Koffka,3.2.8,2,y,0,left,right,right,left,NA,624,2255,3816,624,NA,2,legacy,3,1024,2,48000,-16,experiment,2,even,1,511756,508413,509549,2044,509551,383813,2048,80591,513759,514384,510553,84407,4304,513759,NA,New experiment,78,72655,81,yes,1024
96.34146341,96.34146341,895.695122,895.695122,black,experiment,legacy,legacy,legacy,0,uniform,1,undefined,1,right,81,81,81,0,81,81,0,0,81,81,81,0,0,81,0,10/27/19 15:46,sternberg task,yes,sternbergtask.osexp,C:/Users/DLGoupil/Desktop,no,mono,no,18,no,white,no,yes,768,legacy,69,11,C:/Users/DLGoupil/Desktop/dg-subject-2.csv,legacy,1 3 2 6 9,Kafkaesque Koffka,3.2.8,0,n,0,right,right,right,right,NA,792,2255,3816,792,NA,2,legacy,5,1024,2,48000,-16,experiment,2,even,5,517740,514389,515532,2044,515534,383813,2048,80591,519743,520536,516537,84407,4304,519743,NA,New experiment,79,73447,82,yes,1024
96.38554217,96.38554217,896.8313253,896.8313253,black,experiment,legacy,legacy,legacy,0,uniform,1,undefined,1,right,82,82,82,0,82,82,0,0,82,82,82,0,0,82,0,10/27/19 15:46,sternberg task,yes,sternbergtask.osexp,C:/Users/DLGoupil/Desktop,no,mono,no,18,no,white,no,yes,768,legacy,70,11,C:/Users/DLGoupil/Desktop/dg-subject-2.csv,legacy,1 5 3 2 8,Kafkaesque Koffka,3.2.8,0,n,0,right,right,right,right,NA,990,2255,3816,990,NA,2,legacy,5,1024,2,48000,-16,experiment,2,even,4,523894,520541,521685,2044,521687,383813,2048,80591,525897,526889,522691,84407,4304,525897,NA,New experiment,80,74437,83,yes,1024
96.42857143,96.42857143,895.4761905,895.4761905,black,experiment,legacy,legacy,legacy,0,uniform,1,undefined,1,right,83,83,83,0,83,83,0,0,83,83,83,0,0,83,0,10/27/19 15:46,sternberg task,yes,sternbergtask.osexp,C:/Users/DLGoupil/Desktop,no,mono,no,18,no,white,no,yes,768,legacy,71,11,C:/Users/DLGoupil/Desktop/dg-subject-2.csv,legacy,2 5 1 4,Kafkaesque Koffka,3.2.8,0,n,0,right,right,right,right,NA,783,2255,3816,783,NA,2,legacy,4,1024,2,48000,-16,experiment,2,even,6,530237,526894,528028,2044,528031,383813,2048,80591,532240,533025,529034,84407,4304,532240,NA,New experiment,81,75220,84,yes,1024
96.47058824,96.47058824,894.6117647,894.6117647,black,experiment,legacy,legacy,legacy,0,uniform,1,undefined,1,left,84,84,84,0,84,84,0,0,84,84,84,0,0,84,0,10/27/19 15:46,sternberg task,yes,sternbergtask.osexp,C:/Users/DLGoupil/Desktop,no,mono,no,18,no,white,no,yes,768,legacy,72,11,C:/Users/DLGoupil/Desktop/dg-subject-2.csv,legacy,9 5 8 1,Kafkaesque Koffka,3.2.8,2,y,0,left,right,right,left,NA,822,2255,3816,822,NA,2,legacy,4,1024,2,48000,-16,experiment,2,even,5,536375,533030,534166,2044,534169,383813,2048,80591,538378,539201,535172,84407,4304,538378,NA,New experiment,82,76042,85,yes,1024
96.51162791,96.51162791,893.9069767,893.9069767,black,experiment,legacy,legacy,legacy,0,uniform,1,undefined,1,left,85,85,85,0,85,85,0,0,85,85,85,0,0,85,0,10/27/19 15:46,sternberg task,yes,sternbergtask.osexp,C:/Users/DLGoupil/Desktop,no,mono,no,18,no,white,no,yes,768,legacy,73,11,C:/Users/DLGoupil/Desktop/dg-subject-2.csv,legacy,9 3 1 2 5,Kafkaesque Koffka,3.2.8,4,y,0,left,right,right,left,NA,834,2255,3816,834,NA,2,legacy,5,1024,2,48000,-16,experiment,2,even,2,542554,539206,540346,2044,540348,383813,2048,80591,544557,545392,541351,84407,4304,544557,NA,New experiment,83,76876,86,yes,1024
96.55172414,96.55172414,894.5517241,894.5517241,black,experiment,legacy,legacy,legacy,0,uniform,1,undefined,1,right,86,86,86,0,86,86,0,0,86,86,86,0,0,86,0,10/27/19 15:46,sternberg task,yes,sternbergtask.osexp,C:/Users/DLGoupil/Desktop,no,mono,no,18,no,white,no,yes,768,legacy,74,11,C:/Users/DLGoupil/Desktop/dg-subject-2.csv,legacy,6 3 1 7 9 8,Kafkaesque Koffka,3.2.8,0,n,0,right,right,right,right,NA,950,2255,3816,950,NA,2,legacy,6,1024,2,48000,-16,experiment,2,even,4,548742,545397,546533,2044,546536,383813,2048,80591,550745,551696,547539,84407,4304,550745,NA,New experiment,84,77826,87,yes,1024
96.59090909,96.59090909,894.6704545,894.6704545,black,experiment,legacy,legacy,legacy,0,uniform,1,undefined,1,right,87,87,87,0,87,87,0,0,87,87,87,0,0,87,0,10/27/19 15:46,sternberg task,yes,sternbergtask.osexp,C:/Users/DLGoupil/Desktop,no,mono,no,18,no,white,no,yes,768,legacy,75,11,C:/Users/DLGoupil/Desktop/dg-subject-2.csv,legacy,2 8 7 9 5 3,Kafkaesque Koffka,3.2.8,0,n,0,right,right,right,right,NA,905,2255,3816,905,NA,2,legacy,6,1024,2,48000,-16,experiment,2,even,6,555042,551701,552834,2044,552836,383813,2048,80591,557046,557952,553839,84407,4304,557045,NA,New experiment,85,78731,88,yes,1024
96.62921348,96.62921348,895.6067416,895.6067416,black,experiment,legacy,legacy,legacy,0,uniform,1,undefined,1,left,88,88,88,0,88,88,0,0,88,88,88,0,0,88,0,10/27/19 15:46,sternberg task,yes,sternbergtask.osexp,C:/Users/DLGoupil/Desktop,no,mono,no,18,no,white,no,yes,768,legacy,76,11,C:/Users/DLGoupil/Desktop/dg-subject-2.csv,legacy,6 8 9 3 4 9,Kafkaesque Koffka,3.2.8,5,y,0,left,right,right,left,NA,978,2255,3816,978,NA,2,legacy,6,1024,2,48000,-16,experiment,2,even,4,561305,557957,559097,2044,559099,383813,2048,80591,563309,564288,560102,84407,4304,563308,NA,New experiment,86,79709,89,yes,1024
96.66666667,96.66666667,893.0777778,893.0777778,black,experiment,legacy,legacy,legacy,0,uniform,1,undefined,1,right,89,89,89,0,89,89,0,0,89,89,89,0,0,89,0,10/27/19 15:46,sternberg task,yes,sternbergtask.osexp,C:/Users/DLGoupil/Desktop,no,mono,no,18,no,white,no,yes,768,legacy,77,11,C:/Users/DLGoupil/Desktop/dg-subject-2.csv,legacy,5 7 3,Kafkaesque Koffka,3.2.8,0,n,0,right,right,right,right,NA,668,2255,3816,668,NA,2,legacy,3,1024,2,48000,-16,experiment,2,even,9,567640,564294,565432,2044,565434,383813,2048,80591,569643,570313,566437,84407,4304,569643,NA,New experiment,87,80377,90,yes,1024
96.7032967,96.7032967,894.2747253,894.2747253,black,experiment,legacy,legacy,legacy,0,uniform,1,undefined,1,right,90,90,90,0,90,90,0,0,90,90,90,0,0,90,0,10/27/19 15:46,sternberg task,yes,sternbergtask.osexp,C:/Users/DLGoupil/Desktop,no,mono,no,18,no,white,no,yes,768,legacy,78,11,C:/Users/DLGoupil/Desktop/dg-subject-2.csv,legacy,9 5 3 2 8 6,Kafkaesque Koffka,3.2.8,0,n,0,right,right,right,right,NA,1002,2255,3816,1002,NA,2,legacy,6,1024,2,48000,-16,experiment,2,even,7,573666,570317,571457,2044,571460,383813,2048,80591,575669,576672,572463,84407,4304,575669,NA,New experiment,88,81379,91,yes,1024
95.65217391,95.65217391,895.5652174,895.5652174,black,experiment,legacy,legacy,legacy,0,uniform,0,undefined,0,left,91,91,91,0,91,91,0,0,91,91,91,0,0,91,0,10/27/19 15:46,sternberg task,yes,sternbergtask.osexp,C:/Users/DLGoupil/Desktop,no,mono,no,18,no,white,no,yes,768,legacy,79,11,C:/Users/DLGoupil/Desktop/dg-subject-2.csv,legacy,5 7 8 2 3 8,Kafkaesque Koffka,3.2.8,5,y,0,right,right,right,right,NA,1013,2255,3816,1013,NA,2,legacy,6,1024,2,48000,-16,experiment,2,even,3,580023,576677,577814,2044,577817,383813,2048,80591,582026,583040,578820,84407,4304,582026,NA,New experiment,88,82392,92,yes,1024
95.69892473,95.69892473,896.3548387,896.3548387,black,experiment,legacy,legacy,legacy,0,uniform,1,undefined,1,right,92,92,92,0,92,92,0,0,92,92,92,0,0,92,0,10/27/19 15:46,sternberg task,yes,sternbergtask.osexp,C:/Users/DLGoupil/Desktop,no,mono,no,18,no,white,no,yes,768,legacy,80,11,C:/Users/DLGoupil/Desktop/dg-subject-2.csv,legacy,1 7 8 3 9,Kafkaesque Koffka,3.2.8,0,n,0,right,right,right,right,NA,969,2255,3816,969,NA,2,legacy,5,1024,2,48000,-16,experiment,2,even,2,586387,576677,584179,2044,584181,583045,2048,80591,588390,589360,585184,84407,4304,588390,NA,New experiment,89,83361,93,yes,1024
95.74468085,95.74468085,896.6170213,896.6170213,black,experiment,legacy,legacy,legacy,0,uniform,1,undefined,1,right,93,93,93,0,93,93,0,0,93,93,93,0,0,93,0,10/27/19 15:46,sternberg task,yes,sternbergtask.osexp,C:/Users/DLGoupil/Desktop,no,mono,no,18,no,white,no,yes,768,legacy,81,11,C:/Users/DLGoupil/Desktop/dg-subject-2.csv,legacy,8 6 3 4 7,Kafkaesque Koffka,3.2.8,0,n,0,right,right,right,right,NA,921,2255,3816,921,NA,2,legacy,5,1024,2,48000,-16,experiment,2,even,1,592715,589365,590506,2044,590509,583045,2048,80591,594718,595640,591512,84407,4304,594718,NA,New experiment,90,84282,94,yes,1024
95.78947368,95.78947368,897.5368421,897.5368421,black,experiment,legacy,legacy,legacy,0,uniform,1,undefined,1,right,94,94,94,0,94,94,0,0,94,94,94,0,0,94,0,10/27/19 15:46,sternberg task,yes,sternbergtask.osexp,C:/Users/DLGoupil/Desktop,no,mono,no,18,no,white,no,yes,768,legacy,82,11,C:/Users/DLGoupil/Desktop/dg-subject-2.csv,legacy,9 8 2 7 4,Kafkaesque Koffka,3.2.8,0,n,0,right,right,right,right,NA,984,2255,3816,984,NA,2,legacy,5,1024,2,48000,-16,experiment,2,even,5,598988,595645,596780,2044,596782,583045,2048,80591,600991,601976,597785,84407,4304,600991,NA,New experiment,91,85266,95,yes,1024
95.83333333,95.83333333,896.625,896.625,black,experiment,legacy,legacy,legacy,0,uniform,1,undefined,1,left,95,95,95,0,95,95,0,0,95,95,95,0,0,95,0,10/27/19 15:46,sternberg task,yes,sternbergtask.osexp,C:/Users/DLGoupil/Desktop,no,mono,no,18,no,white,no,yes,768,legacy,83,11,C:/Users/DLGoupil/Desktop/dg-subject-2.csv,legacy,9 1 6 7 8,Kafkaesque Koffka,3.2.8,1,y,0,left,right,right,left,NA,810,2255,3816,810,NA,2,legacy,5,1024,2,48000,-16,experiment,2,even,9,605322,601981,603114,2044,603116,583045,2048,80591,607325,608137,604119,84407,4304,607325,NA,New experiment,92,86076,96,yes,1024
95.87628866,95.87628866,902.6391753,902.6391753,black,experiment,legacy,legacy,legacy,0,uniform,1,undefined,1,right,96,96,96,0,96,96,0,0,96,96,96,0,0,96,0,10/27/19 15:46,sternberg task,yes,sternbergtask.osexp,C:/Users/DLGoupil/Desktop,no,mono,no,18,no,white,no,yes,768,legacy,84,11,C:/Users/DLGoupil/Desktop/dg-subject-2.csv,legacy,5 3 2 6 9 8,Kafkaesque Koffka,3.2.8,0,n,0,right,right,right,right,NA,1480,2255,3816,1480,NA,2,legacy,6,1024,2,48000,-16,experiment,2,even,4,611492,608141,609283,2044,609286,583045,2048,80591,613495,614976,610289,84407,4304,613495,NA,New experiment,93,87556,97,yes,1024
94.89795918,94.89795918,903.5714286,903.5714286,black,experiment,legacy,legacy,legacy,0,uniform,0,undefined,0,left,97,97,97,0,97,97,0,0,97,97,97,0,0,97,0,10/27/19 15:46,sternberg task,yes,sternbergtask.osexp,C:/Users/DLGoupil/Desktop,no,mono,no,18,no,white,no,yes,768,legacy,85,11,C:/Users/DLGoupil/Desktop/dg-subject-2.csv,legacy,4 7 6 8 2 3,Kafkaesque Koffka,3.2.8,6,y,0,right,right,right,right,NA,994,2255,3816,994,NA,2,legacy,6,1024,2,48000,-16,experiment,2,even,3,618330,614981,616122,2044,616124,583045,2048,80591,620333,621328,617127,84407,4304,620333,NA,New experiment,93,88550,98,yes,1024
94.94949495,94.94949495,903.979798,903.979798,black,experiment,legacy,legacy,legacy,0,uniform,1,undefined,1,right,98,98,98,0,98,98,0,0,98,98,98,0,0,98,0,10/27/19 15:46,sternberg task,yes,sternbergtask.osexp,C:/Users/DLGoupil/Desktop,no,mono,no,18,no,white,no,yes,768,legacy,86,11,C:/Users/DLGoupil/Desktop/dg-subject-2.csv,legacy,6 9 4 5 2,Kafkaesque Koffka,3.2.8,0,n,0,right,right,right,right,NA,944,2255,3816,944,NA,2,legacy,5,1024,2,48000,-16,experiment,2,even,1,624676,614981,622468,2044,622470,621333,2048,80591,626679,627624,623473,84407,4304,626679,NA,New experiment,94,89494,99,yes,1024
95,95,902.94,902.94,black,experiment,legacy,legacy,legacy,0,uniform,1,undefined,1,right,99,99,99,0,99,99,0,0,99,99,99,0,0,99,0,10/27/19 15:46,sternberg task,yes,sternbergtask.osexp,C:/Users/DLGoupil/Desktop,no,mono,no,18,no,white,no,yes,768,legacy,87,11,C:/Users/DLGoupil/Desktop/dg-subject-2.csv,legacy,8 2 1 4 5 9,Kafkaesque Koffka,3.2.8,0,n,0,right,right,right,right,NA,800,2255,3816,800,NA,2,legacy,6,1024,2,48000,-16,experiment,2,even,7,630972,627629,628764,2044,628766,621333,2048,80591,632975,633777,629769,84407,4304,632975,NA,New experiment,95,90294,100,yes,1024
95.04950495,95.04950495,904.1584158,904.1584158,black,experiment,legacy,legacy,legacy,0,uniform,1,undefined,1,left,100,100,100,0,100,100,0,0,100,100,100,0,0,100,0,10/27/19 15:46,sternberg task,yes,sternbergtask.osexp,C:/Users/DLGoupil/Desktop,no,mono,no,18,no,white,no,yes,768,legacy,88,11,C:/Users/DLGoupil/Desktop/dg-subject-2.csv,legacy,7 2 3,Kafkaesque Koffka,3.2.8,3,y,0,left,right,right,left,NA,1026,2255,3816,1026,NA,2,legacy,3,1024,2,48000,-16,experiment,2,even,3,637122,633781,634915,2044,634917,621333,2048,80591,639125,640153,635920,84407,4304,639125,NA,New experiment,96,91320,101,yes,1024
95.09803922,95.09803922,904.8921569,904.8921569,black,experiment,legacy,legacy,legacy,0,uniform,1,undefined,1,left,101,101,101,0,101,101,0,0,101,101,101,0,0,101,0,10/27/19 15:46,sternberg task,yes,sternbergtask.osexp,C:/Users/DLGoupil/Desktop,no,mono,no,18,no,white,no,yes,768,legacy,89,11,C:/Users/DLGoupil/Desktop/dg-subject-2.csv,legacy,7 4 2 6 3 5,Kafkaesque Koffka,3.2.8,6,y,0,left,right,right,left,NA,979,2255,3816,979,NA,2,legacy,6,1024,2,48000,-16,experiment,2,even,5,643505,640158,641296,2044,641298,621333,2048,80591,645508,646489,642302,84407,4304,645508,NA,New experiment,97,92299,102,yes,1024
95.14563107,95.14563107,907.961165,907.961165,black,experiment,legacy,legacy,legacy,0,uniform,1,undefined,1,right,102,102,102,0,102,102,0,0,102,102,102,0,0,102,0,10/27/19 15:46,sternberg task,yes,sternbergtask.osexp,C:/Users/DLGoupil/Desktop,no,mono,no,18,no,white,no,yes,768,legacy,90,11,C:/Users/DLGoupil/Desktop/dg-subject-2.csv,legacy,3 9 8 1 6 4,Kafkaesque Koffka,3.2.8,0,n,0,right,right,right,right,NA,1221,2255,3816,1221,NA,2,legacy,6,1024,2,48000,-16,experiment,2,even,7,649839,646494,647631,2044,647633,621333,2048,80591,651842,653065,648636,84407,4304,651842,NA,New experiment,98,93520,103,yes,1024
95.19230769,95.19230769,905.5288462,905.5288462,black,experiment,legacy,legacy,legacy,0,uniform,1,undefined,1,left,103,103,103,0,103,103,0,0,103,103,103,0,0,103,0,10/27/19 15:46,sternberg task,yes,sternbergtask.osexp,C:/Users/DLGoupil/Desktop,no,mono,no,18,no,white,no,yes,768,legacy,91,11,C:/Users/DLGoupil/Desktop/dg-subject-2.csv,legacy,8 5 4 7 3 1,Kafkaesque Koffka,3.2.8,2,y,0,left,right,right,left,NA,655,2255,3816,655,NA,2,legacy,6,1024,2,48000,-16,experiment,2,even,5,656413,653070,654204,2044,654207,621333,2048,80591,658416,659072,655210,84407,4304,658416,NA,New experiment,99,94175,104,yes,1024
95.23809524,95.23809524,905.7333333,905.7333333,black,experiment,legacy,legacy,legacy,0,uniform,1,undefined,1,right,104,104,104,0,104,104,0,0,104,104,104,0,0,104,0,10/27/19 15:46,sternberg task,yes,sternbergtask.osexp,C:/Users/DLGoupil/Desktop,no,mono,no,18,no,white,no,yes,768,legacy,92,11,C:/Users/DLGoupil/Desktop/dg-subject-2.csv,legacy,2 3 8 5 6 7,Kafkaesque Koffka,3.2.8,0,n,0,right,right,right,right,NA,927,2255,3816,927,NA,2,legacy,6,1024,2,48000,-16,experiment,2,even,1,662429,659077,660221,2044,660223,621333,2048,80591,664432,665360,661226,84407,4304,664432,NA,New experiment,100,95102,105,yes,1024
95.28301887,95.28301887,911.3773585,911.3773585,black,experiment,legacy,legacy,legacy,0,uniform,1,undefined,1,right,105,105,105,0,105,105,0,0,105,105,105,0,0,105,0,10/27/19 15:46,sternberg task,yes,sternbergtask.osexp,C:/Users/DLGoupil/Desktop,no,mono,no,18,no,white,no,yes,768,legacy,93,11,C:/Users/DLGoupil/Desktop/dg-subject-2.csv,legacy,8 4 3 5,Kafkaesque Koffka,3.2.8,0,n,0,right,right,right,right,NA,1504,2255,3816,1504,NA,2,legacy,4,1024,2,48000,-16,experiment,2,even,6,668708,665365,666500,2044,666502,621333,2048,80591,670711,672217,667505,84407,4304,670711,NA,New experiment,101,96606,106,yes,1024
95.3271028,95.3271028,913.1962617,913.1962617,black,experiment,legacy,legacy,legacy,0,uniform,1,undefined,1,right,106,106,106,0,106,106,0,0,106,106,106,0,0,106,0,10/27/19 15:46,sternberg task,yes,sternbergtask.osexp,C:/Users/DLGoupil/Desktop,no,mono,no,18,no,white,no,yes,768,legacy,94,11,C:/Users/DLGoupil/Desktop/dg-subject-2.csv,legacy,1 4 3 6 5,Kafkaesque Koffka,3.2.8,0,n,0,right,right,right,right,NA,1106,2255,3816,1106,NA,2,legacy,5,1024,2,48000,-16,experiment,2,even,8,675570,672222,673362,2044,673364,621333,2048,80591,677573,678681,674367,84407,4304,677573,NA,New experiment,102,97712,107,yes,1024
95.37037037,95.37037037,912.2037037,912.2037037,black,experiment,legacy,legacy,legacy,0,uniform,1,undefined,1,right,107,107,107,0,107,107,0,0,107,107,107,0,0,107,0,10/27/19 15:46,sternberg task,yes,sternbergtask.osexp,C:/Users/DLGoupil/Desktop,no,mono,no,18,no,white,no,yes,768,legacy,95,11,C:/Users/DLGoupil/Desktop/dg-subject-2.csv,legacy,8 9,Kafkaesque Koffka,3.2.8,0,n,0,right,right,right,right,NA,806,2255,3816,806,NA,2,legacy,2,1024,2,48000,-16,experiment,2,even,5,682030,678686,679821,2044,679824,621333,2048,80591,684033,684840,680827,84407,4304,684033,NA,New experiment,103,98518,108,yes,1024
95.41284404,95.41284404,912.3944954,912.3944954,black,experiment,legacy,legacy,legacy,0,uniform,1,undefined,1,right,108,108,108,0,108,108,0,0,108,108,108,0,0,108,0,10/27/19 15:46,sternberg task,yes,sternbergtask.osexp,C:/Users/DLGoupil/Desktop,no,mono,no,18,no,white,no,yes,768,legacy,96,11,C:/Users/DLGoupil/Desktop/dg-subject-2.csv,legacy,2 7 5,Kafkaesque Koffka,3.2.8,0,n,0,right,right,right,right,NA,933,2255,3816,933,NA,2,legacy,3,1024,2,48000,-16,experiment,2,even,8,688191,684845,685982,2044,685985,621333,2048,80591,690194,691128,686988,84407,4304,690194,NA,New experiment,104,99451,109,yes,1024
95.45454545,95.45454545,910.2636364,910.2636364,black,experiment,legacy,legacy,legacy,0,uniform,1,undefined,1,left,109,109,109,0,109,109,0,0,109,109,109,0,0,109,0,10/27/19 15:46,sternberg task,yes,sternbergtask.osexp,C:/Users/DLGoupil/Desktop,no,mono,no,18,no,white,no,yes,768,legacy,97,11,C:/Users/DLGoupil/Desktop/dg-subject-2.csv,legacy,2 5 4 8 7,Kafkaesque Koffka,3.2.8,3,y,0,left,right,right,left,NA,678,2255,3816,678,NA,2,legacy,5,1024,2,48000,-16,experiment,2,even,4,694478,691133,692270,2044,692272,621333,2048,80591,696481,697160,693275,84407,4304,696481,NA,New experiment,105,100129,110,yes,1024
94.59459459,94.59459459,910.5045045,910.5045045,black,experiment,legacy,legacy,legacy,0,uniform,0,undefined,0,right,110,110,110,0,110,110,0,0,110,110,110,0,0,110,0,10/27/19 15:46,sternberg task,yes,sternbergtask.osexp,C:/Users/DLGoupil/Desktop,no,mono,no,18,no,white,no,yes,768,legacy,98,11,C:/Users/DLGoupil/Desktop/dg-subject-2.csv,legacy,5 3 8 7 2 4,Kafkaesque Koffka,3.2.8,0,n,0,left,right,right,left,NA,937,2255,3816,937,NA,2,legacy,6,1024,2,48000,-16,experiment,2,even,9,700507,697165,698300,2044,698302,621333,2048,80591,702510,703448,699305,84407,4304,702510,NA,New experiment,105,101066,111,yes,1024
94.64285714,94.64285714,908.7678571,908.7678571,black,experiment,legacy,legacy,legacy,0,uniform,1,undefined,1,left,111,111,111,0,111,111,0,0,111,111,111,0,0,111,0,10/27/19 15:46,sternberg task,yes,sternbergtask.osexp,C:/Users/DLGoupil/Desktop,no,mono,no,18,no,white,no,yes,768,legacy,99,11,C:/Users/DLGoupil/Desktop/dg-subject-2.csv,legacy,1 4 9 3 2 5,Kafkaesque Koffka,3.2.8,3,y,0,left,right,right,left,NA,716,2255,3816,716,NA,2,legacy,6,1024,2,48000,-16,experiment,2,even,9,706801,697165,704593,2044,704595,703453,2048,80591,708803,709521,705598,84407,4304,708803,NA,New experiment,106,101782,112,yes,1024
94.69026549,94.69026549,907.2920354,907.2920354,black,experiment,legacy,legacy,legacy,0,uniform,1,undefined,1,left,112,112,112,0,112,112,0,0,112,112,112,0,0,112,0,10/27/19 15:46,sternberg task,yes,sternbergtask.osexp,C:/Users/DLGoupil/Desktop,no,mono,no,18,no,white,no,yes,768,legacy,100,11,C:/Users/DLGoupil/Desktop/dg-subject-2.csv,legacy,3 2 1 4 7,Kafkaesque Koffka,3.2.8,2,y,0,left,right,right,left,NA,742,2255,3816,742,NA,2,legacy,5,1024,2,48000,-16,experiment,2,even,2,712870,709527,710661,2044,710664,703453,2048,80591,714873,715617,711667,84407,4304,714873,NA,New experiment,107,102524,113,yes,1024
94.73684211,94.73684211,905.3070175,905.3070175,black,experiment,legacy,legacy,legacy,0,uniform,1,undefined,1,left,113,113,113,0,113,113,0,0,113,113,113,0,0,113,0,10/27/19 15:46,sternberg task,yes,sternbergtask.osexp,C:/Users/DLGoupil/Desktop,no,mono,no,18,no,white,no,yes,768,legacy,101,11,C:/Users/DLGoupil/Desktop/dg-subject-2.csv,legacy,6 9 7 4 5 1,Kafkaesque Koffka,3.2.8,2,y,0,left,right,right,left,NA,681,2255,3816,681,NA,2,legacy,6,1024,2,48000,-16,experiment,2,even,9,718963,715622,716755,2044,716757,703453,2048,80591,720966,721649,717760,84407,4304,720966,NA,New experiment,108,103205,114,yes,1024
94.7826087,94.7826087,905.6434783,905.6434783,black,experiment,legacy,legacy,legacy,0,uniform,1,undefined,1,right,114,114,114,0,114,114,0,0,114,114,114,0,0,114,0,10/27/19 15:46,sternberg task,yes,sternbergtask.osexp,C:/Users/DLGoupil/Desktop,no,mono,no,18,no,white,no,yes,768,legacy,102,11,C:/Users/DLGoupil/Desktop/dg-subject-2.csv,legacy,9 7 4 5 8,Kafkaesque Koffka,3.2.8,0,n,0,right,right,right,right,NA,944,2255,3816,944,NA,2,legacy,5,1024,2,48000,-16,experiment,2,even,6,724996,721654,722788,2044,722790,703453,2048,80591,726999,727945,723793,84407,4304,726999,NA,New experiment,109,104149,115,yes,1024
94.82758621,94.82758621,903.4137931,903.4137931,black,experiment,legacy,legacy,legacy,0,uniform,1,undefined,1,left,115,115,115,0,115,115,0,0,115,115,115,0,0,115,0,10/27/19 15:46,sternberg task,yes,sternbergtask.osexp,C:/Users/DLGoupil/Desktop,no,mono,no,18,no,white,no,yes,768,legacy,103,11,C:/Users/DLGoupil/Desktop/dg-subject-2.csv,legacy,9 8 4,Kafkaesque Koffka,3.2.8,1,y,0,left,right,right,left,NA,647,2255,3816,647,NA,2,legacy,3,1024,2,48000,-16,experiment,2,even,9,731293,727950,729084,2044,729086,703453,2048,80591,733296,733945,730090,84407,4304,733296,NA,New experiment,110,104796,116,yes,1024
94.87179487,94.87179487,902.9401709,902.9401709,black,experiment,legacy,legacy,legacy,0,uniform,1,undefined,1,right,116,116,116,0,116,116,0,0,116,116,116,0,0,116,0,10/27/19 15:46,sternberg task,yes,sternbergtask.osexp,C:/Users/DLGoupil/Desktop,no,mono,no,18,no,white,no,yes,768,legacy,104,11,C:/Users/DLGoupil/Desktop/dg-subject-2.csv,legacy,3 4 2,Kafkaesque Koffka,3.2.8,0,n,0,right,right,right,right,NA,848,2255,3816,848,NA,2,legacy,3,1024,2,48000,-16,experiment,2,even,5,737292,733950,735083,2044,735085,703453,2048,80591,739295,740145,736089,84407,4304,739295,NA,New experiment,111,105644,117,yes,1024
94.91525424,94.91525424,901.4237288,901.4237288,black,experiment,legacy,legacy,legacy,0,uniform,1,undefined,1,left,117,117,117,0,117,117,0,0,117,117,117,0,0,117,0,10/27/19 15:46,sternberg task,yes,sternbergtask.osexp,C:/Users/DLGoupil/Desktop,no,mono,no,18,no,white,no,yes,768,legacy,105,11,C:/Users/DLGoupil/Desktop/dg-subject-2.csv,legacy,8 9 5 6 7,Kafkaesque Koffka,3.2.8,1,y,0,left,right,right,left,NA,724,2255,3816,724,NA,2,legacy,5,1024,2,48000,-16,experiment,2,even,8,743496,740150,741288,2044,741290,703453,2048,80591,745499,746225,742293,84407,4304,745499,NA,New experiment,112,106368,118,yes,1024
94.95798319,94.95798319,903.0504202,903.0504202,black,experiment,legacy,legacy,legacy,0,uniform,1,undefined,1,left,118,118,118,0,118,118,0,0,118,118,118,0,0,118,0,10/27/19 15:46,sternberg task,yes,sternbergtask.osexp,C:/Users/DLGoupil/Desktop,no,mono,no,18,no,white,no,yes,768,legacy,106,11,C:/Users/DLGoupil/Desktop/dg-subject-2.csv,legacy,6 1 2,Kafkaesque Koffka,3.2.8,3,y,0,left,right,right,left,NA,1095,2255,3816,1095,NA,2,legacy,3,1024,2,48000,-16,experiment,2,even,2,749581,746230,747372,2044,747375,703453,2048,80591,751584,752681,748378,84407,4304,751584,NA,New experiment,113,107463,119,yes,1024
95,95,904.4083333,904.4083333,black,experiment,legacy,legacy,legacy,0,uniform,1,undefined,1,left,119,119,119,0,119,119,0,0,119,119,119,0,0,119,0,10/27/19 15:46,sternberg task,yes,sternbergtask.osexp,C:/Users/DLGoupil/Desktop,no,mono,no,18,no,white,no,yes,768,legacy,107,11,C:/Users/DLGoupil/Desktop/dg-subject-2.csv,legacy,4 9 7 8 5 3,Kafkaesque Koffka,3.2.8,4,y,0,left,right,right,left,NA,1066,2255,3816,1066,NA,2,legacy,6,1024,2,48000,-16,experiment,2,even,8,756034,752686,753826,2044,753828,703453,2048,80591,758037,759105,754831,84407,4304,758037,NA,New experiment,114,108529,120,yes,1024
95.04132231,95.04132231,904.785124,904.785124,black,experiment,legacy,legacy,legacy,0,uniform,1,undefined,1,right,120,120,120,0,120,120,0,0,120,120,120,0,0,120,0,10/27/19 15:46,sternberg task,yes,sternbergtask.osexp,C:/Users/DLGoupil/Desktop,no,mono,no,18,no,white,no,yes,768,legacy,108,11,C:/Users/DLGoupil/Desktop/dg-subject-2.csv,legacy,6 7 5 9,Kafkaesque Koffka,3.2.8,0,n,0,right,right,right,right,NA,950,2255,3816,950,NA,2,legacy,4,1024,2,48000,-16,experiment,2,even,2,762454,759110,760246,2044,760248,703453,2048,80591,764457,765409,761251,84407,4304,764457,NA,New experiment,115,109479,121,yes,1024
95.08196721,95.08196721,906.9262295,906.9262295,black,experiment,legacy,legacy,legacy,0,uniform,1,undefined,1,left,121,121,121,0,121,121,0,0,121,121,121,0,0,121,0,10/27/19 15:46,sternberg task,yes,sternbergtask.osexp,C:/Users/DLGoupil/Desktop,no,mono,no,18,no,white,no,yes,768,legacy,109,11,C:/Users/DLGoupil/Desktop/dg-subject-2.csv,legacy,2 4 6 9,Kafkaesque Koffka,3.2.8,3,y,0,left,right,right,left,NA,1166,2255,3816,1166,NA,2,legacy,4,1024,2,48000,-16,experiment,2,even,6,768758,765414,766549,2044,766551,703453,2048,80591,770761,771929,767555,84407,4304,770761,NA,New experiment,116,110645,122,yes,1024
95.12195122,95.12195122,906.3170732,906.3170732,black,experiment,legacy,legacy,legacy,0,uniform,1,undefined,1,right,122,122,122,0,122,122,0,0,122,122,122,0,0,122,0,10/27/19 15:46,sternberg task,yes,sternbergtask.osexp,C:/Users/DLGoupil/Desktop,no,mono,no,18,no,white,no,yes,768,legacy,110,11,C:/Users/DLGoupil/Desktop/dg-subject-2.csv,legacy,1 7 5 2,Kafkaesque Koffka,3.2.8,0,n,0,right,right,right,right,NA,832,2255,3816,832,NA,2,legacy,4,1024,2,48000,-16,experiment,2,even,3,775276,771933,773068,2044,773070,703453,2048,80591,777279,778113,774073,84407,4304,777279,NA,New experiment,117,111477,123,yes,1024
95.16129032,95.16129032,904.5564516,904.5564516,black,experiment,legacy,legacy,legacy,0,uniform,1,undefined,1,left,123,123,123,0,123,123,0,0,123,123,123,0,0,123,0,10/27/19 15:46,sternberg task,yes,sternbergtask.osexp,C:/Users/DLGoupil/Desktop,no,mono,no,18,no,white,no,yes,768,legacy,111,11,C:/Users/DLGoupil/Desktop/dg-subject-2.csv,legacy,4,Kafkaesque Koffka,3.2.8,1,y,0,left,right,right,left,NA,688,2255,3816,688,NA,2,legacy,1,1024,2,48000,-16,experiment,2,even,4,781468,778118,779260,2044,779262,703453,2048,80591,783471,784160,780265,84407,4304,783471,NA,New experiment,118,112165,124,yes,1024
95.2,95.2,902.36,902.36,black,experiment,legacy,legacy,legacy,0,uniform,1,undefined,1,left,124,124,124,0,124,124,0,0,124,124,124,0,0,124,0,10/27/19 15:46,sternberg task,yes,sternbergtask.osexp,C:/Users/DLGoupil/Desktop,no,mono,no,18,no,white,no,yes,768,legacy,112,11,C:/Users/DLGoupil/Desktop/dg-subject-2.csv,legacy,7,Kafkaesque Koffka,3.2.8,1,y,0,left,right,right,left,NA,630,2255,3816,630,NA,2,legacy,1,1024,2,48000,-16,experiment,2,even,7,787511,784165,785303,2044,785305,703453,2048,80591,789514,790145,786308,84407,4304,789514,NA,New experiment,119,112795,125,yes,1024
95.23809524,95.23809524,902.1746032,902.1746032,black,experiment,legacy,legacy,legacy,0,uniform,1,undefined,1,left,125,125,125,0,125,125,0,0,125,125,125,0,0,125,0,10/27/19 15:46,sternberg task,yes,sternbergtask.osexp,C:/Users/DLGoupil/Desktop,no,mono,no,18,no,white,no,yes,768,legacy,113,11,C:/Users/DLGoupil/Desktop/dg-subject-2.csv,legacy,8 5 1 3 9,Kafkaesque Koffka,3.2.8,4,y,0,left,right,right,left,NA,879,2255,3816,879,NA,2,legacy,5,1024,2,48000,-16,experiment,2,even,3,793501,790150,791293,2044,791295,703453,2048,80591,795504,796385,792298,84407,4304,795504,NA,New experiment,120,113674,126,yes,1024
95.27559055,95.27559055,901.6062992,901.6062992,black,experiment,legacy,legacy,legacy,0,uniform,1,undefined,1,left,126,126,126,0,126,126,0,0,126,126,126,0,0,126,0,10/27/19 15:46,sternberg task,yes,sternbergtask.osexp,C:/Users/DLGoupil/Desktop,no,mono,no,18,no,white,no,yes,768,legacy,114,11,C:/Users/DLGoupil/Desktop/dg-subject-2.csv,legacy,8 3,Kafkaesque Koffka,3.2.8,2,y,0,left,right,right,left,NA,830,2255,3816,830,NA,2,legacy,2,1024,2,48000,-16,experiment,2,even,3,799726,796390,797517,2044,797520,703453,2048,80591,801729,802561,798523,84407,4304,801729,NA,New experiment,121,114504,127,yes,1024
95.3125,95.3125,899.8046875,899.8046875,black,experiment,legacy,legacy,legacy,0,uniform,1,undefined,1,left,127,127,127,0,127,127,0,0,127,127,127,0,0,127,0,10/27/19 15:46,sternberg task,yes,sternbergtask.osexp,C:/Users/DLGoupil/Desktop,no,mono,no,18,no,white,no,yes,768,legacy,115,11,C:/Users/DLGoupil/Desktop/dg-subject-2.csv,legacy,8,Kafkaesque Koffka,3.2.8,1,y,0,left,right,right,left,NA,671,2255,3816,671,NA,2,legacy,1,1024,2,48000,-16,experiment,2,even,8,805909,802565,803701,2044,803703,703453,2048,80591,807912,808585,804706,84407,4304,807912,NA,New experiment,122,115175,128,yes,1024
95.34883721,95.34883721,899.9612403,899.9612403,black,experiment,legacy,legacy,legacy,0,uniform,1,undefined,1,left,128,128,128,0,128,128,0,0,128,128,128,0,0,128,0,10/27/19 15:46,sternberg task,yes,sternbergtask.osexp,C:/Users/DLGoupil/Desktop,no,mono,no,18,no,white,no,yes,768,legacy,116,11,C:/Users/DLGoupil/Desktop/dg-subject-2.csv,legacy,8 9 6 1,Kafkaesque Koffka,3.2.8,2,y,0,left,right,right,left,NA,920,2255,3816,920,NA,2,legacy,4,1024,2,48000,-16,experiment,2,even,9,811933,808590,809725,2044,809727,703453,2048,80591,813936,814857,810730,84407,4304,813936,NA,New experiment,123,116095,129,yes,1024
94.61538462,94.61538462,908.4230769,908.4230769,black,experiment,legacy,legacy,legacy,0,uniform,0,undefined,0,right,129,129,129,0,129,129,0,0,129,129,129,0,0,129,0,10/27/19 15:46,sternberg task,yes,sternbergtask.osexp,C:/Users/DLGoupil/Desktop,no,mono,no,18,no,white,no,yes,768,legacy,117,11,C:/Users/DLGoupil/Desktop/dg-subject-2.csv,legacy,4 1,Kafkaesque Koffka,3.2.8,0,n,0,None,right,right,None,NA,2000,2255,3816,2000,NA,2,legacy,2,1024,2,48000,-16,experiment,2,even,6,818204,814862,815996,2044,815998,703453,2048,80591,820207,822208,817001,84407,4304,820207,NA,New experiment,123,118095,130,yes,1024
94.65648855,94.65648855,907.6030534,907.6030534,black,experiment,legacy,legacy,legacy,0,uniform,1,undefined,1,right,130,130,130,0,130,130,0,0,130,130,130,0,0,130,0,10/27/19 15:46,sternberg task,yes,sternbergtask.osexp,C:/Users/DLGoupil/Desktop,no,mono,no,18,no,white,no,yes,768,legacy,118,11,C:/Users/DLGoupil/Desktop/dg-subject-2.csv,legacy,2 8 6 3 1,Kafkaesque Koffka,3.2.8,0,n,0,right,right,right,right,NA,801,2255,3816,801,NA,2,legacy,5,1024,2,48000,-16,experiment,2,even,7,825555,814862,823346,2044,823349,822213,2048,80591,827558,828361,824352,84407,4304,827558,NA,New experiment,124,118896,131,yes,1024
94.6969697,94.6969697,906.0984848,906.0984848,black,experiment,legacy,legacy,legacy,0,uniform,1,undefined,1,left,131,131,131,0,131,131,0,0,131,131,131,0,0,131,0,10/27/19 15:46,sternberg task,yes,sternbergtask.osexp,C:/Users/DLGoupil/Desktop,no,mono,no,18,no,white,no,yes,768,legacy,119,11,C:/Users/DLGoupil/Desktop/dg-subject-2.csv,legacy,2 8 5 1,Kafkaesque Koffka,3.2.8,4,y,0,left,right,right,left,NA,709,2255,3816,709,NA,2,legacy,4,1024,2,48000,-16,experiment,2,even,1,831712,828365,829503,2044,829506,822213,2048,80591,833715,834425,830509,84407,4304,833715,NA,New experiment,125,119605,132,yes,1024
94.73684211,94.73684211,908.1203008,908.1203008,black,experiment,legacy,legacy,legacy,0,uniform,1,undefined,1,right,132,132,132,0,132,132,0,0,132,132,132,0,0,132,0,10/27/19 15:46,sternberg task,yes,sternbergtask.osexp,C:/Users/DLGoupil/Desktop,no,mono,no,18,no,white,no,yes,768,legacy,120,11,C:/Users/DLGoupil/Desktop/dg-subject-2.csv,legacy,7 4 2 8 1 9,Kafkaesque Koffka,3.2.8,0,n,0,right,right,right,right,NA,1175,2255,3816,1175,NA,2,legacy,6,1024,2,48000,-16,experiment,2,even,5,837781,834430,835572,2044,835575,822213,2048,80591,839784,840961,836578,84407,4304,839784,NA,New experiment,126,120780,133,yes,1024
94.7761194,94.7761194,907.8134328,907.8134328,black,experiment,legacy,legacy,legacy,0,uniform,1,undefined,1,left,133,133,133,0,133,133,0,0,133,133,133,0,0,133,0,10/27/19 15:46,sternberg task,yes,sternbergtask.osexp,C:/Users/DLGoupil/Desktop,no,mono,no,18,no,white,no,yes,768,legacy,121,11,C:/Users/DLGoupil/Desktop/dg-subject-2.csv,legacy,6 5,Kafkaesque Koffka,3.2.8,2,y,0,left,right,right,left,NA,867,2255,3816,867,NA,2,legacy,2,1024,2,48000,-16,experiment,2,even,5,844305,840966,842097,2044,842099,822213,2048,80591,846308,847177,843102,84407,4304,846308,NA,New experiment,127,121647,134,yes,1024
94.81481481,94.81481481,908.9185185,908.9185185,black,experiment,legacy,legacy,legacy,0,uniform,1,undefined,1,right,134,134,134,0,134,134,0,0,134,134,134,0,0,134,0,10/27/19 15:46,sternberg task,yes,sternbergtask.osexp,C:/Users/DLGoupil/Desktop,no,mono,no,18,no,white,no,yes,768,legacy,122,11,C:/Users/DLGoupil/Desktop/dg-subject-2.csv,legacy,9,Kafkaesque Koffka,3.2.8,0,n,0,right,right,right,right,NA,1057,2255,3816,1057,NA,2,legacy,1,1024,2,48000,-16,experiment,2,even,6,850531,847182,848323,2044,848325,822213,2048,80591,852534,853593,849328,84407,4304,852534,NA,New experiment,128,122704,135,yes,1024
94.85294118,94.85294118,909.1544118,909.1544118,black,experiment,legacy,legacy,legacy,0,uniform,1,undefined,1,left,135,135,135,0,135,135,0,0,135,135,135,0,0,135,0,10/27/19 15:46,sternberg task,yes,sternbergtask.osexp,C:/Users/DLGoupil/Desktop,no,mono,no,18,no,white,no,yes,768,legacy,123,11,C:/Users/DLGoupil/Desktop/dg-subject-2.csv,legacy,2 6 1 7 4,Kafkaesque Koffka,3.2.8,2,y,0,left,right,right,left,NA,941,2255,3816,941,NA,2,legacy,5,1024,2,48000,-16,experiment,2,even,6,856951,853598,854742,2044,854745,822213,2048,80591,858954,859897,855748,84407,4304,858954,NA,New experiment,129,123645,136,yes,1024
94.89051095,94.89051095,912.3357664,912.3357664,black,experiment,legacy,legacy,legacy,0,uniform,1,undefined,1,right,136,136,136,0,136,136,0,0,136,136,136,0,0,136,0,10/27/19 15:46,sternberg task,yes,sternbergtask.osexp,C:/Users/DLGoupil/Desktop,no,mono,no,18,no,white,no,yes,768,legacy,124,11,C:/Users/DLGoupil/Desktop/dg-subject-2.csv,legacy,2 6 4 3 9,Kafkaesque Koffka,3.2.8,0,n,0,right,right,right,right,NA,1345,2255,3816,1345,NA,2,legacy,5,1024,2,48000,-16,experiment,2,even,1,863243,859902,861035,2044,861037,822213,2048,80591,865246,866593,862040,84407,4304,865246,NA,New experiment,130,124990,137,yes,1024
94.92753623,94.92753623,914.8985507,914.8985507,black,experiment,legacy,legacy,legacy,0,uniform,1,undefined,1,left,137,137,137,0,137,137,0,0,137,137,137,0,0,137,0,10/27/19 15:46,sternberg task,yes,sternbergtask.osexp,C:/Users/DLGoupil/Desktop,no,mono,no,18,no,white,no,yes,768,legacy,125,11,C:/Users/DLGoupil/Desktop/dg-subject-2.csv,legacy,3 5 7 1,Kafkaesque Koffka,3.2.8,3,y,0,left,right,right,left,NA,1266,2255,3816,1266,NA,2,legacy,4,1024,2,48000,-16,experiment,2,even,7,869946,866598,867738,2044,867740,822213,2048,80591,871949,873217,868743,84407,4304,871949,NA,New experiment,131,126256,138,yes,1024