"acc","accuracy","average_response_time","avg_rt","background","block","canvas_backend","clock_backend","color_backend","compensation","coordinates","correct","correct_instruction1","correct_new_keyboard_response","correct_response","count_ISI","count_PracticeLoop","count_correctFeedback","count_expSequence","count_experiment","count_experimentLoop","count_fixation","count_incorrectFeedback","count_instruction1","count_instruction2","count_logger","count_memorySet","count_new_keyboard_response","count_probe","count_thankYou","datetime","description","disable_garbage_collection","experiment_file","experiment_path","font_bold","font_family","font_italic","font_size","font_underline","foreground","form_clicks","fullscreen","height","keyboard_backend","live_row","live_row_PracticeLoop","logfile","mouse_backend","numberSet","opensesame_codename","opensesame_version","posInSet","present","repeat_cycle","response","response_instruction1","response_instruction2","response_new_keyboard_response","response_thankYou","response_time","response_time_instruction1","response_time_instruction2","response_time_new_keyboard_response","response_time_thankYou","round_decimals","sampler_backend","setSize","sound_buf_size","sound_channels","sound_freq","sound_sample_size","start","subject_nr","subject_parity","target","time_ISI","time_PracticeLoop","time_correctFeedback","time_expSequence","time_experiment","time_experimentLoop","time_fixation","time_incorrectFeedback","time_instruction1","time_instruction2","time_logger","time_memorySet","time_new_keyboard_response","time_probe","time_thankYou","title","total_correct","total_response_time","total_responses","uniform_coordinates","width"
"0","0","1392","1392","black","practice","legacy","legacy","legacy","0","uniform","0","undefined","0","right","0","0","0","0","0","0","0","0","0","0","0","0","0","0","0","Mon Oct 11 21:12:47 2021","The main experiment item","yes","Sternbergtask.osexp","C:/Users/warne/OneDrive/Documents/Tarleton - MS Applied Psychology/Adv Quantitative Methods and Experimental Design/Labs","no","mono","no","18","no","white","no","yes","768","legacy","0","0","C:/Users/warne/OneDrive/Documents/Tarleton - MS Applied Psychology/Adv Quantitative Methods and Experimental Design/Labs/AW-subject-2.csv","legacy","2 1","Lentiform Loewenfeld","3.3.9","0","n","0","left","right","NA","left","NA","1392","28378","NA","1392","NA","2","legacy","2","1024","2","48000","-16","experiment","2","even","5","33345","30619","NA","31134","2228","NA","31136","NA","2241","NA","36738","32141","35346","35346","NA","Sternberg task","0","1392","1","yes","1024"
"50","50","982.5","982.5","black","practice","legacy","legacy","legacy","0","uniform","1","undefined","1","left","1","0","1","1","0","0","1","1","0","0","1","1","1","1","0","Mon Oct 11 21:12:47 2021","The main experiment item","yes","Sternbergtask.osexp","C:/Users/warne/OneDrive/Documents/Tarleton - MS Applied Psychology/Adv Quantitative Methods and Experimental Design/Labs","no","mono","no","18","no","white","no","yes","768","legacy","1","1","C:/Users/warne/OneDrive/Documents/Tarleton - MS Applied Psychology/Adv Quantitative Methods and Experimental Design/Labs/AW-subject-2.csv","legacy","6","Lentiform Loewenfeld","3.3.9","1","y","0","left","right","NA","left","NA","573","28378","NA","573","NA","2","legacy","1","1024","2","48000","-16","experiment","2","even","6","40049","30619","NA","37842","2228","NA","37844","36772","2241","NA","42623","38845","42050","42050","NA","Sternberg task","1","1965","2","yes","1024"
"66.66666666666667","66.66666666666667","963.3333333333334","963.3333333333334","black","practice","legacy","legacy","legacy","0","uniform","1","undefined","1","left","2","0","2","2","0","0","2","2","0","0","2","2","2","2","0","Mon Oct 11 21:12:47 2021","The main experiment item","yes","Sternbergtask.osexp","C:/Users/warne/OneDrive/Documents/Tarleton - MS Applied Psychology/Adv Quantitative Methods and Experimental Design/Labs","no","mono","no","18","no","white","no","yes","768","legacy","2","2","C:/Users/warne/OneDrive/Documents/Tarleton - MS Applied Psychology/Adv Quantitative Methods and Experimental Design/Labs/AW-subject-2.csv","legacy","2 9 4","Lentiform Loewenfeld","3.3.9","3","y","0","left","right","NA","left","NA","925","28378","NA","925","NA","2","legacy","3","1024","2","48000","-16","experiment","2","even","4","45905","30619","42627","43697","2228","NA","43699","36772","2241","NA","48831","44700","47906","47906","NA","Sternberg task","2","2890","3","yes","1024"
"75","75","845","845","black","practice","legacy","legacy","legacy","0","uniform","1","undefined","1","right","3","0","3","3","0","0","3","3","0","0","3","3","3","3","0","Mon Oct 11 21:12:47 2021","The main experiment item","yes","Sternbergtask.osexp","C:/Users/warne/OneDrive/Documents/Tarleton - MS Applied Psychology/Adv Quantitative Methods and Experimental Design/Labs","no","mono","no","18","no","white","no","yes","768","legacy","3","3","C:/Users/warne/OneDrive/Documents/Tarleton - MS Applied Psychology/Adv Quantitative Methods and Experimental Design/Labs/AW-subject-2.csv","legacy","5","Lentiform Loewenfeld","3.3.9","0","n","0","right","right","NA","right","NA","490","28378","NA","490","NA","2","legacy","1","1024","2","48000","-16","experiment","2","even","3","52115","30619","48838","49907","2228","NA","49909","36772","2241","NA","54606","50910","54116","54116","NA","Sternberg task","3","3380","4","yes","1024"
"80","80","783.6","783.6","black","practice","legacy","legacy","legacy","0","uniform","1","undefined","1","left","4","0","4","4","0","0","4","4","0","0","4","4","4","4","0","Mon Oct 11 21:12:47 2021","The main experiment item","yes","Sternbergtask.osexp","C:/Users/warne/OneDrive/Documents/Tarleton - MS Applied Psychology/Adv Quantitative Methods and Experimental Design/Labs","no","mono","no","18","no","white","no","yes","768","legacy","4","4","C:/Users/warne/OneDrive/Documents/Tarleton - MS Applied Psychology/Adv Quantitative Methods and Experimental Design/Labs/AW-subject-2.csv","legacy","4 8","Lentiform Loewenfeld","3.3.9","1","y","0","left","right","NA","left","NA","538","28378","NA","538","NA","2","legacy","2","1024","2","48000","-16","experiment","2","even","4","57904","30619","54611","55696","2228","NA","55698","36772","2241","NA","60443","56699","59905","59905","NA","Sternberg task","4","3918","5","yes","1024"
"83.33333333333333","83.33333333333333","882.6666666666666","882.6666666666666","black","practice","legacy","legacy","legacy","0","uniform","1","undefined","1","right","5","0","5","5","0","0","5","5","0","0","5","5","5","5","0","Mon Oct 11 21:12:47 2021","The main experiment item","yes","Sternbergtask.osexp","C:/Users/warne/OneDrive/Documents/Tarleton - MS Applied Psychology/Adv Quantitative Methods and Experimental Design/Labs","no","mono","no","18","no","white","no","yes","768","legacy","5","5","C:/Users/warne/OneDrive/Documents/Tarleton - MS Applied Psychology/Adv Quantitative Methods and Experimental Design/Labs/AW-subject-2.csv","legacy","3 1 9 4","Lentiform Loewenfeld","3.3.9","0","n","0","right","right","NA","right","NA","1378","28378","NA","1378","NA","2","legacy","4","1024","2","48000","-16","experiment","2","even","6","63723","30619","60448","61514","2228","NA","61517","36772","2241","NA","67103","62518","65724","65724","NA","Sternberg task","5","5296","6","yes","1024"
"85.71428571428571","85.71428571428571","934.2857142857143","934.2857142857143","black","practice","legacy","legacy","legacy","0","uniform","1","undefined","1","right","6","0","6","6","0","0","6","6","0","0","6","6","6","6","0","Mon Oct 11 21:12:47 2021","The main experiment item","yes","Sternbergtask.osexp","C:/Users/warne/OneDrive/Documents/Tarleton - MS Applied Psychology/Adv Quantitative Methods and Experimental Design/Labs","no","mono","no","18","no","white","no","yes","768","legacy","6","6","C:/Users/warne/OneDrive/Documents/Tarleton - MS Applied Psychology/Adv Quantitative Methods and Experimental Design/Labs/AW-subject-2.csv","legacy","5 7 8 4 1 2","Lentiform Loewenfeld","3.3.9","0","n","0","right","right","NA","right","NA","1244","28378","NA","1244","NA","2","legacy","6","1024","2","48000","-16","experiment","2","even","6","70382","30619","67106","68175","2228","NA","68177","36772","2241","NA","73627","69178","72383","72383","NA","Sternberg task","6","6540","7","yes","1024"
"87.5","87.5","879.5","879.5","black","practice","legacy","legacy","legacy","0","uniform","1","undefined","1","left","7","0","7","7","0","0","7","7","0","0","7","7","7","7","0","Mon Oct 11 21:12:47 2021","The main experiment item","yes","Sternbergtask.osexp","C:/Users/warne/OneDrive/Documents/Tarleton - MS Applied Psychology/Adv Quantitative Methods and Experimental Design/Labs","no","mono","no","18","no","white","no","yes","768","legacy","7","7","C:/Users/warne/OneDrive/Documents/Tarleton - MS Applied Psychology/Adv Quantitative Methods and Experimental Design/Labs/AW-subject-2.csv","legacy","1 5 2 9","Lentiform Loewenfeld","3.3.9","2","y","0","left","right","NA","left","NA","496","28378","NA","496","NA","2","legacy","4","1024","2","48000","-16","experiment","2","even","5","76906","30619","73630","74699","2228","NA","74700","36772","2241","NA","79403","75702","78907","78907","NA","Sternberg task","7","7036","8","yes","1024"
"88.88888888888889","88.88888888888889","878","878","black","practice","legacy","legacy","legacy","0","uniform","1","undefined","1","left","8","0","8","8","0","0","8","8","0","0","8","8","8","8","0","Mon Oct 11 21:12:47 2021","The main experiment item","yes","Sternbergtask.osexp","C:/Users/warne/OneDrive/Documents/Tarleton - MS Applied Psychology/Adv Quantitative Methods and Experimental Design/Labs","no","mono","no","18","no","white","no","yes","768","legacy","8","8","C:/Users/warne/OneDrive/Documents/Tarleton - MS Applied Psychology/Adv Quantitative Methods and Experimental Design/Labs/AW-subject-2.csv","legacy","4 3 1 7 9 8","Lentiform Loewenfeld","3.3.9","1","y","0","left","right","NA","left","NA","866","28378","NA","866","NA","2","legacy","6","1024","2","48000","-16","experiment","2","even","4","82683","30619","79407","80476","2228","NA","80478","36772","2241","NA","85550","81479","84684","84684","NA","Sternberg task","8","7902","9","yes","1024"
"90","90","856.1","856.1","black","practice","legacy","legacy","legacy","0","uniform","1","undefined","1","right","9","0","9","9","0","0","9","9","0","0","9","9","9","9","0","Mon Oct 11 21:12:47 2021","The main experiment item","yes","Sternbergtask.osexp","C:/Users/warne/OneDrive/Documents/Tarleton - MS Applied Psychology/Adv Quantitative Methods and Experimental Design/Labs","no","mono","no","18","no","white","no","yes","768","legacy","9","9","C:/Users/warne/OneDrive/Documents/Tarleton - MS Applied Psychology/Adv Quantitative Methods and Experimental Design/Labs/AW-subject-2.csv","legacy","9 6 7 4 5","Lentiform Loewenfeld","3.3.9","0","n","0","right","right","NA","right","NA","659","28378","NA","659","NA","2","legacy","5","1024","2","48000","-16","experiment","2","even","3","88846","30619","85555","86639","2228","NA","86641","36772","2241","NA","91506","87642","90847","90847","NA","Sternberg task","9","8561","10","yes","1024"
"90.9090909090909","90.9090909090909","858.6363636363636","858.6363636363636","black","practice","legacy","legacy","legacy","0","uniform","1","undefined","1","left","10","0","10","10","0","0","10","10","0","0","10","10","10","10","0","Mon Oct 11 21:12:47 2021","The main experiment item","yes","Sternbergtask.osexp","C:/Users/warne/OneDrive/Documents/Tarleton - MS Applied Psychology/Adv Quantitative Methods and Experimental Design/Labs","no","mono","no","18","no","white","no","yes","768","legacy","10","10","C:/Users/warne/OneDrive/Documents/Tarleton - MS Applied Psychology/Adv Quantitative Methods and Experimental Design/Labs/AW-subject-2.csv","legacy","1 7 9 8 5","Lentiform Loewenfeld","3.3.9","4","y","0","left","right","NA","left","NA","884","28378","NA","884","NA","2","legacy","5","1024","2","48000","-16","experiment","2","even","8","94786","30619","91511","92579","2228","NA","92581","36772","2241","NA","97671","93582","96787","96787","NA","Sternberg task","10","9445","11","yes","1024"
"91.66666666666667","91.66666666666667","842.0833333333334","842.0833333333334","black","practice","legacy","legacy","legacy","0","uniform","1","undefined","1","right","11","0","11","11","0","0","11","11","0","0","11","11","11","11","0","Mon Oct 11 21:12:47 2021","The main experiment item","yes","Sternbergtask.osexp","C:/Users/warne/OneDrive/Documents/Tarleton - MS Applied Psychology/Adv Quantitative Methods and Experimental Design/Labs","no","mono","no","18","no","white","no","yes","768","legacy","11","11","C:/Users/warne/OneDrive/Documents/Tarleton - MS Applied Psychology/Adv Quantitative Methods and Experimental Design/Labs/AW-subject-2.csv","legacy","4 1 5","Lentiform Loewenfeld","3.3.9","0","n","0","right","right","NA","right","NA","660","28378","NA","660","NA","2","legacy","3","1024","2","48000","-16","experiment","2","even","2","100950","30619","97676","98744","2228","NA","98745","36772","2241","NA","103611","99746","102951","102951","NA","Sternberg task","11","10105","12","yes","1024"
"92.3076923076923","92.3076923076923","824.7692307692307","824.7692307692307","black","experiment","legacy","legacy","legacy","0","uniform","1","undefined","1","right","12","0","12","12","0","0","12","12","0","0","12","12","12","12","0","Mon Oct 11 21:12:47 2021","The main experiment item","yes","Sternbergtask.osexp","C:/Users/warne/OneDrive/Documents/Tarleton - MS Applied Psychology/Adv Quantitative Methods and Experimental Design/Labs","no","mono","no","18","no","white","no","yes","768","legacy","0","11","C:/Users/warne/OneDrive/Documents/Tarleton - MS Applied Psychology/Adv Quantitative Methods and Experimental Design/Labs/AW-subject-2.csv","legacy","1 6 4 3 9 7","Lentiform Loewenfeld","3.3.9","0","n","0","right","right","right","right","NA","617","28378","7240","617","NA","2","legacy","6","1024","2","48000","-16","experiment","2","even","8","114164","30619","103629","111958","2228","111891","111959","36772","2241","104651","116782","112960","116165","116165","NA","Sternberg task","12","10722","13","yes","1024"
"92.85714285714286","92.85714285714286","827.5714285714286","827.5714285714286","black","experiment","legacy","legacy","legacy","0","uniform","1","undefined","1","right","13","0","13","13","0","0","13","13","0","0","13","13","13","13","0","Mon Oct 11 21:12:47 2021","The main experiment item","yes","Sternbergtask.osexp","C:/Users/warne/OneDrive/Documents/Tarleton - MS Applied Psychology/Adv Quantitative Methods and Experimental Design/Labs","no","mono","no","18","no","white","no","yes","768","legacy","1","11","C:/Users/warne/OneDrive/Documents/Tarleton - MS Applied Psychology/Adv Quantitative Methods and Experimental Design/Labs/AW-subject-2.csv","legacy","5 3 2 6 9 8","Lentiform Loewenfeld","3.3.9","0","n","0","right","right","right","right","NA","864","28378","7240","864","NA","2","legacy","6","1024","2","48000","-16","experiment","2","even","4","120066","30619","116789","117859","2228","111891","117861","36772","2241","104651","122931","118862","122067","122067","NA","Sternberg task","13","11586","14","yes","1024"
"93.33333333333333","93.33333333333333","811.4666666666667","811.4666666666667","black","experiment","legacy","legacy","legacy","0","uniform","1","undefined","1","right","14","0","14","14","0","0","14","14","0","0","14","14","14","14","0","Mon Oct 11 21:12:47 2021","The main experiment item","yes","Sternbergtask.osexp","C:/Users/warne/OneDrive/Documents/Tarleton - MS Applied Psychology/Adv Quantitative Methods and Experimental Design/Labs","no","mono","no","18","no","white","no","yes","768","legacy","2","11","C:/Users/warne/OneDrive/Documents/Tarleton - MS Applied Psychology/Adv Quantitative Methods and Experimental Design/Labs/AW-subject-2.csv","legacy","4 8 1 2","Lentiform Loewenfeld","3.3.9","0","n","0","right","right","right","right","NA","586","28378","7240","586","NA","2","legacy","4","1024","2","48000","-16","experiment","2","even","7","126224","30619","122949","124017","2228","111891","124019","36772","2241","104651","128811","125020","128225","128225","NA","Sternberg task","14","12172","15","yes","1024"
"93.75","93.75","832.1875","832.1875","black","experiment","legacy","legacy","legacy","0","uniform","1","undefined","1","left","15","0","15","15","0","0","15","15","0","0","15","15","15","15","0","Mon Oct 11 21:12:47 2021","The main experiment item","yes","Sternbergtask.osexp","C:/Users/warne/OneDrive/Documents/Tarleton - MS Applied Psychology/Adv Quantitative Methods and Experimental Design/Labs","no","mono","no","18","no","white","no","yes","768","legacy","3","11","C:/Users/warne/OneDrive/Documents/Tarleton - MS Applied Psychology/Adv Quantitative Methods and Experimental Design/Labs/AW-subject-2.csv","legacy","4 9 7 8 5 3","Lentiform Loewenfeld","3.3.9","4","y","0","left","right","right","left","NA","1143","28378","7240","1143","NA","2","legacy","6","1024","2","48000","-16","experiment","2","even","8","132103","30619","128829","129896","2228","111891","129898","36772","2241","104651","135247","130899","134104","134104","NA","Sternberg task","15","13315","16","yes","1024"
"94.11764705882354","94.11764705882354","828.2941176470588","828.2941176470588","black","experiment","legacy","legacy","legacy","0","uniform","1","undefined","1","right","16","0","16","16","0","0","16","16","0","0","16","16","16","16","0","Mon Oct 11 21:12:47 2021","The main experiment item","yes","Sternbergtask.osexp","C:/Users/warne/OneDrive/Documents/Tarleton - MS Applied Psychology/Adv Quantitative Methods and Experimental Design/Labs","no","mono","no","18","no","white","no","yes","768","legacy","4","11","C:/Users/warne/OneDrive/Documents/Tarleton - MS Applied Psychology/Adv Quantitative Methods and Experimental Design/Labs/AW-subject-2.csv","legacy","6 9 4 5 2","Lentiform Loewenfeld","3.3.9","0","n","0","right","right","right","right","NA","766","28378","7240","766","NA","2","legacy","5","1024","2","48000","-16","experiment","2","even","1","138527","30619","135252","136320","2228","111891","136321","36772","2241","104651","141294","137323","140528","140528","NA","Sternberg task","16","14081","17","yes","1024"
"94.44444444444444","94.44444444444444","815.4444444444445","815.4444444444445","black","experiment","legacy","legacy","legacy","0","uniform","1","undefined","1","left","17","0","17","17","0","0","17","17","0","0","17","17","17","17","0","Mon Oct 11 21:12:47 2021","The main experiment item","yes","Sternbergtask.osexp","C:/Users/warne/OneDrive/Documents/Tarleton - MS Applied Psychology/Adv Quantitative Methods and Experimental Design/Labs","no","mono","no","18","no","white","no","yes","768","legacy","5","11","C:/Users/warne/OneDrive/Documents/Tarleton - MS Applied Psychology/Adv Quantitative Methods and Experimental Design/Labs/AW-subject-2.csv","legacy","8 7 3","Lentiform Loewenfeld","3.3.9","1","y","0","left","right","right","left","NA","597","28378","7240","597","NA","2","legacy","3","1024","2","48000","-16","experiment","2","even","8","144575","30619","141299","142368","2228","111891","142370","36772","2241","104651","147173","143371","146576","146576","NA","Sternberg task","17","14678","18","yes","1024"
"94.73684210526316","94.73684210526316","818.2105263157895","818.2105263157895","black","experiment","legacy","legacy","legacy","0","uniform","1","undefined","1","left","18","0","18","18","0","0","18","18","0","0","18","18","18","18","0","Mon Oct 11 21:12:47 2021","The main experiment item","yes","Sternbergtask.osexp","C:/Users/warne/OneDrive/Documents/Tarleton - MS Applied Psychology/Adv Quantitative Methods and Experimental Design/Labs","no","mono","no","18","no","white","no","yes","768","legacy","6","11","C:/Users/warne/OneDrive/Documents/Tarleton - MS Applied Psychology/Adv Quantitative Methods and Experimental Design/Labs/AW-subject-2.csv","legacy","9 3 1 2 5","Lentiform Loewenfeld","3.3.9","4","y","0","left","right","right","left","NA","868","28378","7240","868","NA","2","legacy","5","1024","2","48000","-16","experiment","2","even","2","150454","30619","147179","148246","2228","111891","148248","36772","2241","104651","153323","149250","152455","152455","NA","Sternberg task","18","15546","19","yes","1024"
"95","95","850.75","850.75","black","experiment","legacy","legacy","legacy","0","uniform","1","undefined","1","left","19","0","19","19","0","0","19","19","0","0","19","19","19","19","0","Mon Oct 11 21:12:47 2021","The main experiment item","yes","Sternbergtask.osexp","C:/Users/warne/OneDrive/Documents/Tarleton - MS Applied Psychology/Adv Quantitative Methods and Experimental Design/Labs","no","mono","no","18","no","white","no","yes","768","legacy","7","11","C:/Users/warne/OneDrive/Documents/Tarleton - MS Applied Psychology/Adv Quantitative Methods and Experimental Design/Labs/AW-subject-2.csv","legacy","6 8 9 3 4 9","Lentiform Loewenfeld","3.3.9","5","y","0","left","right","right","left","NA","1469","28378","7240","1469","NA","2","legacy","6","1024","2","48000","-16","experiment","2","even","4","156604","30619","153329","154398","2228","111891","154399","36772","2241","104651","160074","155400","158605","158605","NA","Sternberg task","19","17015","20","yes","1024"
"95.23809523809524","95.23809523809524","864.3809523809524","864.3809523809524","black","experiment","legacy","legacy","legacy","0","uniform","1","undefined","1","left","20","0","20","20","0","0","20","20","0","0","20","20","20","20","0","Mon Oct 11 21:12:47 2021","The main experiment item","yes","Sternbergtask.osexp","C:/Users/warne/OneDrive/Documents/Tarleton - MS Applied Psychology/Adv Quantitative Methods and Experimental Design/Labs","no","mono","no","18","no","white","no","yes","768","legacy","8","11","C:/Users/warne/OneDrive/Documents/Tarleton - MS Applied Psychology/Adv Quantitative Methods and Experimental Design/Labs/AW-subject-2.csv","legacy","8 5 4 7 3 1","Lentiform Loewenfeld","3.3.9","2","y","0","left","right","right","left","NA","1137","28378","7240","1137","NA","2","legacy","6","1024","2","48000","-16","experiment","2","even","5","163352","30619","160078","161145","2228","111891","161147","36772","2241","104651","166491","162148","165353","165353","NA","Sternberg task","20","18152","21","yes","1024"
"95.45454545454545","95.45454545454545","866.0909090909091","866.0909090909091","black","experiment","legacy","legacy","legacy","0","uniform","1","undefined","1","right","21","0","21","21","0","0","21","21","0","0","21","21","21","21","0","Mon Oct 11 21:12:47 2021","The main experiment item","yes","Sternbergtask.osexp","C:/Users/warne/OneDrive/Documents/Tarleton - MS Applied Psychology/Adv Quantitative Methods and Experimental Design/Labs","no","mono","no","18","no","white","no","yes","768","legacy","9","11","C:/Users/warne/OneDrive/Documents/Tarleton - MS Applied Psychology/Adv Quantitative Methods and Experimental Design/Labs/AW-subject-2.csv","legacy","8 5 7 3 6","Lentiform Loewenfeld","3.3.9","0","n","0","right","right","right","right","NA","902","28378","7240","902","NA","2","legacy","5","1024","2","48000","-16","experiment","2","even","9","169768","30619","166494","167563","2228","111891","167565","36772","2241","104651","172671","168566","171769","171769","NA","Sternberg task","21","19054","22","yes","1024"
"95.65217391304348","95.65217391304348","852.6521739130435","852.6521739130435","black","experiment","legacy","legacy","legacy","0","uniform","1","undefined","1","right","22","0","22","22","0","0","22","22","0","0","22","22","22","22","0","Mon Oct 11 21:12:47 2021","The main experiment item","yes","Sternbergtask.osexp","C:/Users/warne/OneDrive/Documents/Tarleton - MS Applied Psychology/Adv Quantitative Methods and Experimental Design/Labs","no","mono","no","18","no","white","no","yes","768","legacy","10","11","C:/Users/warne/OneDrive/Documents/Tarleton - MS Applied Psychology/Adv Quantitative Methods and Experimental Design/Labs/AW-subject-2.csv","legacy","8 9","Lentiform Loewenfeld","3.3.9","0","n","0","right","right","right","right","NA","557","28378","7240","557","NA","2","legacy","2","1024","2","48000","-16","experiment","2","even","5","175965","30619","172687","173753","2228","111891","173755","36772","2241","104651","178523","174760","177966","177966","NA","Sternberg task","22","19611","23","yes","1024"
"91.66666666666667","91.66666666666667","863.3333333333334","863.3333333333334","black","experiment","legacy","legacy","legacy","0","uniform","0","undefined","0","left","23","0","23","23","0","0","23","23","0","0","23","23","23","23","0","Mon Oct 11 21:12:47 2021","The main experiment item","yes","Sternbergtask.osexp","C:/Users/warne/OneDrive/Documents/Tarleton - MS Applied Psychology/Adv Quantitative Methods and Experimental Design/Labs","no","mono","no","18","no","white","no","yes","768","legacy","11","11","C:/Users/warne/OneDrive/Documents/Tarleton - MS Applied Psychology/Adv Quantitative Methods and Experimental Design/Labs/AW-subject-2.csv","legacy","6 9 7 4 5 1","Lentiform Loewenfeld","3.3.9","2","y","0","right","right","right","right","NA","1109","28378","7240","1109","NA","2","legacy","6","1024","2","48000","-16","experiment","2","even","9","181804","30619","178528","179596","2228","111891","179598","36772","2241","104651","184914","180600","183805","183805","NA","Sternberg task","22","20720","24","yes","1024"
"88","88","857.52","857.52","black","experiment","legacy","legacy","legacy","0","uniform","0","undefined","0","left","24","0","24","24","0","0","24","24","0","0","24","24","24","24","0","Mon Oct 11 21:12:47 2021","The main experiment item","yes","Sternbergtask.osexp","C:/Users/warne/OneDrive/Documents/Tarleton - MS Applied Psychology/Adv Quantitative Methods and Experimental Design/Labs","no","mono","no","18","no","white","no","yes","768","legacy","12","11","C:/Users/warne/OneDrive/Documents/Tarleton - MS Applied Psychology/Adv Quantitative Methods and Experimental Design/Labs/AW-subject-2.csv","legacy","8 1 6","Lentiform Loewenfeld","3.3.9","3","y","0","right","right","right","right","NA","718","28378","7240","718","NA","2","legacy","3","1024","2","48000","-16","experiment","2","even","6","188196","30619","178528","185987","2228","111891","185990","184919","2241","104651","190915","186991","190197","190197","NA","Sternberg task","22","21438","25","yes","1024"
"88.46153846153847","88.46153846153847","864.7307692307693","864.7307692307693","black","experiment","legacy","legacy","legacy","0","uniform","1","undefined","1","left","25","0","25","25","0","0","25","25","0","0","25","25","25","25","0","Mon Oct 11 21:12:47 2021","The main experiment item","yes","Sternbergtask.osexp","C:/Users/warne/OneDrive/Documents/Tarleton - MS Applied Psychology/Adv Quantitative Methods and Experimental Design/Labs","no","mono","no","18","no","white","no","yes","768","legacy","13","11","C:/Users/warne/OneDrive/Documents/Tarleton - MS Applied Psychology/Adv Quantitative Methods and Experimental Design/Labs/AW-subject-2.csv","legacy","6 7 9 3 1 2","Lentiform Loewenfeld","3.3.9","1","y","0","left","right","right","left","NA","1045","28378","7240","1045","NA","2","legacy","6","1024","2","48000","-16","experiment","2","even","6","194197","30619","178528","191989","2228","111891","191990","190920","2241","104651","197243","192995","196198","196198","NA","Sternberg task","23","22483","26","yes","1024"
"88.88888888888889","88.88888888888889","856","856","black","experiment","legacy","legacy","legacy","0","uniform","1","undefined","1","right","26","0","26","26","0","0","26","26","0","0","26","26","26","26","0","Mon Oct 11 21:12:47 2021","The main experiment item","yes","Sternbergtask.osexp","C:/Users/warne/OneDrive/Documents/Tarleton - MS Applied Psychology/Adv Quantitative Methods and Experimental Design/Labs","no","mono","no","18","no","white","no","yes","768","legacy","14","11","C:/Users/warne/OneDrive/Documents/Tarleton - MS Applied Psychology/Adv Quantitative Methods and Experimental Design/Labs/AW-subject-2.csv","legacy","9","Lentiform Loewenfeld","3.3.9","0","n","0","right","right","right","right","NA","629","28378","7240","629","NA","2","legacy","1","1024","2","48000","-16","experiment","2","even","6","200524","30619","197248","198315","2228","111891","198317","190920","2241","104651","203154","199320","202525","202525","NA","Sternberg task","24","23112","27","yes","1024"
"89.28571428571429","89.28571428571429","841.4285714285714","841.4285714285714","black","experiment","legacy","legacy","legacy","0","uniform","1","undefined","1","left","27","0","27","27","0","0","27","27","0","0","27","27","27","27","0","Mon Oct 11 21:12:47 2021","The main experiment item","yes","Sternbergtask.osexp","C:/Users/warne/OneDrive/Documents/Tarleton - MS Applied Psychology/Adv Quantitative Methods and Experimental Design/Labs","no","mono","no","18","no","white","no","yes","768","legacy","15","11","C:/Users/warne/OneDrive/Documents/Tarleton - MS Applied Psychology/Adv Quantitative Methods and Experimental Design/Labs/AW-subject-2.csv","legacy","7","Lentiform Loewenfeld","3.3.9","1","y","0","left","right","right","left","NA","448","28378","7240","448","NA","2","legacy","1","1024","2","48000","-16","experiment","2","even","7","206434","30619","203159","204227","2228","111891","204229","190920","2241","104651","208883","205230","208435","208435","NA","Sternberg task","25","23560","28","yes","1024"
"89.65517241379311","89.65517241379311","833.6551724137931","833.6551724137931","black","experiment","legacy","legacy","legacy","0","uniform","1","undefined","1","right","28","0","28","28","0","0","28","28","0","0","28","28","28","28","0","Mon Oct 11 21:12:47 2021","The main experiment item","yes","Sternbergtask.osexp","C:/Users/warne/OneDrive/Documents/Tarleton - MS Applied Psychology/Adv Quantitative Methods and Experimental Design/Labs","no","mono","no","18","no","white","no","yes","768","legacy","16","11","C:/Users/warne/OneDrive/Documents/Tarleton - MS Applied Psychology/Adv Quantitative Methods and Experimental Design/Labs/AW-subject-2.csv","legacy","1 4 9 3","Lentiform Loewenfeld","3.3.9","0","n","0","right","right","right","right","NA","616","28378","7240","616","NA","2","legacy","4","1024","2","48000","-16","experiment","2","even","5","212177","30619","208903","209970","2228","111891","209972","190920","2241","104651","214794","210973","214178","214178","NA","Sternberg task","26","24176","29","yes","1024"
"90","90","843.8333333333334","843.8333333333334","black","experiment","legacy","legacy","legacy","0","uniform","1","undefined","1","left","29","0","29","29","0","0","29","29","0","0","29","29","29","29","0","Mon Oct 11 21:12:47 2021","The main experiment item","yes","Sternbergtask.osexp","C:/Users/warne/OneDrive/Documents/Tarleton - MS Applied Psychology/Adv Quantitative Methods and Experimental Design/Labs","no","mono","no","18","no","white","no","yes","768","legacy","17","11","C:/Users/warne/OneDrive/Documents/Tarleton - MS Applied Psychology/Adv Quantitative Methods and Experimental Design/Labs/AW-subject-2.csv","legacy","5 7 3 6 2","Lentiform Loewenfeld","3.3.9","5","y","0","left","right","right","left","NA","1139","28378","7240","1139","NA","2","legacy","5","1024","2","48000","-16","experiment","2","even","2","218074","30619","214799","215867","2228","111891","215868","190920","2241","104651","221214","216869","220075","220075","NA","Sternberg task","27","25315","30","yes","1024"
"87.09677419354838","87.09677419354838","835.9032258064516","835.9032258064516","black","experiment","legacy","legacy","legacy","0","uniform","0","undefined","0","left","30","0","30","30","0","0","30","30","0","0","30","30","30","30","0","Mon Oct 11 21:12:47 2021","The main experiment item","yes","Sternbergtask.osexp","C:/Users/warne/OneDrive/Documents/Tarleton - MS Applied Psychology/Adv Quantitative Methods and Experimental Design/Labs","no","mono","no","18","no","white","no","yes","768","legacy","18","11","C:/Users/warne/OneDrive/Documents/Tarleton - MS Applied Psychology/Adv Quantitative Methods and Experimental Design/Labs/AW-subject-2.csv","legacy","3 2 1 4 7","Lentiform Loewenfeld","3.3.9","2","y","0","right","right","right","right","NA","598","28378","7240","598","NA","2","legacy","5","1024","2","48000","-16","experiment","2","even","2","224494","30619","221219","222287","2228","111891","222289","190920","2241","104651","227094","223290","226495","226495","NA","Sternberg task","27","25913","31","yes","1024"
"87.5","87.5","850.09375","850.09375","black","experiment","legacy","legacy","legacy","0","uniform","1","undefined","1","left","31","0","31","31","0","0","31","31","0","0","31","31","31","31","0","Mon Oct 11 21:12:47 2021","The main experiment item","yes","Sternbergtask.osexp","C:/Users/warne/OneDrive/Documents/Tarleton - MS Applied Psychology/Adv Quantitative Methods and Experimental Design/Labs","no","mono","no","18","no","white","no","yes","768","legacy","19","11","C:/Users/warne/OneDrive/Documents/Tarleton - MS Applied Psychology/Adv Quantitative Methods and Experimental Design/Labs/AW-subject-2.csv","legacy","3 4 9 6 2 9","Lentiform Loewenfeld","3.3.9","5","y","0","left","right","right","left","NA","1290","28378","7240","1290","NA","2","legacy","6","1024","2","48000","-16","experiment","2","even","2","230372","30619","221219","228165","2228","111891","228166","227099","2241","104651","233663","229167","232373","232373","NA","Sternberg task","28","27203","32","yes","1024"
"87.87878787878788","87.87878787878788","857.7575757575758","857.7575757575758","black","experiment","legacy","legacy","legacy","0","uniform","1","undefined","1","right","32","0","32","32","0","0","32","32","0","0","32","32","32","32","0","Mon Oct 11 21:12:47 2021","The main experiment item","yes","Sternbergtask.osexp","C:/Users/warne/OneDrive/Documents/Tarleton - MS Applied Psychology/Adv Quantitative Methods and Experimental Design/Labs","no","mono","no","18","no","white","no","yes","768","legacy","20","11","C:/Users/warne/OneDrive/Documents/Tarleton - MS Applied Psychology/Adv Quantitative Methods and Experimental Design/Labs/AW-subject-2.csv","legacy","7 3 2 8","Lentiform Loewenfeld","3.3.9","0","n","0","right","right","right","right","NA","1103","28378","7240","1103","NA","2","legacy","4","1024","2","48000","-16","experiment","2","even","4","236942","30619","233669","234735","2228","111891","234737","227099","2241","104651","240050","235738","238946","238945","NA","Sternberg task","29","28306","33","yes","1024"
"88.23529411764706","88.23529411764706","855.2352941176471","855.2352941176471","black","experiment","legacy","legacy","legacy","0","uniform","1","undefined","1","left","33","0","33","33","0","0","33","33","0","0","33","33","33","33","0","Mon Oct 11 21:12:47 2021","The main experiment item","yes","Sternbergtask.osexp","C:/Users/warne/OneDrive/Documents/Tarleton - MS Applied Psychology/Adv Quantitative Methods and Experimental Design/Labs","no","mono","no","18","no","white","no","yes","768","legacy","21","11","C:/Users/warne/OneDrive/Documents/Tarleton - MS Applied Psychology/Adv Quantitative Methods and Experimental Design/Labs/AW-subject-2.csv","legacy","4 1 5","Lentiform Loewenfeld","3.3.9","2","y","0","left","right","right","left","NA","772","28378","7240","772","NA","2","legacy","3","1024","2","48000","-16","experiment","2","even","1","243341","30619","240067","241135","2228","111891","241136","227099","2241","104651","246115","242137","245342","245342","NA","Sternberg task","30","29078","34","yes","1024"
"88.57142857142857","88.57142857142857","849.5714285714286","849.5714285714286","black","experiment","legacy","legacy","legacy","0","uniform","1","undefined","1","right","34","0","34","34","0","0","34","34","0","0","34","34","34","34","0","Mon Oct 11 21:12:47 2021","The main experiment item","yes","Sternbergtask.osexp","C:/Users/warne/OneDrive/Documents/Tarleton - MS Applied Psychology/Adv Quantitative Methods and Experimental Design/Labs","no","mono","no","18","no","white","no","yes","768","legacy","22","11","C:/Users/warne/OneDrive/Documents/Tarleton - MS Applied Psychology/Adv Quantitative Methods and Experimental Design/Labs/AW-subject-2.csv","legacy","9 7 4 5 8","Lentiform Loewenfeld","3.3.9","0","n","0","right","right","right","right","NA","657","28378","7240","657","NA","2","legacy","5","1024","2","48000","-16","experiment","2","even","6","249397","30619","246121","247190","2228","111891","247192","227099","2241","104651","252055","248193","251398","251398","NA","Sternberg task","31","29735","35","yes","1024"
"88.88888888888889","88.88888888888889","861.6111111111111","861.6111111111111","black","experiment","legacy","legacy","legacy","0","uniform","1","undefined","1","right","35","0","35","35","0","0","35","35","0","0","35","35","35","35","0","Mon Oct 11 21:12:47 2021","The main experiment item","yes","Sternbergtask.osexp","C:/Users/warne/OneDrive/Documents/Tarleton - MS Applied Psychology/Adv Quantitative Methods and Experimental Design/Labs","no","mono","no","18","no","white","no","yes","768","legacy","23","11","C:/Users/warne/OneDrive/Documents/Tarleton - MS Applied Psychology/Adv Quantitative Methods and Experimental Design/Labs/AW-subject-2.csv","legacy","9 5 3 2 8 6","Lentiform Loewenfeld","3.3.9","0","n","0","right","right","right","right","NA","1283","28378","7240","1283","NA","2","legacy","6","1024","2","48000","-16","experiment","2","even","7","255339","30619","252060","253128","2228","111891","253130","227099","2241","104651","258623","254135","257340","257340","NA","Sternberg task","32","31018","36","yes","1024"
"89.1891891891892","89.1891891891892","857.3513513513514","857.3513513513514","black","experiment","legacy","legacy","legacy","0","uniform","1","undefined","1","right","36","0","36","36","0","0","36","36","0","0","36","36","36","36","0","Mon Oct 11 21:12:47 2021","The main experiment item","yes","Sternbergtask.osexp","C:/Users/warne/OneDrive/Documents/Tarleton - MS Applied Psychology/Adv Quantitative Methods and Experimental Design/Labs","no","mono","no","18","no","white","no","yes","768","legacy","24","11","C:/Users/warne/OneDrive/Documents/Tarleton - MS Applied Psychology/Adv Quantitative Methods and Experimental Design/Labs/AW-subject-2.csv","legacy","9 8 2 7 4","Lentiform Loewenfeld","3.3.9","0","n","0","right","right","right","right","NA","704","28378","7240","704","NA","2","legacy","5","1024","2","48000","-16","experiment","2","even","5","261917","30619","258641","259710","2228","111891","259712","227099","2241","104651","264622","260713","263918","263918","NA","Sternberg task","33","31722","37","yes","1024"
"86.84210526315789","86.84210526315789","849.9736842105264","849.9736842105264","black","experiment","legacy","legacy","legacy","0","uniform","0","undefined","0","right","37","0","37","37","0","0","37","37","0","0","37","37","37","37","0","Mon Oct 11 21:12:47 2021","The main experiment item","yes","Sternbergtask.osexp","C:/Users/warne/OneDrive/Documents/Tarleton - MS Applied Psychology/Adv Quantitative Methods and Experimental Design/Labs","no","mono","no","18","no","white","no","yes","768","legacy","25","11","C:/Users/warne/OneDrive/Documents/Tarleton - MS Applied Psychology/Adv Quantitative Methods and Experimental Design/Labs/AW-subject-2.csv","legacy","2 8 9 4 1","Lentiform Loewenfeld","3.3.9","0","n","0","left","right","right","left","NA","577","28378","7240","577","NA","2","legacy","5","1024","2","48000","-16","experiment","2","even","5","267913","30619","264639","265706","2228","111891","265708","227099","2241","104651","270491","266709","269914","269914","NA","Sternberg task","33","32299","38","yes","1024"
"87.17948717948718","87.17948717948718","841.974358974359","841.974358974359","black","experiment","legacy","legacy","legacy","0","uniform","1","undefined","1","left","38","0","38","38","0","0","38","38","0","0","38","38","38","38","0","Mon Oct 11 21:12:47 2021","The main experiment item","yes","Sternbergtask.osexp","C:/Users/warne/OneDrive/Documents/Tarleton - MS Applied Psychology/Adv Quantitative Methods and Experimental Design/Labs","no","mono","no","18","no","white","no","yes","768","legacy","26","11","C:/Users/warne/OneDrive/Documents/Tarleton - MS Applied Psychology/Adv Quantitative Methods and Experimental Design/Labs/AW-subject-2.csv","legacy","8","Lentiform Loewenfeld","3.3.9","1","y","0","left","right","right","left","NA","538","28378","7240","538","NA","2","legacy","1","1024","2","48000","-16","experiment","2","even","8","273771","30619","264639","271563","2228","111891","271565","270496","2241","104651","276310","272567","275772","275772","NA","Sternberg task","34","32837","39","yes","1024"
"87.5","87.5","841.55","841.55","black","experiment","legacy","legacy","legacy","0","uniform","1","undefined","1","right","39","0","39","39","0","0","39","39","0","0","39","39","39","39","0","Mon Oct 11 21:12:47 2021","The main experiment item","yes","Sternbergtask.osexp","C:/Users/warne/OneDrive/Documents/Tarleton - MS Applied Psychology/Adv Quantitative Methods and Experimental Design/Labs","no","mono","no","18","no","white","no","yes","768","legacy","27","11","C:/Users/warne/OneDrive/Documents/Tarleton - MS Applied Psychology/Adv Quantitative Methods and Experimental Design/Labs/AW-subject-2.csv","legacy","2 7 5","Lentiform Loewenfeld","3.3.9","0","n","0","right","right","right","right","NA","825","28378","7240","825","NA","2","legacy","3","1024","2","48000","-16","experiment","2","even","8","279589","30619","276315","277383","2228","111891","277384","270496","2241","104651","282415","278385","281590","281590","NA","Sternberg task","35","33662","40","yes","1024"
"87.8048780487805","87.8048780487805","861.2682926829268","861.2682926829268","black","experiment","legacy","legacy","legacy","0","uniform","1","undefined","1","right","40","0","40","40","0","0","40","40","0","0","40","40","40","40","0","Mon Oct 11 21:12:47 2021","The main experiment item","yes","Sternbergtask.osexp","C:/Users/warne/OneDrive/Documents/Tarleton - MS Applied Psychology/Adv Quantitative Methods and Experimental Design/Labs","no","mono","no","18","no","white","no","yes","768","legacy","28","11","C:/Users/warne/OneDrive/Documents/Tarleton - MS Applied Psychology/Adv Quantitative Methods and Experimental Design/Labs/AW-subject-2.csv","legacy","7 9 1 6","Lentiform Loewenfeld","3.3.9","0","n","0","right","right","right","right","NA","1650","28378","7240","1650","NA","2","legacy","4","1024","2","48000","-16","experiment","2","even","4","285695","30619","282420","283488","2228","111891","283490","270496","2241","104651","289346","284491","287696","287696","NA","Sternberg task","36","35312","41","yes","1024"
"85.71428571428571","85.71428571428571","862.7857142857143","862.7857142857143","black","experiment","legacy","legacy","legacy","0","uniform","0","undefined","0","right","41","0","41","41","0","0","41","41","0","0","41","41","41","41","0","Mon Oct 11 21:12:47 2021","The main experiment item","yes","Sternbergtask.osexp","C:/Users/warne/OneDrive/Documents/Tarleton - MS Applied Psychology/Adv Quantitative Methods and Experimental Design/Labs","no","mono","no","18","no","white","no","yes","768","legacy","29","11","C:/Users/warne/OneDrive/Documents/Tarleton - MS Applied Psychology/Adv Quantitative Methods and Experimental Design/Labs/AW-subject-2.csv","legacy","1 5 3 2 8","Lentiform Loewenfeld","3.3.9","0","n","0","left","right","right","left","NA","925","28378","7240","925","NA","2","legacy","5","1024","2","48000","-16","experiment","2","even","4","292626","30619","289351","290420","2228","111891","290421","270496","2241","104651","295554","291422","294628","294628","NA","Sternberg task","36","36237","42","yes","1024"
"83.72093023255815","83.72093023255815","856.7441860465116","856.7441860465116","black","experiment","legacy","legacy","legacy","0","uniform","0","undefined","0","right","42","0","42","42","0","0","42","42","0","0","42","42","42","42","0","Mon Oct 11 21:12:47 2021","The main experiment item","yes","Sternbergtask.osexp","C:/Users/warne/OneDrive/Documents/Tarleton - MS Applied Psychology/Adv Quantitative Methods and Experimental Design/Labs","no","mono","no","18","no","white","no","yes","768","legacy","30","11","C:/Users/warne/OneDrive/Documents/Tarleton - MS Applied Psychology/Adv Quantitative Methods and Experimental Design/Labs/AW-subject-2.csv","legacy","1 6 4","Lentiform Loewenfeld","3.3.9","0","n","0","left","right","right","left","NA","603","28378","7240","603","NA","2","legacy","3","1024","2","48000","-16","experiment","2","even","7","298830","30619","289351","296627","2228","111891","296628","295559","2241","104651","301435","297629","300831","300831","NA","Sternberg task","36","36840","43","yes","1024"
"84.0909090909091","84.0909090909091","863.4772727272727","863.4772727272727","black","experiment","legacy","legacy","legacy","0","uniform","1","undefined","1","left","43","0","43","43","0","0","43","43","0","0","43","43","43","43","0","Mon Oct 11 21:12:47 2021","The main experiment item","yes","Sternbergtask.osexp","C:/Users/warne/OneDrive/Documents/Tarleton - MS Applied Psychology/Adv Quantitative Methods and Experimental Design/Labs","no","mono","no","18","no","white","no","yes","768","legacy","31","11","C:/Users/warne/OneDrive/Documents/Tarleton - MS Applied Psychology/Adv Quantitative Methods and Experimental Design/Labs/AW-subject-2.csv","legacy","2 4 6 9","Lentiform Loewenfeld","3.3.9","3","y","0","left","right","right","left","NA","1153","28378","7240","1153","NA","2","legacy","4","1024","2","48000","-16","experiment","2","even","6","304715","30619","289351","302508","2228","111891","302510","301442","2241","104651","307870","303511","306716","306716","NA","Sternberg task","37","37993","44","yes","1024"
"84.44444444444444","84.44444444444444","864.2","864.2","black","experiment","legacy","legacy","legacy","0","uniform","1","undefined","1","left","44","0","44","44","0","0","44","44","0","0","44","44","44","44","0","Mon Oct 11 21:12:47 2021","The main experiment item","yes","Sternbergtask.osexp","C:/Users/warne/OneDrive/Documents/Tarleton - MS Applied Psychology/Adv Quantitative Methods and Experimental Design/Labs","no","mono","no","18","no","white","no","yes","768","legacy","32","11","C:/Users/warne/OneDrive/Documents/Tarleton - MS Applied Psychology/Adv Quantitative Methods and Experimental Design/Labs/AW-subject-2.csv","legacy","9 4 2","Lentiform Loewenfeld","3.3.9","1","y","0","left","right","right","left","NA","896","28378","7240","896","NA","2","legacy","3","1024","2","48000","-16","experiment","2","even","9","311164","30619","307889","308957","2228","111891","308958","301442","2241","104651","314062","309959","313165","313165","NA","Sternberg task","38","38889","45","yes","1024"
"82.6086956521739","82.6086956521739","861.6521739130435","861.6521739130435","black","experiment","legacy","legacy","legacy","0","uniform","0","undefined","0","left","45","0","45","45","0","0","45","45","0","0","45","45","45","45","0","Mon Oct 11 21:12:47 2021","The main experiment item","yes","Sternbergtask.osexp","C:/Users/warne/OneDrive/Documents/Tarleton - MS Applied Psychology/Adv Quantitative Methods and Experimental Design/Labs","no","mono","no","18","no","white","no","yes","768","legacy","33","11","C:/Users/warne/OneDrive/Documents/Tarleton - MS Applied Psychology/Adv Quantitative Methods and Experimental Design/Labs/AW-subject-2.csv","legacy","8 9 6 1","Lentiform Loewenfeld","3.3.9","2","y","0","right","right","right","right","NA","747","28378","7240","747","NA","2","legacy","4","1024","2","48000","-16","experiment","2","even","9","317346","30619","314067","315140","2228","111891","315141","301442","2241","104651","320095","316142","319348","319348","NA","Sternberg task","38","39636","46","yes","1024"
"82.97872340425532","82.97872340425532","863.7234042553191","863.7234042553191","black","experiment","legacy","legacy","legacy","0","uniform","1","undefined","1","right","46","0","46","46","0","0","46","46","0","0","46","46","46","46","0","Mon Oct 11 21:12:47 2021","The main experiment item","yes","Sternbergtask.osexp","C:/Users/warne/OneDrive/Documents/Tarleton - MS Applied Psychology/Adv Quantitative Methods and Experimental Design/Labs","no","mono","no","18","no","white","no","yes","768","legacy","34","11","C:/Users/warne/OneDrive/Documents/Tarleton - MS Applied Psychology/Adv Quantitative Methods and Experimental Design/Labs/AW-subject-2.csv","legacy","4 2 6 9","Lentiform Loewenfeld","3.3.9","0","n","0","right","right","right","right","NA","959","28378","7240","959","NA","2","legacy","4","1024","2","48000","-16","experiment","2","even","7","323375","30619","314067","321168","2228","111891","321169","320100","2241","104651","326335","322171","325376","325376","NA","Sternberg task","39","40595","47","yes","1024"
"81.25","81.25","864.6875","864.6875","black","experiment","legacy","legacy","legacy","0","uniform","0","undefined","0","right","47","0","47","47","0","0","47","47","0","0","47","47","47","47","0","Mon Oct 11 21:12:47 2021","The main experiment item","yes","Sternbergtask.osexp","C:/Users/warne/OneDrive/Documents/Tarleton - MS Applied Psychology/Adv Quantitative Methods and Experimental Design/Labs","no","mono","no","18","no","white","no","yes","768","legacy","35","11","C:/Users/warne/OneDrive/Documents/Tarleton - MS Applied Psychology/Adv Quantitative Methods and Experimental Design/Labs/AW-subject-2.csv","legacy","7 1","Lentiform Loewenfeld","3.3.9","0","n","0","left","right","right","left","NA","910","28378","7240","910","NA","2","legacy","2","1024","2","48000","-16","experiment","2","even","8","329619","30619","326342","327412","2228","111891","327414","320100","2241","104651","332530","328415","331620","331620","NA","Sternberg task","39","41505","48","yes","1024"
"79.59183673469387","79.59183673469387","865.0612244897959","865.0612244897959","black","experiment","legacy","legacy","legacy","0","uniform","0","undefined","0","right","48","0","48","48","0","0","48","48","0","0","48","48","48","48","0","Mon Oct 11 21:12:47 2021","The main experiment item","yes","Sternbergtask.osexp","C:/Users/warne/OneDrive/Documents/Tarleton - MS Applied Psychology/Adv Quantitative Methods and Experimental Design/Labs","no","mono","no","18","no","white","no","yes","768","legacy","36","11","C:/Users/warne/OneDrive/Documents/Tarleton - MS Applied Psychology/Adv Quantitative Methods and Experimental Design/Labs/AW-subject-2.csv","legacy","2 8 6 3 1","Lentiform Loewenfeld","3.3.9","0","n","0","left","right","right","left","NA","883","28378","7240","883","NA","2","legacy","5","1024","2","48000","-16","experiment","2","even","7","335810","30619","326342","333603","2228","111891","333605","332536","2241","104651","338694","334606","337811","337811","NA","Sternberg task","39","42388","49","yes","1024"
"78","78","860.04","860.04","black","experiment","legacy","legacy","legacy","0","uniform","0","undefined","0","left","49","0","49","49","0","0","49","49","0","0","49","49","49","49","0","Mon Oct 11 21:12:47 2021","The main experiment item","yes","Sternbergtask.osexp","C:/Users/warne/OneDrive/Documents/Tarleton - MS Applied Psychology/Adv Quantitative Methods and Experimental Design/Labs","no","mono","no","18","no","white","no","yes","768","legacy","37","11","C:/Users/warne/OneDrive/Documents/Tarleton - MS Applied Psychology/Adv Quantitative Methods and Experimental Design/Labs/AW-subject-2.csv","legacy","7 8 4 6 9 5","Lentiform Loewenfeld","3.3.9","4","y","0","right","right","right","right","NA","614","28378","7240","614","NA","2","legacy","6","1024","2","48000","-16","experiment","2","even","6","341975","30619","326342","339768","2228","111891","339770","338699","2241","104651","344591","340771","343976","343976","NA","Sternberg task","39","43002","50","yes","1024"
"78.43137254901961","78.43137254901961","856.8823529411765","856.8823529411765","black","experiment","legacy","legacy","legacy","0","uniform","1","undefined","1","right","50","0","50","50","0","0","50","50","0","0","50","50","50","50","0","Mon Oct 11 21:12:47 2021","The main experiment item","yes","Sternbergtask.osexp","C:/Users/warne/OneDrive/Documents/Tarleton - MS Applied Psychology/Adv Quantitative Methods and Experimental Design/Labs","no","mono","no","18","no","white","no","yes","768","legacy","38","11","C:/Users/warne/OneDrive/Documents/Tarleton - MS Applied Psychology/Adv Quantitative Methods and Experimental Design/Labs/AW-subject-2.csv","legacy","7 6 4 8 1 2","Lentiform Loewenfeld","3.3.9","0","n","0","right","right","right","right","NA","699","28378","7240","699","NA","2","legacy","6","1024","2","48000","-16","experiment","2","even","9","347874","30619","326342","345665","2228","111891","345668","344597","2241","104651","350575","346669","349875","349875","NA","Sternberg task","40","43701","51","yes","1024"
"76.92307692307692","76.92307692307692","852.5961538461538","852.5961538461538","black","experiment","legacy","legacy","legacy","0","uniform","0","undefined","0","left","51","0","51","51","0","0","51","51","0","0","51","51","51","51","0","Mon Oct 11 21:12:47 2021","The main experiment item","yes","Sternbergtask.osexp","C:/Users/warne/OneDrive/Documents/Tarleton - MS Applied Psychology/Adv Quantitative Methods and Experimental Design/Labs","no","mono","no","18","no","white","no","yes","768","legacy","39","11","C:/Users/warne/OneDrive/Documents/Tarleton - MS Applied Psychology/Adv Quantitative Methods and Experimental Design/Labs/AW-subject-2.csv","legacy","8 3","Lentiform Loewenfeld","3.3.9","2","y","0","right","right","right","right","NA","634","28378","7240","634","NA","2","legacy","2","1024","2","48000","-16","experiment","2","even","3","353852","30619","350578","351645","2228","111891","351647","344597","2241","104651","356487","352648","355853","355853","NA","Sternberg task","40","44335","52","yes","1024"
"77.35849056603773","77.35849056603773","850.9056603773585","850.9056603773585","black","experiment","legacy","legacy","legacy","0","uniform","1","undefined","1","left","52","0","52","52","0","0","52","52","0","0","52","52","52","52","0","Mon Oct 11 21:12:47 2021","The main experiment item","yes","Sternbergtask.osexp","C:/Users/warne/OneDrive/Documents/Tarleton - MS Applied Psychology/Adv Quantitative Methods and Experimental Design/Labs","no","mono","no","18","no","white","no","yes","768","legacy","40","11","C:/Users/warne/OneDrive/Documents/Tarleton - MS Applied Psychology/Adv Quantitative Methods and Experimental Design/Labs/AW-subject-2.csv","legacy","5 2 6","Lentiform Loewenfeld","3.3.9","2","y","0","left","right","right","left","NA","763","28378","7240","763","NA","2","legacy","3","1024","2","48000","-16","experiment","2","even","2","359766","30619","350578","357560","2228","111891","357562","356492","2241","104651","362530","358563","361767","361767","NA","Sternberg task","41","45098","53","yes","1024"
"77.77777777777777","77.77777777777777","853.7592592592592","853.7592592592592","black","experiment","legacy","legacy","legacy","0","uniform","1","undefined","1","right","53","0","53","53","0","0","53","53","0","0","53","53","53","53","0","Mon Oct 11 21:12:47 2021","The main experiment item","yes","Sternbergtask.osexp","C:/Users/warne/OneDrive/Documents/Tarleton - MS Applied Psychology/Adv Quantitative Methods and Experimental Design/Labs","no","mono","no","18","no","white","no","yes","768","legacy","41","11","C:/Users/warne/OneDrive/Documents/Tarleton - MS Applied Psychology/Adv Quantitative Methods and Experimental Design/Labs/AW-subject-2.csv","legacy","1 3 2 6 9","Lentiform Loewenfeld","3.3.9","0","n","0","right","right","right","right","NA","1005","28378","7240","1005","NA","2","legacy","5","1024","2","48000","-16","experiment","2","even","5","365812","30619","362535","363602","2228","111891","363603","356492","2241","104651","368819","364608","367814","367814","NA","Sternberg task","42","46103","54","yes","1024"
"76.36363636363636","76.36363636363636","863.3090909090909","863.3090909090909","black","experiment","legacy","legacy","legacy","0","uniform","0","undefined","0","left","54","0","54","54","0","0","54","54","0","0","54","54","54","54","0","Mon Oct 11 21:12:47 2021","The main experiment item","yes","Sternbergtask.osexp","C:/Users/warne/OneDrive/Documents/Tarleton - MS Applied Psychology/Adv Quantitative Methods and Experimental Design/Labs","no","mono","no","18","no","white","no","yes","768","legacy","42","11","C:/Users/warne/OneDrive/Documents/Tarleton - MS Applied Psychology/Adv Quantitative Methods and Experimental Design/Labs/AW-subject-2.csv","legacy","9 1 6 7 8","Lentiform Loewenfeld","3.3.9","1","y","0","right","right","right","right","NA","1379","28378","7240","1379","NA","2","legacy","5","1024","2","48000","-16","experiment","2","even","9","372098","30619","368824","369892","2228","111891","369893","356492","2241","104651","375479","370894","374099","374099","NA","Sternberg task","42","47482","55","yes","1024"
"76.78571428571429","76.78571428571429","865.5178571428571","865.5178571428571","black","experiment","legacy","legacy","legacy","0","uniform","1","undefined","1","left","55","0","55","55","0","0","55","55","0","0","55","55","55","55","0","Mon Oct 11 21:12:47 2021","The main experiment item","yes","Sternbergtask.osexp","C:/Users/warne/OneDrive/Documents/Tarleton - MS Applied Psychology/Adv Quantitative Methods and Experimental Design/Labs","no","mono","no","18","no","white","no","yes","768","legacy","43","11","C:/Users/warne/OneDrive/Documents/Tarleton - MS Applied Psychology/Adv Quantitative Methods and Experimental Design/Labs/AW-subject-2.csv","legacy","7 6","Lentiform Loewenfeld","3.3.9","2","y","0","left","right","right","left","NA","987","28378","7240","987","NA","2","legacy","2","1024","2","48000","-16","experiment","2","even","6","378758","30619","368824","376554","2228","111891","376556","375486","2241","104651","381747","377557","380759","380759","NA","Sternberg task","43","48469","56","yes","1024"
"75.43859649122807","75.43859649122807","867.0526315789474","867.0526315789474","black","experiment","legacy","legacy","legacy","0","uniform","0","undefined","0","right","56","0","56","56","0","0","56","56","0","0","56","56","56","56","0","Mon Oct 11 21:12:47 2021","The main experiment item","yes","Sternbergtask.osexp","C:/Users/warne/OneDrive/Documents/Tarleton - MS Applied Psychology/Adv Quantitative Methods and Experimental Design/Labs","no","mono","no","18","no","white","no","yes","768","legacy","44","11","C:/Users/warne/OneDrive/Documents/Tarleton - MS Applied Psychology/Adv Quantitative Methods and Experimental Design/Labs/AW-subject-2.csv","legacy","5 9 2 3","Lentiform Loewenfeld","3.3.9","0","n","0","left","right","right","left","NA","953","28378","7240","953","NA","2","legacy","4","1024","2","48000","-16","experiment","2","even","8","385027","30619","381752","382820","2228","111891","382821","375486","2241","104651","387986","383822","387033","387032","NA","Sternberg task","43","49422","57","yes","1024"
"75.86206896551724","75.86206896551724","861.3965517241379","861.3965517241379","black","experiment","legacy","legacy","legacy","0","uniform","1","undefined","1","right","57","0","57","57","0","0","57","57","0","0","57","57","57","57","0","Mon Oct 11 21:12:47 2021","The main experiment item","yes","Sternbergtask.osexp","C:/Users/warne/OneDrive/Documents/Tarleton - MS Applied Psychology/Adv Quantitative Methods and Experimental Design/Labs","no","mono","no","18","no","white","no","yes","768","legacy","45","11","C:/Users/warne/OneDrive/Documents/Tarleton - MS Applied Psychology/Adv Quantitative Methods and Experimental Design/Labs/AW-subject-2.csv","legacy","7 9","Lentiform Loewenfeld","3.3.9","0","n","0","right","right","right","right","NA","539","28378","7240","539","NA","2","legacy","2","1024","2","48000","-16","experiment","2","even","1","391266","30619","381752","389059","2228","111891","389061","387991","2241","104651","393806","390062","393267","393267","NA","Sternberg task","44","49961","58","yes","1024"
"74.57627118644068","74.57627118644068","861.5254237288135","861.5254237288135","black","experiment","legacy","legacy","legacy","0","uniform","0","undefined","0","right","58","0","58","58","0","0","58","58","0","0","58","58","58","58","0","Mon Oct 11 21:12:47 2021","The main experiment item","yes","Sternbergtask.osexp","C:/Users/warne/OneDrive/Documents/Tarleton - MS Applied Psychology/Adv Quantitative Methods and Experimental Design/Labs","no","mono","no","18","no","white","no","yes","768","legacy","46","11","C:/Users/warne/OneDrive/Documents/Tarleton - MS Applied Psychology/Adv Quantitative Methods and Experimental Design/Labs/AW-subject-2.csv","legacy","3 9 1","Lentiform Loewenfeld","3.3.9","0","n","0","left","right","right","left","NA","869","28378","7240","869","NA","2","legacy","3","1024","2","48000","-16","experiment","2","even","7","397087","30619","393812","394881","2228","111891","394882","387991","2241","104651","399958","395883","399088","399088","NA","Sternberg task","44","50830","59","yes","1024"
"75","75","860.8666666666667","860.8666666666667","black","experiment","legacy","legacy","legacy","0","uniform","1","undefined","1","right","59","0","59","59","0","0","59","59","0","0","59","59","59","59","0","Mon Oct 11 21:12:47 2021","The main experiment item","yes","Sternbergtask.osexp","C:/Users/warne/OneDrive/Documents/Tarleton - MS Applied Psychology/Adv Quantitative Methods and Experimental Design/Labs","no","mono","no","18","no","white","no","yes","768","legacy","47","11","C:/Users/warne/OneDrive/Documents/Tarleton - MS Applied Psychology/Adv Quantitative Methods and Experimental Design/Labs/AW-subject-2.csv","legacy","3 4 2","Lentiform Loewenfeld","3.3.9","0","n","0","right","right","right","right","NA","822","28378","7240","822","NA","2","legacy","3","1024","2","48000","-16","experiment","2","even","5","403256","30619","393812","401045","2228","111891","401047","399977","2241","104651","406079","402051","405257","405257","NA","Sternberg task","45","51652","60","yes","1024"
"73.77049180327869","73.77049180327869","859.9672131147541","859.9672131147541","black","experiment","legacy","legacy","legacy","0","uniform","0","undefined","0","left","60","0","60","60","0","0","60","60","0","0","60","60","60","60","0","Mon Oct 11 21:12:47 2021","The main experiment item","yes","Sternbergtask.osexp","C:/Users/warne/OneDrive/Documents/Tarleton - MS Applied Psychology/Adv Quantitative Methods and Experimental Design/Labs","no","mono","no","18","no","white","no","yes","768","legacy","48","11","C:/Users/warne/OneDrive/Documents/Tarleton - MS Applied Psychology/Adv Quantitative Methods and Experimental Design/Labs/AW-subject-2.csv","legacy","9 5 3 8 4","Lentiform Loewenfeld","3.3.9","1","y","0","right","right","right","right","NA","806","28378","7240","806","NA","2","legacy","5","1024","2","48000","-16","experiment","2","even","9","409359","30619","406084","407152","2228","111891","407154","399977","2241","104651","412167","408155","411360","411360","NA","Sternberg task","45","52458","61","yes","1024"
"74.19354838709677","74.19354838709677","862.0806451612904","862.0806451612904","black","experiment","legacy","legacy","legacy","0","uniform","1","undefined","1","right","61","0","61","61","0","0","61","61","0","0","61","61","61","61","0","Mon Oct 11 21:12:47 2021","The main experiment item","yes","Sternbergtask.osexp","C:/Users/warne/OneDrive/Documents/Tarleton - MS Applied Psychology/Adv Quantitative Methods and Experimental Design/Labs","no","mono","no","18","no","white","no","yes","768","legacy","49","11","C:/Users/warne/OneDrive/Documents/Tarleton - MS Applied Psychology/Adv Quantitative Methods and Experimental Design/Labs/AW-subject-2.csv","legacy","3 9 8 1 6 4","Lentiform Loewenfeld","3.3.9","0","n","0","right","right","right","right","NA","991","28378","7240","991","NA","2","legacy","6","1024","2","48000","-16","experiment","2","even","7","415447","30619","406084","413240","2228","111891","413242","412172","2241","104651","418439","414243","417448","417448","NA","Sternberg task","46","53449","62","yes","1024"
"73.01587301587301","73.01587301587301","857.6666666666666","857.6666666666666","black","experiment","legacy","legacy","legacy","0","uniform","0","undefined","0","right","62","0","62","62","0","0","62","62","0","0","62","62","62","62","0","Mon Oct 11 21:12:47 2021","The main experiment item","yes","Sternbergtask.osexp","C:/Users/warne/OneDrive/Documents/Tarleton - MS Applied Psychology/Adv Quantitative Methods and Experimental Design/Labs","no","mono","no","18","no","white","no","yes","768","legacy","50","11","C:/Users/warne/OneDrive/Documents/Tarleton - MS Applied Psychology/Adv Quantitative Methods and Experimental Design/Labs/AW-subject-2.csv","legacy","5","Lentiform Loewenfeld","3.3.9","0","n","0","left","right","right","left","NA","584","28378","7240","584","NA","2","legacy","1","1024","2","48000","-16","experiment","2","even","8","421733","30619","418457","419526","2228","111891","419528","412172","2241","104651","424318","420529","423734","423734","NA","Sternberg task","46","54033","63","yes","1024"
"73.4375","73.4375","866.71875","866.71875","black","experiment","legacy","legacy","legacy","0","uniform","1","undefined","1","right","63","0","63","63","0","0","63","63","0","0","63","63","63","63","0","Mon Oct 11 21:12:47 2021","The main experiment item","yes","Sternbergtask.osexp","C:/Users/warne/OneDrive/Documents/Tarleton - MS Applied Psychology/Adv Quantitative Methods and Experimental Design/Labs","no","mono","no","18","no","white","no","yes","768","legacy","51","11","C:/Users/warne/OneDrive/Documents/Tarleton - MS Applied Psychology/Adv Quantitative Methods and Experimental Design/Labs/AW-subject-2.csv","legacy","5 3 8 7 2 4","Lentiform Loewenfeld","3.3.9","0","n","0","right","right","right","right","NA","1437","28378","7240","1437","NA","2","legacy","6","1024","2","48000","-16","experiment","2","even","9","427612","30619","418457","425405","2228","111891","425407","424337","2241","104651","431050","426408","429613","429613","NA","Sternberg task","47","55470","64","yes","1024"
"73.84615384615384","73.84615384615384","870.9846153846154","870.9846153846154","black","experiment","legacy","legacy","legacy","0","uniform","1","undefined","1","left","64","0","64","64","0","0","64","64","0","0","64","64","64","64","0","Mon Oct 11 21:12:47 2021","The main experiment item","yes","Sternbergtask.osexp","C:/Users/warne/OneDrive/Documents/Tarleton - MS Applied Psychology/Adv Quantitative Methods and Experimental Design/Labs","no","mono","no","18","no","white","no","yes","768","legacy","52","11","C:/Users/warne/OneDrive/Documents/Tarleton - MS Applied Psychology/Adv Quantitative Methods and Experimental Design/Labs/AW-subject-2.csv","legacy","4 6 5 8","Lentiform Loewenfeld","3.3.9","1","y","0","left","right","right","left","NA","1144","28378","7240","1144","NA","2","legacy","4","1024","2","48000","-16","experiment","2","even","4","434330","30619","431055","432123","2228","111891","432125","424337","2241","104651","437475","433126","436331","436331","NA","Sternberg task","48","56614","65","yes","1024"
"72.72727272727273","72.72727272727273","877.9242424242424","877.9242424242424","black","experiment","legacy","legacy","legacy","0","uniform","0","undefined","0","left","65","0","65","65","0","0","65","65","0","0","65","65","65","65","0","Mon Oct 11 21:12:47 2021","The main experiment item","yes","Sternbergtask.osexp","C:/Users/warne/OneDrive/Documents/Tarleton - MS Applied Psychology/Adv Quantitative Methods and Experimental Design/Labs","no","mono","no","18","no","white","no","yes","768","legacy","53","11","C:/Users/warne/OneDrive/Documents/Tarleton - MS Applied Psychology/Adv Quantitative Methods and Experimental Design/Labs/AW-subject-2.csv","legacy","6 5","Lentiform Loewenfeld","3.3.9","2","y","0","right","right","right","right","NA","1329","28378","7240","1329","NA","2","legacy","2","1024","2","48000","-16","experiment","2","even","5","440757","30619","437480","438549","2228","111891","438551","424337","2241","104651","444087","439552","442758","442758","NA","Sternberg task","48","57943","66","yes","1024"
"73.13432835820896","73.13432835820896","885.4179104477612","885.4179104477612","black","experiment","legacy","legacy","legacy","0","uniform","1","undefined","1","right","66","0","66","66","0","0","66","66","0","0","66","66","66","66","0","Mon Oct 11 21:12:47 2021","The main experiment item","yes","Sternbergtask.osexp","C:/Users/warne/OneDrive/Documents/Tarleton - MS Applied Psychology/Adv Quantitative Methods and Experimental Design/Labs","no","mono","no","18","no","white","no","yes","768","legacy","54","11","C:/Users/warne/OneDrive/Documents/Tarleton - MS Applied Psychology/Adv Quantitative Methods and Experimental Design/Labs/AW-subject-2.csv","legacy","7 1 8 4 9 3","Lentiform Loewenfeld","3.3.9","0","n","0","right","right","right","right","NA","1380","28378","7240","1380","NA","2","legacy","6","1024","2","48000","-16","experiment","2","even","6","447366","30619","437480","445160","2228","111891","445161","444092","2241","104651","450747","446162","449367","449367","NA","Sternberg task","49","59323","67","yes","1024"
"73.52941176470588","73.52941176470588","889.8088235294117","889.8088235294117","black","experiment","legacy","legacy","legacy","0","uniform","1","undefined","1","right","67","0","67","67","0","0","67","67","0","0","67","67","67","67","0","Mon Oct 11 21:12:47 2021","The main experiment item","yes","Sternbergtask.osexp","C:/Users/warne/OneDrive/Documents/Tarleton - MS Applied Psychology/Adv Quantitative Methods and Experimental Design/Labs","no","mono","no","18","no","white","no","yes","768","legacy","55","11","C:/Users/warne/OneDrive/Documents/Tarleton - MS Applied Psychology/Adv Quantitative Methods and Experimental Design/Labs/AW-subject-2.csv","legacy","2 6 4 3 9","Lentiform Loewenfeld","3.3.9","0","n","0","right","right","right","right","NA","1184","28378","7240","1184","NA","2","legacy","5","1024","2","48000","-16","experiment","2","even","1","454029","30619","450751","451818","2228","111891","451820","444092","2241","104651","457215","452825","456030","456030","NA","Sternberg task","50","60507","68","yes","1024"
"73.91304347826087","73.91304347826087","885.5652173913044","885.5652173913044","black","experiment","legacy","legacy","legacy","0","uniform","1","undefined","1","left","68","0","68","68","0","0","68","68","0","0","68","68","68","68","0","Mon Oct 11 21:12:47 2021","The main experiment item","yes","Sternbergtask.osexp","C:/Users/warne/OneDrive/Documents/Tarleton - MS Applied Psychology/Adv Quantitative Methods and Experimental Design/Labs","no","mono","no","18","no","white","no","yes","768","legacy","56","11","C:/Users/warne/OneDrive/Documents/Tarleton - MS Applied Psychology/Adv Quantitative Methods and Experimental Design/Labs/AW-subject-2.csv","legacy","2 5 4 8 7","Lentiform Loewenfeld","3.3.9","3","y","0","left","right","right","left","NA","597","28378","7240","597","NA","2","legacy","5","1024","2","48000","-16","experiment","2","even","4","460496","30619","457220","458289","2228","111891","458291","444092","2241","104651","463095","459292","462497","462497","NA","Sternberg task","51","61104","69","yes","1024"
"74.28571428571429","74.28571428571429","886.3142857142857","886.3142857142857","black","experiment","legacy","legacy","legacy","0","uniform","1","undefined","1","right","69","0","69","69","0","0","69","69","0","0","69","69","69","69","0","Mon Oct 11 21:12:47 2021","The main experiment item","yes","Sternbergtask.osexp","C:/Users/warne/OneDrive/Documents/Tarleton - MS Applied Psychology/Adv Quantitative Methods and Experimental Design/Labs","no","mono","no","18","no","white","no","yes","768","legacy","57","11","C:/Users/warne/OneDrive/Documents/Tarleton - MS Applied Psychology/Adv Quantitative Methods and Experimental Design/Labs/AW-subject-2.csv","legacy","1 7 8 3 9","Lentiform Loewenfeld","3.3.9","0","n","0","right","right","right","right","NA","938","28378","7240","938","NA","2","legacy","5","1024","2","48000","-16","experiment","2","even","2","466379","30619","463100","464168","2228","111891","464170","444092","2241","104651","469319","465175","468380","468380","NA","Sternberg task","52","62042","70","yes","1024"
"73.2394366197183","73.2394366197183","887.1408450704225","887.1408450704225","black","experiment","legacy","legacy","legacy","0","uniform","0","undefined","0","right","70","0","70","70","0","0","70","70","0","0","70","70","70","70","0","Mon Oct 11 21:12:47 2021","The main experiment item","yes","Sternbergtask.osexp","C:/Users/warne/OneDrive/Documents/Tarleton - MS Applied Psychology/Adv Quantitative Methods and Experimental Design/Labs","no","mono","no","18","no","white","no","yes","768","legacy","58","11","C:/Users/warne/OneDrive/Documents/Tarleton - MS Applied Psychology/Adv Quantitative Methods and Experimental Design/Labs/AW-subject-2.csv","legacy","2 3 8 5 6 7","Lentiform Loewenfeld","3.3.9","0","n","0","left","right","right","left","NA","945","28378","7240","945","NA","2","legacy","6","1024","2","48000","-16","experiment","2","even","1","472612","30619","469336","470405","2228","111891","470407","444092","2241","104651","475558","471408","474613","474613","NA","Sternberg task","52","62987","71","yes","1024"
"73.61111111111111","73.61111111111111","893.1388888888889","893.1388888888889","black","experiment","legacy","legacy","legacy","0","uniform","1","undefined","1","left","71","0","71","71","0","0","71","71","0","0","71","71","71","71","0","Mon Oct 11 21:12:47 2021","The main experiment item","yes","Sternbergtask.osexp","C:/Users/warne/OneDrive/Documents/Tarleton - MS Applied Psychology/Adv Quantitative Methods and Experimental Design/Labs","no","mono","no","18","no","white","no","yes","768","legacy","59","11","C:/Users/warne/OneDrive/Documents/Tarleton - MS Applied Psychology/Adv Quantitative Methods and Experimental Design/Labs/AW-subject-2.csv","legacy","9 1 7 2","Lentiform Loewenfeld","3.3.9","2","y","0","left","right","right","left","NA","1319","28378","7240","1319","NA","2","legacy","4","1024","2","48000","-16","experiment","2","even","1","478838","30619","469336","476631","2228","111891","476632","475563","2241","104651","482158","477633","480839","480839","NA","Sternberg task","53","64306","72","yes","1024"
"73.97260273972603","73.97260273972603","889.0958904109589","889.0958904109589","black","experiment","legacy","legacy","legacy","0","uniform","1","undefined","1","right","72","0","72","72","0","0","72","72","0","0","72","72","72","72","0","Mon Oct 11 21:12:47 2021","The main experiment item","yes","Sternbergtask.osexp","C:/Users/warne/OneDrive/Documents/Tarleton - MS Applied Psychology/Adv Quantitative Methods and Experimental Design/Labs","no","mono","no","18","no","white","no","yes","768","legacy","60","11","C:/Users/warne/OneDrive/Documents/Tarleton - MS Applied Psychology/Adv Quantitative Methods and Experimental Design/Labs/AW-subject-2.csv","legacy","7 8 6 1","Lentiform Loewenfeld","3.3.9","0","n","0","right","right","right","right","NA","598","28378","7240","598","NA","2","legacy","4","1024","2","48000","-16","experiment","2","even","3","485438","30619","482163","483231","2228","111891","483233","475563","2241","104651","488038","484234","487439","487439","NA","Sternberg task","54","64904","73","yes","1024"
"72.97297297297297","72.97297297297297","884.5675675675676","884.5675675675676","black","experiment","legacy","legacy","legacy","0","uniform","0","undefined","0","right","73","0","73","73","0","0","73","73","0","0","73","73","73","73","0","Mon Oct 11 21:12:47 2021","The main experiment item","yes","Sternbergtask.osexp","C:/Users/warne/OneDrive/Documents/Tarleton - MS Applied Psychology/Adv Quantitative Methods and Experimental Design/Labs","no","mono","no","18","no","white","no","yes","768","legacy","61","11","C:/Users/warne/OneDrive/Documents/Tarleton - MS Applied Psychology/Adv Quantitative Methods and Experimental Design/Labs/AW-subject-2.csv","legacy","2 5 1 4","Lentiform Loewenfeld","3.3.9","0","n","0","left","right","right","left","NA","554","28378","7240","554","NA","2","legacy","4","1024","2","48000","-16","experiment","2","even","6","491319","30619","488043","489112","2228","111891","489113","475563","2241","104651","493874","490115","493320","493320","NA","Sternberg task","54","65458","74","yes","1024"
"72","72","899.44","899.44","black","experiment","legacy","legacy","legacy","0","uniform","0","undefined","0","right","74","0","74","74","0","0","74","74","0","0","74","74","74","74","0","Mon Oct 11 21:12:47 2021","The main experiment item","yes","Sternbergtask.osexp","C:/Users/warne/OneDrive/Documents/Tarleton - MS Applied Psychology/Adv Quantitative Methods and Experimental Design/Labs","no","mono","no","18","no","white","no","yes","768","legacy","62","11","C:/Users/warne/OneDrive/Documents/Tarleton - MS Applied Psychology/Adv Quantitative Methods and Experimental Design/Labs/AW-subject-2.csv","legacy","2 8 7 9 5 3","Lentiform Loewenfeld","3.3.9","0","n","0","None","right","right","None","NA","2000","28378","7240","2000","NA","2","legacy","6","1024","2","48000","-16","experiment","2","even","6","497149","30619","488043","494946","2228","111891","494947","493877","2241","104651","501150","495948","499150","499150","NA","Sternberg task","54","67458","75","yes","1024"
"72.36842105263158","72.36842105263158","894.2236842105264","894.2236842105264","black","experiment","legacy","legacy","legacy","0","uniform","1","undefined","1","right","75","0","75","75","0","0","75","75","0","0","75","75","75","75","0","Mon Oct 11 21:12:47 2021","The main experiment item","yes","Sternbergtask.osexp","C:/Users/warne/OneDrive/Documents/Tarleton - MS Applied Psychology/Adv Quantitative Methods and Experimental Design/Labs","no","mono","no","18","no","white","no","yes","768","legacy","63","11","C:/Users/warne/OneDrive/Documents/Tarleton - MS Applied Psychology/Adv Quantitative Methods and Experimental Design/Labs/AW-subject-2.csv","legacy","1","Lentiform Loewenfeld","3.3.9","0","n","0","right","right","right","right","NA","503","28378","7240","503","NA","2","legacy","1","1024","2","48000","-16","experiment","2","even","7","504434","30619","488043","502224","2228","111891","502225","501156","2241","104651","506938","503229","506435","506435","NA","Sternberg task","55","67961","76","yes","1024"
"71.42857142857143","71.42857142857143","891.9480519480519","891.9480519480519","black","experiment","legacy","legacy","legacy","0","uniform","0","undefined","0","left","76","0","76","76","0","0","76","76","0","0","76","76","76","76","0","Mon Oct 11 21:12:47 2021","The main experiment item","yes","Sternbergtask.osexp","C:/Users/warne/OneDrive/Documents/Tarleton - MS Applied Psychology/Adv Quantitative Methods and Experimental Design/Labs","no","mono","no","18","no","white","no","yes","768","legacy","64","11","C:/Users/warne/OneDrive/Documents/Tarleton - MS Applied Psychology/Adv Quantitative Methods and Experimental Design/Labs/AW-subject-2.csv","legacy","2 6 1 7 4","Lentiform Loewenfeld","3.3.9","2","y","0","right","right","right","right","NA","719","28378","7240","719","NA","2","legacy","5","1024","2","48000","-16","experiment","2","even","6","510218","30619","506943","508011","2228","111891","508013","501156","2241","104651","512938","509014","512219","512219","NA","Sternberg task","55","68680","77","yes","1024"
"71.7948717948718","71.7948717948718","892.8076923076923","892.8076923076923","black","experiment","legacy","legacy","legacy","0","uniform","1","undefined","1","left","77","0","77","77","0","0","77","77","0","0","77","77","77","77","0","Mon Oct 11 21:12:47 2021","The main experiment item","yes","Sternbergtask.osexp","C:/Users/warne/OneDrive/Documents/Tarleton - MS Applied Psychology/Adv Quantitative Methods and Experimental Design/Labs","no","mono","no","18","no","white","no","yes","768","legacy","65","11","C:/Users/warne/OneDrive/Documents/Tarleton - MS Applied Psychology/Adv Quantitative Methods and Experimental Design/Labs/AW-subject-2.csv","legacy","3 9 6 2","Lentiform Loewenfeld","3.3.9","4","y","0","left","right","right","left","NA","959","28378","7240","959","NA","2","legacy","4","1024","2","48000","-16","experiment","2","even","2","516219","30619","506943","514011","2228","111891","514012","512943","2241","104651","519179","515014","518220","518220","NA","Sternberg task","56","69639","78","yes","1024"
"70.88607594936708","70.88607594936708","892.746835443038","892.746835443038","black","experiment","legacy","legacy","legacy","0","uniform","0","undefined","0","right","78","0","78","78","0","0","78","78","0","0","78","78","78","78","0","Mon Oct 11 21:12:47 2021","The main experiment item","yes","Sternbergtask.osexp","C:/Users/warne/OneDrive/Documents/Tarleton - MS Applied Psychology/Adv Quantitative Methods and Experimental Design/Labs","no","mono","no","18","no","white","no","yes","768","legacy","66","11","C:/Users/warne/OneDrive/Documents/Tarleton - MS Applied Psychology/Adv Quantitative Methods and Experimental Design/Labs/AW-subject-2.csv","legacy","7 1 5 6 3","Lentiform Loewenfeld","3.3.9","0","n","0","left","right","right","left","NA","888","28378","7240","888","NA","2","legacy","5","1024","2","48000","-16","experiment","2","even","8","522468","30619","519195","520261","2228","111891","520263","512943","2241","104651","525358","521264","524469","524469","NA","Sternberg task","56","70527","79","yes","1024"
"70","70","900.875","900.875","black","experiment","legacy","legacy","legacy","0","uniform","0","undefined","0","left","79","0","79","79","0","0","79","79","0","0","79","79","79","79","0","Mon Oct 11 21:12:47 2021","The main experiment item","yes","Sternbergtask.osexp","C:/Users/warne/OneDrive/Documents/Tarleton - MS Applied Psychology/Adv Quantitative Methods and Experimental Design/Labs","no","mono","no","18","no","white","no","yes","768","legacy","67","11","C:/Users/warne/OneDrive/Documents/Tarleton - MS Applied Psychology/Adv Quantitative Methods and Experimental Design/Labs/AW-subject-2.csv","legacy","7 1 8 5 6 2","Lentiform Loewenfeld","3.3.9","2","y","0","right","right","right","right","NA","1543","28378","7240","1543","NA","2","legacy","6","1024","2","48000","-16","experiment","2","even","1","528654","30619","519195","526447","2228","111891","526448","525361","2241","104651","532198","527450","530655","530655","NA","Sternberg task","56","72070","80","yes","1024"
"69.1358024691358","69.1358024691358","898.9629629629629","898.9629629629629","black","experiment","legacy","legacy","legacy","0","uniform","0","undefined","0","right","80","0","80","80","0","0","80","80","0","0","80","80","80","80","0","Mon Oct 11 21:12:47 2021","The main experiment item","yes","Sternbergtask.osexp","C:/Users/warne/OneDrive/Documents/Tarleton - MS Applied Psychology/Adv Quantitative Methods and Experimental Design/Labs","no","mono","no","18","no","white","no","yes","768","legacy","68","11","C:/Users/warne/OneDrive/Documents/Tarleton - MS Applied Psychology/Adv Quantitative Methods and Experimental Design/Labs/AW-subject-2.csv","legacy","4 1","Lentiform Loewenfeld","3.3.9","0","n","0","left","right","right","left","NA","746","28378","7240","746","NA","2","legacy","2","1024","2","48000","-16","experiment","2","even","6","535478","30619","519195","533271","2228","111891","533273","532203","2241","104651","538226","534274","537479","537479","NA","Sternberg task","56","72816","81","yes","1024"
"69.51219512195122","69.51219512195122","894.8048780487804","894.8048780487804","black","experiment","legacy","legacy","legacy","0","uniform","1","undefined","1","left","81","0","81","81","0","0","81","81","0","0","81","81","81","81","0","Mon Oct 11 21:12:47 2021","The main experiment item","yes","Sternbergtask.osexp","C:/Users/warne/OneDrive/Documents/Tarleton - MS Applied Psychology/Adv Quantitative Methods and Experimental Design/Labs","no","mono","no","18","no","white","no","yes","768","legacy","69","11","C:/Users/warne/OneDrive/Documents/Tarleton - MS Applied Psychology/Adv Quantitative Methods and Experimental Design/Labs/AW-subject-2.csv","legacy","2 3","Lentiform Loewenfeld","3.3.9","1","y","0","left","right","right","left","NA","558","28378","7240","558","NA","2","legacy","2","1024","2","48000","-16","experiment","2","even","2","541519","30619","519195","539312","2228","111891","539314","538244","2241","104651","544079","540315","543520","543520","NA","Sternberg task","57","73374","82","yes","1024"
"69.87951807228916","69.87951807228916","898.5180722891566","898.5180722891566","black","experiment","legacy","legacy","legacy","0","uniform","1","undefined","1","left","82","0","82","82","0","0","82","82","0","0","82","82","82","82","0","Mon Oct 11 21:12:47 2021","The main experiment item","yes","Sternbergtask.osexp","C:/Users/warne/OneDrive/Documents/Tarleton - MS Applied Psychology/Adv Quantitative Methods and Experimental Design/Labs","no","mono","no","18","no","white","no","yes","768","legacy","70","11","C:/Users/warne/OneDrive/Documents/Tarleton - MS Applied Psychology/Adv Quantitative Methods and Experimental Design/Labs/AW-subject-2.csv","legacy","1 4 9 3 2 5","Lentiform Loewenfeld","3.3.9","3","y","0","left","right","right","left","NA","1203","28378","7240","1203","NA","2","legacy","6","1024","2","48000","-16","experiment","2","even","9","547369","30619","544095","545163","2228","111891","545164","538244","2241","104651","550574","546165","549370","549370","NA","Sternberg task","58","74577","83","yes","1024"
"70.23809523809524","70.23809523809524","896.4404761904761","896.4404761904761","black","experiment","legacy","legacy","legacy","0","uniform","1","undefined","1","right","83","0","83","83","0","0","83","83","0","0","83","83","83","83","0","Mon Oct 11 21:12:47 2021","The main experiment item","yes","Sternbergtask.osexp","C:/Users/warne/OneDrive/Documents/Tarleton - MS Applied Psychology/Adv Quantitative Methods and Experimental Design/Labs","no","mono","no","18","no","white","no","yes","768","legacy","71","11","C:/Users/warne/OneDrive/Documents/Tarleton - MS Applied Psychology/Adv Quantitative Methods and Experimental Design/Labs/AW-subject-2.csv","legacy","6 8","Lentiform Loewenfeld","3.3.9","0","n","0","right","right","right","right","NA","724","28378","7240","724","NA","2","legacy","2","1024","2","48000","-16","experiment","2","even","9","553865","30619","550591","551658","2228","111891","551659","538244","2241","104651","556590","552660","555866","555866","NA","Sternberg task","59","75301","84","yes","1024"
"69.41176470588235","69.41176470588235","893.2705882352941","893.2705882352941","black","experiment","legacy","legacy","legacy","0","uniform","0","undefined","0","left","84","0","84","84","0","0","84","84","0","0","84","84","84","84","0","Mon Oct 11 21:12:47 2021","The main experiment item","yes","Sternbergtask.osexp","C:/Users/warne/OneDrive/Documents/Tarleton - MS Applied Psychology/Adv Quantitative Methods and Experimental Design/Labs","no","mono","no","18","no","white","no","yes","768","legacy","72","11","C:/Users/warne/OneDrive/Documents/Tarleton - MS Applied Psychology/Adv Quantitative Methods and Experimental Design/Labs/AW-subject-2.csv","legacy","7 2 3","Lentiform Loewenfeld","3.3.9","3","y","0","right","right","right","right","NA","627","28378","7240","627","NA","2","legacy","3","1024","2","48000","-16","experiment","2","even","3","559871","30619","556595","557664","2228","111891","557665","538244","2241","104651","562499","558667","561872","561872","NA","Sternberg task","59","75928","85","yes","1024"
"68.6046511627907","68.6046511627907","898.546511627907","898.546511627907","black","experiment","legacy","legacy","legacy","0","uniform","0","undefined","0","right","85","0","85","85","0","0","85","85","0","0","85","85","85","85","0","Mon Oct 11 21:12:47 2021","The main experiment item","yes","Sternbergtask.osexp","C:/Users/warne/OneDrive/Documents/Tarleton - MS Applied Psychology/Adv Quantitative Methods and Experimental Design/Labs","no","mono","no","18","no","white","no","yes","768","legacy","73","11","C:/Users/warne/OneDrive/Documents/Tarleton - MS Applied Psychology/Adv Quantitative Methods and Experimental Design/Labs/AW-subject-2.csv","legacy","1 8 7","Lentiform Loewenfeld","3.3.9","0","n","0","left","right","right","left","NA","1347","28378","7240","1347","NA","2","legacy","3","1024","2","48000","-16","experiment","2","even","4","565778","30619","556595","563571","2228","111891","563572","562504","2241","104651","569127","564574","567779","567779","NA","Sternberg task","59","77275","86","yes","1024"
"67.816091954023","67.816091954023","895.4942528735633","895.4942528735633","black","experiment","legacy","legacy","legacy","0","uniform","0","undefined","0","left","86","0","86","86","0","0","86","86","0","0","86","86","86","86","0","Mon Oct 11 21:12:47 2021","The main experiment item","yes","Sternbergtask.osexp","C:/Users/warne/OneDrive/Documents/Tarleton - MS Applied Psychology/Adv Quantitative Methods and Experimental Design/Labs","no","mono","no","18","no","white","no","yes","768","legacy","74","11","C:/Users/warne/OneDrive/Documents/Tarleton - MS Applied Psychology/Adv Quantitative Methods and Experimental Design/Labs/AW-subject-2.csv","legacy","3 9 7 6 4","Lentiform Loewenfeld","3.3.9","3","y","0","right","right","right","right","NA","633","28378","7240","633","NA","2","legacy","5","1024","2","48000","-16","experiment","2","even","7","572408","30619","556595","570198","2228","111891","570199","569129","2241","104651","575043","571203","574409","574409","NA","Sternberg task","59","77908","87","yes","1024"
"67.04545454545455","67.04545454545455","892.4431818181819","892.4431818181819","black","experiment","legacy","legacy","legacy","0","uniform","0","undefined","0","left","87","0","87","87","0","0","87","87","0","0","87","87","87","87","0","Mon Oct 11 21:12:47 2021","The main experiment item","yes","Sternbergtask.osexp","C:/Users/warne/OneDrive/Documents/Tarleton - MS Applied Psychology/Adv Quantitative Methods and Experimental Design/Labs","no","mono","no","18","no","white","no","yes","768","legacy","75","11","C:/Users/warne/OneDrive/Documents/Tarleton - MS Applied Psychology/Adv Quantitative Methods and Experimental Design/Labs/AW-subject-2.csv","legacy","5 2 9 6 1 7","Lentiform Loewenfeld","3.3.9","3","y","0","right","right","right","right","NA","627","28378","7240","627","NA","2","legacy","6","1024","2","48000","-16","experiment","2","even","9","578322","30619","556595","576117","2228","111891","576119","575050","2241","104651","580951","577120","580323","580323","NA","Sternberg task","59","78535","88","yes","1024"
"67.41573033707866","67.41573033707866","888.438202247191","888.438202247191","black","experiment","legacy","legacy","legacy","0","uniform","1","undefined","1","right","88","0","88","88","0","0","88","88","0","0","88","88","88","88","0","Mon Oct 11 21:12:47 2021","The main experiment item","yes","Sternbergtask.osexp","C:/Users/warne/OneDrive/Documents/Tarleton - MS Applied Psychology/Adv Quantitative Methods and Experimental Design/Labs","no","mono","no","18","no","white","no","yes","768","legacy","76","11","C:/Users/warne/OneDrive/Documents/Tarleton - MS Applied Psychology/Adv Quantitative Methods and Experimental Design/Labs/AW-subject-2.csv","legacy","6 9 4 5 3 2","Lentiform Loewenfeld","3.3.9","0","n","0","right","right","right","right","NA","536","28378","7240","536","NA","2","legacy","6","1024","2","48000","-16","experiment","2","even","8","584232","30619","556595","582024","2228","111891","582027","580956","2241","104651","586770","583028","586233","586233","NA","Sternberg task","60","79071","89","yes","1024"
"66.66666666666667","66.66666666666667","895.7222222222222","895.7222222222222","black","experiment","legacy","legacy","legacy","0","uniform","0","undefined","0","right","89","0","89","89","0","0","89","89","0","0","89","89","89","89","0","Mon Oct 11 21:12:47 2021","The main experiment item","yes","Sternbergtask.osexp","C:/Users/warne/OneDrive/Documents/Tarleton - MS Applied Psychology/Adv Quantitative Methods and Experimental Design/Labs","no","mono","no","18","no","white","no","yes","768","legacy","77","11","C:/Users/warne/OneDrive/Documents/Tarleton - MS Applied Psychology/Adv Quantitative Methods and Experimental Design/Labs/AW-subject-2.csv","legacy","8 6 3 4 7","Lentiform Loewenfeld","3.3.9","0","n","0","left","right","right","left","NA","1544","28378","7240","1544","NA","2","legacy","5","1024","2","48000","-16","experiment","2","even","1","590050","30619","586775","587843","2228","111891","587845","580956","2241","104651","593596","588846","592051","592051","NA","Sternberg task","60","80615","90","yes","1024"
"67.03296703296704","67.03296703296704","900.6923076923077","900.6923076923077","black","experiment","legacy","legacy","legacy","0","uniform","1","undefined","1","right","90","0","90","90","0","0","90","90","0","0","90","90","90","90","0","Mon Oct 11 21:12:47 2021","The main experiment item","yes","Sternbergtask.osexp","C:/Users/warne/OneDrive/Documents/Tarleton - MS Applied Psychology/Adv Quantitative Methods and Experimental Design/Labs","no","mono","no","18","no","white","no","yes","768","legacy","78","11","C:/Users/warne/OneDrive/Documents/Tarleton - MS Applied Psychology/Adv Quantitative Methods and Experimental Design/Labs/AW-subject-2.csv","legacy","8 4 3 5","Lentiform Loewenfeld","3.3.9","0","n","0","right","right","right","right","NA","1348","28378","7240","1348","NA","2","legacy","4","1024","2","48000","-16","experiment","2","even","6","596893","30619","586775","594682","2228","111891","594684","593601","2241","104651","600243","595688","598894","598894","NA","Sternberg task","61","81963","91","yes","1024"
"66.30434782608695","66.30434782608695","906.5108695652174","906.5108695652174","black","experiment","legacy","legacy","legacy","0","uniform","0","undefined","0","left","91","0","91","91","0","0","91","91","0","0","91","91","91","91","0","Mon Oct 11 21:12:47 2021","The main experiment item","yes","Sternbergtask.osexp","C:/Users/warne/OneDrive/Documents/Tarleton - MS Applied Psychology/Adv Quantitative Methods and Experimental Design/Labs","no","mono","no","18","no","white","no","yes","768","legacy","79","11","C:/Users/warne/OneDrive/Documents/Tarleton - MS Applied Psychology/Adv Quantitative Methods and Experimental Design/Labs/AW-subject-2.csv","legacy","3 5 9 6 2 4","Lentiform Loewenfeld","3.3.9","1","y","0","right","right","right","right","NA","1436","28378","7240","1436","NA","2","legacy","6","1024","2","48000","-16","experiment","2","even","3","603524","30619","600248","601317","2228","111891","601318","593601","2241","104651","606962","602320","605525","605525","NA","Sternberg task","61","83399","92","yes","1024"
"66.66666666666667","66.66666666666667","906.0645161290323","906.0645161290323","black","experiment","legacy","legacy","legacy","0","uniform","1","undefined","1","left","92","0","92","92","0","0","92","92","0","0","92","92","92","92","0","Mon Oct 11 21:12:47 2021","The main experiment item","yes","Sternbergtask.osexp","C:/Users/warne/OneDrive/Documents/Tarleton - MS Applied Psychology/Adv Quantitative Methods and Experimental Design/Labs","no","mono","no","18","no","white","no","yes","768","legacy","80","11","C:/Users/warne/OneDrive/Documents/Tarleton - MS Applied Psychology/Adv Quantitative Methods and Experimental Design/Labs/AW-subject-2.csv","legacy","4 1 8 7 5","Lentiform Loewenfeld","3.3.9","3","y","0","left","right","right","left","NA","865","28378","7240","865","NA","2","legacy","5","1024","2","48000","-16","experiment","2","even","8","610243","30619","600248","608036","2228","111891","608037","606965","2241","104651","613110","609038","612244","612244","NA","Sternberg task","62","84264","93","yes","1024"
"67.02127659574468","67.02127659574468","903.1382978723404","903.1382978723404","black","experiment","legacy","legacy","legacy","0","uniform","1","undefined","1","left","93","0","93","93","0","0","93","93","0","0","93","93","93","93","0","Mon Oct 11 21:12:47 2021","The main experiment item","yes","Sternbergtask.osexp","C:/Users/warne/OneDrive/Documents/Tarleton - MS Applied Psychology/Adv Quantitative Methods and Experimental Design/Labs","no","mono","no","18","no","white","no","yes","768","legacy","81","11","C:/Users/warne/OneDrive/Documents/Tarleton - MS Applied Psychology/Adv Quantitative Methods and Experimental Design/Labs/AW-subject-2.csv","legacy","3 4","Lentiform Loewenfeld","3.3.9","1","y","0","left","right","right","left","NA","631","28378","7240","631","NA","2","legacy","2","1024","2","48000","-16","experiment","2","even","3","616391","30619","613116","614185","2228","111891","614186","606965","2241","104651","619023","615187","618392","618392","NA","Sternberg task","63","84895","94","yes","1024"
"66.3157894736842","66.3157894736842","908.4315789473684","908.4315789473684","black","experiment","legacy","legacy","legacy","0","uniform","0","undefined","0","left","94","0","94","94","0","0","94","94","0","0","94","94","94","94","0","Mon Oct 11 21:12:47 2021","The main experiment item","yes","Sternbergtask.osexp","C:/Users/warne/OneDrive/Documents/Tarleton - MS Applied Psychology/Adv Quantitative Methods and Experimental Design/Labs","no","mono","no","18","no","white","no","yes","768","legacy","82","11","C:/Users/warne/OneDrive/Documents/Tarleton - MS Applied Psychology/Adv Quantitative Methods and Experimental Design/Labs/AW-subject-2.csv","legacy","4 6 2 5 1","Lentiform Loewenfeld","3.3.9","5","y","0","right","right","right","right","NA","1406","28378","7240","1406","NA","2","legacy","5","1024","2","48000","-16","experiment","2","even","1","622303","30619","619028","620096","2228","111891","620098","606965","2241","104651","625711","621099","624304","624304","NA","Sternberg task","63","86301","95","yes","1024"
"66.66666666666667","66.66666666666667","914.8541666666666","914.8541666666666","black","experiment","legacy","legacy","legacy","0","uniform","1","undefined","1","right","95","0","95","95","0","0","95","95","0","0","95","95","95","95","0","Mon Oct 11 21:12:47 2021","The main experiment item","yes","Sternbergtask.osexp","C:/Users/warne/OneDrive/Documents/Tarleton - MS Applied Psychology/Adv Quantitative Methods and Experimental Design/Labs","no","mono","no","18","no","white","no","yes","768","legacy","83","11","C:/Users/warne/OneDrive/Documents/Tarleton - MS Applied Psychology/Adv Quantitative Methods and Experimental Design/Labs/AW-subject-2.csv","legacy","1 4 9 2 5","Lentiform Loewenfeld","3.3.9","0","n","0","right","right","right","right","NA","1525","28378","7240","1525","NA","2","legacy","5","1024","2","48000","-16","experiment","2","even","7","628992","30619","619028","626784","2228","111891","626786","625715","2241","104651","632523","627787","630997","630996","NA","Sternberg task","64","87826","96","yes","1024"
