"acc","accuracy","average_response_time","avg_rt","background","block","canvas_backend","clock_backend","color_backend","correct","correct_instruction1","correct_keyboard_response","correct_response","count_ISI","count_PracticeLoop","count_correctFeedback","count_exSequence","count_experiment","count_experimentLoop","count_fixation","count_incorrectFeedback","count_instruction1","count_instructions2","count_keyboard_response","count_logger","count_memorySet","count_probe","count_thankYou","datetime","description","disable_garbage_collection","experiment_file","experiment_path","font_bold","font_family","font_italic","font_size","font_underline","foreground","form_clicks","fullscreen","height","keyboard_backend","live_row","live_row_PracticeLoop","logfile","mouse_backend","numberSet","opensesame_codename","opensesame_version","posInSet","present","repeat_cycle","response","response_instruction1","response_instructions2","response_keyboard_response","response_thankYou","response_time","response_time_instruction1","response_time_instructions2","response_time_keyboard_response","response_time_thankYou","round_decimals","sampler_backend","setSize","sound_buf_size","sound_channels","sound_freq","sound_sample_size","start","subject_nr","subject_parity","target","time_ISI","time_PracticeLoop","time_correctFeedback","time_exSequence","time_experiment","time_experimentLoop","time_fixation","time_incorrectFeedback","time_instruction1","time_instructions2","time_keyboard_response","time_logger","time_memorySet","time_probe","time_thankYou","title","total_correct","total_response_time","total_responses","width"
"100","100","1146","1146","black","practice","legacy","legacy","legacy","1","undefined","1","right","0","0","0","0","0","0","0","0","0","0","0","0","0","0","0","Sun Oct 15 11:47:37 2023","The main experiment item","True","SternbergTask.osexp","/Users/baileymcwhirter","False","mono","False","18","no","white","no","yes","768","legacy","0","0","/Users/baileymcwhirter/subject-2.csv","legacy","5","Melodramatic Milgram","4.0.5","0","n","0","right","right","NA","right","NA","1146.0","6610","NA","1146","NA","2","legacy","1","1024","2","48000","-16","experiment","2","even","3","10109","7744","NA","7893","1071","NA","7898","NA","1115","NA","12114","13266","8902","12114","NA","Sternberg Task","1","1146.0","1","1024"
"100","100","1111","1111","black","practice","legacy","legacy","legacy","1","undefined","1","right","1","0","1","1","0","0","1","1","0","0","1","1","1","1","0","Sun Oct 15 11:47:37 2023","The main experiment item","True","SternbergTask.osexp","/Users/baileymcwhirter","False","mono","False","18","no","white","no","yes","768","legacy","1","1","/Users/baileymcwhirter/subject-2.csv","legacy","4 1 5","Melodramatic Milgram","4.0.5","0","n","0","right","right","NA","right","NA","1076.0","6610","NA","1076","NA","2","legacy","3","1024","2","48000","-16","experiment","2","even","2","16551","7744","13291","14338","1071","NA","14342","NA","1115","NA","18557","19634","15346","18557","NA","Sternberg Task","2","2222.0","2","1024"
"100","100","949","949","black","practice","legacy","legacy","legacy","1","undefined","1","left","2","0","2","2","0","0","2","2","0","0","2","2","2","2","0","Sun Oct 15 11:47:37 2023","The main experiment item","True","SternbergTask.osexp","/Users/baileymcwhirter","False","mono","False","18","no","white","no","yes","768","legacy","2","2","/Users/baileymcwhirter/subject-2.csv","legacy","4 3 1 7 9 8","Melodramatic Milgram","4.0.5","1","y","0","left","right","NA","left","NA","625.0","6610","NA","625","NA","2","legacy","6","1024","2","48000","-16","experiment","2","even","4","22895","7744","19637","20680","1071","NA","20683","NA","1115","NA","24897","25522","21688","24897","NA","Sternberg Task","3","2847.0","3","1024"
"100","100","953","953","black","practice","legacy","legacy","legacy","1","undefined","1","right","3","0","3","3","0","0","3","3","0","0","3","3","3","3","0","Sun Oct 15 11:47:37 2023","The main experiment item","True","SternbergTask.osexp","/Users/baileymcwhirter","False","mono","False","18","no","white","no","yes","768","legacy","3","3","/Users/baileymcwhirter/subject-2.csv","legacy","5 7 8 4 1 2","Melodramatic Milgram","4.0.5","0","n","0","right","right","NA","right","NA","965.0","6610","NA","965","NA","2","legacy","6","1024","2","48000","-16","experiment","2","even","6","28782","7744","25525","26569","1071","NA","26572","NA","1115","NA","30784","31750","27577","30784","NA","Sternberg Task","4","3812.0","4","1024"
"100","100","955","955","black","practice","legacy","legacy","legacy","1","undefined","1","right","4","0","4","4","0","0","4","4","0","0","4","4","4","4","0","Sun Oct 15 11:47:37 2023","The main experiment item","True","SternbergTask.osexp","/Users/baileymcwhirter","False","mono","False","18","no","white","no","yes","768","legacy","4","4","/Users/baileymcwhirter/subject-2.csv","legacy","3 1 9 4","Melodramatic Milgram","4.0.5","0","n","0","right","right","NA","right","NA","963.0","6610","NA","963","NA","2","legacy","4","1024","2","48000","-16","experiment","2","even","6","35008","7744","31754","32796","1071","NA","32799","NA","1115","NA","37011","37974","33802","37011","NA","Sternberg Task","5","4775.0","5","1024"
"100","100","917","917","black","practice","legacy","legacy","legacy","1","undefined","1","left","5","0","5","5","0","0","5","5","0","0","5","5","5","5","0","Sun Oct 15 11:47:37 2023","The main experiment item","True","SternbergTask.osexp","/Users/baileymcwhirter","False","mono","False","18","no","white","no","yes","768","legacy","5","5","/Users/baileymcwhirter/subject-2.csv","legacy","4 8","Melodramatic Milgram","4.0.5","1","y","0","left","right","NA","left","NA","732.0","6610","NA","732","NA","2","legacy","2","1024","2","48000","-16","experiment","2","even","4","41236","7744","37977","39023","1071","NA","39026","NA","1115","NA","43239","43972","40030","43239","NA","Sternberg Task","6","5507.0","6","1024"
"100","100","900","900","black","practice","legacy","legacy","legacy","1","undefined","1","right","6","0","6","6","0","0","6","6","0","0","6","6","6","6","0","Sun Oct 15 11:47:37 2023","The main experiment item","True","SternbergTask.osexp","/Users/baileymcwhirter","False","mono","False","18","no","white","no","yes","768","legacy","6","6","/Users/baileymcwhirter/subject-2.csv","legacy","2 1","Melodramatic Milgram","4.0.5","0","n","0","right","right","NA","right","NA","796.0","6610","NA","796","NA","2","legacy","2","1024","2","48000","-16","experiment","2","even","5","47229","7744","43978","45012","1071","NA","45020","NA","1115","NA","49231","50027","46024","49231","NA","Sternberg Task","7","6303.0","7","1024"
"100","100","944","944","black","practice","legacy","legacy","legacy","1","undefined","1","left","7","0","7","7","0","0","7","7","0","0","7","7","7","7","0","Sun Oct 15 11:47:37 2023","The main experiment item","True","SternbergTask.osexp","/Users/baileymcwhirter","False","mono","False","18","no","white","no","yes","768","legacy","7","7","/Users/baileymcwhirter/subject-2.csv","legacy","2 9 4","Melodramatic Milgram","4.0.5","3","y","0","left","right","NA","left","NA","1251.0","6610","NA","1251","NA","2","legacy","3","1024","2","48000","-16","experiment","2","even","4","53283","7744","50030","51071","1071","NA","51073","NA","1115","NA","55288","56539","52078","55288","NA","Sternberg Task","8","7554.0","8","1024"
"100","100","946","946","black","practice","legacy","legacy","legacy","1","undefined","1","left","8","0","8","8","0","0","8","8","0","0","8","8","8","8","0","Sun Oct 15 11:47:37 2023","The main experiment item","True","SternbergTask.osexp","/Users/baileymcwhirter","False","mono","False","18","no","white","no","yes","768","legacy","8","8","/Users/baileymcwhirter/subject-2.csv","legacy","6","Melodramatic Milgram","4.0.5","1","y","0","left","right","NA","left","NA","967.0","6610","NA","967","NA","2","legacy","1","1024","2","48000","-16","experiment","2","even","6","59795","7744","56542","57583","1071","NA","57586","NA","1115","NA","61798","62765","58590","61797","NA","Sternberg Task","9","8521.0","9","1024"
"100","100","923","923","black","practice","legacy","legacy","legacy","1","undefined","1","left","9","0","9","9","0","0","9","9","0","0","9","9","9","9","0","Sun Oct 15 11:47:37 2023","The main experiment item","True","SternbergTask.osexp","/Users/baileymcwhirter","False","mono","False","18","no","white","no","yes","768","legacy","9","9","/Users/baileymcwhirter/subject-2.csv","legacy","1 5 2 9","Melodramatic Milgram","4.0.5","2","y","0","left","right","NA","left","NA","710.0","6610","NA","710","NA","2","legacy","4","1024","2","48000","-16","experiment","2","even","5","66025","7744","62768","63814","1071","NA","63816","NA","1115","NA","68030","68741","64820","68030","NA","Sternberg Task","10","9231.0","10","1024"
"100","100","910","910","black","practice","legacy","legacy","legacy","1","undefined","1","right","10","0","10","10","0","0","10","10","0","0","10","10","10","10","0","Sun Oct 15 11:47:37 2023","The main experiment item","True","SternbergTask.osexp","/Users/baileymcwhirter","False","mono","False","18","no","white","no","yes","768","legacy","10","10","/Users/baileymcwhirter/subject-2.csv","legacy","9 6 7 4 5","Melodramatic Milgram","4.0.5","0","n","0","right","right","NA","right","NA","786.0","6610","NA","786","NA","2","legacy","5","1024","2","48000","-16","experiment","2","even","3","72002","7744","68744","69787","1071","NA","69789","NA","1115","NA","74004","74791","70795","74004","NA","Sternberg Task","11","10017.0","11","1024"
"100","100","918","918","black","practice","legacy","legacy","legacy","1","undefined","1","left","11","0","11","11","0","0","11","11","0","0","11","11","11","11","0","Sun Oct 15 11:47:37 2023","The main experiment item","True","SternbergTask.osexp","/Users/baileymcwhirter","False","mono","False","18","no","white","no","yes","768","legacy","11","11","/Users/baileymcwhirter/subject-2.csv","legacy","1 7 9 8 5","Melodramatic Milgram","4.0.5","4","y","0","left","right","NA","left","NA","1005.0","6610","NA","1005","NA","2","legacy","5","1024","2","48000","-16","experiment","2","even","8","78043","7744","74793","75832","1071","NA","75834","NA","1115","NA","80046","81052","76838","80046","NA","Sternberg Task","12","11022.0","12","1024"
"100","100","961","961","black","experiment","legacy","legacy","legacy","1","undefined","1","left","12","0","12","12","0","0","12","12","0","0","12","12","12","12","0","Sun Oct 15 11:47:37 2023","The main experiment item","True","SternbergTask.osexp","/Users/baileymcwhirter","False","mono","False","18","no","white","no","yes","768","legacy","0","11","/Users/baileymcwhirter/subject-2.csv","legacy","1 4 9 3 2 5","Melodramatic Milgram","4.0.5","3","y","0","left","right","right","left","NA","1480.0","6610","2426","1480","NA","2","legacy","6","1024","2","48000","-16","experiment","2","even","9","86748","7744","81055","84537","1071","84487","84539","NA","1115","82060","88751","90231","85544","88751","NA","Sternberg Task","13","12502.0","13","1024"
"100","100","947","947","black","experiment","legacy","legacy","legacy","1","undefined","1","left","13","0","13","13","0","0","13","13","0","0","13","13","13","13","0","Sun Oct 15 11:47:37 2023","The main experiment item","True","SternbergTask.osexp","/Users/baileymcwhirter","False","mono","False","18","no","white","no","yes","768","legacy","1","11","/Users/baileymcwhirter/subject-2.csv","legacy","6 2","Melodramatic Milgram","4.0.5","1","y","0","left","right","right","left","NA","762.0","6610","2426","762","NA","2","legacy","2","1024","2","48000","-16","experiment","2","even","6","93489","7744","90234","91278","1071","84487","91280","NA","1115","82060","95491","96254","92282","95491","NA","Sternberg Task","14","13264.0","14","1024"
"100","100","941","941","black","experiment","legacy","legacy","legacy","1","undefined","1","right","14","0","14","14","0","0","14","14","0","0","14","14","14","14","0","Sun Oct 15 11:47:37 2023","The main experiment item","True","SternbergTask.osexp","/Users/baileymcwhirter","False","mono","False","18","no","white","no","yes","768","legacy","2","11","/Users/baileymcwhirter/subject-2.csv","legacy","6 7 5 9","Melodramatic Milgram","4.0.5","0","n","0","right","right","right","right","NA","858.0","6610","2426","858","NA","2","legacy","4","1024","2","48000","-16","experiment","2","even","2","99509","7744","96257","97297","1071","84487","97299","NA","1115","82060","101515","102373","98303","101515","NA","Sternberg Task","15","14122.0","15","1024"
"100","100","962","962","black","experiment","legacy","legacy","legacy","1","undefined","1","right","15","0","15","15","0","0","15","15","0","0","15","15","15","15","0","Sun Oct 15 11:47:37 2023","The main experiment item","True","SternbergTask.osexp","/Users/baileymcwhirter","False","mono","False","18","no","white","no","yes","768","legacy","3","11","/Users/baileymcwhirter/subject-2.csv","legacy","1","Melodramatic Milgram","4.0.5","0","n","0","right","right","right","right","NA","1278.0","6610","2426","1278","NA","2","legacy","1","1024","2","48000","-16","experiment","2","even","7","105628","7744","102377","103416","1071","84487","103418","NA","1115","82060","107631","108910","104423","107630","NA","Sternberg Task","16","15400.0","16","1024"
"100","100","965","965","black","experiment","legacy","legacy","legacy","1","undefined","1","right","16","0","16","16","0","0","16","16","0","0","16","16","16","16","0","Sun Oct 15 11:47:37 2023","The main experiment item","True","SternbergTask.osexp","/Users/baileymcwhirter","False","mono","False","18","no","white","no","yes","768","legacy","4","11","/Users/baileymcwhirter/subject-2.csv","legacy","6 8","Melodramatic Milgram","4.0.5","0","n","0","right","right","right","right","NA","1009.0","6610","2426","1009","NA","2","legacy","2","1024","2","48000","-16","experiment","2","even","9","112162","7744","108912","109951","1071","84487","109953","NA","1115","82060","114164","115174","110956","114163","NA","Sternberg Task","17","16409.0","17","1024"
"100","100","1000","1000","black","experiment","legacy","legacy","legacy","1","undefined","1","left","17","0","17","17","0","0","17","17","0","0","17","17","17","17","0","Sun Oct 15 11:47:37 2023","The main experiment item","True","SternbergTask.osexp","/Users/baileymcwhirter","False","mono","False","18","no","white","no","yes","768","legacy","5","11","/Users/baileymcwhirter/subject-2.csv","legacy","2 4 6 9","Melodramatic Milgram","4.0.5","3","y","0","left","right","right","left","NA","1607.0","6610","2426","1607","NA","2","legacy","4","1024","2","48000","-16","experiment","2","even","6","118417","7744","115176","116209","1071","84487","116211","NA","1115","82060","120420","122028","117213","120420","NA","Sternberg Task","18","18016.0","18","1024"
"100","100","1012","1012","black","experiment","legacy","legacy","legacy","1","undefined","1","left","18","0","18","18","0","0","18","18","0","0","18","18","18","18","0","Sun Oct 15 11:47:37 2023","The main experiment item","True","SternbergTask.osexp","/Users/baileymcwhirter","False","mono","False","18","no","white","no","yes","768","legacy","6","11","/Users/baileymcwhirter/subject-2.csv","legacy","6 7 8 5","Melodramatic Milgram","4.0.5","3","y","0","left","right","right","left","NA","1226.0","6610","2426","1226","NA","2","legacy","4","1024","2","48000","-16","experiment","2","even","8","125281","7744","122031","123068","1071","84487","123071","NA","1115","82060","127282","128509","124076","127282","NA","Sternberg Task","19","19242.0","19","1024"
"100","100","1014","1014","black","experiment","legacy","legacy","legacy","1","undefined","1","right","19","0","19","19","0","0","19","19","0","0","19","19","19","19","0","Sun Oct 15 11:47:37 2023","The main experiment item","True","SternbergTask.osexp","/Users/baileymcwhirter","False","mono","False","18","no","white","no","yes","768","legacy","7","11","/Users/baileymcwhirter/subject-2.csv","legacy","1 7 8 3 9","Melodramatic Milgram","4.0.5","0","n","0","right","right","right","right","NA","1050.0","6610","2426","1050","NA","2","legacy","5","1024","2","48000","-16","experiment","2","even","2","131758","7744","128512","129548","1071","84487","129550","NA","1115","82060","133760","134811","130553","133760","NA","Sternberg Task","20","20292.0","20","1024"
"100","100","1015","1015","black","experiment","legacy","legacy","legacy","1","undefined","1","left","20","0","20","20","0","0","20","20","0","0","20","20","20","20","0","Sun Oct 15 11:47:37 2023","The main experiment item","True","SternbergTask.osexp","/Users/baileymcwhirter","False","mono","False","18","no","white","no","yes","768","legacy","8","11","/Users/baileymcwhirter/subject-2.csv","legacy","5 7 3 6 2","Melodramatic Milgram","4.0.5","5","y","0","left","right","right","left","NA","1030.0","6610","2426","1030","NA","2","legacy","5","1024","2","48000","-16","experiment","2","even","2","138054","7744","134813","135845","1071","84487","135847","NA","1115","82060","140057","141088","136849","140057","NA","Sternberg Task","21","21322.0","21","1024"
"100","100","1013","1013","black","experiment","legacy","legacy","legacy","1","undefined","1","right","21","0","21","21","0","0","21","21","0","0","21","21","21","21","0","Sun Oct 15 11:47:37 2023","The main experiment item","True","SternbergTask.osexp","/Users/baileymcwhirter","False","mono","False","18","no","white","no","yes","768","legacy","9","11","/Users/baileymcwhirter/subject-2.csv","legacy","5 2","Melodramatic Milgram","4.0.5","0","n","0","right","right","right","right","NA","983.0","6610","2426","983","NA","2","legacy","2","1024","2","48000","-16","experiment","2","even","7","144348","7744","141091","142134","1071","84487","142136","NA","1115","82060","146352","147336","143143","146352","NA","Sternberg Task","22","22305.0","22","1024"
"100","100","1009","1009","black","experiment","legacy","legacy","legacy","1","undefined","1","right","22","0","22","22","0","0","22","22","0","0","22","22","22","22","0","Sun Oct 15 11:47:37 2023","The main experiment item","True","SternbergTask.osexp","/Users/baileymcwhirter","False","mono","False","18","no","white","no","yes","768","legacy","10","11","/Users/baileymcwhirter/subject-2.csv","legacy","5","Melodramatic Milgram","4.0.5","0","n","0","right","right","right","right","NA","911.0","6610","2426","911","NA","2","legacy","1","1024","2","48000","-16","experiment","2","even","8","150581","7744","147338","148369","1071","84487","148371","NA","1115","82060","152586","153498","149376","152586","NA","Sternberg Task","23","23216.0","23","1024"
"100","100","1011","1011","black","experiment","legacy","legacy","legacy","1","undefined","1","left","23","0","23","23","0","0","23","23","0","0","23","23","23","23","0","Sun Oct 15 11:47:37 2023","The main experiment item","True","SternbergTask.osexp","/Users/baileymcwhirter","False","mono","False","18","no","white","no","yes","768","legacy","11","11","/Users/baileymcwhirter/subject-2.csv","legacy","9 5 3 8 4","Melodramatic Milgram","4.0.5","1","y","0","left","right","right","left","NA","1065.0","6610","2426","1065","NA","2","legacy","5","1024","2","48000","-16","experiment","2","even","9","156742","7744","153501","154531","1071","84487","154533","NA","1115","82060","158744","159809","155537","158744","NA","Sternberg Task","24","24281.0","24","1024"
"100","100","1010","1010","black","experiment","legacy","legacy","legacy","1","undefined","1","left","24","0","24","24","0","0","24","24","0","0","24","24","24","24","0","Sun Oct 15 11:47:37 2023","The main experiment item","True","SternbergTask.osexp","/Users/baileymcwhirter","False","mono","False","18","no","white","no","yes","768","legacy","12","11","/Users/baileymcwhirter/subject-2.csv","legacy","8 9 6 1","Melodramatic Milgram","4.0.5","2","y","0","left","right","right","left","NA","975.0","6610","2426","975","NA","2","legacy","4","1024","2","48000","-16","experiment","2","even","9","163059","7744","159812","160849","1071","84487","160851","NA","1115","82060","165062","166038","161853","165062","NA","Sternberg Task","25","25256.0","25","1024"
"100","100","1021","1021","black","experiment","legacy","legacy","legacy","1","undefined","1","right","25","0","25","25","0","0","25","25","0","0","25","25","25","25","0","Sun Oct 15 11:47:37 2023","The main experiment item","True","SternbergTask.osexp","/Users/baileymcwhirter","False","mono","False","18","no","white","no","yes","768","legacy","13","11","/Users/baileymcwhirter/subject-2.csv","legacy","1 6 4 3 9 7","Melodramatic Milgram","4.0.5","0","n","0","right","right","right","right","NA","1293.0","6610","2426","1293","NA","2","legacy","6","1024","2","48000","-16","experiment","2","even","8","169283","7744","166040","167070","1071","84487","167073","NA","1115","82060","171285","172579","168077","171285","NA","Sternberg Task","26","26549.0","26","1024"
"100","100","1019","1019","black","experiment","legacy","legacy","legacy","1","undefined","1","right","26","0","26","26","0","0","26","26","0","0","26","26","26","26","0","Sun Oct 15 11:47:37 2023","The main experiment item","True","SternbergTask.osexp","/Users/baileymcwhirter","False","mono","False","18","no","white","no","yes","768","legacy","14","11","/Users/baileymcwhirter/subject-2.csv","legacy","5 9 2 3","Melodramatic Milgram","4.0.5","0","n","0","right","right","right","right","NA","978.0","6610","2426","978","NA","2","legacy","4","1024","2","48000","-16","experiment","2","even","8","175825","7744","172582","173615","1071","84487","173617","NA","1115","82060","177827","178806","174620","177827","NA","Sternberg Task","27","27527.0","27","1024"
"100","100","1028","1028","black","experiment","legacy","legacy","legacy","1","undefined","1","right","27","0","27","27","0","0","27","27","0","0","27","27","27","27","0","Sun Oct 15 11:47:37 2023","The main experiment item","True","SternbergTask.osexp","/Users/baileymcwhirter","False","mono","False","18","no","white","no","yes","768","legacy","15","11","/Users/baileymcwhirter/subject-2.csv","legacy","2 3 8 5 6 7","Melodramatic Milgram","4.0.5","0","n","0","right","right","right","right","NA","1268.0","6610","2426","1268","NA","2","legacy","6","1024","2","48000","-16","experiment","2","even","1","182056","7744","178808","179841","1071","84487","179843","NA","1115","82060","184059","185328","180849","184058","NA","Sternberg Task","28","28795.0","28","1024"
"100","100","1032","1032","black","experiment","legacy","legacy","legacy","1","undefined","1","right","28","0","28","28","0","0","28","28","0","0","28","28","28","28","0","Sun Oct 15 11:47:37 2023","The main experiment item","True","SternbergTask.osexp","/Users/baileymcwhirter","False","mono","False","18","no","white","no","yes","768","legacy","16","11","/Users/baileymcwhirter/subject-2.csv","legacy","1 7 5 2","Melodramatic Milgram","4.0.5","0","n","0","right","right","right","right","NA","1139.0","6610","2426","1139","NA","2","legacy","4","1024","2","48000","-16","experiment","2","even","3","188574","7744","185330","186363","1071","84487","186365","NA","1115","82060","190577","191716","187368","190577","NA","Sternberg Task","29","29934.0","29","1024"
"100","100","1034","1034","black","experiment","legacy","legacy","legacy","1","undefined","1","left","29","0","29","29","0","0","29","29","0","0","29","29","29","29","0","Sun Oct 15 11:47:37 2023","The main experiment item","True","SternbergTask.osexp","/Users/baileymcwhirter","False","mono","False","18","no","white","no","yes","768","legacy","17","11","/Users/baileymcwhirter/subject-2.csv","legacy","4 1 8 7 5","Melodramatic Milgram","4.0.5","3","y","0","left","right","right","left","NA","1103.0","6610","2426","1103","NA","2","legacy","5","1024","2","48000","-16","experiment","2","even","8","194970","7744","191719","192758","1071","84487","192762","NA","1115","82060","196974","198077","193766","196973","NA","Sternberg Task","30","31037.0","30","1024"
"100","100","1033","1033","black","experiment","legacy","legacy","legacy","1","undefined","1","left","30","0","30","30","0","0","30","30","0","0","30","30","30","30","0","Sun Oct 15 11:47:37 2023","The main experiment item","True","SternbergTask.osexp","/Users/baileymcwhirter","False","mono","False","18","no","white","no","yes","768","legacy","18","11","/Users/baileymcwhirter/subject-2.csv","legacy","8","Melodramatic Milgram","4.0.5","1","y","0","left","right","right","left","NA","1009.0","6610","2426","1009","NA","2","legacy","1","1024","2","48000","-16","experiment","2","even","8","201332","7744","198080","199119","1071","84487","199122","NA","1115","82060","203339","204349","200127","203338","NA","Sternberg Task","31","32046.0","31","1024"
"100","100","1035","1035","black","experiment","legacy","legacy","legacy","1","undefined","1","left","31","0","31","31","0","0","31","31","0","0","31","31","31","31","0","Sun Oct 15 11:47:37 2023","The main experiment item","True","SternbergTask.osexp","/Users/baileymcwhirter","False","mono","False","18","no","white","no","yes","768","legacy","19","11","/Users/baileymcwhirter/subject-2.csv","legacy","3 9 7 6 4","Melodramatic Milgram","4.0.5","3","y","0","left","right","right","left","NA","1092.0","6610","2426","1092","NA","2","legacy","5","1024","2","48000","-16","experiment","2","even","7","207594","7744","204351","205385","1071","84487","205387","NA","1115","82060","209599","210692","206389","209599","NA","Sternberg Task","32","33138.0","32","1024"
"100","100","1043","1043","black","experiment","legacy","legacy","legacy","1","undefined","1","right","32","0","32","32","0","0","32","32","0","0","32","32","32","32","0","Sun Oct 15 11:47:37 2023","The main experiment item","True","SternbergTask.osexp","/Users/baileymcwhirter","False","mono","False","18","no","white","no","yes","768","legacy","20","11","/Users/baileymcwhirter/subject-2.csv","legacy","4 2 6 9","Melodramatic Milgram","4.0.5","0","n","0","right","right","right","right","NA","1308.0","6610","2426","1308","NA","2","legacy","4","1024","2","48000","-16","experiment","2","even","7","213934","7744","210695","211724","1071","84487","211727","NA","1115","82060","215937","217246","212729","215937","NA","Sternberg Task","33","34446.0","33","1024"
"100","100","1045","1045","black","experiment","legacy","legacy","legacy","1","undefined","1","left","33","0","33","33","0","0","33","33","0","0","33","33","33","33","0","Sun Oct 15 11:47:37 2023","The main experiment item","True","SternbergTask.osexp","/Users/baileymcwhirter","False","mono","False","18","no","white","no","yes","768","legacy","21","11","/Users/baileymcwhirter/subject-2.csv","legacy","8 3","Melodramatic Milgram","4.0.5","2","y","0","left","right","right","left","NA","1095.0","6610","2426","1095","NA","2","legacy","2","1024","2","48000","-16","experiment","2","even","3","220490","7744","217248","218280","1071","84487","218282","NA","1115","82060","222492","223588","219285","222492","NA","Sternberg Task","34","35541.0","34","1024"
"100","100","1042","1042","black","experiment","legacy","legacy","legacy","1","undefined","1","left","34","0","34","34","0","0","34","34","0","0","34","34","34","34","0","Sun Oct 15 11:47:37 2023","The main experiment item","True","SternbergTask.osexp","/Users/baileymcwhirter","False","mono","False","18","no","white","no","yes","768","legacy","22","11","/Users/baileymcwhirter/subject-2.csv","legacy","2 3 7 4","Melodramatic Milgram","4.0.5","1","y","0","left","right","right","left","NA","953.0","6610","2426","953","NA","2","legacy","4","1024","2","48000","-16","experiment","2","even","2","226840","7744","223591","224627","1071","84487","224630","NA","1115","82060","228843","229797","225634","228843","NA","Sternberg Task","35","36494.0","35","1024"
"100","100","1050","1050","black","experiment","legacy","legacy","legacy","1","undefined","1","left","35","0","35","35","0","0","35","35","0","0","35","35","35","35","0","Sun Oct 15 11:47:37 2023","The main experiment item","True","SternbergTask.osexp","/Users/baileymcwhirter","False","mono","False","18","no","white","no","yes","768","legacy","23","11","/Users/baileymcwhirter/subject-2.csv","legacy","6 9 3 1","Melodramatic Milgram","4.0.5","4","y","0","left","right","right","left","NA","1341.0","6610","2426","1341","NA","2","legacy","4","1024","2","48000","-16","experiment","2","even","1","233055","7744","229800","230841","1071","84487","230843","NA","1115","82060","235058","236399","231849","235058","NA","Sternberg Task","36","37835.0","36","1024"
"100","100","1067","1067","black","experiment","legacy","legacy","legacy","1","undefined","1","right","36","0","36","36","0","0","36","36","0","0","36","36","36","36","0","Sun Oct 15 11:47:37 2023","The main experiment item","True","SternbergTask.osexp","/Users/baileymcwhirter","False","mono","False","18","no","white","no","yes","768","legacy","24","11","/Users/baileymcwhirter/subject-2.csv","legacy","2 8 7 9 5 3","Melodramatic Milgram","4.0.5","0","n","0","right","right","right","right","NA","1647.0","6610","2426","1647","NA","2","legacy","6","1024","2","48000","-16","experiment","2","even","6","239648","7744","236403","237436","1071","84487","237438","NA","1115","82060","241649","243296","238443","241649","NA","Sternberg Task","37","39482.0","37","1024"
"100","100","1082","1082","black","experiment","legacy","legacy","legacy","1","undefined","1","right","37","0","37","37","0","0","37","37","0","0","37","37","37","37","0","Sun Oct 15 11:47:37 2023","The main experiment item","True","SternbergTask.osexp","/Users/baileymcwhirter","False","mono","False","18","no","white","no","yes","768","legacy","25","11","/Users/baileymcwhirter/subject-2.csv","legacy","6 9 7 3 8 2","Melodramatic Milgram","4.0.5","0","n","0","right","right","right","right","NA","1666.0","6610","2426","1666","NA","2","legacy","6","1024","2","48000","-16","experiment","2","even","5","246545","7744","243299","244333","1071","84487","244335","NA","1115","82060","248548","250215","245339","248548","NA","Sternberg Task","38","41148.0","38","1024"
"100","100","1079","1079","black","experiment","legacy","legacy","legacy","1","undefined","1","left","38","0","38","38","0","0","38","38","0","0","38","38","38","38","0","Sun Oct 15 11:47:37 2023","The main experiment item","True","SternbergTask.osexp","/Users/baileymcwhirter","False","mono","False","18","no","white","no","yes","768","legacy","26","11","/Users/baileymcwhirter/subject-2.csv","legacy","9 1 7 2","Melodramatic Milgram","4.0.5","2","y","0","left","right","right","left","NA","960.0","6610","2426","960","NA","2","legacy","4","1024","2","48000","-16","experiment","2","even","1","253464","7744","250217","251252","1071","84487","251254","NA","1115","82060","255466","256427","252258","255466","NA","Sternberg Task","39","42108.0","39","1024"
"100","100","1073","1073","black","experiment","legacy","legacy","legacy","1","undefined","1","left","39","0","39","39","0","0","39","39","0","0","39","39","39","39","0","Sun Oct 15 11:47:37 2023","The main experiment item","True","SternbergTask.osexp","/Users/baileymcwhirter","False","mono","False","18","no","white","no","yes","768","legacy","27","11","/Users/baileymcwhirter/subject-2.csv","legacy","7 8 6 3 1","Melodramatic Milgram","4.0.5","5","y","0","left","right","right","left","NA","839.0","6610","2426","839","NA","2","legacy","5","1024","2","48000","-16","experiment","2","even","1","259679","7744","256430","257467","1071","84487","257469","NA","1115","82060","261685","262525","258474","261684","NA","Sternberg Task","40","42947.0","40","1024"
"100","100","1069","1069","black","experiment","legacy","legacy","legacy","1","undefined","1","left","40","0","40","40","0","0","40","40","0","0","40","40","40","40","0","Sun Oct 15 11:47:37 2023","The main experiment item","True","SternbergTask.osexp","/Users/baileymcwhirter","False","mono","False","18","no","white","no","yes","768","legacy","28","11","/Users/baileymcwhirter/subject-2.csv","legacy","6 8 9 3 4 9","Melodramatic Milgram","4.0.5","5","y","0","left","right","right","left","NA","883.0","6610","2426","883","NA","2","legacy","6","1024","2","48000","-16","experiment","2","even","4","265772","7744","262528","263560","1071","84487","263562","NA","1115","82060","267775","268659","264566","267775","NA","Sternberg Task","41","43830.0","41","1024"
"100","100","1065","1065","black","experiment","legacy","legacy","legacy","1","undefined","1","right","41","0","41","41","0","0","41","41","0","0","41","41","41","41","0","Sun Oct 15 11:47:37 2023","The main experiment item","True","SternbergTask.osexp","/Users/baileymcwhirter","False","mono","False","18","no","white","no","yes","768","legacy","29","11","/Users/baileymcwhirter/subject-2.csv","legacy","7 9","Melodramatic Milgram","4.0.5","0","n","0","right","right","right","right","NA","932.0","6610","2426","932","NA","2","legacy","2","1024","2","48000","-16","experiment","2","even","1","271902","7744","268662","269691","1071","84487","269693","NA","1115","82060","273907","274840","270696","273906","NA","Sternberg Task","42","44762.0","42","1024"
"100","100","1058","1058","black","experiment","legacy","legacy","legacy","1","undefined","1","left","42","0","42","42","0","0","42","42","0","0","42","42","42","42","0","Sun Oct 15 11:47:37 2023","The main experiment item","True","SternbergTask.osexp","/Users/baileymcwhirter","False","mono","False","18","no","white","no","yes","768","legacy","30","11","/Users/baileymcwhirter/subject-2.csv","legacy","7 1 3","Melodramatic Milgram","4.0.5","2","y","0","left","right","right","left","NA","760.0","6610","2426","760","NA","2","legacy","3","1024","2","48000","-16","experiment","2","even","1","278085","7744","274843","275872","1071","84487","275874","NA","1115","82060","280088","280849","276880","280088","NA","Sternberg Task","43","45522.0","43","1024"
"100","100","1058","1058","black","experiment","legacy","legacy","legacy","1","undefined","1","right","43","0","43","43","0","0","43","43","0","0","43","43","43","43","0","Sun Oct 15 11:47:37 2023","The main experiment item","True","SternbergTask.osexp","/Users/baileymcwhirter","False","mono","False","18","no","white","no","yes","768","legacy","31","11","/Users/baileymcwhirter/subject-2.csv","legacy","6 9 5","Melodramatic Milgram","4.0.5","0","n","0","right","right","right","right","NA","1034.0","6610","2426","1034","NA","2","legacy","3","1024","2","48000","-16","experiment","2","even","8","284096","7744","280852","281883","1071","84487","281885","NA","1115","82060","286097","287132","282891","286097","NA","Sternberg Task","44","46556.0","44","1024"
"100","100","1058","1058","black","experiment","legacy","legacy","legacy","1","undefined","1","right","44","0","44","44","0","0","44","44","0","0","44","44","44","44","0","Sun Oct 15 11:47:37 2023","The main experiment item","True","SternbergTask.osexp","/Users/baileymcwhirter","False","mono","False","18","no","white","no","yes","768","legacy","32","11","/Users/baileymcwhirter/subject-2.csv","legacy","7 1","Melodramatic Milgram","4.0.5","0","n","0","right","right","right","right","NA","1055.0","6610","2426","1055","NA","2","legacy","2","1024","2","48000","-16","experiment","2","even","8","290378","7744","287135","288168","1071","84487","288170","NA","1115","82060","292380","293436","289173","292380","NA","Sternberg Task","45","47611.0","45","1024"
"100","100","1059","1059","black","experiment","legacy","legacy","legacy","1","undefined","1","left","45","0","45","45","0","0","45","45","0","0","45","45","45","45","0","Sun Oct 15 11:47:37 2023","The main experiment item","True","SternbergTask.osexp","/Users/baileymcwhirter","False","mono","False","18","no","white","no","yes","768","legacy","33","11","/Users/baileymcwhirter/subject-2.csv","legacy","6 5","Melodramatic Milgram","4.0.5","2","y","0","left","right","right","left","NA","1147.0","6610","2426","1147","NA","2","legacy","2","1024","2","48000","-16","experiment","2","even","5","296684","7744","293439","294471","1071","84487","294473","NA","1115","82060","298686","299834","295478","298686","NA","Sternberg Task","46","48758.0","46","1024"
"100","100","1060","1060","black","experiment","legacy","legacy","legacy","1","undefined","1","right","46","0","46","46","0","0","46","46","0","0","46","46","46","46","0","Sun Oct 15 11:47:37 2023","The main experiment item","True","SternbergTask.osexp","/Users/baileymcwhirter","False","mono","False","18","no","white","no","yes","768","legacy","34","11","/Users/baileymcwhirter/subject-2.csv","legacy","1 4 9 2 5","Melodramatic Milgram","4.0.5","0","n","0","right","right","right","right","NA","1096.0","6610","2426","1096","NA","2","legacy","5","1024","2","48000","-16","experiment","2","even","7","303082","7744","299837","300869","1071","84487","300872","NA","1115","82060","305087","306184","301877","305086","NA","Sternberg Task","47","49854.0","47","1024"
"100","100","1061","1061","black","experiment","legacy","legacy","legacy","1","undefined","1","right","47","0","47","47","0","0","47","47","0","0","47","47","47","47","0","Sun Oct 15 11:47:37 2023","The main experiment item","True","SternbergTask.osexp","/Users/baileymcwhirter","False","mono","False","18","no","white","no","yes","768","legacy","35","11","/Users/baileymcwhirter/subject-2.csv","legacy","1 8 7","Melodramatic Milgram","4.0.5","0","n","0","right","right","right","right","NA","1092.0","6610","2426","1092","NA","2","legacy","3","1024","2","48000","-16","experiment","2","even","4","309427","7744","306187","307217","1071","84487","307219","NA","1115","82060","311429","312521","308222","311429","NA","Sternberg Task","48","50946.0","48","1024"
"100","100","1067","1067","black","experiment","legacy","legacy","legacy","1","undefined","1","left","48","0","48","48","0","0","48","48","0","0","48","48","48","48","0","Sun Oct 15 11:47:37 2023","The main experiment item","True","SternbergTask.osexp","/Users/baileymcwhirter","False","mono","False","18","no","white","no","yes","768","legacy","36","11","/Users/baileymcwhirter/subject-2.csv","legacy","9 3 8 2 1 4","Melodramatic Milgram","4.0.5","3","y","0","left","right","right","left","NA","1385.0","6610","2426","1385","NA","2","legacy","6","1024","2","48000","-16","experiment","2","even","8","315764","7744","312524","313554","1071","84487","313556","NA","1115","82060","317766","319151","314559","317766","NA","Sternberg Task","49","52331.0","49","1024"
"100","100","1065","1065","black","experiment","legacy","legacy","legacy","1","undefined","1","left","49","0","49","49","0","0","49","49","0","0","49","49","49","49","0","Sun Oct 15 11:47:37 2023","The main experiment item","True","SternbergTask.osexp","/Users/baileymcwhirter","False","mono","False","18","no","white","no","yes","768","legacy","37","11","/Users/baileymcwhirter/subject-2.csv","legacy","3 4 9 6 2 9","Melodramatic Milgram","4.0.5","5","y","0","left","right","right","left","NA","963.0","6610","2426","963","NA","2","legacy","6","1024","2","48000","-16","experiment","2","even","2","322394","7744","319154","320185","1071","84487","320187","NA","1115","82060","324398","325361","321189","324398","NA","Sternberg Task","50","53294.0","50","1024"
"100","100","1061","1061","black","experiment","legacy","legacy","legacy","1","undefined","1","left","50","0","50","50","0","0","50","50","0","0","50","50","50","50","0","Sun Oct 15 11:47:37 2023","The main experiment item","True","SternbergTask.osexp","/Users/baileymcwhirter","False","mono","False","18","no","white","no","yes","768","legacy","38","11","/Users/baileymcwhirter/subject-2.csv","legacy","9 4 2","Melodramatic Milgram","4.0.5","1","y","0","left","right","right","left","NA","827.0","6610","2426","827","NA","2","legacy","3","1024","2","48000","-16","experiment","2","even","9","328606","7744","325364","326396","1071","84487","326398","NA","1115","82060","330608","331436","327401","330608","NA","Sternberg Task","51","54121.0","51","1024"
"100","100","1061","1061","black","experiment","legacy","legacy","legacy","1","undefined","1","left","51","0","51","51","0","0","51","51","0","0","51","51","51","51","0","Sun Oct 15 11:47:37 2023","The main experiment item","True","SternbergTask.osexp","/Users/baileymcwhirter","False","mono","False","18","no","white","no","yes","768","legacy","39","11","/Users/baileymcwhirter/subject-2.csv","legacy","6 7 9 3 1 2","Melodramatic Milgram","4.0.5","1","y","0","left","right","right","left","NA","1053.0","6610","2426","1053","NA","2","legacy","6","1024","2","48000","-16","experiment","2","even","6","334679","7744","331438","332469","1071","84487","332471","NA","1115","82060","336681","337735","333474","336681","NA","Sternberg Task","52","55174.0","52","1024"
"100","100","1058","1058","black","experiment","legacy","legacy","legacy","1","undefined","1","left","52","0","52","52","0","0","52","52","0","0","52","52","52","52","0","Sun Oct 15 11:47:37 2023","The main experiment item","True","SternbergTask.osexp","/Users/baileymcwhirter","False","mono","False","18","no","white","no","yes","768","legacy","40","11","/Users/baileymcwhirter/subject-2.csv","legacy","8 9 5 6 7","Melodramatic Milgram","4.0.5","1","y","0","left","right","right","left","NA","904.0","6610","2426","904","NA","2","legacy","5","1024","2","48000","-16","experiment","2","even","8","340981","7744","337738","338772","1071","84487","338774","NA","1115","82060","342983","343888","339776","342982","NA","Sternberg Task","53","56078.0","53","1024"
"100","100","1054","1054","black","experiment","legacy","legacy","legacy","1","undefined","1","left","53","0","53","53","0","0","53","53","0","0","53","53","53","53","0","Sun Oct 15 11:47:37 2023","The main experiment item","True","SternbergTask.osexp","/Users/baileymcwhirter","False","mono","False","18","no","white","no","yes","768","legacy","41","11","/Users/baileymcwhirter/subject-2.csv","legacy","2 5 4 8 7","Melodramatic Milgram","4.0.5","3","y","0","left","right","right","left","NA","863.0","6610","2426","863","NA","2","legacy","5","1024","2","48000","-16","experiment","2","even","4","347132","7744","343891","344923","1071","84487","344925","NA","1115","82060","349134","349998","345927","349134","NA","Sternberg Task","54","56941.0","54","1024"
"100","100","1058","1058","black","experiment","legacy","legacy","legacy","1","undefined","1","right","54","0","54","54","0","0","54","54","0","0","54","54","54","54","0","Sun Oct 15 11:47:37 2023","The main experiment item","True","SternbergTask.osexp","/Users/baileymcwhirter","False","mono","False","18","no","white","no","yes","768","legacy","42","11","/Users/baileymcwhirter/subject-2.csv","legacy","6 2 9 3 8 4","Melodramatic Milgram","4.0.5","0","n","0","right","right","right","right","NA","1292.0","6610","2426","1292","NA","2","legacy","6","1024","2","48000","-16","experiment","2","even","1","353243","7744","350001","351034","1071","84487","351036","NA","1115","82060","355246","356539","352039","355246","NA","Sternberg Task","55","58233.0","55","1024"
"100","100","1065","1065","black","experiment","legacy","legacy","legacy","1","undefined","1","right","55","0","55","55","0","0","55","55","0","0","55","55","55","55","0","Sun Oct 15 11:47:37 2023","The main experiment item","True","SternbergTask.osexp","/Users/baileymcwhirter","False","mono","False","18","no","white","no","yes","768","legacy","43","11","/Users/baileymcwhirter/subject-2.csv","legacy","1 5 3 2 8","Melodramatic Milgram","4.0.5","0","n","0","right","right","right","right","NA","1451.0","6610","2426","1451","NA","2","legacy","5","1024","2","48000","-16","experiment","2","even","4","359784","7744","356542","357574","1071","84487","357576","NA","1115","82060","361786","363238","358579","361786","NA","Sternberg Task","56","59684.0","56","1024"
"100","100","1065","1065","black","experiment","legacy","legacy","legacy","1","undefined","1","right","56","0","56","56","0","0","56","56","0","0","56","56","56","56","0","Sun Oct 15 11:47:37 2023","The main experiment item","True","SternbergTask.osexp","/Users/baileymcwhirter","False","mono","False","18","no","white","no","yes","768","legacy","44","11","/Users/baileymcwhirter/subject-2.csv","legacy","2 7 5","Melodramatic Milgram","4.0.5","0","n","0","right","right","right","right","NA","1061.0","6610","2426","1061","NA","2","legacy","3","1024","2","48000","-16","experiment","2","even","8","366484","7744","363241","364273","1071","84487","364276","NA","1115","82060","368489","369551","365279","368489","NA","Sternberg Task","57","60745.0","57","1024"
"100","100","1072","1072","black","experiment","legacy","legacy","legacy","1","undefined","1","right","57","0","57","57","0","0","57","57","0","0","57","57","57","57","0","Sun Oct 15 11:47:37 2023","The main experiment item","True","SternbergTask.osexp","/Users/baileymcwhirter","False","mono","False","18","no","white","no","yes","768","legacy","45","11","/Users/baileymcwhirter/subject-2.csv","legacy","2 8 9 4 1","Melodramatic Milgram","4.0.5","0","n","0","right","right","right","right","NA","1454.0","6610","2426","1454","NA","2","legacy","5","1024","2","48000","-16","experiment","2","even","5","372795","7744","369554","370585","1071","84487","370587","NA","1115","82060","374798","376254","371590","374798","NA","Sternberg Task","58","62199.0","58","1024"
"100","100","1076","1076","black","experiment","legacy","legacy","legacy","1","undefined","1","left","58","0","58","58","0","0","58","58","0","0","58","58","58","58","0","Sun Oct 15 11:47:37 2023","The main experiment item","True","SternbergTask.osexp","/Users/baileymcwhirter","False","mono","False","18","no","white","no","yes","768","legacy","46","11","/Users/baileymcwhirter/subject-2.csv","legacy","6 1 2","Melodramatic Milgram","4.0.5","3","y","0","left","right","right","left","NA","1328.0","6610","2426","1328","NA","2","legacy","3","1024","2","48000","-16","experiment","2","even","2","379501","7744","376256","377288","1071","84487","377291","NA","1115","82060","381506","382835","378294","381505","NA","Sternberg Task","59","63527.0","59","1024"
"100","100","1074","1074","black","experiment","legacy","legacy","legacy","1","undefined","1","left","59","0","59","59","0","0","59","59","0","0","59","59","59","59","0","Sun Oct 15 11:47:37 2023","The main experiment item","True","SternbergTask.osexp","/Users/baileymcwhirter","False","mono","False","18","no","white","no","yes","768","legacy","47","11","/Users/baileymcwhirter/subject-2.csv","legacy","4 3 2 5 8","Melodramatic Milgram","4.0.5","2","y","0","left","right","right","left","NA","950.0","6610","2426","950","NA","2","legacy","5","1024","2","48000","-16","experiment","2","even","3","386086","7744","382838","383872","1071","84487","383875","NA","1115","82060","388088","389039","384881","388088","NA","Sternberg Task","60","64477.0","60","1024"
"100","100","1075","1075","black","experiment","legacy","legacy","legacy","1","undefined","1","right","60","0","60","60","0","0","60","60","0","0","60","60","60","60","0","Sun Oct 15 11:47:37 2023","The main experiment item","True","SternbergTask.osexp","/Users/baileymcwhirter","False","mono","False","18","no","white","no","yes","768","legacy","48","11","/Users/baileymcwhirter/subject-2.csv","legacy","5 3 2 6 9 8","Melodramatic Milgram","4.0.5","0","n","0","right","right","right","right","NA","1136.0","6610","2426","1136","NA","2","legacy","6","1024","2","48000","-16","experiment","2","even","4","392283","7744","389042","390073","1071","84487","390075","NA","1115","82060","394285","395422","391078","394285","NA","Sternberg Task","61","65613.0","61","1024"
"100","100","1076","1076","black","experiment","legacy","legacy","legacy","1","undefined","1","left","61","0","61","61","0","0","61","61","0","0","61","61","61","61","0","Sun Oct 15 11:47:37 2023","The main experiment item","True","SternbergTask.osexp","/Users/baileymcwhirter","False","mono","False","18","no","white","no","yes","768","legacy","49","11","/Users/baileymcwhirter/subject-2.csv","legacy","3 5 7 1","Melodramatic Milgram","4.0.5","3","y","0","left","right","right","left","NA","1151.0","6610","2426","1151","NA","2","legacy","4","1024","2","48000","-16","experiment","2","even","7","398671","7744","395425","396459","1071","84487","396461","NA","1115","82060","400673","401825","397466","400673","NA","Sternberg Task","62","66764.0","62","1024"
"98","98","1084","1084","black","experiment","legacy","legacy","legacy","0","undefined","0","left","62","0","62","62","0","0","62","62","0","0","62","62","62","62","0","Sun Oct 15 11:47:37 2023","The main experiment item","True","SternbergTask.osexp","/Users/baileymcwhirter","False","mono","False","18","no","white","no","yes","768","legacy","50","11","/Users/baileymcwhirter/subject-2.csv","legacy","7 1 8 5 6 2","Melodramatic Milgram","4.0.5","2","y","0","right","right","right","right","NA","1528.0","6610","2426","1528","NA","2","legacy","6","1024","2","48000","-16","experiment","2","even","1","405070","7744","401827","402859","1071","84487","402861","NA","1115","82060","407073","408602","403865","407073","NA","Sternberg Task","62","68292.0","63","1024"
"98","98","1082","1082","black","experiment","legacy","legacy","legacy","1","undefined","1","right","63","0","63","63","0","0","63","63","0","0","63","63","63","63","0","Sun Oct 15 11:47:37 2023","The main experiment item","True","SternbergTask.osexp","/Users/baileymcwhirter","False","mono","False","18","no","white","no","yes","768","legacy","51","11","/Users/baileymcwhirter/subject-2.csv","legacy","7 8 6 1","Melodramatic Milgram","4.0.5","0","n","0","right","right","right","right","NA","1000.0","6610","2426","1000","NA","2","legacy","4","1024","2","48000","-16","experiment","2","even","3","411862","7744","401827","409647","1071","84487","409650","408605","1115","82060","413866","414867","410656","413866","NA","Sternberg Task","63","69292.0","64","1024"
"98","98","1082","1082","black","experiment","legacy","legacy","legacy","1","undefined","1","right","64","0","64","64","0","0","64","64","0","0","64","64","64","64","0","Sun Oct 15 11:47:37 2023","The main experiment item","True","SternbergTask.osexp","/Users/baileymcwhirter","False","mono","False","18","no","white","no","yes","768","legacy","52","11","/Users/baileymcwhirter/subject-2.csv","legacy","7 6 4 8 1 2","Melodramatic Milgram","4.0.5","0","n","0","right","right","right","right","NA","1059.0","6610","2426","1059","NA","2","legacy","6","1024","2","48000","-16","experiment","2","even","9","418116","7744","414870","415904","1071","84487","415906","408605","1115","82060","420118","421178","416911","420118","NA","Sternberg Task","64","70351.0","65","1024"
"98","98","1077","1077","black","experiment","legacy","legacy","legacy","1","undefined","1","left","65","0","65","65","0","0","65","65","0","0","65","65","65","65","0","Sun Oct 15 11:47:37 2023","The main experiment item","True","SternbergTask.osexp","/Users/baileymcwhirter","False","mono","False","18","no","white","no","yes","768","legacy","53","11","/Users/baileymcwhirter/subject-2.csv","legacy","4 6 5 8","Melodramatic Milgram","4.0.5","1","y","0","left","right","right","left","NA","783.0","6610","2426","783","NA","2","legacy","4","1024","2","48000","-16","experiment","2","even","4","424433","7744","421180","422220","1071","84487","422222","408605","1115","82060","426435","427219","423226","426435","NA","Sternberg Task","65","71134.0","66","1024"
"98","98","1077","1077","black","experiment","legacy","legacy","legacy","1","undefined","1","left","66","0","66","66","0","0","66","66","0","0","66","66","66","66","0","Sun Oct 15 11:47:37 2023","The main experiment item","True","SternbergTask.osexp","/Users/baileymcwhirter","False","mono","False","18","no","white","no","yes","768","legacy","54","11","/Users/baileymcwhirter/subject-2.csv","legacy","3 9 6 2","Melodramatic Milgram","4.0.5","4","y","0","left","right","right","left","NA","1034.0","6610","2426","1034","NA","2","legacy","4","1024","2","48000","-16","experiment","2","even","2","430478","7744","427222","428265","1071","84487","428267","408605","1115","82060","432481","433516","429272","432480","NA","Sternberg Task","66","72168.0","67","1024"
"98","98","1079","1079","black","experiment","legacy","legacy","legacy","1","undefined","1","right","67","0","67","67","0","0","67","67","0","0","67","67","67","67","0","Sun Oct 15 11:47:37 2023","The main experiment item","True","SternbergTask.osexp","/Users/baileymcwhirter","False","mono","False","18","no","white","no","yes","768","legacy","55","11","/Users/baileymcwhirter/subject-2.csv","legacy","1 3 2 6 9","Melodramatic Milgram","4.0.5","0","n","0","right","right","right","right","NA","1256.0","6610","2426","1256","NA","2","legacy","5","1024","2","48000","-16","experiment","2","even","5","436775","7744","433519","434563","1071","84487","434566","408605","1115","82060","438779","440036","435568","438779","NA","Sternberg Task","67","73424.0","68","1024"
"98","98","1081","1081","black","experiment","legacy","legacy","legacy","1","undefined","1","right","68","0","68","68","0","0","68","68","0","0","68","68","68","68","0","Sun Oct 15 11:47:37 2023","The main experiment item","True","SternbergTask.osexp","/Users/baileymcwhirter","False","mono","False","18","no","white","no","yes","768","legacy","56","11","/Users/baileymcwhirter/subject-2.csv","legacy","9 7 4 5 8","Melodramatic Milgram","4.0.5","0","n","0","right","right","right","right","NA","1230.0","6610","2426","1230","NA","2","legacy","5","1024","2","48000","-16","experiment","2","even","6","443295","7744","440039","441083","1071","84487","441086","408605","1115","82060","445298","446529","442089","445297","NA","Sternberg Task","68","74654.0","69","1024"
"98","98","1080","1080","black","experiment","legacy","legacy","legacy","1","undefined","1","right","69","0","69","69","0","0","69","69","0","0","69","69","69","69","0","Sun Oct 15 11:47:37 2023","The main experiment item","True","SternbergTask.osexp","/Users/baileymcwhirter","False","mono","False","18","no","white","no","yes","768","legacy","57","11","/Users/baileymcwhirter/subject-2.csv","legacy","6 9 4 5 3 2","Melodramatic Milgram","4.0.5","0","n","0","right","right","right","right","NA","973.0","6610","2426","973","NA","2","legacy","6","1024","2","48000","-16","experiment","2","even","8","449774","7744","446533","447564","1071","84487","447566","408605","1115","82060","451778","452752","448568","451778","NA","Sternberg Task","69","75627.0","70","1024"
"98","98","1078","1078","black","experiment","legacy","legacy","legacy","1","undefined","1","right","70","0","70","70","0","0","70","70","0","0","70","70","70","70","0","Sun Oct 15 11:47:37 2023","The main experiment item","True","SternbergTask.osexp","/Users/baileymcwhirter","False","mono","False","18","no","white","no","yes","768","legacy","58","11","/Users/baileymcwhirter/subject-2.csv","legacy","3 9 8 1 6 4","Melodramatic Milgram","4.0.5","0","n","0","right","right","right","right","NA","966.0","6610","2426","966","NA","2","legacy","6","1024","2","48000","-16","experiment","2","even","7","456001","7744","452754","453787","1071","84487","453789","408605","1115","82060","458003","458970","454795","458003","NA","Sternberg Task","70","76593.0","71","1024"
"98","98","1074","1074","black","experiment","legacy","legacy","legacy","1","undefined","1","right","71","0","71","71","0","0","71","71","0","0","71","71","71","71","0","Sun Oct 15 11:47:37 2023","The main experiment item","True","SternbergTask.osexp","/Users/baileymcwhirter","False","mono","False","18","no","white","no","yes","768","legacy","59","11","/Users/baileymcwhirter/subject-2.csv","legacy","9 8 2 7 4","Melodramatic Milgram","4.0.5","0","n","0","right","right","right","right","NA","801.0","6610","2426","801","NA","2","legacy","5","1024","2","48000","-16","experiment","2","even","5","462217","7744","458972","460007","1071","84487","460009","408605","1115","82060","464219","465021","461012","464219","NA","Sternberg Task","71","77394.0","72","1024"
"98","98","1071","1071","black","experiment","legacy","legacy","legacy","1","undefined","1","right","72","0","72","72","0","0","72","72","0","0","72","72","72","72","0","Sun Oct 15 11:47:37 2023","The main experiment item","True","SternbergTask.osexp","/Users/baileymcwhirter","False","mono","False","18","no","white","no","yes","768","legacy","60","11","/Users/baileymcwhirter/subject-2.csv","legacy","2 8 6 3 1","Melodramatic Milgram","4.0.5","0","n","0","right","right","right","right","NA","838.0","6610","2426","838","NA","2","legacy","5","1024","2","48000","-16","experiment","2","even","7","468266","7744","465024","466055","1071","84487","466057","408605","1115","82060","470268","471107","467061","470268","NA","Sternberg Task","72","78232.0","73","1024"
"98","98","1068","1068","black","experiment","legacy","legacy","legacy","1","undefined","1","right","73","0","73","73","0","0","73","73","0","0","73","73","73","73","0","Sun Oct 15 11:47:37 2023","The main experiment item","True","SternbergTask.osexp","/Users/baileymcwhirter","False","mono","False","18","no","white","no","yes","768","legacy","61","11","/Users/baileymcwhirter/subject-2.csv","legacy","8 5 4 2 9 6","Melodramatic Milgram","4.0.5","0","n","0","right","right","right","right","NA","845.0","6610","2426","845","NA","2","legacy","6","1024","2","48000","-16","experiment","2","even","3","474355","7744","471110","472141","1071","84487","472143","408605","1115","82060","476357","477203","473150","476357","NA","Sternberg Task","73","79077.0","74","1024"
"97","97","1070","1070","black","experiment","legacy","legacy","legacy","0","undefined","0","left","74","0","74","74","0","0","74","74","0","0","74","74","74","74","0","Sun Oct 15 11:47:37 2023","The main experiment item","True","SternbergTask.osexp","/Users/baileymcwhirter","False","mono","False","18","no","white","no","yes","768","legacy","62","11","/Users/baileymcwhirter/subject-2.csv","legacy","8 5 3 7 4 6","Melodramatic Milgram","4.0.5","6","y","0","right","right","right","right","NA","1174.0","6610","2426","1174","NA","2","legacy","6","1024","2","48000","-16","experiment","2","even","6","480450","7744","477206","478238","1071","84487","478240","408605","1115","82060","482452","483627","479245","482452","NA","Sternberg Task","73","80251.0","75","1024"
"97","97","1074","1074","black","experiment","legacy","legacy","legacy","1","undefined","1","left","75","0","75","75","0","0","75","75","0","0","75","75","75","75","0","Sun Oct 15 11:47:37 2023","The main experiment item","True","SternbergTask.osexp","/Users/baileymcwhirter","False","mono","False","18","no","white","no","yes","768","legacy","63","11","/Users/baileymcwhirter/subject-2.csv","legacy","7 8 4 6 9 5","Melodramatic Milgram","4.0.5","4","y","0","left","right","right","left","NA","1413.0","6610","2426","1413","NA","2","legacy","6","1024","2","48000","-16","experiment","2","even","6","486878","7744","477206","484668","1071","84487","484670","483631","1115","82060","488884","490298","485673","488883","NA","Sternberg Task","74","81664.0","76","1024"
"97","97","1081","1081","black","experiment","legacy","legacy","legacy","1","undefined","1","right","76","0","76","76","0","0","76","76","0","0","76","76","76","76","0","Sun Oct 15 11:47:37 2023","The main experiment item","True","SternbergTask.osexp","/Users/baileymcwhirter","False","mono","False","18","no","white","no","yes","768","legacy","64","11","/Users/baileymcwhirter/subject-2.csv","legacy","2 6 4 3 9","Melodramatic Milgram","4.0.5","0","n","0","right","right","right","right","NA","1581.0","6610","2426","1581","NA","2","legacy","5","1024","2","48000","-16","experiment","2","even","1","493544","7744","490301","491334","1071","84487","491336","483631","1115","82060","495547","497129","492338","495547","NA","Sternberg Task","75","83245.0","77","1024"
"97","97","1087","1087","black","experiment","legacy","legacy","legacy","1","undefined","1","right","77","0","77","77","0","0","77","77","0","0","77","77","77","77","0","Sun Oct 15 11:47:37 2023","The main experiment item","True","SternbergTask.osexp","/Users/baileymcwhirter","False","mono","False","18","no","white","no","yes","768","legacy","65","11","/Users/baileymcwhirter/subject-2.csv","legacy","7 4 2 8 1 9","Melodramatic Milgram","4.0.5","0","n","0","right","right","right","right","NA","1578.0","6610","2426","1578","NA","2","legacy","6","1024","2","48000","-16","experiment","2","even","5","500382","7744","497131","498169","1071","84487","498171","483631","1115","82060","502385","503964","499176","502385","NA","Sternberg Task","76","84823.0","78","1024"
"97","97","1083","1083","black","experiment","legacy","legacy","legacy","1","undefined","1","left","78","0","78","78","0","0","78","78","0","0","78","78","78","78","0","Sun Oct 15 11:47:37 2023","The main experiment item","True","SternbergTask.osexp","/Users/baileymcwhirter","False","mono","False","18","no","white","no","yes","768","legacy","66","11","/Users/baileymcwhirter/subject-2.csv","legacy","8 7 3","Melodramatic Milgram","4.0.5","1","y","0","left","right","right","left","NA","805.0","6610","2426","805","NA","2","legacy","3","1024","2","48000","-16","experiment","2","even","8","507212","7744","503968","505000","1071","84487","505002","483631","1115","82060","509214","510020","506007","509214","NA","Sternberg Task","77","85628.0","79","1024"
"97","97","1083","1083","black","experiment","legacy","legacy","legacy","1","undefined","1","left","79","0","79","79","0","0","79","79","0","0","79","79","79","79","0","Sun Oct 15 11:47:37 2023","The main experiment item","True","SternbergTask.osexp","/Users/baileymcwhirter","False","mono","False","18","no","white","no","yes","768","legacy","67","11","/Users/baileymcwhirter/subject-2.csv","legacy","3 2 1 4 7","Melodramatic Milgram","4.0.5","2","y","0","left","right","right","left","NA","1032.0","6610","2426","1032","NA","2","legacy","5","1024","2","48000","-16","experiment","2","even","2","513267","7744","510023","511053","1071","84487","511056","483631","1115","82060","515272","516305","512062","515272","NA","Sternberg Task","78","86660.0","80","1024"
"97","97","1083","1083","black","experiment","legacy","legacy","legacy","1","undefined","1","left","80","0","80","80","0","0","80","80","0","0","80","80","80","80","0","Sun Oct 15 11:47:37 2023","The main experiment item","True","SternbergTask.osexp","/Users/baileymcwhirter","False","mono","False","18","no","white","no","yes","768","legacy","68","11","/Users/baileymcwhirter/subject-2.csv","legacy","8 1 6","Melodramatic Milgram","4.0.5","3","y","0","left","right","right","left","NA","1072.0","6610","2426","1072","NA","2","legacy","3","1024","2","48000","-16","experiment","2","even","6","519555","7744","516308","517345","1071","84487","517347","483631","1115","82060","521558","522631","518350","521558","NA","Sternberg Task","79","87732.0","81","1024"
"97","97","1086","1086","black","experiment","legacy","legacy","legacy","1","undefined","1","left","81","0","81","81","0","0","81","81","0","0","81","81","81","81","0","Sun Oct 15 11:47:37 2023","The main experiment item","True","SternbergTask.osexp","/Users/baileymcwhirter","False","mono","False","18","no","white","no","yes","768","legacy","69","11","/Users/baileymcwhirter/subject-2.csv","legacy","8 5 4 7 3 1","Melodramatic Milgram","4.0.5","2","y","0","left","right","right","left","NA","1371.0","6610","2426","1371","NA","2","legacy","6","1024","2","48000","-16","experiment","2","even","5","525877","7744","522634","523666","1071","84487","523668","483631","1115","82060","527879","529251","524671","527879","NA","Sternberg Task","80","89103.0","82","1024"
"97","97","1083","1083","black","experiment","legacy","legacy","legacy","1","undefined","1","left","82","0","82","82","0","0","82","82","0","0","82","82","82","82","0","Sun Oct 15 11:47:37 2023","The main experiment item","True","SternbergTask.osexp","/Users/baileymcwhirter","False","mono","False","18","no","white","no","yes","768","legacy","70","11","/Users/baileymcwhirter/subject-2.csv","legacy","3 5 4 7","Melodramatic Milgram","4.0.5","1","y","0","left","right","right","left","NA","838.0","6610","2426","838","NA","2","legacy","4","1024","2","48000","-16","experiment","2","even","3","532498","7744","529254","530285","1071","84487","530287","483631","1115","82060","534503","535342","531293","534503","NA","Sternberg Task","81","89941.0","83","1024"
"97","97","1087","1087","black","experiment","legacy","legacy","legacy","1","undefined","1","left","83","0","83","83","0","0","83","83","0","0","83","83","83","83","0","Sun Oct 15 11:47:37 2023","The main experiment item","True","SternbergTask.osexp","/Users/baileymcwhirter","False","mono","False","18","no","white","no","yes","768","legacy","71","11","/Users/baileymcwhirter/subject-2.csv","legacy","9 3 1 2 5","Melodramatic Milgram","4.0.5","4","y","0","left","right","right","left","NA","1449.0","6610","2426","1449","NA","2","legacy","5","1024","2","48000","-16","experiment","2","even","2","538586","7744","535344","536374","1071","84487","536376","483631","1115","82060","540588","542038","537380","540588","NA","Sternberg Task","82","91390.0","84","1024"
"97","97","1087","1087","black","experiment","legacy","legacy","legacy","1","undefined","1","right","84","0","84","84","0","0","84","84","0","0","84","84","84","84","0","Sun Oct 15 11:47:37 2023","The main experiment item","True","SternbergTask.osexp","/Users/baileymcwhirter","False","mono","False","18","no","white","no","yes","768","legacy","72","11","/Users/baileymcwhirter/subject-2.csv","legacy","8 2 1 4 5 9","Melodramatic Milgram","4.0.5","0","n","0","right","right","right","right","NA","1076.0","6610","2426","1076","NA","2","legacy","6","1024","2","48000","-16","experiment","2","even","7","545283","7744","542041","543071","1071","84487","543073","483631","1115","82060","547285","548362","544078","547285","NA","Sternberg Task","83","92466.0","85","1024"
"97","97","1086","1086","black","experiment","legacy","legacy","legacy","1","undefined","1","right","85","0","85","85","0","0","85","85","0","0","85","85","85","85","0","Sun Oct 15 11:47:37 2023","The main experiment item","True","SternbergTask.osexp","/Users/baileymcwhirter","False","mono","False","18","no","white","no","yes","768","legacy","73","11","/Users/baileymcwhirter/subject-2.csv","legacy","9","Melodramatic Milgram","4.0.5","0","n","0","right","right","right","right","NA","976.0","6610","2426","976","NA","2","legacy","1","1024","2","48000","-16","experiment","2","even","6","551610","7744","548365","549401","1071","84487","549403","483631","1115","82060","553613","554590","550406","553613","NA","Sternberg Task","84","93442.0","86","1024"
"97","97","1092","1092","black","experiment","legacy","legacy","legacy","1","undefined","1","right","86","0","86","86","0","0","86","86","0","0","86","86","86","86","0","Sun Oct 15 11:47:37 2023","The main experiment item","True","SternbergTask.osexp","/Users/baileymcwhirter","False","mono","False","18","no","white","no","yes","768","legacy","74","11","/Users/baileymcwhirter/subject-2.csv","legacy","1 6 4","Melodramatic Milgram","4.0.5","0","n","0","right","right","right","right","NA","1593.0","6610","2426","1593","NA","2","legacy","3","1024","2","48000","-16","experiment","2","even","7","557837","7744","554592","555624","1071","84487","555627","483631","1115","82060","559839","561433","556630","559839","NA","Sternberg Task","85","95035.0","87","1024"
"97","97","1092","1092","black","experiment","legacy","legacy","legacy","1","undefined","1","right","87","0","87","87","0","0","87","87","0","0","87","87","87","87","0","Sun Oct 15 11:47:37 2023","The main experiment item","True","SternbergTask.osexp","/Users/baileymcwhirter","False","mono","False","18","no","white","no","yes","768","legacy","75","11","/Users/baileymcwhirter/subject-2.csv","legacy","2 5 1 4","Melodramatic Milgram","4.0.5","0","n","0","right","right","right","right","NA","1096.0","6610","2426","1096","NA","2","legacy","4","1024","2","48000","-16","experiment","2","even","6","564684","7744","561436","562471","1071","84487","562473","483631","1115","82060","566687","567784","563478","566687","NA","Sternberg Task","86","96131.0","88","1024"
"97","97","1093","1093","black","experiment","legacy","legacy","legacy","1","undefined","1","right","88","0","88","88","0","0","88","88","0","0","88","88","88","88","0","Sun Oct 15 11:47:37 2023","The main experiment item","True","SternbergTask.osexp","/Users/baileymcwhirter","False","mono","False","18","no","white","no","yes","768","legacy","76","11","/Users/baileymcwhirter/subject-2.csv","legacy","4 2 7 6 1 3","Melodramatic Milgram","4.0.5","0","n","0","right","right","right","right","NA","1168.0","6610","2426","1168","NA","2","legacy","6","1024","2","48000","-16","experiment","2","even","8","571034","7744","567787","568824","1071","84487","568826","483631","1115","82060","573038","574207","569829","573038","NA","Sternberg Task","87","97299.0","89","1024"
"97","97","1093","1093","black","experiment","legacy","legacy","legacy","1","undefined","1","right","89","0","89","89","0","0","89","89","0","0","89","89","89","89","0","Sun Oct 15 11:47:37 2023","The main experiment item","True","SternbergTask.osexp","/Users/baileymcwhirter","False","mono","False","18","no","white","no","yes","768","legacy","77","11","/Users/baileymcwhirter/subject-2.csv","legacy","6 8 4","Melodramatic Milgram","4.0.5","0","n","0","right","right","right","right","NA","1087.0","6610","2426","1087","NA","2","legacy","3","1024","2","48000","-16","experiment","2","even","1","577455","7744","574210","575244","1071","84487","575246","483631","1115","82060","579457","580545","576250","579457","NA","Sternberg Task","88","98386.0","90","1024"
"97","97","1092","1092","black","experiment","legacy","legacy","legacy","1","undefined","1","right","90","0","90","90","0","0","90","90","0","0","90","90","90","90","0","Sun Oct 15 11:47:37 2023","The main experiment item","True","SternbergTask.osexp","/Users/baileymcwhirter","False","mono","False","18","no","white","no","yes","768","legacy","78","11","/Users/baileymcwhirter/subject-2.csv","legacy","5 3 8 7 2 4","Melodramatic Milgram","4.0.5","0","n","0","right","right","right","right","NA","1073.0","6610","2426","1073","NA","2","legacy","6","1024","2","48000","-16","experiment","2","even","9","583790","7744","580548","581579","1071","84487","581581","483631","1115","82060","585792","586866","582584","585792","NA","Sternberg Task","89","99459.0","91","1024"
"97","97","1091","1091","black","experiment","legacy","legacy","legacy","1","undefined","1","right","91","0","91","91","0","0","91","91","0","0","91","91","91","91","0","Sun Oct 15 11:47:37 2023","The main experiment item","True","SternbergTask.osexp","/Users/baileymcwhirter","False","mono","False","18","no","white","no","yes","768","legacy","79","11","/Users/baileymcwhirter/subject-2.csv","legacy","2 8 9","Melodramatic Milgram","4.0.5","0","n","0","right","right","right","right","NA","939.0","6610","2426","939","NA","2","legacy","3","1024","2","48000","-16","experiment","2","even","6","590115","7744","586869","587906","1071","84487","587908","483631","1115","82060","592117","593057","588910","592117","NA","Sternberg Task","90","100398.0","92","1024"
"97","97","1091","1091","black","experiment","legacy","legacy","legacy","1","undefined","1","right","92","0","92","92","0","0","92","92","0","0","92","92","92","92","0","Sun Oct 15 11:47:37 2023","The main experiment item","True","SternbergTask.osexp","/Users/baileymcwhirter","False","mono","False","18","no","white","no","yes","768","legacy","80","11","/Users/baileymcwhirter/subject-2.csv","legacy","7 9 1 6","Melodramatic Milgram","4.0.5","0","n","0","right","right","right","right","NA","1119.0","6610","2426","1119","NA","2","legacy","4","1024","2","48000","-16","experiment","2","even","4","596304","7744","593060","594090","1071","84487","594092","483631","1115","82060","598307","599427","595099","598307","NA","Sternberg Task","91","101517.0","93","1024"
"97","97","1091","1091","black","experiment","legacy","legacy","legacy","1","undefined","1","left","93","0","93","93","0","0","93","93","0","0","93","93","93","93","0","Sun Oct 15 11:47:37 2023","The main experiment item","True","SternbergTask.osexp","/Users/baileymcwhirter","False","mono","False","18","no","white","no","yes","768","legacy","81","11","/Users/baileymcwhirter/subject-2.csv","legacy","3 4","Melodramatic Milgram","4.0.5","1","y","0","left","right","right","left","NA","1086.0","6610","2426","1086","NA","2","legacy","2","1024","2","48000","-16","experiment","2","even","3","602678","7744","599430","600467","1071","84487","600469","483631","1115","82060","604681","605768","601472","604681","NA","Sternberg Task","92","102603.0","94","1024"
"97","97","1093","1093","black","experiment","legacy","legacy","legacy","1","undefined","1","left","94","0","94","94","0","0","94","94","0","0","94","94","94","94","0","Sun Oct 15 11:47:37 2023","The main experiment item","True","SternbergTask.osexp","/Users/baileymcwhirter","False","mono","False","18","no","white","no","yes","768","legacy","82","11","/Users/baileymcwhirter/subject-2.csv","legacy","7 6","Melodramatic Milgram","4.0.5","2","y","0","left","right","right","left","NA","1259.0","6610","2426","1259","NA","2","legacy","2","1024","2","48000","-16","experiment","2","even","6","609017","7744","605771","606805","1071","84487","606808","483631","1115","82060","611019","612279","607812","611019","NA","Sternberg Task","93","103862.0","95","1024"
"97","97","1092","1092","black","experiment","legacy","legacy","legacy","1","undefined","1","right","95","0","95","95","0","0","95","95","0","0","95","95","95","95","0","Sun Oct 15 11:47:37 2023","The main experiment item","True","SternbergTask.osexp","/Users/baileymcwhirter","False","mono","False","18","no","white","no","yes","768","legacy","83","11","/Users/baileymcwhirter/subject-2.csv","legacy","8 4 3 5","Melodramatic Milgram","4.0.5","0","n","0","right","right","right","right","NA","970.0","6610","2426","970","NA","2","legacy","4","1024","2","48000","-16","experiment","2","even","6","615524","7744","612281","613311","1071","84487","613313","483631","1115","82060","617526","618497","614319","617526","NA","Sternberg Task","94","104832.0","96","1024"
"97","97","1090","1090","black","experiment","legacy","legacy","legacy","1","undefined","1","right","96","0","96","96","0","0","96","96","0","0","96","96","96","96","0","Sun Oct 15 11:47:37 2023","The main experiment item","True","SternbergTask.osexp","/Users/baileymcwhirter","False","mono","False","18","no","white","no","yes","768","legacy","84","11","/Users/baileymcwhirter/subject-2.csv","legacy","8 5 7 3 6","Melodramatic Milgram","4.0.5","0","n","0","right","right","right","right","NA","977.0","6610","2426","977","NA","2","legacy","5","1024","2","48000","-16","experiment","2","even","9","621740","7744","618500","619531","1071","84487","619533","483631","1115","82060","623742","624720","620535","623742","NA","Sternberg Task","95","105809.0","97","1024"
"97","97","1097","1097","black","experiment","legacy","legacy","legacy","1","undefined","1","left","97","0","97","97","0","0","97","97","0","0","97","97","97","97","0","Sun Oct 15 11:47:37 2023","The main experiment item","True","SternbergTask.osexp","/Users/baileymcwhirter","False","mono","False","18","no","white","no","yes","768","legacy","85","11","/Users/baileymcwhirter/subject-2.csv","legacy","6 9 7 4 5 1","Melodramatic Milgram","4.0.5","2","y","0","left","right","right","left","NA","1785.0","6610","2426","1785","NA","2","legacy","6","1024","2","48000","-16","experiment","2","even","9","627964","7744","624722","625754","1071","84487","625756","483631","1115","82060","629966","631752","626758","629966","NA","Sternberg Task","96","107594.0","98","1024"
"97","97","1097","1097","black","experiment","legacy","legacy","legacy","1","undefined","1","left","98","0","98","98","0","0","98","98","0","0","98","98","98","98","0","Sun Oct 15 11:47:37 2023","The main experiment item","True","SternbergTask.osexp","/Users/baileymcwhirter","False","mono","False","18","no","white","no","yes","768","legacy","86","11","/Users/baileymcwhirter/subject-2.csv","legacy","5 2 9 6 1 7","Melodramatic Milgram","4.0.5","3","y","0","left","right","right","left","NA","1022.0","6610","2426","1022","NA","2","legacy","6","1024","2","48000","-16","experiment","2","even","9","634999","7744","631755","632786","1071","84487","632789","483631","1115","82060","637001","638024","633794","637001","NA","Sternberg Task","97","108616.0","99","1024"
"98","98","1097","1097","black","experiment","legacy","legacy","legacy","1","undefined","1","right","99","0","99","99","0","0","99","99","0","0","99","99","99","99","0","Sun Oct 15 11:47:37 2023","The main experiment item","True","SternbergTask.osexp","/Users/baileymcwhirter","False","mono","False","18","no","white","no","yes","768","legacy","87","11","/Users/baileymcwhirter/subject-2.csv","legacy","6 9 4 5 2","Melodramatic Milgram","4.0.5","0","n","0","right","right","right","right","NA","1175.0","6610","2426","1175","NA","2","legacy","5","1024","2","48000","-16","experiment","2","even","1","641288","7744","638027","639077","1071","84487","639079","483631","1115","82060","643291","644467","640082","643290","NA","Sternberg Task","98","109791.0","100","1024"
"98","98","1106","1106","black","experiment","legacy","legacy","legacy","1","undefined","1","right","100","0","100","100","0","0","100","100","0","0","100","100","100","100","0","Sun Oct 15 11:47:37 2023","The main experiment item","True","SternbergTask.osexp","/Users/baileymcwhirter","False","mono","False","18","no","white","no","yes","768","legacy","88","11","/Users/baileymcwhirter/subject-2.csv","legacy","7 1 8 4 9 3","Melodramatic Milgram","4.0.5","0","n","0","right","right","right","right","NA","1990.0","6610","2426","1990","NA","2","legacy","6","1024","2","48000","-16","experiment","2","even","6","647729","7744","644470","645517","1071","84487","645519","483631","1115","82060","649731","651722","646523","649731","NA","Sternberg Task","99","111781.0","101","1024"
"98","98","1104","1104","black","experiment","legacy","legacy","legacy","1","undefined","1","left","101","0","101","101","0","0","101","101","0","0","101","101","101","101","0","Sun Oct 15 11:47:37 2023","The main experiment item","True","SternbergTask.osexp","/Users/baileymcwhirter","False","mono","False","18","no","white","no","yes","768","legacy","89","11","/Users/baileymcwhirter/subject-2.csv","legacy","2 3","Melodramatic Milgram","4.0.5","1","y","0","left","right","right","left","NA","881.0","6610","2426","881","NA","2","legacy","2","1024","2","48000","-16","experiment","2","even","2","654978","7744","651725","652766","1071","84487","652768","483631","1115","82060","656980","657862","653771","656980","NA","Sternberg Task","100","112662.0","102","1024"
"98","98","1100","1100","black","experiment","legacy","legacy","legacy","1","undefined","1","left","102","0","102","102","0","0","102","102","0","0","102","102","102","102","0","Sun Oct 15 11:47:37 2023","The main experiment item","True","SternbergTask.osexp","/Users/baileymcwhirter","False","mono","False","18","no","white","no","yes","768","legacy","90","11","/Users/baileymcwhirter/subject-2.csv","legacy","4","Melodramatic Milgram","4.0.5","1","y","0","left","right","right","left","NA","682.0","6610","2426","682","NA","2","legacy","1","1024","2","48000","-16","experiment","2","even","4","661121","7744","657865","658908","1071","84487","658910","483631","1115","82060","663123","663806","659915","663123","NA","Sternberg Task","101","113344.0","103","1024"
"98","98","1099","1099","black","experiment","legacy","legacy","legacy","1","undefined","1","right","103","0","103","103","0","0","103","103","0","0","103","103","103","103","0","Sun Oct 15 11:47:37 2023","The main experiment item","True","SternbergTask.osexp","/Users/baileymcwhirter","False","mono","False","18","no","white","no","yes","768","legacy","91","11","/Users/baileymcwhirter/subject-2.csv","legacy","7 1 5 6 3","Melodramatic Milgram","4.0.5","0","n","0","right","right","right","right","NA","1017.0","6610","2426","1017","NA","2","legacy","5","1024","2","48000","-16","experiment","2","even","8","667068","7744","663809","664858","1071","84487","664860","483631","1115","82060","669070","670088","665863","669070","NA","Sternberg Task","102","114361.0","104","1024"
"98","98","1102","1102","black","experiment","legacy","legacy","legacy","1","undefined","1","left","104","0","104","104","0","0","104","104","0","0","104","104","104","104","0","Sun Oct 15 11:47:37 2023","The main experiment item","True","SternbergTask.osexp","/Users/baileymcwhirter","False","mono","False","18","no","white","no","yes","768","legacy","92","11","/Users/baileymcwhirter/subject-2.csv","legacy","4 6 2 5 1","Melodramatic Milgram","4.0.5","5","y","0","left","right","right","left","NA","1452.0","6610","2426","1452","NA","2","legacy","5","1024","2","48000","-16","experiment","2","even","1","673347","7744","670091","671137","1071","84487","671139","483631","1115","82060","675351","676804","672142","675351","NA","Sternberg Task","103","115813.0","105","1024"
"98","98","1100","1100","black","experiment","legacy","legacy","legacy","1","undefined","1","left","105","0","105","105","0","0","105","105","0","0","105","105","105","105","0","Sun Oct 15 11:47:37 2023","The main experiment item","True","SternbergTask.osexp","/Users/baileymcwhirter","False","mono","False","18","no","white","no","yes","768","legacy","93","11","/Users/baileymcwhirter/subject-2.csv","legacy","9 8 4","Melodramatic Milgram","4.0.5","1","y","0","left","right","right","left","NA","817.0","6610","2426","817","NA","2","legacy","3","1024","2","48000","-16","experiment","2","even","9","680061","7744","676808","677850","1071","84487","677853","483631","1115","82060","682067","682885","678855","682067","NA","Sternberg Task","104","116630.0","106","1024"
"98","98","1100","1100","black","experiment","legacy","legacy","legacy","1","undefined","1","left","106","0","106","106","0","0","106","106","0","0","106","106","106","106","0","Sun Oct 15 11:47:37 2023","The main experiment item","True","SternbergTask.osexp","/Users/baileymcwhirter","False","mono","False","18","no","white","no","yes","768","legacy","94","11","/Users/baileymcwhirter/subject-2.csv","legacy","4 7 6 8 2 3","Melodramatic Milgram","4.0.5","6","y","0","left","right","right","left","NA","1152.0","6610","2426","1152","NA","2","legacy","6","1024","2","48000","-16","experiment","2","even","3","686135","7744","682888","683923","1071","84487","683925","483631","1115","82060","688137","689290","684930","688137","NA","Sternberg Task","105","117782.0","107","1024"
"98","98","1101","1101","black","experiment","legacy","legacy","legacy","1","undefined","1","left","107","0","107","107","0","0","107","107","0","0","107","107","107","107","0","Sun Oct 15 11:47:37 2023","The main experiment item","True","SternbergTask.osexp","/Users/baileymcwhirter","False","mono","False","18","no","white","no","yes","768","legacy","95","11","/Users/baileymcwhirter/subject-2.csv","legacy","9 6 2 4 1","Melodramatic Milgram","4.0.5","4","y","0","left","right","right","left","NA","1169.0","6610","2426","1169","NA","2","legacy","5","1024","2","48000","-16","experiment","2","even","4","692537","7744","689293","690326","1071","84487","690328","483631","1115","82060","694539","695709","691332","694539","NA","Sternberg Task","106","118951.0","108","1024"
"98","98","1100","1100","black","experiment","legacy","legacy","legacy","1","undefined","1","left","108","0","108","108","0","0","108","108","0","0","108","108","108","108","0","Sun Oct 15 11:47:37 2023","The main experiment item","True","SternbergTask.osexp","/Users/baileymcwhirter","False","mono","False","18","no","white","no","yes","768","legacy","96","11","/Users/baileymcwhirter/subject-2.csv","legacy","4 9 7 8 5 3","Melodramatic Milgram","4.0.5","4","y","0","left","right","right","left","NA","992.0","6610","2426","992","NA","2","legacy","6","1024","2","48000","-16","experiment","2","even","8","698959","7744","695712","696748","1071","84487","696750","483631","1115","82060","700961","701954","697752","700961","NA","Sternberg Task","107","119943.0","109","1024"
"98","98","1101","1101","black","experiment","legacy","legacy","legacy","1","undefined","1","left","109","0","109","109","0","0","109","109","0","0","109","109","109","109","0","Sun Oct 15 11:47:37 2023","The main experiment item","True","SternbergTask.osexp","/Users/baileymcwhirter","False","mono","False","18","no","white","no","yes","768","legacy","97","11","/Users/baileymcwhirter/subject-2.csv","legacy","3 5 9 6 2 4","Melodramatic Milgram","4.0.5","1","y","0","left","right","right","left","NA","1254.0","6610","2426","1254","NA","2","legacy","6","1024","2","48000","-16","experiment","2","even","3","705208","7744","701957","702994","1071","84487","702996","483631","1115","82060","707210","708465","704000","707210","NA","Sternberg Task","108","121197.0","110","1024"
"98","98","1108","1108","black","experiment","legacy","legacy","legacy","1","undefined","1","right","110","0","110","110","0","0","110","110","0","0","110","110","110","110","0","Sun Oct 15 11:47:37 2023","The main experiment item","True","SternbergTask.osexp","/Users/baileymcwhirter","False","mono","False","18","no","white","no","yes","768","legacy","98","11","/Users/baileymcwhirter/subject-2.csv","legacy","6 3 1 7 9 8","Melodramatic Milgram","4.0.5","0","n","0","right","right","right","right","NA","1858.0","6610","2426","1858","NA","2","legacy","6","1024","2","48000","-16","experiment","2","even","4","711715","7744","708468","709503","1071","84487","709505","483631","1115","82060","713717","715576","710510","713717","NA","Sternberg Task","109","123055.0","111","1024"
"98","98","1108","1108","black","experiment","legacy","legacy","legacy","1","undefined","1","right","111","0","111","111","0","0","111","111","0","0","111","111","111","111","0","Sun Oct 15 11:47:37 2023","The main experiment item","True","SternbergTask.osexp","/Users/baileymcwhirter","False","mono","False","18","no","white","no","yes","768","legacy","99","11","/Users/baileymcwhirter/subject-2.csv","legacy","4 8 1 2","Melodramatic Milgram","4.0.5","0","n","0","right","right","right","right","NA","1101.0","6610","2426","1101","NA","2","legacy","4","1024","2","48000","-16","experiment","2","even","7","718830","7744","715579","716618","1071","84487","716620","483631","1115","82060","720832","721934","717625","720832","NA","Sternberg Task","110","124156.0","112","1024"
"98","98","1107","1107","black","experiment","legacy","legacy","legacy","1","undefined","1","right","112","0","112","112","0","0","112","112","0","0","112","112","112","112","0","Sun Oct 15 11:47:37 2023","The main experiment item","True","SternbergTask.osexp","/Users/baileymcwhirter","False","mono","False","18","no","white","no","yes","768","legacy","100","11","/Users/baileymcwhirter/subject-2.csv","legacy","3 9 1","Melodramatic Milgram","4.0.5","0","n","0","right","right","right","right","NA","1008.0","6610","2426","1008","NA","2","legacy","3","1024","2","48000","-16","experiment","2","even","7","725177","7744","721937","722968","1071","84487","722970","483631","1115","82060","727180","728189","723973","727180","NA","Sternberg Task","111","125164.0","113","1024"
"98","98","1110","1110","black","experiment","legacy","legacy","legacy","1","undefined","1","left","113","0","113","113","0","0","113","113","0","0","113","113","113","113","0","Sun Oct 15 11:47:37 2023","The main experiment item","True","SternbergTask.osexp","/Users/baileymcwhirter","False","mono","False","18","no","white","no","yes","768","legacy","101","11","/Users/baileymcwhirter/subject-2.csv","legacy","4 1 5","Melodramatic Milgram","4.0.5","2","y","0","left","right","right","left","NA","1403.0","6610","2426","1403","NA","2","legacy","3","1024","2","48000","-16","experiment","2","even","1","731436","7744","728192","729223","1071","84487","729225","483631","1115","82060","733438","734842","730230","733438","NA","Sternberg Task","112","126567.0","114","1024"
"98","98","1110","1110","black","experiment","legacy","legacy","legacy","1","undefined","1","left","114","0","114","114","0","0","114","114","0","0","114","114","114","114","0","Sun Oct 15 11:47:37 2023","The main experiment item","True","SternbergTask.osexp","/Users/baileymcwhirter","False","mono","False","18","no","white","no","yes","768","legacy","102","11","/Users/baileymcwhirter/subject-2.csv","legacy","7 2 3","Melodramatic Milgram","4.0.5","3","y","0","left","right","right","left","NA","1099.0","6610","2426","1099","NA","2","legacy","3","1024","2","48000","-16","experiment","2","even","3","738090","7744","734845","735878","1071","84487","735880","483631","1115","82060","740091","741191","736885","740091","NA","Sternberg Task","113","127666.0","115","1024"
"98","98","1109","1109","black","experiment","legacy","legacy","legacy","1","undefined","1","left","115","0","115","115","0","0","115","115","0","0","115","115","115","115","0","Sun Oct 15 11:47:37 2023","The main experiment item","True","SternbergTask.osexp","/Users/baileymcwhirter","False","mono","False","18","no","white","no","yes","768","legacy","103","11","/Users/baileymcwhirter/subject-2.csv","legacy","7","Melodramatic Milgram","4.0.5","1","y","0","left","right","right","left","NA","997.0","6610","2426","997","NA","2","legacy","1","1024","2","48000","-16","experiment","2","even","7","744446","7744","741193","742228","1071","84487","742236","483631","1115","82060","746448","747446","743241","746448","NA","Sternberg Task","114","128663.0","116","1024"
"98","98","1108","1108","black","experiment","legacy","legacy","legacy","1","undefined","1","left","116","0","116","116","0","0","116","116","0","0","116","116","116","116","0","Sun Oct 15 11:47:37 2023","The main experiment item","True","SternbergTask.osexp","/Users/baileymcwhirter","False","mono","False","18","no","white","no","yes","768","legacy","104","11","/Users/baileymcwhirter/subject-2.csv","legacy","9 5 8 1","Melodramatic Milgram","4.0.5","2","y","0","left","right","right","left","NA","1054.0","6610","2426","1054","NA","2","legacy","4","1024","2","48000","-16","experiment","2","even","5","750701","7744","747449","748487","1071","84487","748490","483631","1115","82060","752707","753762","749495","752707","NA","Sternberg Task","115","129717.0","117","1024"
"98","98","1113","1113","black","experiment","legacy","legacy","legacy","1","undefined","1","right","117","0","117","117","0","0","117","117","0","0","117","117","117","117","0","Sun Oct 15 11:47:37 2023","The main experiment item","True","SternbergTask.osexp","/Users/baileymcwhirter","False","mono","False","18","no","white","no","yes","768","legacy","105","11","/Users/baileymcwhirter/subject-2.csv","legacy","1 7 5 2 9","Melodramatic Milgram","4.0.5","0","n","0","right","right","right","right","NA","1692.0","6610","2426","1692","NA","2","legacy","5","1024","2","48000","-16","experiment","2","even","3","757017","7744","753765","754804","1071","84487","754807","483631","1115","82060","759022","760715","755811","759022","NA","Sternberg Task","116","131409.0","118","1024"
"98","98","1111","1111","black","experiment","legacy","legacy","legacy","1","undefined","1","left","118","0","118","118","0","0","118","118","0","0","118","118","118","118","0","Sun Oct 15 11:47:37 2023","The main experiment item","True","SternbergTask.osexp","/Users/baileymcwhirter","False","mono","False","18","no","white","no","yes","768","legacy","106","11","/Users/baileymcwhirter/subject-2.csv","legacy","8 5 1 3 9","Melodramatic Milgram","4.0.5","4","y","0","left","right","right","left","NA","886.0","6610","2426","886","NA","2","legacy","5","1024","2","48000","-16","experiment","2","even","3","763962","7744","760718","761751","1071","84487","761753","483631","1115","82060","765964","766851","762756","765964","NA","Sternberg Task","117","132295.0","119","1024"
"98","98","1111","1111","black","experiment","legacy","legacy","legacy","1","undefined","1","right","119","0","119","119","0","0","119","119","0","0","119","119","119","119","0","Sun Oct 15 11:47:37 2023","The main experiment item","True","SternbergTask.osexp","/Users/baileymcwhirter","False","mono","False","18","no","white","no","yes","768","legacy","107","11","/Users/baileymcwhirter/subject-2.csv","legacy","1 4 9 3","Melodramatic Milgram","4.0.5","0","n","0","right","right","right","right","NA","1089.0","6610","2426","1089","NA","2","legacy","4","1024","2","48000","-16","experiment","2","even","5","770101","7744","766854","767889","1071","84487","767892","483631","1115","82060","772104","773195","768895","772104","NA","Sternberg Task","118","133384.0","120","1024"
"98","98","1113","1113","black","experiment","legacy","legacy","legacy","1","undefined","1","right","120","0","120","120","0","0","120","120","0","0","120","120","120","120","0","Sun Oct 15 11:47:37 2023","The main experiment item","True","SternbergTask.osexp","/Users/baileymcwhirter","False","mono","False","18","no","white","no","yes","768","legacy","108","11","/Users/baileymcwhirter/subject-2.csv","legacy","8 4 3 9","Melodramatic Milgram","4.0.5","0","n","0","right","right","right","right","NA","1290.0","6610","2426","1290","NA","2","legacy","4","1024","2","48000","-16","experiment","2","even","5","776440","7744","773197","774228","1071","84487","774231","483631","1115","82060","778443","779734","775234","778443","NA","Sternberg Task","119","134674.0","121","1024"
"98","98","1110","1110","black","experiment","legacy","legacy","legacy","1","undefined","1","right","121","0","121","121","0","0","121","121","0","0","121","121","121","121","0","Sun Oct 15 11:47:37 2023","The main experiment item","True","SternbergTask.osexp","/Users/baileymcwhirter","False","mono","False","18","no","white","no","yes","768","legacy","109","11","/Users/baileymcwhirter/subject-2.csv","legacy","3 4 2","Melodramatic Milgram","4.0.5","0","n","0","right","right","right","right","NA","850.0","6610","2426","850","NA","2","legacy","3","1024","2","48000","-16","experiment","2","even","5","782978","7744","779737","780766","1071","84487","780768","483631","1115","82060","784981","785832","781773","784981","NA","Sternberg Task","120","135524.0","122","1024"
"98","98","1109","1109","black","experiment","legacy","legacy","legacy","1","undefined","1","right","122","0","122","122","0","0","122","122","0","0","122","122","122","122","0","Sun Oct 15 11:47:37 2023","The main experiment item","True","SternbergTask.osexp","/Users/baileymcwhirter","False","mono","False","18","no","white","no","yes","768","legacy","110","11","/Users/baileymcwhirter/subject-2.csv","legacy","8 9","Melodramatic Milgram","4.0.5","0","n","0","right","right","right","right","NA","949.0","6610","2426","949","NA","2","legacy","2","1024","2","48000","-16","experiment","2","even","5","789084","7744","785835","786874","1071","84487","786876","483631","1115","82060","791086","792036","787879","791086","NA","Sternberg Task","121","136473.0","123","1024"
"98","98","1109","1109","black","experiment","legacy","legacy","legacy","1","undefined","1","left","123","0","123","123","0","0","123","123","0","0","123","123","123","123","0","Sun Oct 15 11:47:37 2023","The main experiment item","True","SternbergTask.osexp","/Users/baileymcwhirter","False","mono","False","18","no","white","no","yes","768","legacy","111","11","/Users/baileymcwhirter/subject-2.csv","legacy","5 2 6","Melodramatic Milgram","4.0.5","2","y","0","left","right","right","left","NA","1119.0","6610","2426","1119","NA","2","legacy","3","1024","2","48000","-16","experiment","2","even","2","795281","7744","792039","793071","1071","84487","793074","483631","1115","82060","797284","798404","794076","797284","NA","Sternberg Task","122","137592.0","124","1024"
"98","98","1107","1107","black","experiment","legacy","legacy","legacy","1","undefined","1","left","124","0","124","124","0","0","124","124","0","0","124","124","124","124","0","Sun Oct 15 11:47:37 2023","The main experiment item","True","SternbergTask.osexp","/Users/baileymcwhirter","False","mono","False","18","no","white","no","yes","768","legacy","112","11","/Users/baileymcwhirter/subject-2.csv","legacy","9 1 6 7 8","Melodramatic Milgram","4.0.5","1","y","0","left","right","right","left","NA","783.0","6610","2426","783","NA","2","legacy","5","1024","2","48000","-16","experiment","2","even","9","801650","7744","798407","799440","1071","84487","799442","483631","1115","82060","803655","804439","800445","803655","NA","Sternberg Task","123","138375.0","125","1024"
"98","98","1105","1105","black","experiment","legacy","legacy","legacy","1","undefined","1","right","125","0","125","125","0","0","125","125","0","0","125","125","125","125","0","Sun Oct 15 11:47:37 2023","The main experiment item","True","SternbergTask.osexp","/Users/baileymcwhirter","False","mono","False","18","no","white","no","yes","768","legacy","113","11","/Users/baileymcwhirter/subject-2.csv","legacy","8 6 3 4 7","Melodramatic Milgram","4.0.5","0","n","0","right","right","right","right","NA","893.0","6610","2426","893","NA","2","legacy","5","1024","2","48000","-16","experiment","2","even","1","807683","7744","804442","805472","1071","84487","805474","483631","1115","82060","809685","810579","806478","809685","NA","Sternberg Task","124","139268.0","126","1024"
"98","98","1108","1108","black","experiment","legacy","legacy","legacy","1","undefined","1","left","126","0","126","126","0","0","126","126","0","0","126","126","126","126","0","Sun Oct 15 11:47:37 2023","The main experiment item","True","SternbergTask.osexp","/Users/baileymcwhirter","False","mono","False","18","no","white","no","yes","768","legacy","114","11","/Users/baileymcwhirter/subject-2.csv","legacy","5 7 8 2 3 8","Melodramatic Milgram","4.0.5","5","y","0","left","right","right","left","NA","1561.0","6610","2426","1561","NA","2","legacy","6","1024","2","48000","-16","experiment","2","even","3","813827","7744","810582","811615","1071","84487","811617","483631","1115","82060","815829","817391","812622","815829","NA","Sternberg Task","125","140829.0","127","1024"
"98","98","1107","1107","black","experiment","legacy","legacy","legacy","1","undefined","1","right","127","0","127","127","0","0","127","127","0","0","127","127","127","127","0","Sun Oct 15 11:47:37 2023","The main experiment item","True","SternbergTask.osexp","/Users/baileymcwhirter","False","mono","False","18","no","white","no","yes","768","legacy","115","11","/Users/baileymcwhirter/subject-2.csv","legacy","1 4 3 6 5","Melodramatic Milgram","4.0.5","0","n","0","right","right","right","right","NA","959.0","6610","2426","959","NA","2","legacy","5","1024","2","48000","-16","experiment","2","even","8","820637","7744","817394","818426","1071","84487","818428","483631","1115","82060","822640","823600","819432","822640","NA","Sternberg Task","126","141788.0","128","1024"
"98","98","1106","1106","black","experiment","legacy","legacy","legacy","1","undefined","1","right","128","0","128","128","0","0","128","128","0","0","128","128","128","128","0","Sun Oct 15 11:47:37 2023","The main experiment item","True","SternbergTask.osexp","/Users/baileymcwhirter","False","mono","False","18","no","white","no","yes","768","legacy","116","11","/Users/baileymcwhirter/subject-2.csv","legacy","9 5 3 2 8 6","Melodramatic Milgram","4.0.5","0","n","0","right","right","right","right","NA","1012.0","6610","2426","1012","NA","2","legacy","6","1024","2","48000","-16","experiment","2","even","7","826851","7744","823603","824641","1071","84487","824643","483631","1115","82060","828853","829866","825646","828853","NA","Sternberg Task","127","142800.0","129","1024"
