"acc","accuracy","average_response_time","avg_rt","background","block","canvas_backend","clock_backend","color_backend","compensation","coordinates","correct","correct_instruction1","correct_new_keyboard_response","correct_response","count_ISI","count_correctFeedback","count_expSequence","count_experiment","count_experimentLoop","count_fixation","count_incorrectFeedback","count_instruction1","count_instructions2","count_logger","count_memorySet","count_new_keyboard_response","count_practiceLoop","count_probe","count_thankYou","datetime","description","disable_garbage_collection","experiment_file","experiment_path","font_bold","font_family","font_italic","font_size","font_underline","foreground","form_clicks","fullscreen","height","keyboard_backend","live_row","live_row_practiceLoop","logfile","mouse_backend","numberSet","opensesame_codename","opensesame_version","posInSet","present","repeat_cycle","response","response_instruction1","response_instructions2","response_new_keyboard_response","response_thankYou","response_time","response_time_instruction1","response_time_instructions2","response_time_new_keyboard_response","response_time_thankYou","round_decimals","sampler_backend","setSize","sound_buf_size","sound_channels","sound_freq","sound_sample_size","start","subject_nr","subject_parity","target","time_ISI","time_correctFeedback","time_expSequence","time_experiment","time_experimentLoop","time_fixation","time_incorrectFeedback","time_instruction1","time_instructions2","time_logger","time_memorySet","time_new_keyboard_response","time_practiceLoop","time_probe","time_thankYou","title","total_correct","total_response_time","total_responses","uniform_coordinates","width"
"0","0","345","345","black","practice","legacy","legacy","legacy","0","uniform","0","undefined","0","right","0","0","0","0","0","0","0","0","0","0","0","0","0","0","0","Sun Oct 25 17:11:53 2020","The main experiment item","yes","Sternbergtask oct 19.osexp","/Users/shelia/Desktop","no","mono","no","18","no","white","no","yes","768","legacy","0","0","/Users/shelia/Desktop/ST-subject-3 Oct 25.csv","legacy","9 6 7 4 5","Lentiform Loewenfeld","3.3.3","0","n","0","left","left","NA","left","NA","345","1131","NA","345","NA","2","legacy","5","1024","2","48000","-16","experiment","3","odd","3","6189","NA","3922","2523","NA","3936","NA","2539","NA","8555","4958","8210","3686","8210","NA","Sternberg task","0","345","1","yes","1024"
"0","0","318","318","black","practice","legacy","legacy","legacy","0","uniform","0","undefined","0","right","1","1","1","0","0","1","1","0","0","1","1","1","0","1","0","Sun Oct 25 17:11:53 2020","The main experiment item","yes","Sternbergtask oct 19.osexp","/Users/shelia/Desktop","no","mono","no","18","no","white","no","yes","768","legacy","1","1","/Users/shelia/Desktop/ST-subject-3 Oct 25.csv","legacy","5 7 8 4 1 2","Lentiform Loewenfeld","3.3.3","0","n","0","left","left","NA","left","NA","291","1131","NA","291","NA","2","legacy","6","1024","2","48000","-16","experiment","3","odd","6","11940","NA","9678","2523","NA","9694","8597","2539","NA","14253","10716","13961","3686","13961","NA","Sternberg task","0","636","2","yes","1024"
"33.333333333333336","33.333333333333336","312.3333333333333","312.3333333333333","black","practice","legacy","legacy","legacy","0","uniform","1","undefined","1","left","2","2","2","0","0","2","2","0","0","2","2","2","0","2","0","Sun Oct 25 17:11:53 2020","The main experiment item","yes","Sternbergtask oct 19.osexp","/Users/shelia/Desktop","no","mono","no","18","no","white","no","yes","768","legacy","2","2","/Users/shelia/Desktop/ST-subject-3 Oct 25.csv","legacy","6","Lentiform Loewenfeld","3.3.3","1","y","0","left","left","NA","left","NA","301","1131","NA","301","NA","2","legacy","1","1024","2","48000","-16","experiment","3","odd","6","17590","NA","15331","2523","NA","15343","14269","2539","NA","19910","16365","19609","3686","19608","NA","Sternberg task","1","937","3","yes","1024"
"50","50","431.25","431.25","black","practice","legacy","legacy","legacy","0","uniform","1","undefined","1","left","3","3","3","0","0","3","3","0","0","3","3","3","0","3","0","Sun Oct 25 17:11:53 2020","The main experiment item","yes","Sternbergtask oct 19.osexp","/Users/shelia/Desktop","no","mono","no","18","no","white","no","yes","768","legacy","3","3","/Users/shelia/Desktop/ST-subject-3 Oct 25.csv","legacy","4 8","Lentiform Loewenfeld","3.3.3","1","y","0","left","left","NA","left","NA","788","1131","NA","788","NA","2","legacy","2","1024","2","48000","-16","experiment","3","odd","4","23244","19925","20989","2523","NA","21001","14269","2539","NA","26051","22021","25263","3686","25263","NA","Sternberg task","2","1725","4","yes","1024"
"60","60","464.4","464.4","black","practice","legacy","legacy","legacy","0","uniform","1","undefined","1","left","4","4","4","0","0","4","4","0","0","4","4","4","0","4","0","Sun Oct 25 17:11:53 2020","The main experiment item","yes","Sternbergtask oct 19.osexp","/Users/shelia/Desktop","no","mono","no","18","no","white","no","yes","768","legacy","4","4","/Users/shelia/Desktop/ST-subject-3 Oct 25.csv","legacy","1 5 2 9","Lentiform Loewenfeld","3.3.3","2","y","0","left","left","NA","left","NA","597","1131","NA","597","NA","2","legacy","4","1024","2","48000","-16","experiment","3","odd","5","29383","26066","27127","2523","NA","27139","14269","2539","NA","31998","28159","31401","3686","31400","NA","Sternberg task","3","2322","5","yes","1024"
"50","50","435.6666666666667","435.6666666666667","black","practice","legacy","legacy","legacy","0","uniform","0","undefined","0","right","5","5","5","0","0","5","5","0","0","5","5","5","0","5","0","Sun Oct 25 17:11:53 2020","The main experiment item","yes","Sternbergtask oct 19.osexp","/Users/shelia/Desktop","no","mono","no","18","no","white","no","yes","768","legacy","5","5","/Users/shelia/Desktop/ST-subject-3 Oct 25.csv","legacy","3 1 9 4","Lentiform Loewenfeld","3.3.3","0","n","0","left","left","NA","left","NA","292","1131","NA","292","NA","2","legacy","4","1024","2","48000","-16","experiment","3","odd","6","35331","32012","33075","2523","NA","33088","14269","2539","NA","37642","34108","37350","3686","37349","NA","Sternberg task","3","2614","6","yes","1024"
"57.142857142857146","57.142857142857146","457.85714285714283","457.85714285714283","black","practice","legacy","legacy","legacy","0","uniform","1","undefined","1","left","6","6","6","0","0","6","6","0","0","6","6","6","0","6","0","Sun Oct 25 17:11:53 2020","The main experiment item","yes","Sternbergtask oct 19.osexp","/Users/shelia/Desktop","no","mono","no","18","no","white","no","yes","768","legacy","6","6","/Users/shelia/Desktop/ST-subject-3 Oct 25.csv","legacy","4 3 1 7 9 8","Lentiform Loewenfeld","3.3.3","1","y","0","left","left","NA","left","NA","591","1131","NA","591","NA","2","legacy","6","1024","2","48000","-16","experiment","3","odd","4","40977","32012","38720","2523","NA","38733","37658","2539","NA","43587","39754","42996","3686","42996","NA","Sternberg task","4","3205","7","yes","1024"
"50","50","605.375","605.375","black","practice","legacy","legacy","legacy","0","uniform","0","undefined","0","right","7","7","7","0","0","7","7","0","0","7","7","7","0","7","0","Sun Oct 25 17:11:53 2020","The main experiment item","yes","Sternbergtask oct 19.osexp","/Users/shelia/Desktop","no","mono","no","18","no","white","no","yes","768","legacy","7","7","/Users/shelia/Desktop/ST-subject-3 Oct 25.csv","legacy","4 1 5","Lentiform Loewenfeld","3.3.3","0","n","0","left","left","NA","left","NA","1638","1131","NA","1638","NA","2","legacy","3","1024","2","48000","-16","experiment","3","odd","2","46923","43602","44666","2523","NA","44679","37658","2539","NA","50582","45700","48943","3686","48943","NA","Sternberg task","4","4843","8","yes","1024"
"44.44444444444444","44.44444444444444","573.5555555555555","573.5555555555555","black","practice","legacy","legacy","legacy","0","uniform","0","undefined","0","right","8","8","8","0","0","8","8","0","0","8","8","8","0","8","0","Sun Oct 25 17:11:53 2020","The main experiment item","yes","Sternbergtask oct 19.osexp","/Users/shelia/Desktop","no","mono","no","18","no","white","no","yes","768","legacy","8","8","/Users/shelia/Desktop/ST-subject-3 Oct 25.csv","legacy","5","Lentiform Loewenfeld","3.3.3","0","n","0","left","left","NA","left","NA","319","1131","NA","319","NA","2","legacy","1","1024","2","48000","-16","experiment","3","odd","3","53916","43602","51659","2523","NA","51672","50596","2539","NA","56255","52693","55935","3686","55935","NA","Sternberg task","4","5162","9","yes","1024"
"40","40","551.7","551.7","black","practice","legacy","legacy","legacy","0","uniform","0","undefined","0","right","9","9","9","0","0","9","9","0","0","9","9","9","0","9","0","Sun Oct 25 17:11:53 2020","The main experiment item","yes","Sternbergtask oct 19.osexp","/Users/shelia/Desktop","no","mono","no","18","no","white","no","yes","768","legacy","9","9","/Users/shelia/Desktop/ST-subject-3 Oct 25.csv","legacy","2 1","Lentiform Loewenfeld","3.3.3","0","n","0","left","left","NA","left","NA","355","1131","NA","355","NA","2","legacy","2","1024","2","48000","-16","experiment","3","odd","5","59591","43602","57333","2523","NA","57347","56270","2539","NA","61966","58368","61610","3686","61610","NA","Sternberg task","4","5517","10","yes","1024"
"45.45454545454545","45.45454545454545","594.5454545454545","594.5454545454545","black","practice","legacy","legacy","legacy","0","uniform","1","undefined","1","left","10","10","10","0","0","10","10","0","0","10","10","10","0","10","0","Sun Oct 25 17:11:53 2020","The main experiment item","yes","Sternbergtask oct 19.osexp","/Users/shelia/Desktop","no","mono","no","18","no","white","no","yes","768","legacy","10","10","/Users/shelia/Desktop/ST-subject-3 Oct 25.csv","legacy","1 7 9 8 5","Lentiform Loewenfeld","3.3.3","4","y","0","left","left","NA","left","NA","1023","1131","NA","1023","NA","2","legacy","5","1024","2","48000","-16","experiment","3","odd","8","65301","43602","63043","2523","NA","63057","61981","2539","NA","68344","64078","67320","3686","67320","NA","Sternberg task","5","6540","11","yes","1024"
"50","50","585.25","585.25","black","practice","legacy","legacy","legacy","0","uniform","1","undefined","1","left","11","11","11","0","0","11","11","0","0","11","11","11","0","11","0","Sun Oct 25 17:11:53 2020","The main experiment item","yes","Sternbergtask oct 19.osexp","/Users/shelia/Desktop","no","mono","no","18","no","white","no","yes","768","legacy","11","11","/Users/shelia/Desktop/ST-subject-3 Oct 25.csv","legacy","2 9 4","Lentiform Loewenfeld","3.3.3","3","y","0","left","left","NA","left","NA","483","1131","NA","483","NA","2","legacy","3","1024","2","48000","-16","experiment","3","odd","4","71677","68358","69421","2523","NA","69434","61981","2539","NA","74180","70454","73696","3686","73696","NA","Sternberg task","6","7023","12","yes","1024"
"46.15384615384615","46.15384615384615","573.4615384615385","573.4615384615385","black","experiment","legacy","legacy","legacy","0","uniform","0","undefined","0","left","12","12","12","0","0","12","12","0","0","12","12","12","0","12","0","Sun Oct 25 17:11:53 2020","The main experiment item","yes","Sternbergtask oct 19.osexp","/Users/shelia/Desktop","no","mono","no","18","no","white","no","yes","768","legacy","0","11","/Users/shelia/Desktop/ST-subject-3 Oct 25.csv","legacy","9 3 8 2 1 4","Lentiform Loewenfeld","3.3.3","3","y","0","right","left","right","right","NA","432","1131","2583","432","NA","2","legacy","6","1024","2","48000","-16","experiment","3","odd","8","80125","74194","77869","2523","77824","77882","61981","2539","75241","82577","78903","82144","3686","82144","NA","Sternberg task","6","7455","13","yes","1024"
"42.857142857142854","42.857142857142854","559.7142857142857","559.7142857142857","black","experiment","legacy","legacy","legacy","0","uniform","0","undefined","0","right","13","13","13","0","0","13","13","0","0","13","13","13","0","13","0","Sun Oct 25 17:11:53 2020","The main experiment item","yes","Sternbergtask oct 19.osexp","/Users/shelia/Desktop","no","mono","no","18","no","white","no","yes","768","legacy","1","11","/Users/shelia/Desktop/ST-subject-3 Oct 25.csv","legacy","4 1","Lentiform Loewenfeld","3.3.3","0","n","0","left","left","right","left","NA","381","1131","2583","381","NA","2","legacy","2","1024","2","48000","-16","experiment","3","odd","6","85914","74194","83656","2523","77824","83669","82592","2539","75241","88314","84691","87933","3686","87933","NA","Sternberg task","6","7836","14","yes","1024"
"40","40","557.0666666666667","557.0666666666667","black","experiment","legacy","legacy","legacy","0","uniform","0","undefined","0","left","14","14","14","0","0","14","14","0","0","14","14","14","0","14","0","Sun Oct 25 17:11:53 2020","The main experiment item","yes","Sternbergtask oct 19.osexp","/Users/shelia/Desktop","no","mono","no","18","no","white","no","yes","768","legacy","2","11","/Users/shelia/Desktop/ST-subject-3 Oct 25.csv","legacy","8 5 1 3 9","Lentiform Loewenfeld","3.3.3","4","y","0","right","left","right","right","NA","520","1131","2583","520","NA","2","legacy","5","1024","2","48000","-16","experiment","3","odd","3","91650","74194","89394","2523","77824","89407","88330","2539","75241","94191","90428","93670","3686","93670","NA","Sternberg task","6","8356","15","yes","1024"
"43.75","43.75","590.6875","590.6875","black","experiment","legacy","legacy","legacy","0","uniform","1","undefined","1","right","15","15","15","0","0","15","15","0","0","15","15","15","0","15","0","Sun Oct 25 17:11:53 2020","The main experiment item","yes","Sternbergtask oct 19.osexp","/Users/shelia/Desktop","no","mono","no","18","no","white","no","yes","768","legacy","3","11","/Users/shelia/Desktop/ST-subject-3 Oct 25.csv","legacy","2 5 1 4","Lentiform Loewenfeld","3.3.3","0","n","0","right","left","right","right","NA","1095","1131","2583","1095","NA","2","legacy","4","1024","2","48000","-16","experiment","3","odd","6","97524","74194","95268","2523","77824","95281","94205","2539","75241","100640","96301","99544","3686","99543","NA","Sternberg task","7","9451","16","yes","1024"
"41.1764705882353","41.1764705882353","565.7647058823529","565.7647058823529","black","experiment","legacy","legacy","legacy","0","uniform","0","undefined","0","right","16","16","16","0","0","16","16","0","0","16","16","16","0","16","0","Sun Oct 25 17:11:53 2020","The main experiment item","yes","Sternbergtask oct 19.osexp","/Users/shelia/Desktop","no","mono","no","18","no","white","no","yes","768","legacy","4","11","/Users/shelia/Desktop/ST-subject-3 Oct 25.csv","legacy","5 7 3","Lentiform Loewenfeld","3.3.3","0","n","0","left","left","right","left","NA","167","1131","2583","167","NA","2","legacy","3","1024","2","48000","-16","experiment","3","odd","9","103976","100657","101720","2523","77824","101733","94205","2539","75241","106164","102753","105996","3686","105996","NA","Sternberg task","7","9618","17","yes","1024"
"44.44444444444444","44.44444444444444","575.8333333333334","575.8333333333334","black","experiment","legacy","legacy","legacy","0","uniform","1","undefined","1","left","17","17","17","0","0","17","17","0","0","17","17","17","0","17","0","Sun Oct 25 17:11:53 2020","The main experiment item","yes","Sternbergtask oct 19.osexp","/Users/shelia/Desktop","no","mono","no","18","no","white","no","yes","768","legacy","5","11","/Users/shelia/Desktop/ST-subject-3 Oct 25.csv","legacy","6 8 9 3 4 9","Lentiform Loewenfeld","3.3.3","5","y","0","left","left","right","left","NA","747","1131","2583","747","NA","2","legacy","6","1024","2","48000","-16","experiment","3","odd","4","109501","100657","107244","2523","77824","107257","106179","2539","75241","112269","108278","111521","3686","111520","NA","Sternberg task","8","10365","18","yes","1024"
"47.36842105263158","47.36842105263158","606.1052631578947","606.1052631578947","black","experiment","legacy","legacy","legacy","0","uniform","1","undefined","1","left","18","18","18","0","0","18","18","0","0","18","18","18","0","18","0","Sun Oct 25 17:11:53 2020","The main experiment item","yes","Sternbergtask oct 19.osexp","/Users/shelia/Desktop","no","mono","no","18","no","white","no","yes","768","legacy","6","11","/Users/shelia/Desktop/ST-subject-3 Oct 25.csv","legacy","8 7 3","Lentiform Loewenfeld","3.3.3","1","y","0","left","left","right","left","NA","1151","1131","2583","1151","NA","2","legacy","3","1024","2","48000","-16","experiment","3","odd","8","115606","112285","113348","2523","77824","113362","106179","2539","75241","118777","114383","117625","3686","117625","NA","Sternberg task","9","11516","19","yes","1024"
"50","50","619.7","619.7","black","experiment","legacy","legacy","legacy","0","uniform","1","undefined","1","right","19","19","19","0","0","19","19","0","0","19","19","19","0","19","0","Sun Oct 25 17:11:53 2020","The main experiment item","yes","Sternbergtask oct 19.osexp","/Users/shelia/Desktop","no","mono","no","18","no","white","no","yes","768","legacy","7","11","/Users/shelia/Desktop/ST-subject-3 Oct 25.csv","legacy","2 8 6 3 1","Lentiform Loewenfeld","3.3.3","0","n","0","right","left","right","right","NA","878","1131","2583","878","NA","2","legacy","5","1024","2","48000","-16","experiment","3","odd","7","122112","118792","119855","2523","77824","119868","106179","2539","75241","125008","120889","124129","3686","124129","NA","Sternberg task","10","12394","20","yes","1024"
"52.38095238095238","52.38095238095238","643.5714285714286","643.5714285714286","black","experiment","legacy","legacy","legacy","0","uniform","1","undefined","1","left","20","20","20","0","0","20","20","0","0","20","20","20","0","20","0","Sun Oct 25 17:11:53 2020","The main experiment item","yes","Sternbergtask oct 19.osexp","/Users/shelia/Desktop","no","mono","no","18","no","white","no","yes","768","legacy","8","11","/Users/shelia/Desktop/ST-subject-3 Oct 25.csv","legacy","4 1 5","Lentiform Loewenfeld","3.3.3","2","y","0","left","left","right","left","NA","1121","1131","2583","1121","NA","2","legacy","3","1024","2","48000","-16","experiment","3","odd","1","128342","125022","126085","2523","77824","126098","106179","2539","75241","131483","127119","130361","3686","130361","NA","Sternberg task","11","13515","21","yes","1024"
"54.54545454545455","54.54545454545455","655.8636363636364","655.8636363636364","black","experiment","legacy","legacy","legacy","0","uniform","1","undefined","1","left","21","21","21","0","0","21","21","0","0","21","21","21","0","21","0","Sun Oct 25 17:11:53 2020","The main experiment item","yes","Sternbergtask oct 19.osexp","/Users/shelia/Desktop","no","mono","no","18","no","white","no","yes","768","legacy","9","11","/Users/shelia/Desktop/ST-subject-3 Oct 25.csv","legacy","8","Lentiform Loewenfeld","3.3.3","1","y","0","left","left","right","left","NA","914","1131","2583","914","NA","2","legacy","1","1024","2","48000","-16","experiment","3","odd","8","134816","131499","132561","2523","77824","132574","106179","2539","75241","137750","133594","136835","3686","136835","NA","Sternberg task","12","14429","22","yes","1024"
"56.52173913043478","56.52173913043478","666.1739130434783","666.1739130434783","black","experiment","legacy","legacy","legacy","0","uniform","1","undefined","1","left","22","22","22","0","0","22","22","0","0","22","22","22","0","22","0","Sun Oct 25 17:11:53 2020","The main experiment item","yes","Sternbergtask oct 19.osexp","/Users/shelia/Desktop","no","mono","no","18","no","white","no","yes","768","legacy","10","11","/Users/shelia/Desktop/ST-subject-3 Oct 25.csv","legacy","6 9 7 4 5 1","Lentiform Loewenfeld","3.3.3","2","y","0","left","left","right","left","NA","893","1131","2583","893","NA","2","legacy","6","1024","2","48000","-16","experiment","3","odd","9","141083","137765","138828","2523","77824","138841","106179","2539","75241","143995","139861","143102","3686","143102","NA","Sternberg task","13","15322","23","yes","1024"
"58.333333333333336","58.333333333333336","665.625","665.625","black","experiment","legacy","legacy","legacy","0","uniform","1","undefined","1","right","23","23","23","0","0","23","23","0","0","23","23","23","0","23","0","Sun Oct 25 17:11:53 2020","The main experiment item","yes","Sternbergtask oct 19.osexp","/Users/shelia/Desktop","no","mono","no","18","no","white","no","yes","768","legacy","11","11","/Users/shelia/Desktop/ST-subject-3 Oct 25.csv","legacy","9 7 4 5 8","Lentiform Loewenfeld","3.3.3","0","n","0","right","left","right","right","NA","653","1131","2583","653","NA","2","legacy","5","1024","2","48000","-16","experiment","3","odd","6","147327","144009","145071","2523","77824","145084","106179","2539","75241","150000","146104","149347","3686","149347","NA","Sternberg task","14","15975","24","yes","1024"
"60","60","671.04","671.04","black","experiment","legacy","legacy","legacy","0","uniform","1","undefined","1","right","24","24","24","0","0","24","24","0","0","24","24","24","0","24","0","Sun Oct 25 17:11:53 2020","The main experiment item","yes","Sternbergtask oct 19.osexp","/Users/shelia/Desktop","no","mono","no","18","no","white","no","yes","768","legacy","12","11","/Users/shelia/Desktop/ST-subject-3 Oct 25.csv","legacy","6 3 1 7 9 8","Lentiform Loewenfeld","3.3.3","0","n","0","right","left","right","right","NA","801","1131","2583","801","NA","2","legacy","6","1024","2","48000","-16","experiment","3","odd","4","153332","150014","151075","2523","77824","151088","106179","2539","75241","156153","152109","155351","3686","155351","NA","Sternberg task","15","16776","25","yes","1024"
"61.53846153846154","61.53846153846154","686.0384615384615","686.0384615384615","black","experiment","legacy","legacy","legacy","0","uniform","1","undefined","1","left","25","25","25","0","0","25","25","0","0","25","25","25","0","25","0","Sun Oct 25 17:11:53 2020","The main experiment item","yes","Sternbergtask oct 19.osexp","/Users/shelia/Desktop","no","mono","no","18","no","white","no","yes","768","legacy","13","11","/Users/shelia/Desktop/ST-subject-3 Oct 25.csv","legacy","2 8 5 1","Lentiform Loewenfeld","3.3.3","4","y","0","left","left","right","left","NA","1061","1131","2583","1061","NA","2","legacy","4","1024","2","48000","-16","experiment","3","odd","1","159490","156168","157232","2523","77824","157246","106179","2539","75241","162571","158268","161510","3686","161510","NA","Sternberg task","16","17837","26","yes","1024"
"62.96296296296296","62.96296296296296","683.1851851851852","683.1851851851852","black","experiment","legacy","legacy","legacy","0","uniform","1","undefined","1","right","26","26","26","0","0","26","26","0","0","26","26","26","0","26","0","Sun Oct 25 17:11:53 2020","The main experiment item","yes","Sternbergtask oct 19.osexp","/Users/shelia/Desktop","no","mono","no","18","no","white","no","yes","768","legacy","14","11","/Users/shelia/Desktop/ST-subject-3 Oct 25.csv","legacy","6 7 5 9","Lentiform Loewenfeld","3.3.3","0","n","0","right","left","right","right","NA","609","1131","2583","609","NA","2","legacy","4","1024","2","48000","-16","experiment","3","odd","2","165905","162586","163649","2523","77824","163662","106179","2539","75241","168535","164682","167925","3686","167925","NA","Sternberg task","17","18446","27","yes","1024"
"64.28571428571429","64.28571428571429","688.9285714285714","688.9285714285714","black","experiment","legacy","legacy","legacy","0","uniform","1","undefined","1","left","27","27","27","0","0","27","27","0","0","27","27","27","0","27","0","Sun Oct 25 17:11:53 2020","The main experiment item","yes","Sternbergtask oct 19.osexp","/Users/shelia/Desktop","no","mono","no","18","no","white","no","yes","768","legacy","15","11","/Users/shelia/Desktop/ST-subject-3 Oct 25.csv","legacy","7 8 6 3 1","Lentiform Loewenfeld","3.3.3","5","y","0","left","left","right","left","NA","844","1131","2583","844","NA","2","legacy","5","1024","2","48000","-16","experiment","3","odd","1","171866","168549","169610","2523","77824","169623","106179","2539","75241","174730","170643","173885","3686","173885","NA","Sternberg task","18","19290","28","yes","1024"
"65.51724137931035","65.51724137931035","697.8275862068965","697.8275862068965","black","experiment","legacy","legacy","legacy","0","uniform","1","undefined","1","left","28","28","28","0","0","28","28","0","0","28","28","28","0","28","0","Sun Oct 25 17:11:53 2020","The main experiment item","yes","Sternbergtask oct 19.osexp","/Users/shelia/Desktop","no","mono","no","18","no","white","no","yes","768","legacy","16","11","/Users/shelia/Desktop/ST-subject-3 Oct 25.csv","legacy","8 5 3 7 4 6","Lentiform Loewenfeld","3.3.3","6","y","0","left","left","right","left","NA","947","1131","2583","947","NA","2","legacy","6","1024","2","48000","-16","experiment","3","odd","6","178064","174746","175809","2523","77824","175822","106179","2539","75241","181031","176843","180083","3686","180083","NA","Sternberg task","19","20237","29","yes","1024"
"66.66666666666667","66.66666666666667","694.4","694.4","black","experiment","legacy","legacy","legacy","0","uniform","1","undefined","1","left","29","29","29","0","0","29","29","0","0","29","29","29","0","29","0","Sun Oct 25 17:11:53 2020","The main experiment item","yes","Sternbergtask oct 19.osexp","/Users/shelia/Desktop","no","mono","no","18","no","white","no","yes","768","legacy","17","11","/Users/shelia/Desktop/ST-subject-3 Oct 25.csv","legacy","9 3 1 2 5","Lentiform Loewenfeld","3.3.3","4","y","0","left","left","right","left","NA","595","1131","2583","595","NA","2","legacy","5","1024","2","48000","-16","experiment","3","odd","2","184369","181047","182111","2523","77824","182124","106179","2539","75241","186985","183145","186389","3686","186389","NA","Sternberg task","20","20832","30","yes","1024"
"67.74193548387096","67.74193548387096","709","709","black","experiment","legacy","legacy","legacy","0","uniform","1","undefined","1","left","30","30","30","0","0","30","30","0","0","30","30","30","0","30","0","Sun Oct 25 17:11:53 2020","The main experiment item","yes","Sternbergtask oct 19.osexp","/Users/shelia/Desktop","no","mono","no","18","no","white","no","yes","768","legacy","18","11","/Users/shelia/Desktop/ST-subject-3 Oct 25.csv","legacy","7 8 4 6 9 5","Lentiform Loewenfeld","3.3.3","4","y","0","left","left","right","left","NA","1147","1131","2583","1147","NA","2","legacy","6","1024","2","48000","-16","experiment","3","odd","6","190316","187000","188059","2523","77824","188072","106179","2539","75241","193484","189093","192336","3686","192336","NA","Sternberg task","21","21979","31","yes","1024"
"68.75","68.75","707.46875","707.46875","black","experiment","legacy","legacy","legacy","0","uniform","1","undefined","1","left","31","31","31","0","0","31","31","0","0","31","31","31","0","31","0","Sun Oct 25 17:11:53 2020","The main experiment item","yes","Sternbergtask oct 19.osexp","/Users/shelia/Desktop","no","mono","no","18","no","white","no","yes","768","legacy","19","11","/Users/shelia/Desktop/ST-subject-3 Oct 25.csv","legacy","4 6 5 8","Lentiform Loewenfeld","3.3.3","1","y","0","left","left","right","left","NA","660","1131","2583","660","NA","2","legacy","4","1024","2","48000","-16","experiment","3","odd","4","196818","193500","194562","2523","77824","194574","106179","2539","75241","199498","195596","198837","3686","198837","NA","Sternberg task","22","22639","32","yes","1024"
"69.6969696969697","69.6969696969697","705.4545454545455","705.4545454545455","black","experiment","legacy","legacy","legacy","0","uniform","1","undefined","1","left","32","32","32","0","0","32","32","0","0","32","32","32","0","32","0","Sun Oct 25 17:11:53 2020","The main experiment item","yes","Sternbergtask oct 19.osexp","/Users/shelia/Desktop","no","mono","no","18","no","white","no","yes","768","legacy","20","11","/Users/shelia/Desktop/ST-subject-3 Oct 25.csv","legacy","2 6 1 7 4","Lentiform Loewenfeld","3.3.3","2","y","0","left","left","right","left","NA","641","1131","2583","641","NA","2","legacy","5","1024","2","48000","-16","experiment","3","odd","6","202830","199513","200574","2523","77824","200587","106179","2539","75241","205491","201608","204849","3686","204849","NA","Sternberg task","23","23280","33","yes","1024"
"70.58823529411765","70.58823529411765","702.3235294117648","702.3235294117648","black","experiment","legacy","legacy","legacy","0","uniform","1","undefined","1","left","33","33","33","0","0","33","33","0","0","33","33","33","0","33","0","Sun Oct 25 17:11:53 2020","The main experiment item","yes","Sternbergtask oct 19.osexp","/Users/shelia/Desktop","no","mono","no","18","no","white","no","yes","768","legacy","21","11","/Users/shelia/Desktop/ST-subject-3 Oct 25.csv","legacy","8 9 5 7 1 6","Lentiform Loewenfeld","3.3.3","4","y","0","left","left","right","left","NA","599","1131","2583","599","NA","2","legacy","6","1024","2","48000","-16","experiment","3","odd","7","208825","205505","206569","2523","77824","206582","106179","2539","75241","211444","207603","210845","3686","210845","NA","Sternberg task","24","23879","34","yes","1024"
"71.42857142857143","71.42857142857143","702.2571428571429","702.2571428571429","black","experiment","legacy","legacy","legacy","0","uniform","1","undefined","1","right","34","34","34","0","0","34","34","0","0","34","34","34","0","34","0","Sun Oct 25 17:11:53 2020","The main experiment item","yes","Sternbergtask oct 19.osexp","/Users/shelia/Desktop","no","mono","no","18","no","white","no","yes","768","legacy","22","11","/Users/shelia/Desktop/ST-subject-3 Oct 25.csv","legacy","1 8 7","Lentiform Loewenfeld","3.3.3","0","n","0","right","left","right","right","NA","700","1131","2583","700","NA","2","legacy","3","1024","2","48000","-16","experiment","3","odd","4","214777","211459","212520","2523","77824","212533","106179","2539","75241","217497","213554","216796","3686","216796","NA","Sternberg task","25","24579","35","yes","1024"
"72.22222222222223","72.22222222222223","712.2222222222222","712.2222222222222","black","experiment","legacy","legacy","legacy","0","uniform","1","undefined","1","right","35","35","35","0","0","35","35","0","0","35","35","35","0","35","0","Sun Oct 25 17:11:53 2020","The main experiment item","yes","Sternbergtask oct 19.osexp","/Users/shelia/Desktop","no","mono","no","18","no","white","no","yes","768","legacy","23","11","/Users/shelia/Desktop/ST-subject-3 Oct 25.csv","legacy","7 4 2 8 1 9","Lentiform Loewenfeld","3.3.3","0","n","0","right","left","right","right","NA","1061","1131","2583","1061","NA","2","legacy","6","1024","2","48000","-16","experiment","3","odd","5","220832","217512","218576","2523","77824","218589","106179","2539","75241","223913","219609","222851","3686","222851","NA","Sternberg task","26","25640","36","yes","1024"
"70.27027027027027","70.27027027027027","701.3783783783783","701.3783783783783","black","experiment","legacy","legacy","legacy","0","uniform","0","undefined","0","right","36","36","36","0","0","36","36","0","0","36","36","36","0","36","0","Sun Oct 25 17:11:53 2020","The main experiment item","yes","Sternbergtask oct 19.osexp","/Users/shelia/Desktop","no","mono","no","18","no","white","no","yes","768","legacy","24","11","/Users/shelia/Desktop/ST-subject-3 Oct 25.csv","legacy","8 2 1 4 5 9","Lentiform Loewenfeld","3.3.3","0","n","0","left","left","right","left","NA","311","1131","2583","311","NA","2","legacy","6","1024","2","48000","-16","experiment","3","odd","7","227247","223928","224991","2523","77824","225003","106179","2539","75241","229577","226024","229266","3686","229266","NA","Sternberg task","26","25951","37","yes","1024"
"71.05263157894737","71.05263157894737","696.4473684210526","696.4473684210526","black","experiment","legacy","legacy","legacy","0","uniform","1","undefined","1","right","37","37","37","0","0","37","37","0","0","37","37","37","0","37","0","Sun Oct 25 17:11:53 2020","The main experiment item","yes","Sternbergtask oct 19.osexp","/Users/shelia/Desktop","no","mono","no","18","no","white","no","yes","768","legacy","25","11","/Users/shelia/Desktop/ST-subject-3 Oct 25.csv","legacy","7 8 6 1","Lentiform Loewenfeld","3.3.3","0","n","0","right","left","right","right","NA","514","1131","2583","514","NA","2","legacy","4","1024","2","48000","-16","experiment","3","odd","3","232911","223928","230655","2523","77824","230668","229592","2539","75241","235446","231689","234931","3686","234931","NA","Sternberg task","27","26465","38","yes","1024"
"71.7948717948718","71.7948717948718","694.8461538461538","694.8461538461538","black","experiment","legacy","legacy","legacy","0","uniform","1","undefined","1","left","38","38","38","0","0","38","38","0","0","38","38","38","0","38","0","Sun Oct 25 17:11:53 2020","The main experiment item","yes","Sternbergtask oct 19.osexp","/Users/shelia/Desktop","no","mono","no","18","no","white","no","yes","768","legacy","26","11","/Users/shelia/Desktop/ST-subject-3 Oct 25.csv","legacy","9 8 4","Lentiform Loewenfeld","3.3.3","1","y","0","left","left","right","left","NA","634","1131","2583","634","NA","2","legacy","3","1024","2","48000","-16","experiment","3","odd","9","238778","235460","236522","2523","77824","236535","229592","2539","75241","241433","237556","240798","3686","240798","NA","Sternberg task","28","27099","39","yes","1024"
"72.5","72.5","718","718","black","experiment","legacy","legacy","legacy","0","uniform","1","undefined","1","right","39","39","39","0","0","39","39","0","0","39","39","39","0","39","0","Sun Oct 25 17:11:53 2020","The main experiment item","yes","Sternbergtask oct 19.osexp","/Users/shelia/Desktop","no","mono","no","18","no","white","no","yes","768","legacy","27","11","/Users/shelia/Desktop/ST-subject-3 Oct 25.csv","legacy","1","Lentiform Loewenfeld","3.3.3","0","n","0","right","left","right","right","NA","1621","1131","2583","1621","NA","2","legacy","1","1024","2","48000","-16","experiment","3","odd","7","244766","241449","242510","2523","77824","242523","229592","2539","75241","248406","243544","246785","3686","246785","NA","Sternberg task","29","28720","40","yes","1024"
"73.17073170731707","73.17073170731707","732.6829268292682","732.6829268292682","black","experiment","legacy","legacy","legacy","0","uniform","1","undefined","1","right","40","40","40","0","0","40","40","0","0","40","40","40","0","40","0","Sun Oct 25 17:11:53 2020","The main experiment item","yes","Sternbergtask oct 19.osexp","/Users/shelia/Desktop","no","mono","no","18","no","white","no","yes","768","legacy","28","11","/Users/shelia/Desktop/ST-subject-3 Oct 25.csv","legacy","8 6 3 4 7","Lentiform Loewenfeld","3.3.3","0","n","0","right","left","right","right","NA","1320","1131","2583","1320","NA","2","legacy","5","1024","2","48000","-16","experiment","3","odd","1","251741","248421","249484","2523","77824","249497","229592","2539","75241","255081","250518","253760","3686","253760","NA","Sternberg task","30","30040","41","yes","1024"
"73.80952380952381","73.80952380952381","731.0952380952381","731.0952380952381","black","experiment","legacy","legacy","legacy","0","uniform","1","undefined","1","right","41","41","41","0","0","41","41","0","0","41","41","41","0","41","0","Sun Oct 25 17:11:53 2020","The main experiment item","yes","Sternbergtask oct 19.osexp","/Users/shelia/Desktop","no","mono","no","18","no","white","no","yes","768","legacy","29","11","/Users/shelia/Desktop/ST-subject-3 Oct 25.csv","legacy","6 9 7 3 8 2","Lentiform Loewenfeld","3.3.3","0","n","0","right","left","right","right","NA","666","1131","2583","666","NA","2","legacy","6","1024","2","48000","-16","experiment","3","odd","5","258415","255097","256158","2523","77824","256171","229592","2539","75241","261102","257192","260435","3686","260435","NA","Sternberg task","31","30706","42","yes","1024"
"74.4186046511628","74.4186046511628","730.3488372093024","730.3488372093024","black","experiment","legacy","legacy","legacy","0","uniform","1","undefined","1","right","42","42","42","0","0","42","42","0","0","42","42","42","0","42","0","Sun Oct 25 17:11:53 2020","The main experiment item","yes","Sternbergtask oct 19.osexp","/Users/shelia/Desktop","no","mono","no","18","no","white","no","yes","768","legacy","30","11","/Users/shelia/Desktop/ST-subject-3 Oct 25.csv","legacy","1 7 5 2 9","Lentiform Loewenfeld","3.3.3","0","n","0","right","left","right","right","NA","699","1131","2583","699","NA","2","legacy","5","1024","2","48000","-16","experiment","3","odd","3","264438","261118","262181","2523","77824","262194","229592","2539","75241","267156","263214","266457","3686","266457","NA","Sternberg task","32","31405","43","yes","1024"
"72.72727272727273","72.72727272727273","733.4545454545455","733.4545454545455","black","experiment","legacy","legacy","legacy","0","uniform","0","undefined","0","right","43","43","43","0","0","43","43","0","0","43","43","43","0","43","0","Sun Oct 25 17:11:53 2020","The main experiment item","yes","Sternbergtask oct 19.osexp","/Users/shelia/Desktop","no","mono","no","18","no","white","no","yes","768","legacy","31","11","/Users/shelia/Desktop/ST-subject-3 Oct 25.csv","legacy","7 1 5 6 3","Lentiform Loewenfeld","3.3.3","0","n","0","left","left","right","left","NA","867","1131","2583","867","NA","2","legacy","5","1024","2","48000","-16","experiment","3","odd","8","270491","267171","268233","2523","77824","268247","229592","2539","75241","273378","269268","272510","3686","272510","NA","Sternberg task","32","32272","44","yes","1024"
"73.33333333333333","73.33333333333333","730.5555555555555","730.5555555555555","black","experiment","legacy","legacy","legacy","0","uniform","1","undefined","1","right","44","44","44","0","0","44","44","0","0","44","44","44","0","44","0","Sun Oct 25 17:11:53 2020","The main experiment item","yes","Sternbergtask oct 19.osexp","/Users/shelia/Desktop","no","mono","no","18","no","white","no","yes","768","legacy","32","11","/Users/shelia/Desktop/ST-subject-3 Oct 25.csv","legacy","2 8 7 9 5 3","Lentiform Loewenfeld","3.3.3","0","n","0","right","left","right","right","NA","603","1131","2583","603","NA","2","legacy","6","1024","2","48000","-16","experiment","3","odd","6","276716","267171","274461","2523","77824","274474","273393","2539","75241","279339","275492","278735","3686","278734","NA","Sternberg task","33","32875","45","yes","1024"
"71.73913043478261","71.73913043478261","758.1521739130435","758.1521739130435","black","experiment","legacy","legacy","legacy","0","uniform","0","undefined","0","left","45","45","45","0","0","45","45","0","0","45","45","45","0","45","0","Sun Oct 25 17:11:53 2020","The main experiment item","yes","Sternbergtask oct 19.osexp","/Users/shelia/Desktop","no","mono","no","18","no","white","no","yes","768","legacy","33","11","/Users/shelia/Desktop/ST-subject-3 Oct 25.csv","legacy","6 7 9 3 1 2","Lentiform Loewenfeld","3.3.3","1","y","0","None","left","right","None","NA","2000","1131","2583","2000","NA","2","legacy","6","1024","2","48000","-16","experiment","3","odd","6","282678","279356","280420","2523","77824","280434","273393","2539","75241","286697","281455","284697","3686","284697","NA","Sternberg task","33","34875","46","yes","1024"
"72.34042553191489","72.34042553191489","755.7234042553191","755.7234042553191","black","experiment","legacy","legacy","legacy","0","uniform","1","undefined","1","right","46","46","46","0","0","46","46","0","0","46","46","46","0","46","0","Sun Oct 25 17:11:53 2020","The main experiment item","yes","Sternbergtask oct 19.osexp","/Users/shelia/Desktop","no","mono","no","18","no","white","no","yes","768","legacy","34","11","/Users/shelia/Desktop/ST-subject-3 Oct 25.csv","legacy","7 1","Lentiform Loewenfeld","3.3.3","0","n","0","right","left","right","right","NA","644","1131","2583","644","NA","2","legacy","2","1024","2","48000","-16","experiment","3","odd","8","290029","279356","287773","2523","77824","287786","286712","2539","75241","292693","288807","292048","3686","292048","NA","Sternberg task","34","35519","47","yes","1024"
"72.91666666666667","72.91666666666667","753.3333333333334","753.3333333333334","black","experiment","legacy","legacy","legacy","0","uniform","1","undefined","1","right","47","47","47","0","0","47","47","0","0","47","47","47","0","47","0","Sun Oct 25 17:11:53 2020","The main experiment item","yes","Sternbergtask oct 19.osexp","/Users/shelia/Desktop","no","mono","no","18","no","white","no","yes","768","legacy","35","11","/Users/shelia/Desktop/ST-subject-3 Oct 25.csv","legacy","2 3 8 5 6 7","Lentiform Loewenfeld","3.3.3","0","n","0","right","left","right","right","NA","641","1131","2583","641","NA","2","legacy","6","1024","2","48000","-16","experiment","3","odd","1","296025","292707","293769","2523","77824","293782","286712","2539","75241","298685","294802","298044","3686","298044","NA","Sternberg task","35","36160","48","yes","1024"
"73.46938775510205","73.46938775510205","759.1428571428571","759.1428571428571","black","experiment","legacy","legacy","legacy","0","uniform","1","undefined","1","right","48","48","48","0","0","48","48","0","0","48","48","48","0","48","0","Sun Oct 25 17:11:53 2020","The main experiment item","yes","Sternbergtask oct 19.osexp","/Users/shelia/Desktop","no","mono","no","18","no","white","no","yes","768","legacy","36","11","/Users/shelia/Desktop/ST-subject-3 Oct 25.csv","legacy","1 4 3 6 5","Lentiform Loewenfeld","3.3.3","0","n","0","right","left","right","right","NA","1038","1131","2583","1038","NA","2","legacy","5","1024","2","48000","-16","experiment","3","odd","8","302015","298699","299760","2523","77824","299773","286712","2539","75241","305074","300794","304035","3686","304035","NA","Sternberg task","36","37198","49","yes","1024"
"74","74","766.28","766.28","black","experiment","legacy","legacy","legacy","0","uniform","1","undefined","1","right","49","49","49","0","0","49","49","0","0","49","49","49","0","49","0","Sun Oct 25 17:11:53 2020","The main experiment item","yes","Sternbergtask oct 19.osexp","/Users/shelia/Desktop","no","mono","no","18","no","white","no","yes","768","legacy","37","11","/Users/shelia/Desktop/ST-subject-3 Oct 25.csv","legacy","3 9 8 1 6 4","Lentiform Loewenfeld","3.3.3","0","n","0","right","left","right","right","NA","1116","1131","2583","1116","NA","2","legacy","6","1024","2","48000","-16","experiment","3","odd","7","308408","305089","306151","2523","77824","306164","286712","2539","75241","311544","307185","310427","3686","310427","NA","Sternberg task","37","38314","50","yes","1024"
"74.50980392156863","74.50980392156863","768.4117647058823","768.4117647058823","black","experiment","legacy","legacy","legacy","0","uniform","1","undefined","1","left","50","50","50","0","0","50","50","0","0","50","50","50","0","50","0","Sun Oct 25 17:11:53 2020","The main experiment item","yes","Sternbergtask oct 19.osexp","/Users/shelia/Desktop","no","mono","no","18","no","white","no","yes","768","legacy","38","11","/Users/shelia/Desktop/ST-subject-3 Oct 25.csv","legacy","6 2","Lentiform Loewenfeld","3.3.3","1","y","0","left","left","right","left","NA","875","1131","2583","875","NA","2","legacy","2","1024","2","48000","-16","experiment","3","odd","6","314869","311559","312621","2523","77824","312635","286712","2539","75241","317764","313655","316888","3686","316888","NA","Sternberg task","38","39189","51","yes","1024"
"75","75","777.0769230769231","777.0769230769231","black","experiment","legacy","legacy","legacy","0","uniform","1","undefined","1","right","51","51","51","0","0","51","51","0","0","51","51","51","0","51","0","Sun Oct 25 17:11:53 2020","The main experiment item","yes","Sternbergtask oct 19.osexp","/Users/shelia/Desktop","no","mono","no","18","no","white","no","yes","768","legacy","39","11","/Users/shelia/Desktop/ST-subject-3 Oct 25.csv","legacy","2 8 9 4 1","Lentiform Loewenfeld","3.3.3","0","n","0","right","left","right","right","NA","1219","1131","2583","1219","NA","2","legacy","5","1024","2","48000","-16","experiment","3","odd","5","321095","317779","318839","2523","77824","318852","286712","2539","75241","324334","319873","323114","3686","323114","NA","Sternberg task","39","40408","52","yes","1024"
"75.47169811320755","75.47169811320755","785.9056603773585","785.9056603773585","black","experiment","legacy","legacy","legacy","0","uniform","1","undefined","1","left","52","52","52","0","0","52","52","0","0","52","52","52","0","52","0","Sun Oct 25 17:11:53 2020","The main experiment item","yes","Sternbergtask oct 19.osexp","/Users/shelia/Desktop","no","mono","no","18","no","white","no","yes","768","legacy","40","11","/Users/shelia/Desktop/ST-subject-3 Oct 25.csv","legacy","5 7 8 2 3 8","Lentiform Loewenfeld","3.3.3","5","y","0","left","left","right","left","NA","1245","1131","2583","1245","NA","2","legacy","6","1024","2","48000","-16","experiment","3","odd","3","327668","324349","325411","2523","77824","325424","286712","2539","75241","330931","326445","329685","3686","329685","NA","Sternberg task","40","41653","53","yes","1024"
"74.07407407407408","74.07407407407408","791.3703703703703","791.3703703703703","black","experiment","legacy","legacy","legacy","0","uniform","0","undefined","0","left","53","53","53","0","0","53","53","0","0","53","53","53","0","53","0","Sun Oct 25 17:11:53 2020","The main experiment item","yes","Sternbergtask oct 19.osexp","/Users/shelia/Desktop","no","mono","no","18","no","white","no","yes","768","legacy","41","11","/Users/shelia/Desktop/ST-subject-3 Oct 25.csv","legacy","1 4 9 3 2 5","Lentiform Loewenfeld","3.3.3","3","y","0","right","left","right","right","NA","1081","1131","2583","1081","NA","2","legacy","6","1024","2","48000","-16","experiment","3","odd","9","334268","330947","332010","2523","77824","332023","286712","2539","75241","337369","333044","336287","3686","336287","NA","Sternberg task","40","42734","54","yes","1024"
"74.54545454545455","74.54545454545455","783.2727272727273","783.2727272727273","black","experiment","legacy","legacy","legacy","0","uniform","1","undefined","1","right","54","54","54","0","0","54","54","0","0","54","54","54","0","54","0","Sun Oct 25 17:11:53 2020","The main experiment item","yes","Sternbergtask oct 19.osexp","/Users/shelia/Desktop","no","mono","no","18","no","white","no","yes","768","legacy","42","11","/Users/shelia/Desktop/ST-subject-3 Oct 25.csv","legacy","8 9","Lentiform Loewenfeld","3.3.3","0","n","0","right","left","right","right","NA","346","1131","2583","346","NA","2","legacy","2","1024","2","48000","-16","experiment","3","odd","5","340701","330947","338444","2523","77824","338457","337384","2539","75241","343068","339478","342721","3686","342721","NA","Sternberg task","41","43080","55","yes","1024"
"75","75","800.8214285714286","800.8214285714286","black","experiment","legacy","legacy","legacy","0","uniform","1","undefined","1","right","55","55","55","0","0","55","55","0","0","55","55","55","0","55","0","Sun Oct 25 17:11:53 2020","The main experiment item","yes","Sternbergtask oct 19.osexp","/Users/shelia/Desktop","no","mono","no","18","no","white","no","yes","768","legacy","43","11","/Users/shelia/Desktop/ST-subject-3 Oct 25.csv","legacy","7 9 1 6","Lentiform Loewenfeld","3.3.3","0","n","0","right","left","right","right","NA","1766","1131","2583","1766","NA","2","legacy","4","1024","2","48000","-16","experiment","3","odd","4","346405","343084","344147","2523","77824","344161","337384","2539","75241","350192","345182","348425","3686","348425","NA","Sternberg task","42","44846","56","yes","1024"
"75.43859649122807","75.43859649122807","811.7719298245614","811.7719298245614","black","experiment","legacy","legacy","legacy","0","uniform","1","undefined","1","left","56","56","56","0","0","56","56","0","0","56","56","56","0","56","0","Sun Oct 25 17:11:53 2020","The main experiment item","yes","Sternbergtask oct 19.osexp","/Users/shelia/Desktop","no","mono","no","18","no","white","no","yes","768","legacy","44","11","/Users/shelia/Desktop/ST-subject-3 Oct 25.csv","legacy","3 5 4 7","Lentiform Loewenfeld","3.3.3","1","y","0","left","left","right","left","NA","1425","1131","2583","1425","NA","2","legacy","4","1024","2","48000","-16","experiment","3","odd","3","353526","350207","351269","2523","77824","351282","337384","2539","75241","356971","352303","355545","3686","355545","NA","Sternberg task","43","46271","57","yes","1024"
"75.86206896551724","75.86206896551724","821.1206896551724","821.1206896551724","black","experiment","legacy","legacy","legacy","0","uniform","1","undefined","1","left","57","57","57","0","0","57","57","0","0","57","57","57","0","57","0","Sun Oct 25 17:11:53 2020","The main experiment item","yes","Sternbergtask oct 19.osexp","/Users/shelia/Desktop","no","mono","no","18","no","white","no","yes","768","legacy","45","11","/Users/shelia/Desktop/ST-subject-3 Oct 25.csv","legacy","3 5 7 1","Lentiform Loewenfeld","3.3.3","3","y","0","left","left","right","left","NA","1354","1131","2583","1354","NA","2","legacy","4","1024","2","48000","-16","experiment","3","odd","7","360304","356986","358048","2523","77824","358061","337384","2539","75241","363677","359081","362323","3686","362323","NA","Sternberg task","44","47625","58","yes","1024"
"76.27118644067797","76.27118644067797","834.4406779661017","834.4406779661017","black","experiment","legacy","legacy","legacy","0","uniform","1","undefined","1","right","58","58","58","0","0","58","58","0","0","58","58","58","0","58","0","Sun Oct 25 17:11:53 2020","The main experiment item","yes","Sternbergtask oct 19.osexp","/Users/shelia/Desktop","no","mono","no","18","no","white","no","yes","768","legacy","46","11","/Users/shelia/Desktop/ST-subject-3 Oct 25.csv","legacy","2 8 9","Lentiform Loewenfeld","3.3.3","0","n","0","right","left","right","right","NA","1607","1131","2583","1607","NA","2","legacy","3","1024","2","48000","-16","experiment","3","odd","6","367011","363692","364755","2523","77824","364768","337384","2539","75241","370638","365789","369030","3686","369030","NA","Sternberg task","45","49232","59","yes","1024"
"76.66666666666667","76.66666666666667","840.1666666666666","840.1666666666666","black","experiment","legacy","legacy","legacy","0","uniform","1","undefined","1","left","59","59","59","0","0","59","59","0","0","59","59","59","0","59","0","Sun Oct 25 17:11:53 2020","The main experiment item","yes","Sternbergtask oct 19.osexp","/Users/shelia/Desktop","no","mono","no","18","no","white","no","yes","768","legacy","47","11","/Users/shelia/Desktop/ST-subject-3 Oct 25.csv","legacy","9 6 2 4 1","Lentiform Loewenfeld","3.3.3","4","y","0","left","left","right","left","NA","1178","1131","2583","1178","NA","2","legacy","5","1024","2","48000","-16","experiment","3","odd","4","373972","370652","371715","2523","77824","371728","337384","2539","75241","377168","372748","375989","3686","375989","NA","Sternberg task","46","50410","60","yes","1024"
"77.04918032786885","77.04918032786885","845.6065573770492","845.6065573770492","black","experiment","legacy","legacy","legacy","0","uniform","1","undefined","1","right","60","60","60","0","0","60","60","0","0","60","60","60","0","60","0","Sun Oct 25 17:11:53 2020","The main experiment item","yes","Sternbergtask oct 19.osexp","/Users/shelia/Desktop","no","mono","no","18","no","white","no","yes","768","legacy","48","11","/Users/shelia/Desktop/ST-subject-3 Oct 25.csv","legacy","4 2 6 9","Lentiform Loewenfeld","3.3.3","0","n","0","right","left","right","right","NA","1172","1131","2583","1172","NA","2","legacy","4","1024","2","48000","-16","experiment","3","odd","7","380499","377183","378245","2523","77824","378258","337384","2539","75241","383691","379278","382518","3686","382518","NA","Sternberg task","47","51582","61","yes","1024"
"77.41935483870968","77.41935483870968","850.016129032258","850.016129032258","black","experiment","legacy","legacy","legacy","0","uniform","1","undefined","1","right","61","61","61","0","0","61","61","0","0","61","61","61","0","61","0","Sun Oct 25 17:11:53 2020","The main experiment item","yes","Sternbergtask oct 19.osexp","/Users/shelia/Desktop","no","mono","no","18","no","white","no","yes","768","legacy","49","11","/Users/shelia/Desktop/ST-subject-3 Oct 25.csv","legacy","6 9 5","Lentiform Loewenfeld","3.3.3","0","n","0","right","left","right","right","NA","1119","1131","2583","1119","NA","2","legacy","3","1024","2","48000","-16","experiment","3","odd","8","387024","383704","384768","2523","77824","384781","337384","2539","75241","390163","385802","389043","3686","389043","NA","Sternberg task","48","52701","62","yes","1024"
"77.77777777777777","77.77777777777777","864.6984126984127","864.6984126984127","black","experiment","legacy","legacy","legacy","0","uniform","1","undefined","1","left","62","62","62","0","0","62","62","0","0","62","62","62","0","62","0","Sun Oct 25 17:11:53 2020","The main experiment item","yes","Sternbergtask oct 19.osexp","/Users/shelia/Desktop","no","mono","no","18","no","white","no","yes","768","legacy","50","11","/Users/shelia/Desktop/ST-subject-3 Oct 25.csv","legacy","9 1 7 2","Lentiform Loewenfeld","3.3.3","2","y","0","left","left","right","left","NA","1775","1131","2583","1775","NA","2","legacy","4","1024","2","48000","-16","experiment","3","odd","1","393499","390178","391242","2523","77824","391255","337384","2539","75241","397294","392276","395518","3686","395518","NA","Sternberg task","49","54476","63","yes","1024"
"78.125","78.125","871.171875","871.171875","black","experiment","legacy","legacy","legacy","0","uniform","1","undefined","1","right","63","63","63","0","0","63","63","0","0","63","63","63","0","63","0","Sun Oct 25 17:11:53 2020","The main experiment item","yes","Sternbergtask oct 19.osexp","/Users/shelia/Desktop","no","mono","no","18","no","white","no","yes","768","legacy","51","11","/Users/shelia/Desktop/ST-subject-3 Oct 25.csv","legacy","3 4 9 6 7 8","Lentiform Loewenfeld","3.3.3","0","n","0","right","left","right","right","NA","1279","1131","2583","1279","NA","2","legacy","6","1024","2","48000","-16","experiment","3","odd","2","400625","397309","398369","2523","77824","398382","337384","2539","75241","403925","399403","402645","3686","402645","NA","Sternberg task","50","55755","64","yes","1024"
"78.46153846153847","78.46153846153847","878.7846153846153","878.7846153846153","black","experiment","legacy","legacy","legacy","0","uniform","1","undefined","1","left","64","64","64","0","0","64","64","0","0","64","64","64","0","64","0","Sun Oct 25 17:11:53 2020","The main experiment item","yes","Sternbergtask oct 19.osexp","/Users/shelia/Desktop","no","mono","no","18","no","white","no","yes","768","legacy","52","11","/Users/shelia/Desktop/ST-subject-3 Oct 25.csv","legacy","4 3 2 5 8","Lentiform Loewenfeld","3.3.3","2","y","0","left","left","right","left","NA","1366","1131","2583","1366","NA","2","legacy","5","1024","2","48000","-16","experiment","3","odd","3","407258","403940","405001","2523","77824","405014","337384","2539","75241","410644","406035","409277","3686","409277","NA","Sternberg task","51","57121","65","yes","1024"
"78.78787878787878","78.78787878787878","878.7727272727273","878.7727272727273","black","experiment","legacy","legacy","legacy","0","uniform","1","undefined","1","left","65","65","65","0","0","65","65","0","0","65","65","65","0","65","0","Sun Oct 25 17:11:53 2020","The main experiment item","yes","Sternbergtask oct 19.osexp","/Users/shelia/Desktop","no","mono","no","18","no","white","no","yes","768","legacy","53","11","/Users/shelia/Desktop/ST-subject-3 Oct 25.csv","legacy","6 5","Lentiform Loewenfeld","3.3.3","2","y","0","left","left","right","left","NA","878","1131","2583","878","NA","2","legacy","2","1024","2","48000","-16","experiment","3","odd","5","413980","410660","411724","2523","77824","411737","337384","2539","75241","416879","412758","416000","3686","416000","NA","Sternberg task","52","57999","66","yes","1024"
"79.1044776119403","79.1044776119403","883.6417910447761","883.6417910447761","black","experiment","legacy","legacy","legacy","0","uniform","1","undefined","1","left","66","66","66","0","0","66","66","0","0","66","66","66","0","66","0","Sun Oct 25 17:11:53 2020","The main experiment item","yes","Sternbergtask oct 19.osexp","/Users/shelia/Desktop","no","mono","no","18","no","white","no","yes","768","legacy","54","11","/Users/shelia/Desktop/ST-subject-3 Oct 25.csv","legacy","7 2 3","Lentiform Loewenfeld","3.3.3","3","y","0","left","left","right","left","NA","1205","1131","2583","1205","NA","2","legacy","3","1024","2","48000","-16","experiment","3","odd","3","420213","416893","417956","2523","77824","417970","337384","2539","75241","423439","418991","422233","3686","422232","NA","Sternberg task","53","59204","67","yes","1024"
"79.41176470588235","79.41176470588235","889.1470588235294","889.1470588235294","black","experiment","legacy","legacy","legacy","0","uniform","1","undefined","1","left","67","67","67","0","0","67","67","0","0","67","67","67","0","67","0","Sun Oct 25 17:11:53 2020","The main experiment item","yes","Sternbergtask oct 19.osexp","/Users/shelia/Desktop","no","mono","no","18","no","white","no","yes","768","legacy","55","11","/Users/shelia/Desktop/ST-subject-3 Oct 25.csv","legacy","2 3 7 4","Lentiform Loewenfeld","3.3.3","1","y","0","left","left","right","left","NA","1258","1131","2583","1258","NA","2","legacy","4","1024","2","48000","-16","experiment","3","odd","2","426775","423455","424518","2523","77824","424532","337384","2539","75241","430052","425552","428794","3686","428794","NA","Sternberg task","54","60462","68","yes","1024"
"79.71014492753623","79.71014492753623","898.8550724637681","898.8550724637681","black","experiment","legacy","legacy","legacy","0","uniform","1","undefined","1","left","68","68","68","0","0","68","68","0","0","68","68","68","0","68","0","Sun Oct 25 17:11:53 2020","The main experiment item","yes","Sternbergtask oct 19.osexp","/Users/shelia/Desktop","no","mono","no","18","no","white","no","yes","768","legacy","56","11","/Users/shelia/Desktop/ST-subject-3 Oct 25.csv","legacy","7","Lentiform Loewenfeld","3.3.3","1","y","0","left","left","right","left","NA","1559","1131","2583","1559","NA","2","legacy","1","1024","2","48000","-16","experiment","3","odd","7","433387","430067","431130","2523","77824","431143","337384","2539","75241","436966","432164","435406","3686","435406","NA","Sternberg task","55","62021","69","yes","1024"
"80","80","901.8","901.8","black","experiment","legacy","legacy","legacy","0","uniform","1","undefined","1","left","69","69","69","0","0","69","69","0","0","69","69","69","0","69","0","Sun Oct 25 17:11:53 2020","The main experiment item","yes","Sternbergtask oct 19.osexp","/Users/shelia/Desktop","no","mono","no","18","no","white","no","yes","768","legacy","57","11","/Users/shelia/Desktop/ST-subject-3 Oct 25.csv","legacy","4 6 2 5 1","Lentiform Loewenfeld","3.3.3","5","y","0","left","left","right","left","NA","1105","1131","2583","1105","NA","2","legacy","5","1024","2","48000","-16","experiment","3","odd","1","440301","436982","438044","2523","77824","438057","337384","2539","75241","443426","439078","442320","3686","442320","NA","Sternberg task","56","63126","70","yes","1024"
"80.28169014084507","80.28169014084507","908.056338028169","908.056338028169","black","experiment","legacy","legacy","legacy","0","uniform","1","undefined","1","right","70","70","70","0","0","70","70","0","0","70","70","70","0","70","0","Sun Oct 25 17:11:53 2020","The main experiment item","yes","Sternbergtask oct 19.osexp","/Users/shelia/Desktop","no","mono","no","18","no","white","no","yes","768","legacy","58","11","/Users/shelia/Desktop/ST-subject-3 Oct 25.csv","legacy","6 9 4 5 2","Lentiform Loewenfeld","3.3.3","0","n","0","right","left","right","right","NA","1346","1131","2583","1346","NA","2","legacy","5","1024","2","48000","-16","experiment","3","odd","1","446759","443441","444503","2523","77824","444516","337384","2539","75241","450126","445537","448779","3686","448778","NA","Sternberg task","57","64472","71","yes","1024"
"79.16666666666667","79.16666666666667","923.2222222222222","923.2222222222222","black","experiment","legacy","legacy","legacy","0","uniform","0","undefined","0","right","71","71","71","0","0","71","71","0","0","71","71","71","0","71","0","Sun Oct 25 17:11:53 2020","The main experiment item","yes","Sternbergtask oct 19.osexp","/Users/shelia/Desktop","no","mono","no","18","no","white","no","yes","768","legacy","59","11","/Users/shelia/Desktop/ST-subject-3 Oct 25.csv","legacy","7 3 2 8","Lentiform Loewenfeld","3.3.3","0","n","0","None","left","right","None","NA","2000","1131","2583","2000","NA","2","legacy","4","1024","2","48000","-16","experiment","3","odd","4","453462","450141","451204","2523","77824","451217","337384","2539","75241","457480","452239","455480","3686","455479","NA","Sternberg task","57","66472","72","yes","1024"
"79.45205479452055","79.45205479452055","926.7808219178082","926.7808219178082","black","experiment","legacy","legacy","legacy","0","uniform","1","undefined","1","left","72","72","72","0","0","72","72","0","0","72","72","72","0","72","0","Sun Oct 25 17:11:53 2020","The main experiment item","yes","Sternbergtask oct 19.osexp","/Users/shelia/Desktop","no","mono","no","18","no","white","no","yes","768","legacy","60","11","/Users/shelia/Desktop/ST-subject-3 Oct 25.csv","legacy","9 1 6 7 8","Lentiform Loewenfeld","3.3.3","1","y","0","left","left","right","left","NA","1183","1131","2583","1183","NA","2","legacy","5","1024","2","48000","-16","experiment","3","odd","9","460813","450141","458555","2523","77824","458569","457495","2539","75241","464016","459590","462832","3686","462832","NA","Sternberg task","58","67655","73","yes","1024"
"79.72972972972973","79.72972972972973","930.2027027027027","930.2027027027027","black","experiment","legacy","legacy","legacy","0","uniform","1","undefined","1","right","73","73","73","0","0","73","73","0","0","73","73","73","0","73","0","Sun Oct 25 17:11:53 2020","The main experiment item","yes","Sternbergtask oct 19.osexp","/Users/shelia/Desktop","no","mono","no","18","no","white","no","yes","768","legacy","61","11","/Users/shelia/Desktop/ST-subject-3 Oct 25.csv","legacy","4 2 7 6 1 3","Lentiform Loewenfeld","3.3.3","0","n","0","right","left","right","right","NA","1180","1131","2583","1180","NA","2","legacy","6","1024","2","48000","-16","experiment","3","odd","8","467352","464031","465095","2523","77824","465108","457495","2539","75241","470552","466128","469371","3686","469371","NA","Sternberg task","59","68835","74","yes","1024"
"80","80","935.2266666666667","935.2266666666667","black","experiment","legacy","legacy","legacy","0","uniform","1","undefined","1","left","74","74","74","0","0","74","74","0","0","74","74","74","0","74","0","Sun Oct 25 17:11:53 2020","The main experiment item","yes","Sternbergtask oct 19.osexp","/Users/shelia/Desktop","no","mono","no","18","no","white","no","yes","768","legacy","62","11","/Users/shelia/Desktop/ST-subject-3 Oct 25.csv","legacy","9 5 3 8 4","Lentiform Loewenfeld","3.3.3","1","y","0","left","left","right","left","NA","1307","1131","2583","1307","NA","2","legacy","5","1024","2","48000","-16","experiment","3","odd","9","473889","470568","471632","2523","77824","471645","457495","2539","75241","477216","472666","475908","3686","475908","NA","Sternberg task","60","70142","75","yes","1024"
"80.26315789473684","80.26315789473684","935.4868421052631","935.4868421052631","black","experiment","legacy","legacy","legacy","0","uniform","1","undefined","1","left","75","75","75","0","0","75","75","0","0","75","75","75","0","75","0","Sun Oct 25 17:11:53 2020","The main experiment item","yes","Sternbergtask oct 19.osexp","/Users/shelia/Desktop","no","mono","no","18","no","white","no","yes","768","legacy","63","11","/Users/shelia/Desktop/ST-subject-3 Oct 25.csv","legacy","2 5 4 8 7","Lentiform Loewenfeld","3.3.3","3","y","0","left","left","right","left","NA","955","1131","2583","955","NA","2","legacy","5","1024","2","48000","-16","experiment","3","odd","4","480552","477231","478296","2523","77824","478309","457495","2539","75241","483528","479330","482572","3686","482572","NA","Sternberg task","61","71097","76","yes","1024"
"80.51948051948052","80.51948051948052","939.8831168831168","939.8831168831168","black","experiment","legacy","legacy","legacy","0","uniform","1","undefined","1","right","76","76","76","0","0","76","76","0","0","76","76","76","0","76","0","Sun Oct 25 17:11:53 2020","The main experiment item","yes","Sternbergtask oct 19.osexp","/Users/shelia/Desktop","no","mono","no","18","no","white","no","yes","768","legacy","64","11","/Users/shelia/Desktop/ST-subject-3 Oct 25.csv","legacy","1 6 4 3 9 7","Lentiform Loewenfeld","3.3.3","0","n","0","right","left","right","right","NA","1274","1131","2583","1274","NA","2","legacy","6","1024","2","48000","-16","experiment","3","odd","8","486860","483543","484604","2523","77824","484616","457495","2539","75241","490154","485638","488879","3686","488879","NA","Sternberg task","62","72371","77","yes","1024"
"80.76923076923077","80.76923076923077","939.4871794871794","939.4871794871794","black","experiment","legacy","legacy","legacy","0","uniform","1","undefined","1","right","77","77","77","0","0","77","77","0","0","77","77","77","0","77","0","Sun Oct 25 17:11:53 2020","The main experiment item","yes","Sternbergtask oct 19.osexp","/Users/shelia/Desktop","no","mono","no","18","no","white","no","yes","768","legacy","65","11","/Users/shelia/Desktop/ST-subject-3 Oct 25.csv","legacy","4 8 1 2","Lentiform Loewenfeld","3.3.3","0","n","0","right","left","right","right","NA","909","1131","2583","909","NA","2","legacy","4","1024","2","48000","-16","experiment","3","odd","7","493489","490169","491232","2523","77824","491246","457495","2539","75241","496419","492267","495509","3686","495509","NA","Sternberg task","63","73280","78","yes","1024"
"81.0126582278481","81.0126582278481","946.5822784810126","946.5822784810126","black","experiment","legacy","legacy","legacy","0","uniform","1","undefined","1","right","78","78","78","0","0","78","78","0","0","78","78","78","0","78","0","Sun Oct 25 17:11:53 2020","The main experiment item","yes","Sternbergtask oct 19.osexp","/Users/shelia/Desktop","no","mono","no","18","no","white","no","yes","768","legacy","66","11","/Users/shelia/Desktop/ST-subject-3 Oct 25.csv","legacy","9 8 2 7 4","Lentiform Loewenfeld","3.3.3","0","n","0","right","left","right","right","NA","1500","1131","2583","1500","NA","2","legacy","5","1024","2","48000","-16","experiment","3","odd","5","499755","496434","497498","2523","77824","497511","457495","2539","75241","503275","498532","501774","3686","501774","NA","Sternberg task","64","74780","79","yes","1024"
"81.25","81.25","948.7125","948.7125","black","experiment","legacy","legacy","legacy","0","uniform","1","undefined","1","left","79","79","79","0","0","79","79","0","0","79","79","79","0","79","0","Sun Oct 25 17:11:53 2020","The main experiment item","yes","Sternbergtask oct 19.osexp","/Users/shelia/Desktop","no","mono","no","18","no","white","no","yes","768","legacy","67","11","/Users/shelia/Desktop/ST-subject-3 Oct 25.csv","legacy","9 4 2","Lentiform Loewenfeld","3.3.3","1","y","0","left","left","right","left","NA","1117","1131","2583","1117","NA","2","legacy","3","1024","2","48000","-16","experiment","3","odd","9","506608","503289","504350","2523","77824","504363","457495","2539","75241","509745","505384","508627","3686","508627","NA","Sternberg task","65","75897","80","yes","1024"
"81.48148148148148","81.48148148148148","950.7777777777778","950.7777777777778","black","experiment","legacy","legacy","legacy","0","uniform","1","undefined","1","right","80","80","80","0","0","80","80","0","0","80","80","80","0","80","0","Sun Oct 25 17:11:53 2020","The main experiment item","yes","Sternbergtask oct 19.osexp","/Users/shelia/Desktop","no","mono","no","18","no","white","no","yes","768","legacy","68","11","/Users/shelia/Desktop/ST-subject-3 Oct 25.csv","legacy","8 5 4 2 9 6","Lentiform Loewenfeld","3.3.3","0","n","0","right","left","right","right","NA","1116","1131","2583","1116","NA","2","legacy","6","1024","2","48000","-16","experiment","3","odd","3","513078","509761","510822","2523","77824","510835","457495","2539","75241","516214","511856","515097","3686","515097","NA","Sternberg task","66","77013","81","yes","1024"
"81.70731707317073","81.70731707317073","956.6341463414634","956.6341463414634","black","experiment","legacy","legacy","legacy","0","uniform","1","undefined","1","right","81","81","81","0","0","81","81","0","0","81","81","81","0","81","0","Sun Oct 25 17:11:53 2020","The main experiment item","yes","Sternbergtask oct 19.osexp","/Users/shelia/Desktop","no","mono","no","18","no","white","no","yes","768","legacy","69","11","/Users/shelia/Desktop/ST-subject-3 Oct 25.csv","legacy","5 2","Lentiform Loewenfeld","3.3.3","0","n","0","right","left","right","right","NA","1431","1131","2583","1431","NA","2","legacy","2","1024","2","48000","-16","experiment","3","odd","7","519550","516229","517294","2523","77824","517307","457495","2539","75241","523002","518328","521570","3686","521570","NA","Sternberg task","67","78444","82","yes","1024"
"81.92771084337349","81.92771084337349","955.0240963855422","955.0240963855422","black","experiment","legacy","legacy","legacy","0","uniform","1","undefined","1","left","82","82","82","0","0","82","82","0","0","82","82","82","0","82","0","Sun Oct 25 17:11:53 2020","The main experiment item","yes","Sternbergtask oct 19.osexp","/Users/shelia/Desktop","no","mono","no","18","no","white","no","yes","768","legacy","70","11","/Users/shelia/Desktop/ST-subject-3 Oct 25.csv","legacy","4 1 8 7 5","Lentiform Loewenfeld","3.3.3","3","y","0","left","left","right","left","NA","823","1131","2583","823","NA","2","legacy","5","1024","2","48000","-16","experiment","3","odd","8","526337","523016","524080","2523","77824","524093","457495","2539","75241","529181","525114","528357","3686","528357","NA","Sternberg task","68","79267","83","yes","1024"
"82.14285714285714","82.14285714285714","957.9166666666666","957.9166666666666","black","experiment","legacy","legacy","legacy","0","uniform","1","undefined","1","left","83","83","83","0","0","83","83","0","0","83","83","83","0","83","0","Sun Oct 25 17:11:53 2020","The main experiment item","yes","Sternbergtask oct 19.osexp","/Users/shelia/Desktop","no","mono","no","18","no","white","no","yes","768","legacy","71","11","/Users/shelia/Desktop/ST-subject-3 Oct 25.csv","legacy","6 1 2","Lentiform Loewenfeld","3.3.3","3","y","0","left","left","right","left","NA","1198","1131","2583","1198","NA","2","legacy","3","1024","2","48000","-16","experiment","3","odd","2","532518","529197","530261","2523","77824","530274","457495","2539","75241","535736","531295","534537","3686","534537","NA","Sternberg task","69","80465","84","yes","1024"
"82.3529411764706","82.3529411764706","960.9764705882353","960.9764705882353","black","experiment","legacy","legacy","legacy","0","uniform","1","undefined","1","left","84","84","84","0","0","84","84","0","0","84","84","84","0","84","0","Sun Oct 25 17:11:53 2020","The main experiment item","yes","Sternbergtask oct 19.osexp","/Users/shelia/Desktop","no","mono","no","18","no","white","no","yes","768","legacy","72","11","/Users/shelia/Desktop/ST-subject-3 Oct 25.csv","legacy","8 9 5 6 7","Lentiform Loewenfeld","3.3.3","1","y","0","left","left","right","left","NA","1218","1131","2583","1218","NA","2","legacy","5","1024","2","48000","-16","experiment","3","odd","8","539071","535753","536815","2523","77824","536828","457495","2539","75241","542309","537849","541090","3686","541090","NA","Sternberg task","70","81683","85","yes","1024"
"81.3953488372093","81.3953488372093","973.0581395348837","973.0581395348837","black","experiment","legacy","legacy","legacy","0","uniform","0","undefined","0","left","85","85","85","0","0","85","85","0","0","85","85","85","0","85","0","Sun Oct 25 17:11:53 2020","The main experiment item","yes","Sternbergtask oct 19.osexp","/Users/shelia/Desktop","no","mono","no","18","no","white","no","yes","768","legacy","73","11","/Users/shelia/Desktop/ST-subject-3 Oct 25.csv","legacy","7 6","Lentiform Loewenfeld","3.3.3","2","y","0","None","left","right","None","NA","2000","1131","2583","2000","NA","2","legacy","2","1024","2","48000","-16","experiment","3","odd","6","545641","542325","543389","2523","77824","543402","457495","2539","75241","549661","544419","547661","3686","547661","NA","Sternberg task","70","83683","86","yes","1024"
"81.60919540229885","81.60919540229885","976.4827586206897","976.4827586206897","black","experiment","legacy","legacy","legacy","0","uniform","1","undefined","1","right","86","86","86","0","0","86","86","0","0","86","86","86","0","86","0","Sun Oct 25 17:11:53 2020","The main experiment item","yes","Sternbergtask oct 19.osexp","/Users/shelia/Desktop","no","mono","no","18","no","white","no","yes","768","legacy","74","11","/Users/shelia/Desktop/ST-subject-3 Oct 25.csv","legacy","5","Lentiform Loewenfeld","3.3.3","0","n","0","right","left","right","right","NA","1271","1131","2583","1271","NA","2","legacy","1","1024","2","48000","-16","experiment","3","odd","8","552996","542325","550739","2523","77824","550753","549676","2539","75241","556286","551774","555014","3686","555014","NA","Sternberg task","71","84954","87","yes","1024"
"80.68181818181819","80.68181818181819","988.1136363636364","988.1136363636364","black","experiment","legacy","legacy","legacy","0","uniform","0","undefined","0","left","87","87","87","0","0","87","87","0","0","87","87","87","0","87","0","Sun Oct 25 17:11:53 2020","The main experiment item","yes","Sternbergtask oct 19.osexp","/Users/shelia/Desktop","no","mono","no","18","no","white","no","yes","768","legacy","75","11","/Users/shelia/Desktop/ST-subject-3 Oct 25.csv","legacy","9 5 8 1","Lentiform Loewenfeld","3.3.3","2","y","0","None","left","right","None","NA","2000","1131","2583","2000","NA","2","legacy","4","1024","2","48000","-16","experiment","3","odd","5","559621","556301","557365","2523","77824","557378","549676","2539","75241","563640","558399","561640","3686","561640","NA","Sternberg task","71","86954","88","yes","1024"
"80.89887640449439","80.89887640449439","994.6404494382023","994.6404494382023","black","experiment","legacy","legacy","legacy","0","uniform","1","undefined","1","right","88","88","88","0","0","88","88","0","0","88","88","88","0","88","0","Sun Oct 25 17:11:53 2020","The main experiment item","yes","Sternbergtask oct 19.osexp","/Users/shelia/Desktop","no","mono","no","18","no","white","no","yes","768","legacy","76","11","/Users/shelia/Desktop/ST-subject-3 Oct 25.csv","legacy","5 9 2 3","Lentiform Loewenfeld","3.3.3","0","n","0","right","left","right","right","NA","1569","1131","2583","1569","NA","2","legacy","4","1024","2","48000","-16","experiment","3","odd","8","566973","556301","564717","2523","77824","564730","563655","2539","75241","570562","565751","568992","3686","568992","NA","Sternberg task","72","88523","89","yes","1024"
"81.11111111111111","81.11111111111111","993.1333333333333","993.1333333333333","black","experiment","legacy","legacy","legacy","0","uniform","1","undefined","1","right","89","89","89","0","0","89","89","0","0","89","89","89","0","89","0","Sun Oct 25 17:11:53 2020","The main experiment item","yes","Sternbergtask oct 19.osexp","/Users/shelia/Desktop","no","mono","no","18","no","white","no","yes","768","legacy","77","11","/Users/shelia/Desktop/ST-subject-3 Oct 25.csv","legacy","2 6 4 3 9","Lentiform Loewenfeld","3.3.3","0","n","0","right","left","right","right","NA","859","1131","2583","859","NA","2","legacy","5","1024","2","48000","-16","experiment","3","odd","1","573897","570577","571641","2523","77824","571654","563655","2539","75241","576776","572674","575916","3686","575916","NA","Sternberg task","73","89382","90","yes","1024"
"80.21978021978022","80.21978021978022","993.989010989011","993.989010989011","black","experiment","legacy","legacy","legacy","0","uniform","0","undefined","0","right","90","90","90","0","0","90","90","0","0","90","90","90","0","90","0","Sun Oct 25 17:11:53 2020","The main experiment item","yes","Sternbergtask oct 19.osexp","/Users/shelia/Desktop","no","mono","no","18","no","white","no","yes","768","legacy","78","11","/Users/shelia/Desktop/ST-subject-3 Oct 25.csv","legacy","1 6 4","Lentiform Loewenfeld","3.3.3","0","n","0","left","left","right","left","NA","1071","1131","2583","1071","NA","2","legacy","3","1024","2","48000","-16","experiment","3","odd","7","580111","576791","577854","2523","77824","577867","563655","2539","75241","583203","578889","582131","3686","582131","NA","Sternberg task","73","90453","91","yes","1024"
"80.43478260869566","80.43478260869566","1001.1195652173913","1001.1195652173913","black","experiment","legacy","legacy","legacy","0","uniform","1","undefined","1","left","91","91","91","0","0","91","91","0","0","91","91","91","0","91","0","Sun Oct 25 17:11:53 2020","The main experiment item","yes","Sternbergtask oct 19.osexp","/Users/shelia/Desktop","no","mono","no","18","no","white","no","yes","768","legacy","79","11","/Users/shelia/Desktop/ST-subject-3 Oct 25.csv","legacy","6 7 8 5","Lentiform Loewenfeld","3.3.3","3","y","0","left","left","right","left","NA","1650","1131","2583","1650","NA","2","legacy","4","1024","2","48000","-16","experiment","3","odd","8","586540","576791","584284","2523","77824","584297","583219","2539","75241","590209","585318","588559","3686","588559","NA","Sternberg task","74","92103","92","yes","1024"
"80.64516129032258","80.64516129032258","1001.9139784946236","1001.9139784946236","black","experiment","legacy","legacy","legacy","0","uniform","1","undefined","1","right","92","92","92","0","0","92","92","0","0","92","92","92","0","92","0","Sun Oct 25 17:11:53 2020","The main experiment item","yes","Sternbergtask oct 19.osexp","/Users/shelia/Desktop","no","mono","no","18","no","white","no","yes","768","legacy","80","11","/Users/shelia/Desktop/ST-subject-3 Oct 25.csv","legacy","7 6 4 8 1 2","Lentiform Loewenfeld","3.3.3","0","n","0","right","left","right","right","NA","1075","1131","2583","1075","NA","2","legacy","6","1024","2","48000","-16","experiment","3","odd","9","593545","590225","591289","2523","77824","591302","583219","2539","75241","596641","592323","595565","3686","595565","NA","Sternberg task","75","93178","93","yes","1024"
"80.85106382978724","80.85106382978724","1001.8829787234042","1001.8829787234042","black","experiment","legacy","legacy","legacy","0","uniform","1","undefined","1","right","93","93","93","0","0","93","93","0","0","93","93","93","0","93","0","Sun Oct 25 17:11:53 2020","The main experiment item","yes","Sternbergtask oct 19.osexp","/Users/shelia/Desktop","no","mono","no","18","no","white","no","yes","768","legacy","81","11","/Users/shelia/Desktop/ST-subject-3 Oct 25.csv","legacy","1 4 9 2 5","Lentiform Loewenfeld","3.3.3","0","n","0","right","left","right","right","NA","999","1131","2583","999","NA","2","legacy","5","1024","2","48000","-16","experiment","3","odd","7","599975","596656","597719","2523","77824","597732","583219","2539","75241","602994","598752","601994","3686","601994","NA","Sternberg task","76","94177","94","yes","1024"
"81.05263157894737","81.05263157894737","1002.1263157894737","1002.1263157894737","black","experiment","legacy","legacy","legacy","0","uniform","1","undefined","1","left","94","94","94","0","0","94","94","0","0","94","94","94","0","94","0","Sun Oct 25 17:11:53 2020","The main experiment item","yes","Sternbergtask oct 19.osexp","/Users/shelia/Desktop","no","mono","no","18","no","white","no","yes","768","legacy","82","11","/Users/shelia/Desktop/ST-subject-3 Oct 25.csv","legacy","8 3","Lentiform Loewenfeld","3.3.3","2","y","0","left","left","right","left","NA","1025","1131","2583","1025","NA","2","legacy","2","1024","2","48000","-16","experiment","3","odd","3","606330","603009","604073","2523","77824","604086","583219","2539","75241","609376","605107","608350","3686","608350","NA","Sternberg task","77","95202","95","yes","1024"
"81.25","81.25","997.4583333333334","997.4583333333334","black","experiment","legacy","legacy","legacy","0","uniform","1","undefined","1","left","95","95","95","0","0","95","95","0","0","95","95","95","0","95","0","Sun Oct 25 17:11:53 2020","The main experiment item","yes","Sternbergtask oct 19.osexp","/Users/shelia/Desktop","no","mono","no","18","no","white","no","yes","768","legacy","83","11","/Users/shelia/Desktop/ST-subject-3 Oct 25.csv","legacy","3 4","Lentiform Loewenfeld","3.3.3","1","y","0","left","left","right","left","NA","554","1131","2583","554","NA","2","legacy","2","1024","2","48000","-16","experiment","3","odd","3","612708","609391","610452","2523","77824","610465","583219","2539","75241","615282","611485","614727","3686","614727","NA","Sternberg task","78","95756","96","yes","1024"
"81.44329896907216","81.44329896907216","999.1649484536083","999.1649484536083","black","experiment","legacy","legacy","legacy","0","uniform","1","undefined","1","left","96","96","96","0","0","96","96","0","0","96","96","96","0","96","0","Sun Oct 25 17:11:53 2020","The main experiment item","yes","Sternbergtask oct 19.osexp","/Users/shelia/Desktop","no","mono","no","18","no","white","no","yes","768","legacy","84","11","/Users/shelia/Desktop/ST-subject-3 Oct 25.csv","legacy","3 2 1 4 7","Lentiform Loewenfeld","3.3.3","2","y","0","left","left","right","left","NA","1163","1131","2583","1163","NA","2","legacy","5","1024","2","48000","-16","experiment","3","odd","2","618616","615297","616360","2523","77824","616373","583219","2539","75241","621800","617393","620636","3686","620635","NA","Sternberg task","79","96919","97","yes","1024"
"80.61224489795919","80.61224489795919","1009.3775510204082","1009.3775510204082","black","experiment","legacy","legacy","legacy","0","uniform","0","undefined","0","right","97","97","97","0","0","97","97","0","0","97","97","97","0","97","0","Sun Oct 25 17:11:53 2020","The main experiment item","yes","Sternbergtask oct 19.osexp","/Users/shelia/Desktop","no","mono","no","18","no","white","no","yes","768","legacy","85","11","/Users/shelia/Desktop/ST-subject-3 Oct 25.csv","legacy","5 3 2 6 9 8","Lentiform Loewenfeld","3.3.3","0","n","0","None","left","right","None","NA","2000","1131","2583","2000","NA","2","legacy","6","1024","2","48000","-16","experiment","3","odd","4","625134","621814","622878","2523","77824","622891","583219","2539","75241","629153","623912","627153","3686","627153","NA","Sternberg task","79","98919","98","yes","1024"
"79.79797979797979","79.79797979797979","1019.3838383838383","1019.3838383838383","black","experiment","legacy","legacy","legacy","0","uniform","0","undefined","0","right","98","98","98","0","0","98","98","0","0","98","98","98","0","98","0","Sun Oct 25 17:11:53 2020","The main experiment item","yes","Sternbergtask oct 19.osexp","/Users/shelia/Desktop","no","mono","no","18","no","white","no","yes","768","legacy","86","11","/Users/shelia/Desktop/ST-subject-3 Oct 25.csv","legacy","6 8 4","Lentiform Loewenfeld","3.3.3","0","n","0","None","left","right","None","NA","2000","1131","2583","2000","NA","2","legacy","3","1024","2","48000","-16","experiment","3","odd","1","632489","621814","630232","2523","77824","630246","629169","2539","75241","636507","631266","634507","3686","634506","NA","Sternberg task","79","100919","99","yes","1024"
"80","80","1020.96","1020.96","black","experiment","legacy","legacy","legacy","0","uniform","1","undefined","1","left","99","99","99","0","0","99","99","0","0","99","99","99","0","99","0","Sun Oct 25 17:11:53 2020","The main experiment item","yes","Sternbergtask oct 19.osexp","/Users/shelia/Desktop","no","mono","no","18","no","white","no","yes","768","legacy","87","11","/Users/shelia/Desktop/ST-subject-3 Oct 25.csv","legacy","5 7 3 6 2","Lentiform Loewenfeld","3.3.3","5","y","0","left","left","right","left","NA","1177","1131","2583","1177","NA","2","legacy","5","1024","2","48000","-16","experiment","3","odd","2","639843","621814","637586","2523","77824","637599","636522","2539","75241","643040","638620","641862","3686","641862","NA","Sternberg task","80","102096","100","yes","1024"
"80.1980198019802","80.1980198019802","1022.3564356435644","1022.3564356435644","black","experiment","legacy","legacy","legacy","0","uniform","1","undefined","1","right","100","100","100","0","0","100","100","0","0","100","100","100","0","100","0","Sun Oct 25 17:11:53 2020","The main experiment item","yes","Sternbergtask oct 19.osexp","/Users/shelia/Desktop","no","mono","no","18","no","white","no","yes","768","legacy","88","11","/Users/shelia/Desktop/ST-subject-3 Oct 25.csv","legacy","6 8","Lentiform Loewenfeld","3.3.3","0","n","0","right","left","right","right","NA","1162","1131","2583","1162","NA","2","legacy","2","1024","2","48000","-16","experiment","3","odd","9","646373","643056","644116","2523","77824","644129","636522","2539","75241","649555","645150","648392","3686","648392","NA","Sternberg task","81","103258","101","yes","1024"
"80.3921568627451","80.3921568627451","1031.8039215686274","1031.8039215686274","black","experiment","legacy","legacy","legacy","0","uniform","1","undefined","1","left","101","101","101","0","0","101","101","0","0","101","101","101","0","101","0","Sun Oct 25 17:11:53 2020","The main experiment item","yes","Sternbergtask oct 19.osexp","/Users/shelia/Desktop","no","mono","no","18","no","white","no","yes","768","legacy","89","11","/Users/shelia/Desktop/ST-subject-3 Oct 25.csv","legacy","3 9 6 2","Lentiform Loewenfeld","3.3.3","4","y","0","left","left","right","left","NA","1986","1131","2583","1986","NA","2","legacy","4","1024","2","48000","-16","experiment","3","odd","2","652887","649570","650631","2523","77824","650644","636522","2539","75241","656895","651665","654907","3686","654907","NA","Sternberg task","82","105244","102","yes","1024"
"80.58252427184466","80.58252427184466","1028.9417475728155","1028.9417475728155","black","experiment","legacy","legacy","legacy","0","uniform","1","undefined","1","left","102","102","102","0","0","102","102","0","0","102","102","102","0","102","0","Sun Oct 25 17:11:53 2020","The main experiment item","yes","Sternbergtask oct 19.osexp","/Users/shelia/Desktop","no","mono","no","18","no","white","no","yes","768","legacy","90","11","/Users/shelia/Desktop/ST-subject-3 Oct 25.csv","legacy","4 7 6 8 2 3","Lentiform Loewenfeld","3.3.3","6","y","0","left","left","right","left","NA","737","1131","2583","737","NA","2","legacy","6","1024","2","48000","-16","experiment","3","odd","3","660229","656909","657973","2523","77824","657987","636522","2539","75241","662987","659006","662249","3686","662249","NA","Sternberg task","83","105981","103","yes","1024"
"80.76923076923077","80.76923076923077","1031.9903846153845","1031.9903846153845","black","experiment","legacy","legacy","legacy","0","uniform","1","undefined","1","left","103","103","103","0","0","103","103","0","0","103","103","103","0","103","0","Sun Oct 25 17:11:53 2020","The main experiment item","yes","Sternbergtask oct 19.osexp","/Users/shelia/Desktop","no","mono","no","18","no","white","no","yes","768","legacy","91","11","/Users/shelia/Desktop/ST-subject-3 Oct 25.csv","legacy","2 4 8 5 1 3","Lentiform Loewenfeld","3.3.3","1","y","0","left","left","right","left","NA","1346","1131","2583","1346","NA","2","legacy","6","1024","2","48000","-16","experiment","3","odd","2","666319","663001","664062","2523","77824","664074","636522","2539","75241","669685","665096","668338","3686","668338","NA","Sternberg task","84","107327","104","yes","1024"
"80.95238095238095","80.95238095238095","1035.2","1035.2","black","experiment","legacy","legacy","legacy","0","uniform","1","undefined","1","left","104","104","104","0","0","104","104","0","0","104","104","104","0","104","0","Sun Oct 25 17:11:53 2020","The main experiment item","yes","Sternbergtask oct 19.osexp","/Users/shelia/Desktop","no","mono","no","18","no","white","no","yes","768","legacy","92","11","/Users/shelia/Desktop/ST-subject-3 Oct 25.csv","legacy","6 9 3 1","Lentiform Loewenfeld","3.3.3","4","y","0","left","left","right","left","NA","1369","1131","2583","1369","NA","2","legacy","4","1024","2","48000","-16","experiment","3","odd","1","673017","669701","670761","2523","77824","670774","636522","2539","75241","676406","671795","675036","3686","675036","NA","Sternberg task","85","108696","105","yes","1024"
"81.13207547169812","81.13207547169812","1038.7735849056603","1038.7735849056603","black","experiment","legacy","legacy","legacy","0","uniform","1","undefined","1","right","105","105","105","0","0","105","105","0","0","105","105","105","0","105","0","Sun Oct 25 17:11:53 2020","The main experiment item","yes","Sternbergtask oct 19.osexp","/Users/shelia/Desktop","no","mono","no","18","no","white","no","yes","768","legacy","93","11","/Users/shelia/Desktop/ST-subject-3 Oct 25.csv","legacy","3 9 1","Lentiform Loewenfeld","3.3.3","0","n","0","right","left","right","right","NA","1414","1131","2583","1414","NA","2","legacy","3","1024","2","48000","-16","experiment","3","odd","7","679740","676421","677482","2523","77824","677496","636522","2539","75241","683174","678517","681759","3686","681759","NA","Sternberg task","86","110110","106","yes","1024"
"80.37383177570094","80.37383177570094","1037.981308411215","1037.981308411215","black","experiment","legacy","legacy","legacy","0","uniform","0","undefined","0","right","106","106","106","0","0","106","106","0","0","106","106","106","0","106","0","Sun Oct 25 17:11:53 2020","The main experiment item","yes","Sternbergtask oct 19.osexp","/Users/shelia/Desktop","no","mono","no","18","no","white","no","yes","768","legacy","94","11","/Users/shelia/Desktop/ST-subject-3 Oct 25.csv","legacy","1 7 5 2","Lentiform Loewenfeld","3.3.3","0","n","0","left","left","right","left","NA","954","1131","2583","954","NA","2","legacy","4","1024","2","48000","-16","experiment","3","odd","3","686512","683191","684255","2523","77824","684268","636522","2539","75241","689486","685289","688531","3686","688531","NA","Sternberg task","86","111064","107","yes","1024"
"80.55555555555556","80.55555555555556","1042.5648148148148","1042.5648148148148","black","experiment","legacy","legacy","legacy","0","uniform","1","undefined","1","left","107","107","107","0","0","107","107","0","0","107","107","107","0","107","0","Sun Oct 25 17:11:53 2020","The main experiment item","yes","Sternbergtask oct 19.osexp","/Users/shelia/Desktop","no","mono","no","18","no","white","no","yes","768","legacy","95","11","/Users/shelia/Desktop/ST-subject-3 Oct 25.csv","legacy","8 9 6 1","Lentiform Loewenfeld","3.3.3","2","y","0","left","left","right","left","NA","1533","1131","2583","1533","NA","2","legacy","4","1024","2","48000","-16","experiment","3","odd","9","692823","683191","690565","2523","77824","690579","689501","2539","75241","696377","691600","694842","3686","694842","NA","Sternberg task","87","112597","108","yes","1024"
"80.73394495412845","80.73394495412845","1041.1834862385322","1041.1834862385322","black","experiment","legacy","legacy","legacy","0","uniform","1","undefined","1","left","108","108","108","0","0","108","108","0","0","108","108","108","0","108","0","Sun Oct 25 17:11:53 2020","The main experiment item","yes","Sternbergtask oct 19.osexp","/Users/shelia/Desktop","no","mono","no","18","no","white","no","yes","768","legacy","96","11","/Users/shelia/Desktop/ST-subject-3 Oct 25.csv","legacy","5 2 9 6 1 7","Lentiform Loewenfeld","3.3.3","3","y","0","left","left","right","left","NA","892","1131","2583","892","NA","2","legacy","6","1024","2","48000","-16","experiment","3","odd","9","699711","696391","697455","2523","77824","697468","689501","2539","75241","702624","698488","701731","3686","701731","NA","Sternberg task","88","113489","109","yes","1024"
"80.9090909090909","80.9090909090909","1045.6363636363637","1045.6363636363637","black","experiment","legacy","legacy","legacy","0","uniform","1","undefined","1","left","109","109","109","0","0","109","109","0","0","109","109","109","0","109","0","Sun Oct 25 17:11:53 2020","The main experiment item","yes","Sternbergtask oct 19.osexp","/Users/shelia/Desktop","no","mono","no","18","no","white","no","yes","768","legacy","97","11","/Users/shelia/Desktop/ST-subject-3 Oct 25.csv","legacy","7 4 2 6 3 5","Lentiform Loewenfeld","3.3.3","6","y","0","left","left","right","left","NA","1531","1131","2583","1531","NA","2","legacy","6","1024","2","48000","-16","experiment","3","odd","5","705960","702639","703703","2523","77824","703716","689501","2539","75241","709512","704737","707979","3686","707979","NA","Sternberg task","89","115020","110","yes","1024"
"81.08108108108108","81.08108108108108","1043.6666666666667","1043.6666666666667","black","experiment","legacy","legacy","legacy","0","uniform","1","undefined","1","left","110","110","110","0","0","110","110","0","0","110","110","110","0","110","0","Sun Oct 25 17:11:53 2020","The main experiment item","yes","Sternbergtask oct 19.osexp","/Users/shelia/Desktop","no","mono","no","18","no","white","no","yes","768","legacy","98","11","/Users/shelia/Desktop/ST-subject-3 Oct 25.csv","legacy","4 9 7 8 5 3","Lentiform Loewenfeld","3.3.3","4","y","0","left","left","right","left","NA","827","1131","2583","827","NA","2","legacy","6","1024","2","48000","-16","experiment","3","odd","8","712845","709527","710589","2523","77824","710602","689501","2539","75241","715692","711622","714864","3686","714864","NA","Sternberg task","90","115847","111","yes","1024"
"81.25","81.25","1048.294642857143","1048.294642857143","black","experiment","legacy","legacy","legacy","0","uniform","1","undefined","1","right","111","111","111","0","0","111","111","0","0","111","111","111","0","111","0","Sun Oct 25 17:11:53 2020","The main experiment item","yes","Sternbergtask oct 19.osexp","/Users/shelia/Desktop","no","mono","no","18","no","white","no","yes","768","legacy","99","11","/Users/shelia/Desktop/ST-subject-3 Oct 25.csv","legacy","1 4 9 3","Lentiform Loewenfeld","3.3.3","0","n","0","right","left","right","right","NA","1562","1131","2583","1562","NA","2","legacy","4","1024","2","48000","-16","experiment","3","odd","5","719027","715707","716771","2523","77824","716785","689501","2539","75241","722610","717805","721047","3686","721046","NA","Sternberg task","91","117409","112","yes","1024"
"81.41592920353982","81.41592920353982","1044.1769911504425","1044.1769911504425","black","experiment","legacy","legacy","legacy","0","uniform","1","undefined","1","right","112","112","112","0","0","112","112","0","0","112","112","112","0","112","0","Sun Oct 25 17:11:53 2020","The main experiment item","yes","Sternbergtask oct 19.osexp","/Users/shelia/Desktop","no","mono","no","18","no","white","no","yes","768","legacy","100","11","/Users/shelia/Desktop/ST-subject-3 Oct 25.csv","legacy","7 9","Lentiform Loewenfeld","3.3.3","0","n","0","right","left","right","right","NA","583","1131","2583","583","NA","2","legacy","2","1024","2","48000","-16","experiment","3","odd","1","725945","722626","723689","2523","77824","723702","689501","2539","75241","728549","724723","727965","3686","727965","NA","Sternberg task","92","117992","113","yes","1024"
"81.57894736842105","81.57894736842105","1047.3859649122808","1047.3859649122808","black","experiment","legacy","legacy","legacy","0","uniform","1","undefined","1","right","113","113","113","0","0","113","113","0","0","113","113","113","0","113","0","Sun Oct 25 17:11:53 2020","The main experiment item","yes","Sternbergtask oct 19.osexp","/Users/shelia/Desktop","no","mono","no","18","no","white","no","yes","768","legacy","101","11","/Users/shelia/Desktop/ST-subject-3 Oct 25.csv","legacy","1 5 3 2 8","Lentiform Loewenfeld","3.3.3","0","n","0","right","left","right","right","NA","1410","1131","2583","1410","NA","2","legacy","5","1024","2","48000","-16","experiment","3","odd","4","731885","728564","729628","2523","77824","729641","689501","2539","75241","735315","730662","733904","3686","733904","NA","Sternberg task","93","119402","114","yes","1024"
"80.8695652173913","80.8695652173913","1055.6695652173912","1055.6695652173912","black","experiment","legacy","legacy","legacy","0","uniform","0","undefined","0","right","114","114","114","0","0","114","114","0","0","114","114","114","0","114","0","Sun Oct 25 17:11:53 2020","The main experiment item","yes","Sternbergtask oct 19.osexp","/Users/shelia/Desktop","no","mono","no","18","no","white","no","yes","768","legacy","102","11","/Users/shelia/Desktop/ST-subject-3 Oct 25.csv","legacy","8 4 3 5","Lentiform Loewenfeld","3.3.3","0","n","0","None","left","right","None","NA","2000","1131","2583","2000","NA","2","legacy","4","1024","2","48000","-16","experiment","3","odd","6","738647","735330","736393","2523","77824","736407","689501","2539","75241","742667","737427","740667","3686","740666","NA","Sternberg task","93","121402","115","yes","1024"
"81.03448275862068","81.03448275862068","1055.5775862068965","1055.5775862068965","black","experiment","legacy","legacy","legacy","0","uniform","1","undefined","1","right","115","115","115","0","0","115","115","0","0","115","115","115","0","115","0","Sun Oct 25 17:11:53 2020","The main experiment item","yes","Sternbergtask oct 19.osexp","/Users/shelia/Desktop","no","mono","no","18","no","white","no","yes","768","legacy","103","11","/Users/shelia/Desktop/ST-subject-3 Oct 25.csv","legacy","5 3 8 7 2 4","Lentiform Loewenfeld","3.3.3","0","n","0","right","left","right","right","NA","1045","1131","2583","1045","NA","2","legacy","6","1024","2","48000","-16","experiment","3","odd","9","745998","735330","743742","2523","77824","743755","742682","2539","75241","749062","744775","748016","3686","748016","NA","Sternberg task","94","122447","116","yes","1024"
"80.34188034188034","80.34188034188034","1063.6581196581196","1063.6581196581196","black","experiment","legacy","legacy","legacy","0","uniform","0","undefined","0","right","116","116","116","0","0","116","116","0","0","116","116","116","0","116","0","Sun Oct 25 17:11:53 2020","The main experiment item","yes","Sternbergtask oct 19.osexp","/Users/shelia/Desktop","no","mono","no","18","no","white","no","yes","768","legacy","104","11","/Users/shelia/Desktop/ST-subject-3 Oct 25.csv","legacy","1 7 8 3 9","Lentiform Loewenfeld","3.3.3","0","n","0","None","left","right","None","NA","2001","1131","2583","2001","NA","2","legacy","5","1024","2","48000","-16","experiment","3","odd","2","752397","749078","750138","2523","77824","750152","742682","2539","75241","756414","751173","754413","3686","754413","NA","Sternberg task","94","124448","117","yes","1024"
"80.50847457627118","80.50847457627118","1063.6949152542372","1063.6949152542372","black","experiment","legacy","legacy","legacy","0","uniform","1","undefined","1","right","117","117","117","0","0","117","117","0","0","117","117","117","0","117","0","Sun Oct 25 17:11:53 2020","The main experiment item","yes","Sternbergtask oct 19.osexp","/Users/shelia/Desktop","no","mono","no","18","no","white","no","yes","768","legacy","105","11","/Users/shelia/Desktop/ST-subject-3 Oct 25.csv","legacy","1 3 2 6 9","Lentiform Loewenfeld","3.3.3","0","n","0","right","left","right","right","NA","1068","1131","2583","1068","NA","2","legacy","5","1024","2","48000","-16","experiment","3","odd","5","759749","749078","757492","2523","77824","757506","756429","2539","75241","762837","758526","761768","3686","761768","NA","Sternberg task","95","125516","118","yes","1024"
