"acc","accuracy","average_response_time","avg_rt","background","block","canvas_backend","clock_backend","color_backend","compensation","coordinates","correct","correct_instruction1","correct_keyboard_response","correct_response","count_ISI","count_correctFeedback","count_expSequence","count_experiment","count_experimentLoop","count_fixation","count_incorrectFeedback","count_instruction1","count_instructions2","count_keyboard_response","count_logger","count_memorySet","count_practiceLoop","count_probe","count_thankYou","datetime","description","disable_garbage_collection","experiment_file","experiment_path","font_bold","font_family","font_italic","font_size","font_underline","foreground","form_clicks","fullscreen","height","keyboard_backend","live_row","live_row_practiceLoop","logfile","mouse_backend","numberSet","opensesame_codename","opensesame_version","posInSet","present","repeat_cycle","response","response_instruction1","response_instructions2","response_keyboard_response","response_thankYou","response_time","response_time_instruction1","response_time_instructions2","response_time_keyboard_response","response_time_thankYou","round_decimals","sampler_backend","setSize","sound_buf_size","sound_channels","sound_freq","sound_sample_size","start","subject_nr","subject_parity","target","time_ISI","time_correctFeedback","time_expSequence","time_experiment","time_experimentLoop","time_fixation","time_incorrectFeedback","time_instruction1","time_instructions2","time_keyboard_response","time_logger","time_memorySet","time_practiceLoop","time_probe","time_thankYou","title","total_correct","total_response_time","total_responses","uniform_coordinates","width"
"0","0","821","821","black","practice","legacy","legacy","legacy","0","uniform","0","undefined","0","left","0","0","0","0","0","0","0","0","0","0","0","0","0","0","0","Sun Oct 17 16:46:54 2021","The main experiment item","yes","Sternbergtask.osexp","/Users/samonemarks/Desktop","no","mono","no","18","no","white","no","yes","768","legacy","0","0","/Users/samonemarks/Desktop/SM-subject-1.csv","legacy","1 5 2 9","Lentiform Loewenfeld","3.3.9","2","y","0","right","right","NA","right","NA","821","3243","NA","821","NA","2","legacy","4","1024","2","48000","-16","experiment","1","odd","5","12080","NA","9869","6195","NA","9872","NA","6242","NA","14082","14907","10877","9512","14082","NA","Sternberg task","0","821","1","yes","1024"
"50","50","740","740","black","practice","legacy","legacy","legacy","0","uniform","1","undefined","1","left","1","1","1","0","0","1","1","0","0","1","1","1","0","1","0","Sun Oct 17 16:46:54 2021","The main experiment item","yes","Sternbergtask.osexp","/Users/samonemarks/Desktop","no","mono","no","18","no","white","no","yes","768","legacy","1","1","/Users/samonemarks/Desktop/SM-subject-1.csv","legacy","2 9 4","Lentiform Loewenfeld","3.3.9","3","y","0","left","right","NA","left","NA","659","3243","NA","659","NA","2","legacy","3","1024","2","48000","-16","experiment","1","odd","4","18258","NA","16049","6195","NA","16051","14944","6242","NA","20262","20922","17055","9512","20262","NA","Sternberg task","1","1480","2","yes","1024"
"66.66666666666667","66.66666666666667","663","663","black","practice","legacy","legacy","legacy","0","uniform","1","undefined","1","left","2","2","2","0","0","2","2","0","0","2","2","2","0","2","0","Sun Oct 17 16:46:54 2021","The main experiment item","yes","Sternbergtask.osexp","/Users/samonemarks/Desktop","no","mono","no","18","no","white","no","yes","768","legacy","2","2","/Users/samonemarks/Desktop/SM-subject-1.csv","legacy","4 8","Lentiform Loewenfeld","3.3.9","1","y","0","left","right","NA","left","NA","509","3243","NA","509","NA","2","legacy","2","1024","2","48000","-16","experiment","1","odd","4","24186","20925","21978","6195","NA","21981","14944","6242","NA","26190","26699","22983","9512","26190","NA","Sternberg task","2","1989","3","yes","1024"
"75","75","644.25","644.25","black","practice","legacy","legacy","legacy","0","uniform","1","undefined","1","right","3","3","3","0","0","3","3","0","0","3","3","3","0","3","0","Sun Oct 17 16:46:54 2021","The main experiment item","yes","Sternbergtask.osexp","/Users/samonemarks/Desktop","no","mono","no","18","no","white","no","yes","768","legacy","3","3","/Users/samonemarks/Desktop/SM-subject-1.csv","legacy","4 1 5","Lentiform Loewenfeld","3.3.9","0","n","0","right","right","NA","right","NA","588","3243","NA","588","NA","2","legacy","3","1024","2","48000","-16","experiment","1","odd","2","29967","26705","27758","6195","NA","27761","14944","6242","NA","31969","32557","28763","9512","31969","NA","Sternberg task","3","2577","4","yes","1024"
"80","80","649","649","black","practice","legacy","legacy","legacy","0","uniform","1","undefined","1","right","4","4","4","0","0","4","4","0","0","4","4","4","0","4","0","Sun Oct 17 16:46:54 2021","The main experiment item","yes","Sternbergtask.osexp","/Users/samonemarks/Desktop","no","mono","no","18","no","white","no","yes","768","legacy","4","4","/Users/samonemarks/Desktop/SM-subject-1.csv","legacy","9 6 7 4 5","Lentiform Loewenfeld","3.3.9","0","n","0","right","right","NA","right","NA","668","3243","NA","668","NA","2","legacy","5","1024","2","48000","-16","experiment","1","odd","3","35823","32562","33614","6195","NA","33617","14944","6242","NA","37827","38495","34619","9512","37826","NA","Sternberg task","4","3245","5","yes","1024"
"83.33333333333333","83.33333333333333","648","648","black","practice","legacy","legacy","legacy","0","uniform","1","undefined","1","left","5","5","5","0","0","5","5","0","0","5","5","5","0","5","0","Sun Oct 17 16:46:54 2021","The main experiment item","yes","Sternbergtask.osexp","/Users/samonemarks/Desktop","no","mono","no","18","no","white","no","yes","768","legacy","5","5","/Users/samonemarks/Desktop/SM-subject-1.csv","legacy","4 3 1 7 9 8","Lentiform Loewenfeld","3.3.9","1","y","0","left","right","NA","left","NA","643","3243","NA","643","NA","2","legacy","6","1024","2","48000","-16","experiment","1","odd","4","41763","38500","39553","6195","NA","39555","14944","6242","NA","43765","44408","40559","9512","43765","NA","Sternberg task","5","3888","6","yes","1024"
"85.71428571428571","85.71428571428571","619.2857142857143","619.2857142857143","black","practice","legacy","legacy","legacy","0","uniform","1","undefined","1","right","6","6","6","0","0","6","6","0","0","6","6","6","0","6","0","Sun Oct 17 16:46:54 2021","The main experiment item","yes","Sternbergtask.osexp","/Users/samonemarks/Desktop","no","mono","no","18","no","white","no","yes","768","legacy","6","6","/Users/samonemarks/Desktop/SM-subject-1.csv","legacy","3 1 9 4","Lentiform Loewenfeld","3.3.9","0","n","0","right","right","NA","right","NA","447","3243","NA","447","NA","2","legacy","4","1024","2","48000","-16","experiment","1","odd","6","47675","44413","45466","6195","NA","45469","14944","6242","NA","49678","50126","46471","9512","49678","NA","Sternberg task","6","4335","7","yes","1024"
"87.5","87.5","621.75","621.75","black","practice","legacy","legacy","legacy","0","uniform","1","undefined","1","right","7","7","7","0","0","7","7","0","0","7","7","7","0","7","0","Sun Oct 17 16:46:54 2021","The main experiment item","yes","Sternbergtask.osexp","/Users/samonemarks/Desktop","no","mono","no","18","no","white","no","yes","768","legacy","7","7","/Users/samonemarks/Desktop/SM-subject-1.csv","legacy","5","Lentiform Loewenfeld","3.3.9","0","n","0","right","right","NA","right","NA","639","3243","NA","639","NA","2","legacy","1","1024","2","48000","-16","experiment","1","odd","3","53388","50129","51181","6195","NA","51183","14944","6242","NA","55391","56030","52185","9512","55391","NA","Sternberg task","7","4974","8","yes","1024"
"88.88888888888889","88.88888888888889","628.5555555555555","628.5555555555555","black","practice","legacy","legacy","legacy","0","uniform","1","undefined","1","left","8","8","8","0","0","8","8","0","0","8","8","8","0","8","0","Sun Oct 17 16:46:54 2021","The main experiment item","yes","Sternbergtask.osexp","/Users/samonemarks/Desktop","no","mono","no","18","no","white","no","yes","768","legacy","8","8","/Users/samonemarks/Desktop/SM-subject-1.csv","legacy","1 7 9 8 5","Lentiform Loewenfeld","3.3.9","4","y","0","left","right","NA","left","NA","683","3243","NA","683","NA","2","legacy","5","1024","2","48000","-16","experiment","1","odd","8","59298","56036","57090","6195","NA","57092","14944","6242","NA","61301","61984","58095","9512","61301","NA","Sternberg task","8","5657","9","yes","1024"
"90","90","635.1","635.1","black","practice","legacy","legacy","legacy","0","uniform","1","undefined","1","left","9","9","9","0","0","9","9","0","0","9","9","9","0","9","0","Sun Oct 17 16:46:54 2021","The main experiment item","yes","Sternbergtask.osexp","/Users/samonemarks/Desktop","no","mono","no","18","no","white","no","yes","768","legacy","9","9","/Users/samonemarks/Desktop/SM-subject-1.csv","legacy","6","Lentiform Loewenfeld","3.3.9","1","y","0","left","right","NA","left","NA","694","3243","NA","694","NA","2","legacy","1","1024","2","48000","-16","experiment","1","odd","6","65250","61989","63040","6195","NA","63043","14944","6242","NA","67252","67947","64046","9512","67252","NA","Sternberg task","9","6351","10","yes","1024"
"90.9090909090909","90.9090909090909","627.8181818181819","627.8181818181819","black","practice","legacy","legacy","legacy","0","uniform","1","undefined","1","right","10","10","10","0","0","10","10","0","0","10","10","10","0","10","0","Sun Oct 17 16:46:54 2021","The main experiment item","yes","Sternbergtask.osexp","/Users/samonemarks/Desktop","no","mono","no","18","no","white","no","yes","768","legacy","10","10","/Users/samonemarks/Desktop/SM-subject-1.csv","legacy","5 7 8 4 1 2","Lentiform Loewenfeld","3.3.9","0","n","0","right","right","NA","right","NA","555","3243","NA","555","NA","2","legacy","6","1024","2","48000","-16","experiment","1","odd","6","71211","67951","69003","6195","NA","69006","14944","6242","NA","73214","73770","70008","9512","73214","NA","Sternberg task","10","6906","11","yes","1024"
"91.66666666666667","91.66666666666667","611.6666666666666","611.6666666666666","black","practice","legacy","legacy","legacy","0","uniform","1","undefined","1","right","11","11","11","0","0","11","11","0","0","11","11","11","0","11","0","Sun Oct 17 16:46:54 2021","The main experiment item","yes","Sternbergtask.osexp","/Users/samonemarks/Desktop","no","mono","no","18","no","white","no","yes","768","legacy","11","11","/Users/samonemarks/Desktop/SM-subject-1.csv","legacy","2 1","Lentiform Loewenfeld","3.3.9","0","n","0","right","right","NA","right","NA","434","3243","NA","434","NA","2","legacy","2","1024","2","48000","-16","experiment","1","odd","5","77037","73773","74830","6195","NA","74832","14944","6242","NA","79041","79476","75834","9512","79040","NA","Sternberg task","11","7340","12","yes","1024"
"92.3076923076923","92.3076923076923","613.8461538461538","613.8461538461538","black","experiment","legacy","legacy","legacy","0","uniform","1","undefined","1","left","12","12","12","0","0","12","12","0","0","12","12","12","0","12","0","Sun Oct 17 16:46:54 2021","The main experiment item","yes","Sternbergtask.osexp","/Users/samonemarks/Desktop","no","mono","no","18","no","white","no","yes","768","legacy","0","11","/Users/samonemarks/Desktop/SM-subject-1.csv","legacy","4 3 2 5 8","Lentiform Loewenfeld","3.3.9","2","y","0","left","right","left","left","NA","640","3243","11783","640","NA","2","legacy","5","1024","2","48000","-16","experiment","1","odd","3","94552","79480","92343","6195","92291","92346","14944","6242","80507","96555","97196","93348","9512","96554","NA","Sternberg task","12","7980","13","yes","1024"
"92.85714285714286","92.85714285714286","615.1428571428571","615.1428571428571","black","experiment","legacy","legacy","legacy","0","uniform","1","undefined","1","right","13","13","13","0","0","13","13","0","0","13","13","13","0","13","0","Sun Oct 17 16:46:54 2021","The main experiment item","yes","Sternbergtask.osexp","/Users/samonemarks/Desktop","no","mono","no","18","no","white","no","yes","768","legacy","1","11","/Users/samonemarks/Desktop/SM-subject-1.csv","legacy","6 8 4","Lentiform Loewenfeld","3.3.9","0","n","0","right","right","left","right","NA","632","3243","11783","632","NA","2","legacy","3","1024","2","48000","-16","experiment","1","odd","1","100462","97201","98253","6195","92291","98256","14944","6242","80507","102464","103097","99259","9512","102464","NA","Sternberg task","13","8612","14","yes","1024"
"93.33333333333333","93.33333333333333","609.8666666666667","609.8666666666667","black","experiment","legacy","legacy","legacy","0","uniform","1","undefined","1","left","14","14","14","0","0","14","14","0","0","14","14","14","0","14","0","Sun Oct 17 16:46:54 2021","The main experiment item","yes","Sternbergtask.osexp","/Users/samonemarks/Desktop","no","mono","no","18","no","white","no","yes","768","legacy","2","11","/Users/samonemarks/Desktop/SM-subject-1.csv","legacy","3 4 9 6 2 9","Lentiform Loewenfeld","3.3.9","5","y","0","left","right","left","left","NA","536","3243","11783","536","NA","2","legacy","6","1024","2","48000","-16","experiment","1","odd","2","106364","103101","104154","6195","92291","104157","14944","6242","80507","108366","108903","105160","9512","108366","NA","Sternberg task","14","9148","15","yes","1024"
"93.75","93.75","606.4375","606.4375","black","experiment","legacy","legacy","legacy","0","uniform","1","undefined","1","right","15","15","15","0","0","15","15","0","0","15","15","15","0","15","0","Sun Oct 17 16:46:54 2021","The main experiment item","yes","Sternbergtask.osexp","/Users/samonemarks/Desktop","no","mono","no","18","no","white","no","yes","768","legacy","3","11","/Users/samonemarks/Desktop/SM-subject-1.csv","legacy","5 2","Lentiform Loewenfeld","3.3.9","0","n","0","right","right","left","right","NA","555","3243","11783","555","NA","2","legacy","2","1024","2","48000","-16","experiment","1","odd","7","112168","108908","109961","6195","92291","109963","14944","6242","80507","114171","114727","110966","9512","114170","NA","Sternberg task","15","9703","16","yes","1024"
"94.11764705882354","94.11764705882354","605.2352941176471","605.2352941176471","black","experiment","legacy","legacy","legacy","0","uniform","1","undefined","1","left","16","16","16","0","0","16","16","0","0","16","16","16","0","16","0","Sun Oct 17 16:46:54 2021","The main experiment item","yes","Sternbergtask.osexp","/Users/samonemarks/Desktop","no","mono","no","18","no","white","no","yes","768","legacy","4","11","/Users/samonemarks/Desktop/SM-subject-1.csv","legacy","4 6 5 8","Lentiform Loewenfeld","3.3.9","1","y","0","left","right","left","left","NA","586","3243","11783","586","NA","2","legacy","4","1024","2","48000","-16","experiment","1","odd","4","117992","114731","115784","6195","92291","115786","14944","6242","80507","119994","120580","116788","9512","119994","NA","Sternberg task","16","10289","17","yes","1024"
"94.44444444444444","94.44444444444444","609.6111111111111","609.6111111111111","black","experiment","legacy","legacy","legacy","0","uniform","1","undefined","1","right","17","17","17","0","0","17","17","0","0","17","17","17","0","17","0","Sun Oct 17 16:46:54 2021","The main experiment item","yes","Sternbergtask.osexp","/Users/samonemarks/Desktop","no","mono","no","18","no","white","no","yes","768","legacy","5","11","/Users/samonemarks/Desktop/SM-subject-1.csv","legacy","1 7 5 2","Lentiform Loewenfeld","3.3.9","0","n","0","right","right","left","right","NA","684","3243","11783","684","NA","2","legacy","4","1024","2","48000","-16","experiment","1","odd","3","123846","120585","121638","6195","92291","121640","14944","6242","80507","125848","126532","122643","9512","125848","NA","Sternberg task","17","10973","18","yes","1024"
"89.47368421052632","89.47368421052632","612.3157894736842","612.3157894736842","black","experiment","legacy","legacy","legacy","0","uniform","0","undefined","0","right","18","18","18","0","0","18","18","0","0","18","18","18","0","18","0","Sun Oct 17 16:46:54 2021","The main experiment item","yes","Sternbergtask.osexp","/Users/samonemarks/Desktop","no","mono","no","18","no","white","no","yes","768","legacy","6","11","/Users/samonemarks/Desktop/SM-subject-1.csv","legacy","2 3 8 5 6 7","Lentiform Loewenfeld","3.3.9","0","n","0","left","right","left","left","NA","661","3243","11783","661","NA","2","legacy","6","1024","2","48000","-16","experiment","1","odd","1","129796","126537","127589","6195","92291","127591","14944","6242","80507","131799","132461","128593","9512","131799","NA","Sternberg task","17","11634","19","yes","1024"
"90","90","605.4","605.4","black","experiment","legacy","legacy","legacy","0","uniform","1","undefined","1","right","19","19","19","0","0","19","19","0","0","19","19","19","0","19","0","Sun Oct 17 16:46:54 2021","The main experiment item","yes","Sternbergtask.osexp","/Users/samonemarks/Desktop","no","mono","no","18","no","white","no","yes","768","legacy","7","11","/Users/samonemarks/Desktop/SM-subject-1.csv","legacy","3 4 2","Lentiform Loewenfeld","3.3.9","0","n","0","right","right","left","right","NA","474","3243","11783","474","NA","2","legacy","3","1024","2","48000","-16","experiment","1","odd","5","135726","126537","133517","6195","92291","133520","132465","6242","80507","137729","138205","134523","9512","137729","NA","Sternberg task","18","12108","20","yes","1024"
"90.47619047619048","90.47619047619048","601.1904761904761","601.1904761904761","black","experiment","legacy","legacy","legacy","0","uniform","1","undefined","1","right","20","20","20","0","0","20","20","0","0","20","20","20","0","20","0","Sun Oct 17 16:46:54 2021","The main experiment item","yes","Sternbergtask.osexp","/Users/samonemarks/Desktop","no","mono","no","18","no","white","no","yes","768","legacy","8","11","/Users/samonemarks/Desktop/SM-subject-1.csv","legacy","8 9","Lentiform Loewenfeld","3.3.9","0","n","0","right","right","left","right","NA","517","3243","11783","517","NA","2","legacy","2","1024","2","48000","-16","experiment","1","odd","5","141471","138210","139262","6195","92291","139264","132465","6242","80507","143474","143992","140267","9512","143474","NA","Sternberg task","19","12625","21","yes","1024"
"90.9090909090909","90.9090909090909","600.6363636363636","600.6363636363636","black","experiment","legacy","legacy","legacy","0","uniform","1","undefined","1","right","21","21","21","0","0","21","21","0","0","21","21","21","0","21","0","Sun Oct 17 16:46:54 2021","The main experiment item","yes","Sternbergtask.osexp","/Users/samonemarks/Desktop","no","mono","no","18","no","white","no","yes","768","legacy","9","11","/Users/samonemarks/Desktop/SM-subject-1.csv","legacy","2 8 9","Lentiform Loewenfeld","3.3.9","0","n","0","right","right","left","right","NA","589","3243","11783","589","NA","2","legacy","3","1024","2","48000","-16","experiment","1","odd","6","147255","143996","145048","6195","92291","145051","132465","6242","80507","149258","149847","146053","9512","149258","NA","Sternberg task","20","13214","22","yes","1024"
"91.30434782608695","91.30434782608695","609.5652173913044","609.5652173913044","black","experiment","legacy","legacy","legacy","0","uniform","1","undefined","1","right","22","22","22","0","0","22","22","0","0","22","22","22","0","22","0","Sun Oct 17 16:46:54 2021","The main experiment item","yes","Sternbergtask.osexp","/Users/samonemarks/Desktop","no","mono","no","18","no","white","no","yes","768","legacy","10","11","/Users/samonemarks/Desktop/SM-subject-1.csv","legacy","1 3 2 6 9","Lentiform Loewenfeld","3.3.9","0","n","0","right","right","left","right","NA","806","3243","11783","806","NA","2","legacy","5","1024","2","48000","-16","experiment","1","odd","5","153113","149852","150905","6195","92291","150908","132465","6242","80507","155115","155922","151910","9512","155115","NA","Sternberg task","21","14020","23","yes","1024"
"91.66666666666667","91.66666666666667","604.9583333333334","604.9583333333334","black","experiment","legacy","legacy","legacy","0","uniform","1","undefined","1","right","23","23","23","0","0","23","23","0","0","23","23","23","0","23","0","Sun Oct 17 16:46:54 2021","The main experiment item","yes","Sternbergtask.osexp","/Users/samonemarks/Desktop","no","mono","no","18","no","white","no","yes","768","legacy","11","11","/Users/samonemarks/Desktop/SM-subject-1.csv","legacy","8 5 7 3 6","Lentiform Loewenfeld","3.3.9","0","n","0","right","right","left","right","NA","499","3243","11783","499","NA","2","legacy","5","1024","2","48000","-16","experiment","1","odd","9","159186","155926","156979","6195","92291","156981","132465","6242","80507","161190","161690","157983","9512","161189","NA","Sternberg task","22","14519","24","yes","1024"
"88","88","600.68","600.68","black","experiment","legacy","legacy","legacy","0","uniform","0","undefined","0","left","24","24","24","0","0","24","24","0","0","24","24","24","0","24","0","Sun Oct 17 16:46:54 2021","The main experiment item","yes","Sternbergtask.osexp","/Users/samonemarks/Desktop","no","mono","no","18","no","white","no","yes","768","legacy","12","11","/Users/samonemarks/Desktop/SM-subject-1.csv","legacy","2 4 6 9","Lentiform Loewenfeld","3.3.9","3","y","0","right","right","left","right","NA","498","3243","11783","498","NA","2","legacy","4","1024","2","48000","-16","experiment","1","odd","6","164956","161695","162748","6195","92291","162750","132465","6242","80507","166958","167457","163752","9512","166958","NA","Sternberg task","22","15017","25","yes","1024"
"88.46153846153847","88.46153846153847","598.1153846153846","598.1153846153846","black","experiment","legacy","legacy","legacy","0","uniform","1","undefined","1","left","25","25","25","0","0","25","25","0","0","25","25","25","0","25","0","Sun Oct 17 16:46:54 2021","The main experiment item","yes","Sternbergtask.osexp","/Users/samonemarks/Desktop","no","mono","no","18","no","white","no","yes","768","legacy","13","11","/Users/samonemarks/Desktop/SM-subject-1.csv","legacy","9 6 2 4 1","Lentiform Loewenfeld","3.3.9","4","y","0","left","right","left","left","NA","534","3243","11783","534","NA","2","legacy","5","1024","2","48000","-16","experiment","1","odd","4","170723","161695","168515","6195","92291","168517","167461","6242","80507","172726","173261","169520","9512","172726","NA","Sternberg task","23","15551","26","yes","1024"
"88.88888888888889","88.88888888888889","596.925925925926","596.925925925926","black","experiment","legacy","legacy","legacy","0","uniform","1","undefined","1","right","26","26","26","0","0","26","26","0","0","26","26","26","0","26","0","Sun Oct 17 16:46:54 2021","The main experiment item","yes","Sternbergtask.osexp","/Users/samonemarks/Desktop","no","mono","no","18","no","white","no","yes","768","legacy","14","11","/Users/samonemarks/Desktop/SM-subject-1.csv","legacy","3 9 8 1 6 4","Lentiform Loewenfeld","3.3.9","0","n","0","right","right","left","right","NA","566","3243","11783","566","NA","2","legacy","6","1024","2","48000","-16","experiment","1","odd","7","176524","173264","174316","6195","92291","174319","167461","6242","80507","178527","179094","175321","9512","178527","NA","Sternberg task","24","16117","27","yes","1024"
"89.28571428571429","89.28571428571429","594.8571428571429","594.8571428571429","black","experiment","legacy","legacy","legacy","0","uniform","1","undefined","1","right","27","27","27","0","0","27","27","0","0","27","27","27","0","27","0","Sun Oct 17 16:46:54 2021","The main experiment item","yes","Sternbergtask.osexp","/Users/samonemarks/Desktop","no","mono","no","18","no","white","no","yes","768","legacy","15","11","/Users/samonemarks/Desktop/SM-subject-1.csv","legacy","6 7 5 9","Lentiform Loewenfeld","3.3.9","0","n","0","right","right","left","right","NA","539","3243","11783","539","NA","2","legacy","4","1024","2","48000","-16","experiment","1","odd","2","182359","179099","180152","6195","92291","180154","167461","6242","80507","184362","184902","181156","9512","184362","NA","Sternberg task","25","16656","28","yes","1024"
"89.65517241379311","89.65517241379311","592.4827586206897","592.4827586206897","black","experiment","legacy","legacy","legacy","0","uniform","1","undefined","1","right","28","28","28","0","0","28","28","0","0","28","28","28","0","28","0","Sun Oct 17 16:46:54 2021","The main experiment item","yes","Sternbergtask.osexp","/Users/samonemarks/Desktop","no","mono","no","18","no","white","no","yes","768","legacy","16","11","/Users/samonemarks/Desktop/SM-subject-1.csv","legacy","8 4 3 5","Lentiform Loewenfeld","3.3.9","0","n","0","right","right","left","right","NA","526","3243","11783","526","NA","2","legacy","4","1024","2","48000","-16","experiment","1","odd","6","188167","184907","185959","6195","92291","185961","167461","6242","80507","190169","190696","186963","9512","190169","NA","Sternberg task","26","17182","29","yes","1024"
"90","90","595.5666666666667","595.5666666666667","black","experiment","legacy","legacy","legacy","0","uniform","1","undefined","1","right","29","29","29","0","0","29","29","0","0","29","29","29","0","29","0","Sun Oct 17 16:46:54 2021","The main experiment item","yes","Sternbergtask.osexp","/Users/samonemarks/Desktop","no","mono","no","18","no","white","no","yes","768","legacy","17","11","/Users/samonemarks/Desktop/SM-subject-1.csv","legacy","1 4 9 3","Lentiform Loewenfeld","3.3.9","0","n","0","right","right","left","right","NA","685","3243","11783","685","NA","2","legacy","4","1024","2","48000","-16","experiment","1","odd","5","193960","190700","191753","6195","92291","191755","167461","6242","80507","195963","196649","192757","9512","195963","NA","Sternberg task","27","17867","30","yes","1024"
"90.3225806451613","90.3225806451613","594.4193548387096","594.4193548387096","black","experiment","legacy","legacy","legacy","0","uniform","1","undefined","1","right","30","30","30","0","0","30","30","0","0","30","30","30","0","30","0","Sun Oct 17 16:46:54 2021","The main experiment item","yes","Sternbergtask.osexp","/Users/samonemarks/Desktop","no","mono","no","18","no","white","no","yes","768","legacy","18","11","/Users/samonemarks/Desktop/SM-subject-1.csv","legacy","2 6 4 3 9","Lentiform Loewenfeld","3.3.9","0","n","0","right","right","left","right","NA","560","3243","11783","560","NA","2","legacy","5","1024","2","48000","-16","experiment","1","odd","1","199913","196652","197705","6195","92291","197707","167461","6242","80507","201915","202476","198709","9512","201915","NA","Sternberg task","28","18427","31","yes","1024"
"90.625","90.625","596.34375","596.34375","black","experiment","legacy","legacy","legacy","0","uniform","1","undefined","1","right","31","31","31","0","0","31","31","0","0","31","31","31","0","31","0","Sun Oct 17 16:46:54 2021","The main experiment item","yes","Sternbergtask.osexp","/Users/samonemarks/Desktop","no","mono","no","18","no","white","no","yes","768","legacy","19","11","/Users/samonemarks/Desktop/SM-subject-1.csv","legacy","4 8 1 2","Lentiform Loewenfeld","3.3.9","0","n","0","right","right","left","right","NA","656","3243","11783","656","NA","2","legacy","4","1024","2","48000","-16","experiment","1","odd","7","205740","202480","203533","6195","92291","203536","167461","6242","80507","207744","208400","204538","9512","207744","NA","Sternberg task","29","19083","32","yes","1024"
"90.9090909090909","90.9090909090909","592.6060606060606","592.6060606060606","black","experiment","legacy","legacy","legacy","0","uniform","1","undefined","1","right","32","32","32","0","0","32","32","0","0","32","32","32","0","32","0","Sun Oct 17 16:46:54 2021","The main experiment item","yes","Sternbergtask.osexp","/Users/samonemarks/Desktop","no","mono","no","18","no","white","no","yes","768","legacy","20","11","/Users/samonemarks/Desktop/SM-subject-1.csv","legacy","7 1 5 6 3","Lentiform Loewenfeld","3.3.9","0","n","0","right","right","left","right","NA","473","3243","11783","473","NA","2","legacy","5","1024","2","48000","-16","experiment","1","odd","8","211667","208405","209458","6195","92291","209460","167461","6242","80507","213669","214143","210463","9512","213669","NA","Sternberg task","30","19556","33","yes","1024"
"91.17647058823529","91.17647058823529","590.4705882352941","590.4705882352941","black","experiment","legacy","legacy","legacy","0","uniform","1","undefined","1","right","33","33","33","0","0","33","33","0","0","33","33","33","0","33","0","Sun Oct 17 16:46:54 2021","The main experiment item","yes","Sternbergtask.osexp","/Users/samonemarks/Desktop","no","mono","no","18","no","white","no","yes","768","legacy","21","11","/Users/samonemarks/Desktop/SM-subject-1.csv","legacy","5 3 8 7 2 4","Lentiform Loewenfeld","3.3.9","0","n","0","right","right","left","right","NA","520","3243","11783","520","NA","2","legacy","6","1024","2","48000","-16","experiment","1","odd","9","217409","214148","215201","6195","92291","215203","167461","6242","80507","219412","219933","216206","9512","219412","NA","Sternberg task","31","20076","34","yes","1024"
"88.57142857142857","88.57142857142857","591.8857142857142","591.8857142857142","black","experiment","legacy","legacy","legacy","0","uniform","0","undefined","0","left","34","34","34","0","0","34","34","0","0","34","34","34","0","34","0","Sun Oct 17 16:46:54 2021","The main experiment item","yes","Sternbergtask.osexp","/Users/samonemarks/Desktop","no","mono","no","18","no","white","no","yes","768","legacy","22","11","/Users/samonemarks/Desktop/SM-subject-1.csv","legacy","2 4 8 5 1 3","Lentiform Loewenfeld","3.3.9","1","y","0","right","right","left","right","NA","640","3243","11783","640","NA","2","legacy","6","1024","2","48000","-16","experiment","1","odd","2","223199","219937","220990","6195","92291","220993","167461","6242","80507","225201","225842","221995","9512","225201","NA","Sternberg task","31","20716","35","yes","1024"
"88.88888888888889","88.88888888888889","591.5277777777778","591.5277777777778","black","experiment","legacy","legacy","legacy","0","uniform","1","undefined","1","right","35","35","35","0","0","35","35","0","0","35","35","35","0","35","0","Sun Oct 17 16:46:54 2021","The main experiment item","yes","Sternbergtask.osexp","/Users/samonemarks/Desktop","no","mono","no","18","no","white","no","yes","768","legacy","23","11","/Users/samonemarks/Desktop/SM-subject-1.csv","legacy","2 8 7 9 5 3","Lentiform Loewenfeld","3.3.9","0","n","0","right","right","left","right","NA","579","3243","11783","579","NA","2","legacy","6","1024","2","48000","-16","experiment","1","odd","6","229106","219937","226898","6195","92291","226901","225846","6242","80507","231108","231687","227903","9512","231108","NA","Sternberg task","32","21295","36","yes","1024"
"89.1891891891892","89.1891891891892","594.2162162162163","594.2162162162163","black","experiment","legacy","legacy","legacy","0","uniform","1","undefined","1","right","36","36","36","0","0","36","36","0","0","36","36","36","0","36","0","Sun Oct 17 16:46:54 2021","The main experiment item","yes","Sternbergtask.osexp","/Users/samonemarks/Desktop","no","mono","no","18","no","white","no","yes","768","legacy","24","11","/Users/samonemarks/Desktop/SM-subject-1.csv","legacy","5 3 2 6 9 8","Lentiform Loewenfeld","3.3.9","0","n","0","right","right","left","right","NA","691","3243","11783","691","NA","2","legacy","6","1024","2","48000","-16","experiment","1","odd","4","234954","231692","232745","6195","92291","232748","225846","6242","80507","236957","237649","233750","9512","236956","NA","Sternberg task","33","21986","37","yes","1024"
"89.47368421052632","89.47368421052632","591.7631578947369","591.7631578947369","black","experiment","legacy","legacy","legacy","0","uniform","1","undefined","1","right","37","37","37","0","0","37","37","0","0","37","37","37","0","37","0","Sun Oct 17 16:46:54 2021","The main experiment item","yes","Sternbergtask.osexp","/Users/samonemarks/Desktop","no","mono","no","18","no","white","no","yes","768","legacy","25","11","/Users/samonemarks/Desktop/SM-subject-1.csv","legacy","9 5 3 2 8 6","Lentiform Loewenfeld","3.3.9","0","n","0","right","right","left","right","NA","501","3243","11783","501","NA","2","legacy","6","1024","2","48000","-16","experiment","1","odd","7","240912","237654","238705","6195","92291","238707","225846","6242","80507","242915","243416","239709","9512","242915","NA","Sternberg task","34","22487","38","yes","1024"
"87.17948717948718","87.17948717948718","627.8974358974359","627.8974358974359","black","experiment","legacy","legacy","legacy","0","uniform","0","undefined","0","right","38","38","38","0","0","38","38","0","0","38","38","38","0","38","0","Sun Oct 17 16:46:54 2021","The main experiment item","yes","Sternbergtask.osexp","/Users/samonemarks/Desktop","no","mono","no","18","no","white","no","yes","768","legacy","26","11","/Users/samonemarks/Desktop/SM-subject-1.csv","legacy","7 9","Lentiform Loewenfeld","3.3.9","0","n","0","None","right","left","None","NA","2001","3243","11783","2001","NA","2","legacy","2","1024","2","48000","-16","experiment","1","odd","1","246681","243421","244473","6195","92291","244475","225846","6242","80507","248684","250685","245478","9512","248684","NA","Sternberg task","34","24488","39","yes","1024"
"85","85","624.425","624.425","black","experiment","legacy","legacy","legacy","0","uniform","0","undefined","0","left","39","39","39","0","0","39","39","0","0","39","39","39","0","39","0","Sun Oct 17 16:46:54 2021","The main experiment item","yes","Sternbergtask.osexp","/Users/samonemarks/Desktop","no","mono","no","18","no","white","no","yes","768","legacy","27","11","/Users/samonemarks/Desktop/SM-subject-1.csv","legacy","6 7 9 3 1 2","Lentiform Loewenfeld","3.3.9","1","y","0","right","right","left","right","NA","489","3243","11783","489","NA","2","legacy","6","1024","2","48000","-16","experiment","1","odd","6","253951","243421","251742","6195","92291","251744","250689","6242","80507","255954","256444","252747","9512","255954","NA","Sternberg task","34","24977","40","yes","1024"
"85.36585365853658","85.36585365853658","621.0243902439024","621.0243902439024","black","experiment","legacy","legacy","legacy","0","uniform","1","undefined","1","left","40","40","40","0","0","40","40","0","0","40","40","40","0","40","0","Sun Oct 17 16:46:54 2021","The main experiment item","yes","Sternbergtask.osexp","/Users/samonemarks/Desktop","no","mono","no","18","no","white","no","yes","768","legacy","28","11","/Users/samonemarks/Desktop/SM-subject-1.csv","legacy","4 1 5","Lentiform Loewenfeld","3.3.9","2","y","0","left","right","left","left","NA","485","3243","11783","485","NA","2","legacy","3","1024","2","48000","-16","experiment","1","odd","1","259707","243421","257499","6195","92291","257501","256447","6242","80507","261709","262195","258503","9512","261709","NA","Sternberg task","35","25462","41","yes","1024"
"83.33333333333333","83.33333333333333","620.7142857142857","620.7142857142857","black","experiment","legacy","legacy","legacy","0","uniform","0","undefined","0","right","41","41","41","0","0","41","41","0","0","41","41","41","0","41","0","Sun Oct 17 16:46:54 2021","The main experiment item","yes","Sternbergtask.osexp","/Users/samonemarks/Desktop","no","mono","no","18","no","white","no","yes","768","legacy","29","11","/Users/samonemarks/Desktop/SM-subject-1.csv","legacy","3 4 9 6 7 8","Lentiform Loewenfeld","3.3.9","0","n","0","left","right","left","left","NA","608","3243","11783","608","NA","2","legacy","6","1024","2","48000","-16","experiment","1","odd","2","265460","262200","263252","6195","92291","263254","256447","6242","80507","267463","268074","264257","9512","267463","NA","Sternberg task","35","26070","42","yes","1024"
"83.72093023255815","83.72093023255815","621.3953488372093","621.3953488372093","black","experiment","legacy","legacy","legacy","0","uniform","1","undefined","1","left","42","42","42","0","0","42","42","0","0","42","42","42","0","42","0","Sun Oct 17 16:46:54 2021","The main experiment item","yes","Sternbergtask.osexp","/Users/samonemarks/Desktop","no","mono","no","18","no","white","no","yes","768","legacy","30","11","/Users/samonemarks/Desktop/SM-subject-1.csv","legacy","2 3 7 4","Lentiform Loewenfeld","3.3.9","1","y","0","left","right","left","left","NA","650","3243","11783","650","NA","2","legacy","4","1024","2","48000","-16","experiment","1","odd","2","271340","262200","269131","6195","92291","269134","268078","6242","80507","273343","273994","270137","9512","273342","NA","Sternberg task","36","26720","43","yes","1024"
"84.0909090909091","84.0909090909091","618.25","618.25","black","experiment","legacy","legacy","legacy","0","uniform","1","undefined","1","right","43","43","43","0","0","43","43","0","0","43","43","43","0","43","0","Sun Oct 17 16:46:54 2021","The main experiment item","yes","Sternbergtask.osexp","/Users/samonemarks/Desktop","no","mono","no","18","no","white","no","yes","768","legacy","31","11","/Users/samonemarks/Desktop/SM-subject-1.csv","legacy","9 7 4 5 8","Lentiform Loewenfeld","3.3.9","0","n","0","right","right","left","right","NA","483","3243","11783","483","NA","2","legacy","5","1024","2","48000","-16","experiment","1","odd","6","277260","273999","275051","6195","92291","275055","268078","6242","80507","279263","279747","276057","9512","279262","NA","Sternberg task","37","27203","44","yes","1024"
"84.44444444444444","84.44444444444444","617.2888888888889","617.2888888888889","black","experiment","legacy","legacy","legacy","0","uniform","1","undefined","1","left","44","44","44","0","0","44","44","0","0","44","44","44","0","44","0","Sun Oct 17 16:46:54 2021","The main experiment item","yes","Sternbergtask.osexp","/Users/samonemarks/Desktop","no","mono","no","18","no","white","no","yes","768","legacy","32","11","/Users/samonemarks/Desktop/SM-subject-1.csv","legacy","9 5 3 8 4","Lentiform Loewenfeld","3.3.9","1","y","0","left","right","left","left","NA","575","3243","11783","575","NA","2","legacy","5","1024","2","48000","-16","experiment","1","odd","9","283011","279751","280803","6195","92291","280806","268078","6242","80507","285013","285589","281808","9512","285013","NA","Sternberg task","38","27778","45","yes","1024"
"82.6086956521739","82.6086956521739","622.1304347826087","622.1304347826087","black","experiment","legacy","legacy","legacy","0","uniform","0","undefined","0","left","45","45","45","0","0","45","45","0","0","45","45","45","0","45","0","Sun Oct 17 16:46:54 2021","The main experiment item","yes","Sternbergtask.osexp","/Users/samonemarks/Desktop","no","mono","no","18","no","white","no","yes","768","legacy","33","11","/Users/samonemarks/Desktop/SM-subject-1.csv","legacy","8 1 6","Lentiform Loewenfeld","3.3.9","3","y","0","right","right","left","right","NA","840","3243","11783","840","NA","2","legacy","3","1024","2","48000","-16","experiment","1","odd","6","288855","285594","286646","6195","92291","286649","268078","6242","80507","290858","291698","287651","9512","290858","NA","Sternberg task","38","28618","46","yes","1024"
"82.97872340425532","82.97872340425532","624.9574468085107","624.9574468085107","black","experiment","legacy","legacy","legacy","0","uniform","1","undefined","1","right","46","46","46","0","0","46","46","0","0","46","46","46","0","46","0","Sun Oct 17 16:46:54 2021","The main experiment item","yes","Sternbergtask.osexp","/Users/samonemarks/Desktop","no","mono","no","18","no","white","no","yes","768","legacy","34","11","/Users/samonemarks/Desktop/SM-subject-1.csv","legacy","8 6 3 4 7","Lentiform Loewenfeld","3.3.9","0","n","0","right","right","left","right","NA","755","3243","11783","755","NA","2","legacy","5","1024","2","48000","-16","experiment","1","odd","1","294962","285594","292754","6195","92291","292756","291702","6242","80507","296965","297721","293759","9512","296964","NA","Sternberg task","39","29373","47","yes","1024"
"83.33333333333333","83.33333333333333","620.7291666666666","620.7291666666666","black","experiment","legacy","legacy","legacy","0","uniform","1","undefined","1","left","47","47","47","0","0","47","47","0","0","47","47","47","0","47","0","Sun Oct 17 16:46:54 2021","The main experiment item","yes","Sternbergtask.osexp","/Users/samonemarks/Desktop","no","mono","no","18","no","white","no","yes","768","legacy","35","11","/Users/samonemarks/Desktop/SM-subject-1.csv","legacy","3 9 6 2","Lentiform Loewenfeld","3.3.9","4","y","0","left","right","left","left","NA","422","3243","11783","422","NA","2","legacy","4","1024","2","48000","-16","experiment","1","odd","2","300983","297725","298776","6195","92291","298778","291702","6242","80507","302986","303409","299780","9512","302986","NA","Sternberg task","40","29795","48","yes","1024"
"81.63265306122449","81.63265306122449","619.1428571428571","619.1428571428571","black","experiment","legacy","legacy","legacy","0","uniform","0","undefined","0","left","48","48","48","0","0","48","48","0","0","48","48","48","0","48","0","Sun Oct 17 16:46:54 2021","The main experiment item","yes","Sternbergtask.osexp","/Users/samonemarks/Desktop","no","mono","no","18","no","white","no","yes","768","legacy","36","11","/Users/samonemarks/Desktop/SM-subject-1.csv","legacy","9 1 7 2","Lentiform Loewenfeld","3.3.9","2","y","0","right","right","left","right","NA","543","3243","11783","543","NA","2","legacy","4","1024","2","48000","-16","experiment","1","odd","1","306676","303414","304466","6195","92291","304469","291702","6242","80507","308679","309222","305472","9512","308678","NA","Sternberg task","40","30338","49","yes","1024"
"82","82","615","615","black","experiment","legacy","legacy","legacy","0","uniform","1","undefined","1","left","49","49","49","0","0","49","49","0","0","49","49","49","0","49","0","Sun Oct 17 16:46:54 2021","The main experiment item","yes","Sternbergtask.osexp","/Users/samonemarks/Desktop","no","mono","no","18","no","white","no","yes","768","legacy","37","11","/Users/samonemarks/Desktop/SM-subject-1.csv","legacy","7 2 3","Lentiform Loewenfeld","3.3.9","3","y","0","left","right","left","left","NA","412","3243","11783","412","NA","2","legacy","3","1024","2","48000","-16","experiment","1","odd","3","312487","303414","310280","6195","92291","310282","309227","6242","80507","314490","314903","311284","9512","314490","NA","Sternberg task","41","30750","50","yes","1024"
"82.3529411764706","82.3529411764706","617.0196078431372","617.0196078431372","black","experiment","legacy","legacy","legacy","0","uniform","1","undefined","1","left","50","50","50","0","0","50","50","0","0","50","50","50","0","50","0","Sun Oct 17 16:46:54 2021","The main experiment item","yes","Sternbergtask.osexp","/Users/samonemarks/Desktop","no","mono","no","18","no","white","no","yes","768","legacy","38","11","/Users/samonemarks/Desktop/SM-subject-1.csv","legacy","7 6","Lentiform Loewenfeld","3.3.9","2","y","0","left","right","left","left","NA","718","3243","11783","718","NA","2","legacy","2","1024","2","48000","-16","experiment","1","odd","6","318168","314907","315959","6195","92291","315962","309227","6242","80507","320170","320889","316964","9512","320170","NA","Sternberg task","42","31468","51","yes","1024"
"82.6923076923077","82.6923076923077","612.25","612.25","black","experiment","legacy","legacy","legacy","0","uniform","1","undefined","1","left","51","51","51","0","0","51","51","0","0","51","51","51","0","51","0","Sun Oct 17 16:46:54 2021","The main experiment item","yes","Sternbergtask.osexp","/Users/samonemarks/Desktop","no","mono","no","18","no","white","no","yes","768","legacy","39","11","/Users/samonemarks/Desktop/SM-subject-1.csv","legacy","2 8 5 1","Lentiform Loewenfeld","3.3.9","4","y","0","left","right","left","left","NA","369","3243","11783","369","NA","2","legacy","4","1024","2","48000","-16","experiment","1","odd","1","324157","320895","321948","6195","92291","321950","309227","6242","80507","326160","326530","322953","9512","326160","NA","Sternberg task","43","31837","52","yes","1024"
"83.01886792452831","83.01886792452831","609.1132075471698","609.1132075471698","black","experiment","legacy","legacy","legacy","0","uniform","1","undefined","1","left","52","52","52","0","0","52","52","0","0","52","52","52","0","52","0","Sun Oct 17 16:46:54 2021","The main experiment item","yes","Sternbergtask.osexp","/Users/samonemarks/Desktop","no","mono","no","18","no","white","no","yes","768","legacy","40","11","/Users/samonemarks/Desktop/SM-subject-1.csv","legacy","3 5 7 1","Lentiform Loewenfeld","3.3.9","3","y","0","left","right","left","left","NA","446","3243","11783","446","NA","2","legacy","4","1024","2","48000","-16","experiment","1","odd","7","329796","326535","327587","6195","92291","327590","309227","6242","80507","331800","332247","328593","9512","331800","NA","Sternberg task","44","32283","53","yes","1024"
"83.33333333333333","83.33333333333333","609.2037037037037","609.2037037037037","black","experiment","legacy","legacy","legacy","0","uniform","1","undefined","1","left","53","53","53","0","0","53","53","0","0","53","53","53","0","53","0","Sun Oct 17 16:46:54 2021","The main experiment item","yes","Sternbergtask.osexp","/Users/samonemarks/Desktop","no","mono","no","18","no","white","no","yes","768","legacy","41","11","/Users/samonemarks/Desktop/SM-subject-1.csv","legacy","4 6 2 5 1","Lentiform Loewenfeld","3.3.9","5","y","0","left","right","left","left","NA","614","3243","11783","614","NA","2","legacy","5","1024","2","48000","-16","experiment","1","odd","1","335511","332251","333303","6195","92291","333306","309227","6242","80507","337514","338129","334308","9512","337514","NA","Sternberg task","45","32897","54","yes","1024"
"83.63636363636364","83.63636363636364","607.4909090909091","607.4909090909091","black","experiment","legacy","legacy","legacy","0","uniform","1","undefined","1","left","54","54","54","0","0","54","54","0","0","54","54","54","0","54","0","Sun Oct 17 16:46:54 2021","The main experiment item","yes","Sternbergtask.osexp","/Users/samonemarks/Desktop","no","mono","no","18","no","white","no","yes","768","legacy","42","11","/Users/samonemarks/Desktop/SM-subject-1.csv","legacy","2 3","Lentiform Loewenfeld","3.3.9","1","y","0","left","right","left","left","NA","515","3243","11783","515","NA","2","legacy","2","1024","2","48000","-16","experiment","1","odd","2","341394","338134","339186","6195","92291","339188","309227","6242","80507","343396","343912","340190","9512","343396","NA","Sternberg task","46","33412","55","yes","1024"
"83.92857142857143","83.92857142857143","607.1964285714286","607.1964285714286","black","experiment","legacy","legacy","legacy","0","uniform","1","undefined","1","right","55","55","55","0","0","55","55","0","0","55","55","55","0","55","0","Sun Oct 17 16:46:54 2021","The main experiment item","yes","Sternbergtask.osexp","/Users/samonemarks/Desktop","no","mono","no","18","no","white","no","yes","768","legacy","43","11","/Users/samonemarks/Desktop/SM-subject-1.csv","legacy","5","Lentiform Loewenfeld","3.3.9","0","n","0","right","right","left","right","NA","591","3243","11783","591","NA","2","legacy","1","1024","2","48000","-16","experiment","1","odd","8","347177","343916","344968","6195","92291","344970","309227","6242","80507","349180","349772","345972","9512","349179","NA","Sternberg task","47","34003","56","yes","1024"
"84.21052631578948","84.21052631578948","606.2280701754386","606.2280701754386","black","experiment","legacy","legacy","legacy","0","uniform","1","undefined","1","left","56","56","56","0","0","56","56","0","0","56","56","56","0","56","0","Sun Oct 17 16:46:54 2021","The main experiment item","yes","Sternbergtask.osexp","/Users/samonemarks/Desktop","no","mono","no","18","no","white","no","yes","768","legacy","44","11","/Users/samonemarks/Desktop/SM-subject-1.csv","legacy","3 5 4 7","Lentiform Loewenfeld","3.3.9","1","y","0","left","right","left","left","NA","552","3243","11783","552","NA","2","legacy","4","1024","2","48000","-16","experiment","1","odd","3","353038","349775","350828","6195","92291","350831","309227","6242","80507","355041","355594","351834","9512","355041","NA","Sternberg task","48","34555","57","yes","1024"
"84.48275862068965","84.48275862068965","606.9655172413793","606.9655172413793","black","experiment","legacy","legacy","legacy","0","uniform","1","undefined","1","right","57","57","57","0","0","57","57","0","0","57","57","57","0","57","0","Sun Oct 17 16:46:54 2021","The main experiment item","yes","Sternbergtask.osexp","/Users/samonemarks/Desktop","no","mono","no","18","no","white","no","yes","768","legacy","45","11","/Users/samonemarks/Desktop/SM-subject-1.csv","legacy","1 4 3 6 5","Lentiform Loewenfeld","3.3.9","0","n","0","right","right","left","right","NA","649","3243","11783","649","NA","2","legacy","5","1024","2","48000","-16","experiment","1","odd","8","358859","355598","356650","6195","92291","356653","309227","6242","80507","360862","361512","357656","9512","360862","NA","Sternberg task","49","35204","58","yes","1024"
"84.7457627118644","84.7457627118644","608.5084745762712","608.5084745762712","black","experiment","legacy","legacy","legacy","0","uniform","1","undefined","1","right","58","58","58","0","0","58","58","0","0","58","58","58","0","58","0","Sun Oct 17 16:46:54 2021","The main experiment item","yes","Sternbergtask.osexp","/Users/samonemarks/Desktop","no","mono","no","18","no","white","no","yes","768","legacy","46","11","/Users/samonemarks/Desktop/SM-subject-1.csv","legacy","4 2 7 6 1 3","Lentiform Loewenfeld","3.3.9","0","n","0","right","right","left","right","NA","698","3243","11783","698","NA","2","legacy","6","1024","2","48000","-16","experiment","1","odd","8","364779","361517","362570","6195","92291","362572","309227","6242","80507","366781","367480","363575","9512","366781","NA","Sternberg task","50","35902","59","yes","1024"
"85","85","607.85","607.85","black","experiment","legacy","legacy","legacy","0","uniform","1","undefined","1","right","59","59","59","0","0","59","59","0","0","59","59","59","0","59","0","Sun Oct 17 16:46:54 2021","The main experiment item","yes","Sternbergtask.osexp","/Users/samonemarks/Desktop","no","mono","no","18","no","white","no","yes","768","legacy","47","11","/Users/samonemarks/Desktop/SM-subject-1.csv","legacy","6 9 4 5 2","Lentiform Loewenfeld","3.3.9","0","n","0","right","right","left","right","NA","569","3243","11783","569","NA","2","legacy","5","1024","2","48000","-16","experiment","1","odd","1","370745","367485","368537","6195","92291","368539","309227","6242","80507","372748","373318","369541","9512","372747","NA","Sternberg task","51","36471","60","yes","1024"
"85.24590163934427","85.24590163934427","604.9508196721312","604.9508196721312","black","experiment","legacy","legacy","legacy","0","uniform","1","undefined","1","left","60","60","60","0","0","60","60","0","0","60","60","60","0","60","0","Sun Oct 17 16:46:54 2021","The main experiment item","yes","Sternbergtask.osexp","/Users/samonemarks/Desktop","no","mono","no","18","no","white","no","yes","768","legacy","48","11","/Users/samonemarks/Desktop/SM-subject-1.csv","legacy","3 4","Lentiform Loewenfeld","3.3.9","1","y","0","left","right","left","left","NA","431","3243","11783","431","NA","2","legacy","2","1024","2","48000","-16","experiment","1","odd","3","376586","373323","374375","6195","92291","374377","309227","6242","80507","378588","379020","375382","9512","378588","NA","Sternberg task","52","36902","61","yes","1024"
"85.48387096774194","85.48387096774194","605.758064516129","605.758064516129","black","experiment","legacy","legacy","legacy","0","uniform","1","undefined","1","left","61","61","61","0","0","61","61","0","0","61","61","61","0","61","0","Sun Oct 17 16:46:54 2021","The main experiment item","yes","Sternbergtask.osexp","/Users/samonemarks/Desktop","no","mono","no","18","no","white","no","yes","768","legacy","49","11","/Users/samonemarks/Desktop/SM-subject-1.csv","legacy","3 9 7 6 4","Lentiform Loewenfeld","3.3.9","3","y","0","left","right","left","left","NA","655","3243","11783","655","NA","2","legacy","5","1024","2","48000","-16","experiment","1","odd","7","382285","379025","380076","6195","92291","380079","309227","6242","80507","384288","384943","381081","9512","384288","NA","Sternberg task","53","37557","62","yes","1024"
"85.71428571428571","85.71428571428571","604.952380952381","604.952380952381","black","experiment","legacy","legacy","legacy","0","uniform","1","undefined","1","left","62","62","62","0","0","62","62","0","0","62","62","62","0","62","0","Sun Oct 17 16:46:54 2021","The main experiment item","yes","Sternbergtask.osexp","/Users/samonemarks/Desktop","no","mono","no","18","no","white","no","yes","768","legacy","50","11","/Users/samonemarks/Desktop/SM-subject-1.csv","legacy","6 9 7 4 5 1","Lentiform Loewenfeld","3.3.9","2","y","0","left","right","left","left","NA","555","3243","11783","555","NA","2","legacy","6","1024","2","48000","-16","experiment","1","odd","9","388208","384948","386000","6195","92291","386002","309227","6242","80507","390210","390766","387004","9512","390210","NA","Sternberg task","54","38112","63","yes","1024"
"84.375","84.375","608.796875","608.796875","black","experiment","legacy","legacy","legacy","0","uniform","0","undefined","0","left","63","63","63","0","0","63","63","0","0","63","63","63","0","63","0","Sun Oct 17 16:46:54 2021","The main experiment item","yes","Sternbergtask.osexp","/Users/samonemarks/Desktop","no","mono","no","18","no","white","no","yes","768","legacy","51","11","/Users/samonemarks/Desktop/SM-subject-1.csv","legacy","5 2 6","Lentiform Loewenfeld","3.3.9","2","y","0","right","right","left","right","NA","851","3243","11783","851","NA","2","legacy","3","1024","2","48000","-16","experiment","1","odd","2","394029","390770","391822","6195","92291","391824","309227","6242","80507","396032","396884","392826","9512","396032","NA","Sternberg task","54","38963","64","yes","1024"
"84.61538461538461","84.61538461538461","611.8","611.8","black","experiment","legacy","legacy","legacy","0","uniform","1","undefined","1","right","64","64","64","0","0","64","64","0","0","64","64","64","0","64","0","Sun Oct 17 16:46:54 2021","The main experiment item","yes","Sternbergtask.osexp","/Users/samonemarks/Desktop","no","mono","no","18","no","white","no","yes","768","legacy","52","11","/Users/samonemarks/Desktop/SM-subject-1.csv","legacy","1 5 3 2 8","Lentiform Loewenfeld","3.3.9","0","n","0","right","right","left","right","NA","804","3243","11783","804","NA","2","legacy","5","1024","2","48000","-16","experiment","1","odd","4","400147","390770","397939","6195","92291","397941","396887","6242","80507","402149","402954","398943","9512","402149","NA","Sternberg task","55","39767","65","yes","1024"
"84.84848484848484","84.84848484848484","612.2727272727273","612.2727272727273","black","experiment","legacy","legacy","legacy","0","uniform","1","undefined","1","left","65","65","65","0","0","65","65","0","0","65","65","65","0","65","0","Sun Oct 17 16:46:54 2021","The main experiment item","yes","Sternbergtask.osexp","/Users/samonemarks/Desktop","no","mono","no","18","no","white","no","yes","768","legacy","53","11","/Users/samonemarks/Desktop/SM-subject-1.csv","legacy","3 5 9 6 2 4","Lentiform Loewenfeld","3.3.9","1","y","0","left","right","left","left","NA","643","3243","11783","643","NA","2","legacy","6","1024","2","48000","-16","experiment","1","odd","3","406218","402959","404011","6195","92291","404013","396887","6242","80507","408222","408866","405015","9512","408221","NA","Sternberg task","56","40410","66","yes","1024"
"85.07462686567165","85.07462686567165","619.7014925373135","619.7014925373135","black","experiment","legacy","legacy","legacy","0","uniform","1","undefined","1","right","66","66","66","0","0","66","66","0","0","66","66","66","0","66","0","Sun Oct 17 16:46:54 2021","The main experiment item","yes","Sternbergtask.osexp","/Users/samonemarks/Desktop","no","mono","no","18","no","white","no","yes","768","legacy","54","11","/Users/samonemarks/Desktop/SM-subject-1.csv","legacy","2 8 6 3 1","Lentiform Loewenfeld","3.3.9","0","n","0","right","right","left","right","NA","1110","3243","11783","1110","NA","2","legacy","5","1024","2","48000","-16","experiment","1","odd","7","412130","408870","409922","6195","92291","409924","396887","6242","80507","414132","415242","410926","9512","414132","NA","Sternberg task","57","41520","67","yes","1024"
"85.29411764705883","85.29411764705883","621","621","black","experiment","legacy","legacy","legacy","0","uniform","1","undefined","1","right","67","67","67","0","0","67","67","0","0","67","67","67","0","67","0","Sun Oct 17 16:46:54 2021","The main experiment item","yes","Sternbergtask.osexp","/Users/samonemarks/Desktop","no","mono","no","18","no","white","no","yes","768","legacy","55","11","/Users/samonemarks/Desktop/SM-subject-1.csv","legacy","8 4 3 9","Lentiform Loewenfeld","3.3.9","0","n","0","right","right","left","right","NA","708","3243","11783","708","NA","2","legacy","4","1024","2","48000","-16","experiment","1","odd","5","418506","415247","416299","6195","92291","416301","396887","6242","80507","420509","421218","417303","9512","420508","NA","Sternberg task","58","42228","68","yes","1024"
"84.05797101449275","84.05797101449275","622.3768115942029","622.3768115942029","black","experiment","legacy","legacy","legacy","0","uniform","0","undefined","0","left","68","68","68","0","0","68","68","0","0","68","68","68","0","68","0","Sun Oct 17 16:46:54 2021","The main experiment item","yes","Sternbergtask.osexp","/Users/samonemarks/Desktop","no","mono","no","18","no","white","no","yes","768","legacy","56","11","/Users/samonemarks/Desktop/SM-subject-1.csv","legacy","6 1 2","Lentiform Loewenfeld","3.3.9","3","y","0","right","right","left","right","NA","716","3243","11783","716","NA","2","legacy","3","1024","2","48000","-16","experiment","1","odd","2","424483","421223","422275","6195","92291","422277","396887","6242","80507","426485","427202","423279","9512","426485","NA","Sternberg task","58","42944","69","yes","1024"
"82.85714285714286","82.85714285714286","621.9142857142857","621.9142857142857","black","experiment","legacy","legacy","legacy","0","uniform","0","undefined","0","left","69","69","69","0","0","69","69","0","0","69","69","69","0","69","0","Sun Oct 17 16:46:54 2021","The main experiment item","yes","Sternbergtask.osexp","/Users/samonemarks/Desktop","no","mono","no","18","no","white","no","yes","768","legacy","57","11","/Users/samonemarks/Desktop/SM-subject-1.csv","legacy","7 8 4 6 9 5","Lentiform Loewenfeld","3.3.9","4","y","0","right","right","left","right","NA","590","3243","11783","590","NA","2","legacy","6","1024","2","48000","-16","experiment","1","odd","6","430467","421223","428259","6195","92291","428262","427207","6242","80507","432470","433061","429264","9512","432469","NA","Sternberg task","58","43534","70","yes","1024"
"83.09859154929578","83.09859154929578","624.4225352112676","624.4225352112676","black","experiment","legacy","legacy","legacy","0","uniform","1","undefined","1","right","70","70","70","0","0","70","70","0","0","70","70","70","0","70","0","Sun Oct 17 16:46:54 2021","The main experiment item","yes","Sternbergtask.osexp","/Users/samonemarks/Desktop","no","mono","no","18","no","white","no","yes","768","legacy","58","11","/Users/samonemarks/Desktop/SM-subject-1.csv","legacy","1 7 5 2 9","Lentiform Loewenfeld","3.3.9","0","n","0","right","right","left","right","NA","800","3243","11783","800","NA","2","legacy","5","1024","2","48000","-16","experiment","1","odd","3","436326","421223","434118","6195","92291","434120","433065","6242","80507","438330","439131","435122","9512","438329","NA","Sternberg task","59","44334","71","yes","1024"
"83.33333333333333","83.33333333333333","623.6944444444445","623.6944444444445","black","experiment","legacy","legacy","legacy","0","uniform","1","undefined","1","right","71","71","71","0","0","71","71","0","0","71","71","71","0","71","0","Sun Oct 17 16:46:54 2021","The main experiment item","yes","Sternbergtask.osexp","/Users/samonemarks/Desktop","no","mono","no","18","no","white","no","yes","768","legacy","59","11","/Users/samonemarks/Desktop/SM-subject-1.csv","legacy","7 8 6 1","Lentiform Loewenfeld","3.3.9","0","n","0","right","right","left","right","NA","572","3243","11783","572","NA","2","legacy","4","1024","2","48000","-16","experiment","1","odd","3","442397","439135","440187","6195","92291","440190","433065","6242","80507","444400","444972","441193","9512","444400","NA","Sternberg task","60","44906","72","yes","1024"
"83.56164383561644","83.56164383561644","627.3561643835617","627.3561643835617","black","experiment","legacy","legacy","legacy","0","uniform","1","undefined","1","right","72","72","72","0","0","72","72","0","0","72","72","72","0","72","0","Sun Oct 17 16:46:54 2021","The main experiment item","yes","Sternbergtask.osexp","/Users/samonemarks/Desktop","no","mono","no","18","no","white","no","yes","768","legacy","60","11","/Users/samonemarks/Desktop/SM-subject-1.csv","legacy","1 4 9 2 5","Lentiform Loewenfeld","3.3.9","0","n","0","right","right","left","right","NA","891","3243","11783","891","NA","2","legacy","5","1024","2","48000","-16","experiment","1","odd","7","448237","444977","446029","6195","92291","446031","433065","6242","80507","450239","451131","447033","9512","450239","NA","Sternberg task","61","45797","73","yes","1024"
"83.78378378378379","83.78378378378379","630.0675675675676","630.0675675675676","black","experiment","legacy","legacy","legacy","0","uniform","1","undefined","1","right","73","73","73","0","0","73","73","0","0","73","73","73","0","73","0","Sun Oct 17 16:46:54 2021","The main experiment item","yes","Sternbergtask.osexp","/Users/samonemarks/Desktop","no","mono","no","18","no","white","no","yes","768","legacy","61","11","/Users/samonemarks/Desktop/SM-subject-1.csv","legacy","7 9 1 6","Lentiform Loewenfeld","3.3.9","0","n","0","right","right","left","right","NA","828","3243","11783","828","NA","2","legacy","4","1024","2","48000","-16","experiment","1","odd","4","454396","451135","452188","6195","92291","452191","433065","6242","80507","456399","457228","453193","9512","456399","NA","Sternberg task","62","46625","74","yes","1024"
"84","84","632.04","632.04","black","experiment","legacy","legacy","legacy","0","uniform","1","undefined","1","right","74","74","74","0","0","74","74","0","0","74","74","74","0","74","0","Sun Oct 17 16:46:54 2021","The main experiment item","yes","Sternbergtask.osexp","/Users/samonemarks/Desktop","no","mono","no","18","no","white","no","yes","768","legacy","62","11","/Users/samonemarks/Desktop/SM-subject-1.csv","legacy","6 9 5","Lentiform Loewenfeld","3.3.9","0","n","0","right","right","left","right","NA","778","3243","11783","778","NA","2","legacy","3","1024","2","48000","-16","experiment","1","odd","8","460492","457233","458285","6195","92291","458287","433065","6242","80507","462495","463274","459289","9512","462495","NA","Sternberg task","63","47403","75","yes","1024"
"84.21052631578948","84.21052631578948","636.8684210526316","636.8684210526316","black","experiment","legacy","legacy","legacy","0","uniform","1","undefined","1","left","75","75","75","0","0","75","75","0","0","75","75","75","0","75","0","Sun Oct 17 16:46:54 2021","The main experiment item","yes","Sternbergtask.osexp","/Users/samonemarks/Desktop","no","mono","no","18","no","white","no","yes","768","legacy","63","11","/Users/samonemarks/Desktop/SM-subject-1.csv","legacy","8 3","Lentiform Loewenfeld","3.3.9","2","y","0","left","right","left","left","NA","999","3243","11783","999","NA","2","legacy","2","1024","2","48000","-16","experiment","1","odd","3","466537","463278","464330","6195","92291","464332","433065","6242","80507","468540","469540","465334","9512","468540","NA","Sternberg task","64","48402","76","yes","1024"
"84.41558441558442","84.41558441558442","635.7142857142857","635.7142857142857","black","experiment","legacy","legacy","legacy","0","uniform","1","undefined","1","left","76","76","76","0","0","76","76","0","0","76","76","76","0","76","0","Sun Oct 17 16:46:54 2021","The main experiment item","yes","Sternbergtask.osexp","/Users/samonemarks/Desktop","no","mono","no","18","no","white","no","yes","768","legacy","64","11","/Users/samonemarks/Desktop/SM-subject-1.csv","legacy","9 4 2","Lentiform Loewenfeld","3.3.9","1","y","0","left","right","left","left","NA","548","3243","11783","548","NA","2","legacy","3","1024","2","48000","-16","experiment","1","odd","9","472805","469544","470597","6195","92291","470600","433065","6242","80507","474808","475356","471602","9512","474807","NA","Sternberg task","65","48950","77","yes","1024"
"84.61538461538461","84.61538461538461","637.525641025641","637.525641025641","black","experiment","legacy","legacy","legacy","0","uniform","1","undefined","1","right","77","77","77","0","0","77","77","0","0","77","77","77","0","77","0","Sun Oct 17 16:46:54 2021","The main experiment item","yes","Sternbergtask.osexp","/Users/samonemarks/Desktop","no","mono","no","18","no","white","no","yes","768","legacy","65","11","/Users/samonemarks/Desktop/SM-subject-1.csv","legacy","4 2 6 9","Lentiform Loewenfeld","3.3.9","0","n","0","right","right","left","right","NA","777","3243","11783","777","NA","2","legacy","4","1024","2","48000","-16","experiment","1","odd","7","478621","475361","476414","6195","92291","476416","433065","6242","80507","480624","481402","477418","9512","480624","NA","Sternberg task","66","49727","78","yes","1024"
"84.81012658227849","84.81012658227849","636.379746835443","636.379746835443","black","experiment","legacy","legacy","legacy","0","uniform","1","undefined","1","left","78","78","78","0","0","78","78","0","0","78","78","78","0","78","0","Sun Oct 17 16:46:54 2021","The main experiment item","yes","Sternbergtask.osexp","/Users/samonemarks/Desktop","no","mono","no","18","no","white","no","yes","768","legacy","66","11","/Users/samonemarks/Desktop/SM-subject-1.csv","legacy","2 6 1 7 4","Lentiform Loewenfeld","3.3.9","2","y","0","left","right","left","left","NA","547","3243","11783","547","NA","2","legacy","5","1024","2","48000","-16","experiment","1","odd","6","484668","481407","482460","6195","92291","482463","433065","6242","80507","486671","487219","483465","9512","486670","NA","Sternberg task","67","50274","79","yes","1024"
"85","85","639.2875","639.2875","black","experiment","legacy","legacy","legacy","0","uniform","1","undefined","1","right","79","79","79","0","0","79","79","0","0","79","79","79","0","79","0","Sun Oct 17 16:46:54 2021","The main experiment item","yes","Sternbergtask.osexp","/Users/samonemarks/Desktop","no","mono","no","18","no","white","no","yes","768","legacy","67","11","/Users/samonemarks/Desktop/SM-subject-1.csv","legacy","2 5 1 4","Lentiform Loewenfeld","3.3.9","0","n","0","right","right","left","right","NA","869","3243","11783","869","NA","2","legacy","4","1024","2","48000","-16","experiment","1","odd","6","490484","487225","488277","6195","92291","488279","433065","6242","80507","492487","493357","489282","9512","492487","NA","Sternberg task","68","51143","80","yes","1024"
"85.18518518518519","85.18518518518519","639.9629629629629","639.9629629629629","black","experiment","legacy","legacy","legacy","0","uniform","1","undefined","1","right","80","80","80","0","0","80","80","0","0","80","80","80","0","80","0","Sun Oct 17 16:46:54 2021","The main experiment item","yes","Sternbergtask.osexp","/Users/samonemarks/Desktop","no","mono","no","18","no","white","no","yes","768","legacy","68","11","/Users/samonemarks/Desktop/SM-subject-1.csv","legacy","9 8 2 7 4","Lentiform Loewenfeld","3.3.9","0","n","0","right","right","left","right","NA","694","3243","11783","694","NA","2","legacy","5","1024","2","48000","-16","experiment","1","odd","5","496620","493360","494412","6195","92291","494414","433065","6242","80507","498622","499317","495416","9512","498622","NA","Sternberg task","69","51837","81","yes","1024"
"85.36585365853658","85.36585365853658","638.2073170731708","638.2073170731708","black","experiment","legacy","legacy","legacy","0","uniform","1","undefined","1","left","81","81","81","0","0","81","81","0","0","81","81","81","0","81","0","Sun Oct 17 16:46:54 2021","The main experiment item","yes","Sternbergtask.osexp","/Users/samonemarks/Desktop","no","mono","no","18","no","white","no","yes","768","legacy","69","11","/Users/samonemarks/Desktop/SM-subject-1.csv","legacy","6 5","Lentiform Loewenfeld","3.3.9","2","y","0","left","right","left","left","NA","496","3243","11783","496","NA","2","legacy","2","1024","2","48000","-16","experiment","1","odd","5","502583","499322","500374","6195","92291","500376","433065","6242","80507","504586","505083","501380","9512","504586","NA","Sternberg task","70","52333","82","yes","1024"
"84.33734939759036","84.33734939759036","640.289156626506","640.289156626506","black","experiment","legacy","legacy","legacy","0","uniform","0","undefined","0","left","82","82","82","0","0","82","82","0","0","82","82","82","0","82","0","Sun Oct 17 16:46:54 2021","The main experiment item","yes","Sternbergtask.osexp","/Users/samonemarks/Desktop","no","mono","no","18","no","white","no","yes","768","legacy","70","11","/Users/samonemarks/Desktop/SM-subject-1.csv","legacy","5 2 9 6 1 7","Lentiform Loewenfeld","3.3.9","3","y","0","right","right","left","right","NA","811","3243","11783","811","NA","2","legacy","6","1024","2","48000","-16","experiment","1","odd","9","508348","505088","506141","6195","92291","506143","433065","6242","80507","510350","511162","507145","9512","510350","NA","Sternberg task","70","53144","83","yes","1024"
"84.52380952380952","84.52380952380952","639.047619047619","639.047619047619","black","experiment","legacy","legacy","legacy","0","uniform","1","undefined","1","left","83","83","83","0","0","83","83","0","0","83","83","83","0","83","0","Sun Oct 17 16:46:54 2021","The main experiment item","yes","Sternbergtask.osexp","/Users/samonemarks/Desktop","no","mono","no","18","no","white","no","yes","768","legacy","71","11","/Users/samonemarks/Desktop/SM-subject-1.csv","legacy","8 9 5 7 1 6","Lentiform Loewenfeld","3.3.9","4","y","0","left","right","left","left","NA","536","3243","11783","536","NA","2","legacy","6","1024","2","48000","-16","experiment","1","odd","7","514425","505088","512218","6195","92291","512220","511166","6242","80507","516428","516965","513222","9512","516428","NA","Sternberg task","71","53680","84","yes","1024"
"84.70588235294117","84.70588235294117","640.7176470588236","640.7176470588236","black","experiment","legacy","legacy","legacy","0","uniform","1","undefined","1","right","84","84","84","0","0","84","84","0","0","84","84","84","0","84","0","Sun Oct 17 16:46:54 2021","The main experiment item","yes","Sternbergtask.osexp","/Users/samonemarks/Desktop","no","mono","no","18","no","white","no","yes","768","legacy","72","11","/Users/samonemarks/Desktop/SM-subject-1.csv","legacy","1 6 4 3 9 7","Lentiform Loewenfeld","3.3.9","0","n","0","right","right","left","right","NA","781","3243","11783","781","NA","2","legacy","6","1024","2","48000","-16","experiment","1","odd","8","520230","516969","518021","6195","92291","518024","511166","6242","80507","522233","523015","519027","9512","522233","NA","Sternberg task","72","54461","85","yes","1024"
"84.88372093023256","84.88372093023256","640.6046511627907","640.6046511627907","black","experiment","legacy","legacy","legacy","0","uniform","1","undefined","1","left","85","85","85","0","0","85","85","0","0","85","85","85","0","85","0","Sun Oct 17 16:46:54 2021","The main experiment item","yes","Sternbergtask.osexp","/Users/samonemarks/Desktop","no","mono","no","18","no","white","no","yes","768","legacy","73","11","/Users/samonemarks/Desktop/SM-subject-1.csv","legacy","7","Lentiform Loewenfeld","3.3.9","1","y","0","left","right","left","left","NA","631","3243","11783","631","NA","2","legacy","1","1024","2","48000","-16","experiment","1","odd","7","526279","523019","524072","6195","92291","524074","511166","6242","80507","528282","528914","525076","9512","528281","NA","Sternberg task","73","55092","86","yes","1024"
"85.05747126436782","85.05747126436782","641.5172413793103","641.5172413793103","black","experiment","legacy","legacy","legacy","0","uniform","1","undefined","1","left","86","86","86","0","0","86","86","0","0","86","86","86","0","86","0","Sun Oct 17 16:46:54 2021","The main experiment item","yes","Sternbergtask.osexp","/Users/samonemarks/Desktop","no","mono","no","18","no","white","no","yes","768","legacy","74","11","/Users/samonemarks/Desktop/SM-subject-1.csv","legacy","7 4 2 6 3 5","Lentiform Loewenfeld","3.3.9","6","y","0","left","right","left","left","NA","720","3243","11783","720","NA","2","legacy","6","1024","2","48000","-16","experiment","1","odd","5","532179","528919","529970","6195","92291","529973","511166","6242","80507","534182","534903","530976","9512","534182","NA","Sternberg task","74","55812","87","yes","1024"
"85.22727272727273","85.22727272727273","641.6818181818181","641.6818181818181","black","experiment","legacy","legacy","legacy","0","uniform","1","undefined","1","left","87","87","87","0","0","87","87","0","0","87","87","87","0","87","0","Sun Oct 17 16:46:54 2021","The main experiment item","yes","Sternbergtask.osexp","/Users/samonemarks/Desktop","no","mono","no","18","no","white","no","yes","768","legacy","75","11","/Users/samonemarks/Desktop/SM-subject-1.csv","legacy","4 9 7 8 5 3","Lentiform Loewenfeld","3.3.9","4","y","0","left","right","left","left","NA","656","3243","11783","656","NA","2","legacy","6","1024","2","48000","-16","experiment","1","odd","8","538168","534908","535961","6195","92291","535963","511166","6242","80507","540172","540829","536965","9512","540171","NA","Sternberg task","75","56468","88","yes","1024"
"85.3932584269663","85.3932584269663","640.8089887640449","640.8089887640449","black","experiment","legacy","legacy","legacy","0","uniform","1","undefined","1","left","88","88","88","0","0","88","88","0","0","88","88","88","0","88","0","Sun Oct 17 16:46:54 2021","The main experiment item","yes","Sternbergtask.osexp","/Users/samonemarks/Desktop","no","mono","no","18","no","white","no","yes","768","legacy","76","11","/Users/samonemarks/Desktop/SM-subject-1.csv","legacy","6 2","Lentiform Loewenfeld","3.3.9","1","y","0","left","right","left","left","NA","564","3243","11783","564","NA","2","legacy","2","1024","2","48000","-16","experiment","1","odd","6","544093","540833","541884","6195","92291","541887","511166","6242","80507","546095","546660","542889","9512","546095","NA","Sternberg task","76","57032","89","yes","1024"
"85.55555555555556","85.55555555555556","640.5333333333333","640.5333333333333","black","experiment","legacy","legacy","legacy","0","uniform","1","undefined","1","left","89","89","89","0","0","89","89","0","0","89","89","89","0","89","0","Sun Oct 17 16:46:54 2021","The main experiment item","yes","Sternbergtask.osexp","/Users/samonemarks/Desktop","no","mono","no","18","no","white","no","yes","768","legacy","77","11","/Users/samonemarks/Desktop/SM-subject-1.csv","legacy","7 8 6 3 1","Lentiform Loewenfeld","3.3.9","5","y","0","left","right","left","left","NA","616","3243","11783","616","NA","2","legacy","5","1024","2","48000","-16","experiment","1","odd","1","549924","546664","547717","6195","92291","547719","511166","6242","80507","551927","552544","548721","9512","551927","NA","Sternberg task","77","57648","90","yes","1024"
"85.71428571428571","85.71428571428571","642.1868131868132","642.1868131868132","black","experiment","legacy","legacy","legacy","0","uniform","1","undefined","1","right","90","90","90","0","0","90","90","0","0","90","90","90","0","90","0","Sun Oct 17 16:46:54 2021","The main experiment item","yes","Sternbergtask.osexp","/Users/samonemarks/Desktop","no","mono","no","18","no","white","no","yes","768","legacy","78","11","/Users/samonemarks/Desktop/SM-subject-1.csv","legacy","6 9 4 5 3 2","Lentiform Loewenfeld","3.3.9","0","n","0","right","right","left","right","NA","791","3243","11783","791","NA","2","legacy","6","1024","2","48000","-16","experiment","1","odd","8","555827","552548","553619","6195","92291","553621","511166","6242","80507","557830","558623","554623","9512","557829","NA","Sternberg task","78","58439","91","yes","1024"
"85.8695652173913","85.8695652173913","641.3152173913044","641.3152173913044","black","experiment","legacy","legacy","legacy","0","uniform","1","undefined","1","left","91","91","91","0","0","91","91","0","0","91","91","91","0","91","0","Sun Oct 17 16:46:54 2021","The main experiment item","yes","Sternbergtask.osexp","/Users/samonemarks/Desktop","no","mono","no","18","no","white","no","yes","768","legacy","79","11","/Users/samonemarks/Desktop/SM-subject-1.csv","legacy","3 2 1 4 7","Lentiform Loewenfeld","3.3.9","2","y","0","left","right","left","left","NA","562","3243","11783","562","NA","2","legacy","5","1024","2","48000","-16","experiment","1","odd","2","561889","558627","559681","6195","92291","559684","511166","6242","80507","563893","564456","560686","9512","563892","NA","Sternberg task","79","59001","92","yes","1024"
"86.02150537634408","86.02150537634408","643.4193548387096","643.4193548387096","black","experiment","legacy","legacy","legacy","0","uniform","1","undefined","1","right","92","92","92","0","0","92","92","0","0","92","92","92","0","92","0","Sun Oct 17 16:46:54 2021","The main experiment item","yes","Sternbergtask.osexp","/Users/samonemarks/Desktop","no","mono","no","18","no","white","no","yes","768","legacy","80","11","/Users/samonemarks/Desktop/SM-subject-1.csv","legacy","7 1 8 4 9 3","Lentiform Loewenfeld","3.3.9","0","n","0","right","right","left","right","NA","837","3243","11783","837","NA","2","legacy","6","1024","2","48000","-16","experiment","1","odd","6","567722","564462","565514","6195","92291","565517","511166","6242","80507","569725","570563","566519","9512","569724","NA","Sternberg task","80","59838","93","yes","1024"
"86.17021276595744","86.17021276595744","643.3085106382979","643.3085106382979","black","experiment","legacy","legacy","legacy","0","uniform","1","undefined","1","right","93","93","93","0","0","93","93","0","0","93","93","93","0","93","0","Sun Oct 17 16:46:54 2021","The main experiment item","yes","Sternbergtask.osexp","/Users/samonemarks/Desktop","no","mono","no","18","no","white","no","yes","768","legacy","81","11","/Users/samonemarks/Desktop/SM-subject-1.csv","legacy","1","Lentiform Loewenfeld","3.3.9","0","n","0","right","right","left","right","NA","633","3243","11783","633","NA","2","legacy","1","1024","2","48000","-16","experiment","1","odd","7","573827","570568","571619","6195","92291","571621","511166","6242","80507","575830","576465","572624","9512","575830","NA","Sternberg task","81","60471","94","yes","1024"
"85.26315789473684","85.26315789473684","644.1684210526316","644.1684210526316","black","experiment","legacy","legacy","legacy","0","uniform","0","undefined","0","right","94","94","94","0","0","94","94","0","0","94","94","94","0","94","0","Sun Oct 17 16:46:54 2021","The main experiment item","yes","Sternbergtask.osexp","/Users/samonemarks/Desktop","no","mono","no","18","no","white","no","yes","768","legacy","82","11","/Users/samonemarks/Desktop/SM-subject-1.csv","legacy","5 9 2 3","Lentiform Loewenfeld","3.3.9","0","n","0","left","right","left","left","NA","725","3243","11783","725","NA","2","legacy","4","1024","2","48000","-16","experiment","1","odd","8","579730","576469","577521","6195","92291","577523","511166","6242","80507","581733","582459","578526","9512","581733","NA","Sternberg task","81","61196","95","yes","1024"
"85.41666666666667","85.41666666666667","644.6979166666666","644.6979166666666","black","experiment","legacy","legacy","legacy","0","uniform","1","undefined","1","right","95","95","95","0","0","95","95","0","0","95","95","95","0","95","0","Sun Oct 17 16:46:54 2021","The main experiment item","yes","Sternbergtask.osexp","/Users/samonemarks/Desktop","no","mono","no","18","no","white","no","yes","768","legacy","83","11","/Users/samonemarks/Desktop/SM-subject-1.csv","legacy","4 1","Lentiform Loewenfeld","3.3.9","0","n","0","right","right","left","right","NA","695","3243","11783","695","NA","2","legacy","2","1024","2","48000","-16","experiment","1","odd","6","585724","576469","583516","6195","92291","583518","582464","6242","80507","587727","588423","584520","9512","587727","NA","Sternberg task","82","61891","96","yes","1024"
"85.56701030927834","85.56701030927834","643.4639175257732","643.4639175257732","black","experiment","legacy","legacy","legacy","0","uniform","1","undefined","1","left","96","96","96","0","0","96","96","0","0","96","96","96","0","96","0","Sun Oct 17 16:46:54 2021","The main experiment item","yes","Sternbergtask.osexp","/Users/samonemarks/Desktop","no","mono","no","18","no","white","no","yes","768","legacy","84","11","/Users/samonemarks/Desktop/SM-subject-1.csv","legacy","5 7 8 2 3 8","Lentiform Loewenfeld","3.3.9","5","y","0","left","right","left","left","NA","525","3243","11783","525","NA","2","legacy","6","1024","2","48000","-16","experiment","1","odd","3","591688","588428","589480","6195","92291","589482","582464","6242","80507","593690","594217","590485","9512","593690","NA","Sternberg task","83","62416","97","yes","1024"
"85.71428571428571","85.71428571428571","642.5918367346939","642.5918367346939","black","experiment","legacy","legacy","legacy","0","uniform","1","undefined","1","left","97","97","97","0","0","97","97","0","0","97","97","97","0","97","0","Sun Oct 17 16:46:54 2021","The main experiment item","yes","Sternbergtask.osexp","/Users/samonemarks/Desktop","no","mono","no","18","no","white","no","yes","768","legacy","85","11","/Users/samonemarks/Desktop/SM-subject-1.csv","legacy","6 8 9 3 4 9","Lentiform Loewenfeld","3.3.9","5","y","0","left","right","left","left","NA","558","3243","11783","558","NA","2","legacy","6","1024","2","48000","-16","experiment","1","odd","4","597482","594222","595274","6195","92291","595277","582464","6242","80507","599485","600044","596279","9512","599485","NA","Sternberg task","84","62974","98","yes","1024"
"85.85858585858585","85.85858585858585","650.4949494949495","650.4949494949495","black","experiment","legacy","legacy","legacy","0","uniform","1","undefined","1","left","98","98","98","0","0","98","98","0","0","98","98","98","0","98","0","Sun Oct 17 16:46:54 2021","The main experiment item","yes","Sternbergtask.osexp","/Users/samonemarks/Desktop","no","mono","no","18","no","white","no","yes","768","legacy","86","11","/Users/samonemarks/Desktop/SM-subject-1.csv","legacy","1 4 9 3 2 5","Lentiform Loewenfeld","3.3.9","3","y","0","left","right","left","left","NA","1425","3243","11783","1425","NA","2","legacy","6","1024","2","48000","-16","experiment","1","odd","9","603311","600049","601101","6195","92291","601104","582464","6242","80507","605313","606740","602107","9512","605313","NA","Sternberg task","85","64399","99","yes","1024"
"86","86","653.22","653.22","black","experiment","legacy","legacy","legacy","0","uniform","1","undefined","1","right","99","99","99","0","0","99","99","0","0","99","99","99","0","99","0","Sun Oct 17 16:46:54 2021","The main experiment item","yes","Sternbergtask.osexp","/Users/samonemarks/Desktop","no","mono","no","18","no","white","no","yes","768","legacy","87","11","/Users/samonemarks/Desktop/SM-subject-1.csv","legacy","7 3 2 8","Lentiform Loewenfeld","3.3.9","0","n","0","right","right","left","right","NA","923","3243","11783","923","NA","2","legacy","4","1024","2","48000","-16","experiment","1","odd","4","610006","606745","607799","6195","92291","607801","582464","6242","80507","612009","612933","608803","9512","612009","NA","Sternberg task","86","65322","100","yes","1024"
"86.13861386138613","86.13861386138613","656.4950495049505","656.4950495049505","black","experiment","legacy","legacy","legacy","0","uniform","1","undefined","1","right","100","100","100","0","0","100","100","0","0","100","100","100","0","100","0","Sun Oct 17 16:46:54 2021","The main experiment item","yes","Sternbergtask.osexp","/Users/samonemarks/Desktop","no","mono","no","18","no","white","no","yes","768","legacy","88","11","/Users/samonemarks/Desktop/SM-subject-1.csv","legacy","7 4 2 8 1 9","Lentiform Loewenfeld","3.3.9","0","n","0","right","right","left","right","NA","984","3243","11783","984","NA","2","legacy","6","1024","2","48000","-16","experiment","1","odd","5","616198","612938","613990","6195","92291","613992","582464","6242","80507","618201","619187","614995","9512","618201","NA","Sternberg task","87","66306","101","yes","1024"
"86.27450980392157","86.27450980392157","655.7549019607843","655.7549019607843","black","experiment","legacy","legacy","legacy","0","uniform","1","undefined","1","left","101","101","101","0","0","101","101","0","0","101","101","101","0","101","0","Sun Oct 17 16:46:54 2021","The main experiment item","yes","Sternbergtask.osexp","/Users/samonemarks/Desktop","no","mono","no","18","no","white","no","yes","768","legacy","89","11","/Users/samonemarks/Desktop/SM-subject-1.csv","legacy","9 5 8 1","Lentiform Loewenfeld","3.3.9","2","y","0","left","right","left","left","NA","581","3243","11783","581","NA","2","legacy","4","1024","2","48000","-16","experiment","1","odd","5","622450","619191","620243","6195","92291","620245","582464","6242","80507","624453","625036","621247","9512","624453","NA","Sternberg task","88","66887","102","yes","1024"
"86.40776699029126","86.40776699029126","654.9029126213592","654.9029126213592","black","experiment","legacy","legacy","legacy","0","uniform","1","undefined","1","left","102","102","102","0","0","102","102","0","0","102","102","102","0","102","0","Sun Oct 17 16:46:54 2021","The main experiment item","yes","Sternbergtask.osexp","/Users/samonemarks/Desktop","no","mono","no","18","no","white","no","yes","768","legacy","90","11","/Users/samonemarks/Desktop/SM-subject-1.csv","legacy","7 1 8 5 6 2","Lentiform Loewenfeld","3.3.9","2","y","0","left","right","left","left","NA","568","3243","11783","568","NA","2","legacy","6","1024","2","48000","-16","experiment","1","odd","1","628300","625040","626092","6195","92291","626094","582464","6242","80507","630303","630873","627096","9512","630302","NA","Sternberg task","89","67455","103","yes","1024"
"85.57692307692308","85.57692307692308","655.0576923076923","655.0576923076923","black","experiment","legacy","legacy","legacy","0","uniform","0","undefined","0","right","103","103","103","0","0","103","103","0","0","103","103","103","0","103","0","Sun Oct 17 16:46:54 2021","The main experiment item","yes","Sternbergtask.osexp","/Users/samonemarks/Desktop","no","mono","no","18","no","white","no","yes","768","legacy","91","11","/Users/samonemarks/Desktop/SM-subject-1.csv","legacy","1 7 8 3 9","Lentiform Loewenfeld","3.3.9","0","n","0","left","right","left","left","NA","671","3243","11783","671","NA","2","legacy","5","1024","2","48000","-16","experiment","1","odd","2","634136","630877","631929","6195","92291","631931","582464","6242","80507","636139","636811","632933","9512","636139","NA","Sternberg task","89","68126","104","yes","1024"
"85.71428571428571","85.71428571428571","656.6952380952381","656.6952380952381","black","experiment","legacy","legacy","legacy","0","uniform","1","undefined","1","right","104","104","104","0","0","104","104","0","0","104","104","104","0","104","0","Sun Oct 17 16:46:54 2021","The main experiment item","yes","Sternbergtask.osexp","/Users/samonemarks/Desktop","no","mono","no","18","no","white","no","yes","768","legacy","92","11","/Users/samonemarks/Desktop/SM-subject-1.csv","legacy","1 6 4","Lentiform Loewenfeld","3.3.9","0","n","0","right","right","left","right","NA","827","3243","11783","827","NA","2","legacy","3","1024","2","48000","-16","experiment","1","odd","7","640077","630877","637868","6195","92291","637871","636815","6242","80507","642079","642907","638873","9512","642079","NA","Sternberg task","90","68953","105","yes","1024"
"85.84905660377359","85.84905660377359","655.7830188679245","655.7830188679245","black","experiment","legacy","legacy","legacy","0","uniform","1","undefined","1","left","105","105","105","0","0","105","105","0","0","105","105","105","0","105","0","Sun Oct 17 16:46:54 2021","The main experiment item","yes","Sternbergtask.osexp","/Users/samonemarks/Desktop","no","mono","no","18","no","white","no","yes","768","legacy","93","11","/Users/samonemarks/Desktop/SM-subject-1.csv","legacy","8 7 3","Lentiform Loewenfeld","3.3.9","1","y","0","left","right","left","left","NA","560","3243","11783","560","NA","2","legacy","3","1024","2","48000","-16","experiment","1","odd","8","646172","642913","643965","6195","92291","643967","636815","6242","80507","648175","648736","644969","9512","648175","NA","Sternberg task","91","69513","106","yes","1024"
"85.04672897196262","85.04672897196262","654.4485981308411","654.4485981308411","black","experiment","legacy","legacy","legacy","0","uniform","0","undefined","0","right","106","106","106","0","0","106","106","0","0","106","106","106","0","106","0","Sun Oct 17 16:46:54 2021","The main experiment item","yes","Sternbergtask.osexp","/Users/samonemarks/Desktop","no","mono","no","18","no","white","no","yes","768","legacy","94","11","/Users/samonemarks/Desktop/SM-subject-1.csv","legacy","8 2 1 4 5 9","Lentiform Loewenfeld","3.3.9","0","n","0","left","right","left","left","NA","513","3243","11783","513","NA","2","legacy","6","1024","2","48000","-16","experiment","1","odd","7","652000","648741","649792","6195","92291","649795","636815","6242","80507","654003","654517","650797","9512","654003","NA","Sternberg task","91","70026","107","yes","1024"
"85.18518518518519","85.18518518518519","653.7037037037037","653.7037037037037","black","experiment","legacy","legacy","legacy","0","uniform","1","undefined","1","left","107","107","107","0","0","107","107","0","0","107","107","107","0","107","0","Sun Oct 17 16:46:54 2021","The main experiment item","yes","Sternbergtask.osexp","/Users/samonemarks/Desktop","no","mono","no","18","no","white","no","yes","768","legacy","95","11","/Users/samonemarks/Desktop/SM-subject-1.csv","legacy","8 5 1 3 9","Lentiform Loewenfeld","3.3.9","4","y","0","left","right","left","left","NA","574","3243","11783","574","NA","2","legacy","5","1024","2","48000","-16","experiment","1","odd","3","657782","648741","655574","6195","92291","655577","654522","6242","80507","659785","660360","656579","9512","659785","NA","Sternberg task","92","70600","108","yes","1024"
"84.40366972477064","84.40366972477064","653.6146788990826","653.6146788990826","black","experiment","legacy","legacy","legacy","0","uniform","0","undefined","0","right","108","108","108","0","0","108","108","0","0","108","108","108","0","108","0","Sun Oct 17 16:46:54 2021","The main experiment item","yes","Sternbergtask.osexp","/Users/samonemarks/Desktop","no","mono","no","18","no","white","no","yes","768","legacy","96","11","/Users/samonemarks/Desktop/SM-subject-1.csv","legacy","6 2 9 3 8 4","Lentiform Loewenfeld","3.3.9","0","n","0","left","right","left","left","NA","644","3243","11783","644","NA","2","legacy","6","1024","2","48000","-16","experiment","1","odd","1","663625","660365","661417","6195","92291","661419","654522","6242","80507","665628","666275","662421","9512","665627","NA","Sternberg task","92","71244","109","yes","1024"
"84.54545454545455","84.54545454545455","655.0909090909091","655.0909090909091","black","experiment","legacy","legacy","legacy","0","uniform","1","undefined","1","right","109","109","109","0","0","109","109","0","0","109","109","109","0","109","0","Sun Oct 17 16:46:54 2021","The main experiment item","yes","Sternbergtask.osexp","/Users/samonemarks/Desktop","no","mono","no","18","no","white","no","yes","768","legacy","97","11","/Users/samonemarks/Desktop/SM-subject-1.csv","legacy","6 9 7 3 8 2","Lentiform Loewenfeld","3.3.9","0","n","0","right","right","left","right","NA","816","3243","11783","816","NA","2","legacy","6","1024","2","48000","-16","experiment","1","odd","5","669541","660365","667334","6195","92291","667336","666280","6242","80507","671544","672362","668338","9512","671544","NA","Sternberg task","93","72060","110","yes","1024"
"84.68468468468468","84.68468468468468","655.2972972972973","655.2972972972973","black","experiment","legacy","legacy","legacy","0","uniform","1","undefined","1","left","110","110","110","0","0","110","110","0","0","110","110","110","0","110","0","Sun Oct 17 16:46:54 2021","The main experiment item","yes","Sternbergtask.osexp","/Users/samonemarks/Desktop","no","mono","no","18","no","white","no","yes","768","legacy","98","11","/Users/samonemarks/Desktop/SM-subject-1.csv","legacy","9 8 4","Lentiform Loewenfeld","3.3.9","1","y","0","left","right","left","left","NA","678","3243","11783","678","NA","2","legacy","3","1024","2","48000","-16","experiment","1","odd","9","675627","672367","673419","6195","92291","673421","666280","6242","80507","677630","678310","674423","9512","677629","NA","Sternberg task","94","72738","111","yes","1024"
"84.82142857142857","84.82142857142857","656.0625","656.0625","black","experiment","legacy","legacy","legacy","0","uniform","1","undefined","1","left","111","111","111","0","0","111","111","0","0","111","111","111","0","111","0","Sun Oct 17 16:46:54 2021","The main experiment item","yes","Sternbergtask.osexp","/Users/samonemarks/Desktop","no","mono","no","18","no","white","no","yes","768","legacy","99","11","/Users/samonemarks/Desktop/SM-subject-1.csv","legacy","9 1 6 7 8","Lentiform Loewenfeld","3.3.9","1","y","0","left","right","left","left","NA","741","3243","11783","741","NA","2","legacy","5","1024","2","48000","-16","experiment","1","odd","9","681575","678314","679367","6195","92291","679369","666280","6242","80507","683578","684320","680372","9512","683578","NA","Sternberg task","95","73479","112","yes","1024"
"84.070796460177","84.070796460177","655.929203539823","655.929203539823","black","experiment","legacy","legacy","legacy","0","uniform","0","undefined","0","left","112","112","112","0","0","112","112","0","0","112","112","112","0","112","0","Sun Oct 17 16:46:54 2021","The main experiment item","yes","Sternbergtask.osexp","/Users/samonemarks/Desktop","no","mono","no","18","no","white","no","yes","768","legacy","100","11","/Users/samonemarks/Desktop/SM-subject-1.csv","legacy","8 5 3 7 4 6","Lentiform Loewenfeld","3.3.9","6","y","0","right","right","left","right","NA","641","3243","11783","641","NA","2","legacy","6","1024","2","48000","-16","experiment","1","odd","6","687586","684324","685377","6195","92291","685379","666280","6242","80507","689588","690231","686382","9512","689588","NA","Sternberg task","95","74120","113","yes","1024"
"84.21052631578948","84.21052631578948","655.0701754385965","655.0701754385965","black","experiment","legacy","legacy","legacy","0","uniform","1","undefined","1","left","113","113","113","0","0","113","113","0","0","113","113","113","0","113","0","Sun Oct 17 16:46:54 2021","The main experiment item","yes","Sternbergtask.osexp","/Users/samonemarks/Desktop","no","mono","no","18","no","white","no","yes","768","legacy","101","11","/Users/samonemarks/Desktop/SM-subject-1.csv","legacy","6 7 8 5","Lentiform Loewenfeld","3.3.9","3","y","0","left","right","left","left","NA","558","3243","11783","558","NA","2","legacy","4","1024","2","48000","-16","experiment","1","odd","8","693497","684324","691289","6195","92291","691291","690235","6242","80507","695500","696060","692294","9512","695500","NA","Sternberg task","96","74678","114","yes","1024"
"84.34782608695652","84.34782608695652","657.7565217391304","657.7565217391304","black","experiment","legacy","legacy","legacy","0","uniform","1","undefined","1","right","114","114","114","0","0","114","114","0","0","114","114","114","0","114","0","Sun Oct 17 16:46:54 2021","The main experiment item","yes","Sternbergtask.osexp","/Users/samonemarks/Desktop","no","mono","no","18","no","white","no","yes","768","legacy","102","11","/Users/samonemarks/Desktop/SM-subject-1.csv","legacy","3 9 1","Lentiform Loewenfeld","3.3.9","0","n","0","right","right","left","right","NA","964","3243","11783","964","NA","2","legacy","3","1024","2","48000","-16","experiment","1","odd","7","699324","696065","697117","6195","92291","697119","690235","6242","80507","701327","702292","698121","9512","701327","NA","Sternberg task","97","75642","115","yes","1024"
"84.48275862068965","84.48275862068965","658.0431034482758","658.0431034482758","black","experiment","legacy","legacy","legacy","0","uniform","1","undefined","1","right","115","115","115","0","0","115","115","0","0","115","115","115","0","115","0","Sun Oct 17 16:46:54 2021","The main experiment item","yes","Sternbergtask.osexp","/Users/samonemarks/Desktop","no","mono","no","18","no","white","no","yes","768","legacy","103","11","/Users/samonemarks/Desktop/SM-subject-1.csv","legacy","7 1","Lentiform Loewenfeld","3.3.9","0","n","0","right","right","left","right","NA","691","3243","11783","691","NA","2","legacy","2","1024","2","48000","-16","experiment","1","odd","8","705557","702297","703350","6195","92291","703352","690235","6242","80507","707560","708253","704354","9512","707560","NA","Sternberg task","98","76333","116","yes","1024"
"84.61538461538461","84.61538461538461","659.6752136752136","659.6752136752136","black","experiment","legacy","legacy","legacy","0","uniform","1","undefined","1","left","116","116","116","0","0","116","116","0","0","116","116","116","0","116","0","Sun Oct 17 16:46:54 2021","The main experiment item","yes","Sternbergtask.osexp","/Users/samonemarks/Desktop","no","mono","no","18","no","white","no","yes","768","legacy","104","11","/Users/samonemarks/Desktop/SM-subject-1.csv","legacy","9 3 8 2 1 4","Lentiform Loewenfeld","3.3.9","3","y","0","left","right","left","left","NA","849","3243","11783","849","NA","2","legacy","6","1024","2","48000","-16","experiment","1","odd","8","711517","708257","709309","6195","92291","709311","690235","6242","80507","713520","714370","710313","9512","713520","NA","Sternberg task","99","77182","117","yes","1024"
"84.7457627118644","84.7457627118644","659.2457627118644","659.2457627118644","black","experiment","legacy","legacy","legacy","0","uniform","1","undefined","1","left","117","117","117","0","0","117","117","0","0","117","117","117","0","117","0","Sun Oct 17 16:46:54 2021","The main experiment item","yes","Sternbergtask.osexp","/Users/samonemarks/Desktop","no","mono","no","18","no","white","no","yes","768","legacy","105","11","/Users/samonemarks/Desktop/SM-subject-1.csv","legacy","4 7 6 8 2 3","Lentiform Loewenfeld","3.3.9","6","y","0","left","right","left","left","NA","609","3243","11783","609","NA","2","legacy","6","1024","2","48000","-16","experiment","1","odd","3","717635","714375","715427","6195","92291","715429","690235","6242","80507","719638","720248","716432","9512","719637","NA","Sternberg task","100","77791","118","yes","1024"
"84.87394957983193","84.87394957983193","658.436974789916","658.436974789916","black","experiment","legacy","legacy","legacy","0","uniform","1","undefined","1","right","118","118","118","0","0","118","118","0","0","118","118","118","0","118","0","Sun Oct 17 16:46:54 2021","The main experiment item","yes","Sternbergtask.osexp","/Users/samonemarks/Desktop","no","mono","no","18","no","white","no","yes","768","legacy","106","11","/Users/samonemarks/Desktop/SM-subject-1.csv","legacy","6 3 1 7 9 8","Lentiform Loewenfeld","3.3.9","0","n","0","right","right","left","right","NA","563","3243","11783","563","NA","2","legacy","6","1024","2","48000","-16","experiment","1","odd","4","723516","720254","721308","6195","92291","721310","690235","6242","80507","725518","726082","722312","9512","725518","NA","Sternberg task","101","78354","119","yes","1024"
