acc,accuracy,average_response_time,avg_rt,background,block,canvas_backend,clock_backend,color_backend,compensation,coordinates,correct,correct_instruction1,correct_keyboard_response,correct_response,count_correctFeedback,count_expSequence,count_experiment,count_experimentLoop,count_fixation,count_iSi,count_incorrectFeedback,count_instruction1,count_instructions2,count_keyboard_response,count_logger,count_memorySet,count_practiceLoop,count_probe,count_thankYou,datetime,description,disable_garbage_collection,experiment_file,experiment_path,font_bold,font_family,font_italic,font_size,font_underline,foreground,form_clicks,fullscreen,height,keyboard_backend,live_row,live_row_practiceLoop,logfile,mouse_backend,numberSet,opensesame_codename,opensesame_version,posInSet,present,repeat_cycle,response,response_instruction1,response_instructions2,response_keyboard_response,response_thankYou,response_time,response_time_instruction1,response_time_instructions2,response_time_keyboard_response,response_time_thankYou,round_decimals,sampler_backend,setSize,sound_buf_size,sound_channels,sound_freq,sound_sample_size,start,subject_nr,subject_parity,target,time_correctFeedback,time_expSequence,time_experiment,time_experimentLoop,time_fixation,time_iSi,time_incorrectFeedback,time_instruction1,time_instructions2,time_keyboard_response,time_logger,time_memorySet,time_practiceLoop,time_probe,time_thankYou,title,total_correct,total_response_time,total_responses,uniform_coordinates,width
100,100,1071,1071,black,practice,legacy,legacy,legacy,0,uniform,1,undefined,1,right,0,0,0,0,0,0,0,0,0,0,0,0,0,0,0,Fri Oct 15 20:26:29 2021,The main experiment item,yes,Sternbergtask.osexp,C:/Users/rayra/Documents,no,mono,no,18,no,white,no,yes,768,legacy,0,0,C:/Users/rayra/Documents/subject-1.csv,legacy,5 7 8 4 1 2,Lentiform Loewenfeld,3.3.9,0,n,0,right,left,NA,right,NA,1071,38208,NA,1071,NA,2,legacy,6,1024,2,48000,-16,experiment,1,odd,6,NA,42719,3549,NA,42722,44928,NA,3554,NA,46932,48003,43724,41763,46931,NA,Sternberg task,1,1071,1,yes,1024
100,100,955.5,955.5,black,practice,legacy,legacy,legacy,0,uniform,1,undefined,1,right,1,1,0,0,1,1,1,0,0,1,1,1,0,1,0,Fri Oct 15 20:26:29 2021,The main experiment item,yes,Sternbergtask.osexp,C:/Users/rayra/Documents,no,mono,no,18,no,white,no,yes,768,legacy,1,1,C:/Users/rayra/Documents/subject-1.csv,legacy,3 1 9 4,Lentiform Loewenfeld,3.3.9,0,n,0,right,left,NA,right,NA,840,38208,NA,840,NA,2,legacy,4,1024,2,48000,-16,experiment,1,odd,6,48080,49304,3549,NA,49306,51514,NA,3554,NA,53518,54359,50310,41763,53517,NA,Sternberg task,2,1911,2,yes,1024
100,100,791.3333333,791.3333333,black,practice,legacy,legacy,legacy,0,uniform,1,undefined,1,left,2,2,0,0,2,2,2,0,0,2,2,2,0,2,0,Fri Oct 15 20:26:29 2021,The main experiment item,yes,Sternbergtask.osexp,C:/Users/rayra/Documents,no,mono,no,18,no,white,no,yes,768,legacy,2,2,C:/Users/rayra/Documents/subject-1.csv,legacy,1 5 2 9,Lentiform Loewenfeld,3.3.9,2,y,0,left,left,NA,left,NA,463,38208,NA,463,NA,2,legacy,4,1024,2,48000,-16,experiment,1,odd,5,54381,55673,3549,NA,55676,57885,NA,3554,NA,59891,60355,56681,41763,59890,NA,Sternberg task,3,2374,3,yes,1024
100,100,845.75,845.75,black,practice,legacy,legacy,legacy,0,uniform,1,undefined,1,left,3,3,0,0,3,3,3,0,0,3,3,3,0,3,0,Fri Oct 15 20:26:29 2021,The main experiment item,yes,Sternbergtask.osexp,C:/Users/rayra/Documents,no,mono,no,18,no,white,no,yes,768,legacy,3,3,C:/Users/rayra/Documents/subject-1.csv,legacy,2 9 4,Lentiform Loewenfeld,3.3.9,3,y,0,left,left,NA,left,NA,1009,38208,NA,1009,NA,2,legacy,3,1024,2,48000,-16,experiment,1,odd,4,60369,61637,3549,NA,61639,63845,NA,3554,NA,65851,66861,62641,41763,65850,NA,Sternberg task,4,3383,4,yes,1024
80,80,883.4,883.4,black,practice,legacy,legacy,legacy,0,uniform,0,undefined,0,left,4,4,0,0,4,4,4,0,0,4,4,4,0,4,0,Fri Oct 15 20:26:29 2021,The main experiment item,yes,Sternbergtask.osexp,C:/Users/rayra/Documents,no,mono,no,18,no,white,no,yes,768,legacy,4,4,C:/Users/rayra/Documents/subject-1.csv,legacy,1 7 9 8 5,Lentiform Loewenfeld,3.3.9,4,y,0,right,left,NA,right,NA,1034,38208,NA,1034,NA,2,legacy,5,1024,2,48000,-16,experiment,1,odd,8,66868,68088,3549,NA,68090,70299,NA,3554,NA,72303,73338,69093,41763,72303,NA,Sternberg task,4,4417,5,yes,1024
83.33333333,83.33333333,889.8333333,889.8333333,black,practice,legacy,legacy,legacy,0,uniform,1,undefined,1,right,5,5,0,0,5,5,5,0,0,5,5,5,0,5,0,Fri Oct 15 20:26:29 2021,The main experiment item,yes,Sternbergtask.osexp,C:/Users/rayra/Documents,no,mono,no,18,no,white,no,yes,768,legacy,5,5,C:/Users/rayra/Documents/subject-1.csv,legacy,2 1,Lentiform Loewenfeld,3.3.9,0,n,0,right,left,NA,right,NA,922,38208,NA,922,NA,2,legacy,2,1024,2,48000,-16,experiment,1,odd,5,66868,74568,3549,NA,74571,76781,73345,3554,NA,78786,79708,75576,41763,78785,NA,Sternberg task,5,5339,6,yes,1024
85.71428571,85.71428571,861.1428571,861.1428571,black,practice,legacy,legacy,legacy,0,uniform,1,undefined,1,left,6,6,0,0,6,6,6,0,0,6,6,6,0,6,0,Fri Oct 15 20:26:29 2021,The main experiment item,yes,Sternbergtask.osexp,C:/Users/rayra/Documents,no,mono,no,18,no,white,no,yes,768,legacy,6,6,C:/Users/rayra/Documents/subject-1.csv,legacy,4 8,Lentiform Loewenfeld,3.3.9,1,y,0,left,left,NA,left,NA,689,38208,NA,689,NA,2,legacy,2,1024,2,48000,-16,experiment,1,odd,4,79731,80961,3549,NA,80962,83171,73345,3554,NA,85175,85865,81966,41763,85174,NA,Sternberg task,6,6028,7,yes,1024
87.5,87.5,871,871,black,practice,legacy,legacy,legacy,0,uniform,1,undefined,1,right,7,7,0,0,7,7,7,0,0,7,7,7,0,7,0,Fri Oct 15 20:26:29 2021,The main experiment item,yes,Sternbergtask.osexp,C:/Users/rayra/Documents,no,mono,no,18,no,white,no,yes,768,legacy,7,7,C:/Users/rayra/Documents/subject-1.csv,legacy,9 6 7 4 5,Lentiform Loewenfeld,3.3.9,0,n,0,right,left,NA,right,NA,940,38208,NA,940,NA,2,legacy,5,1024,2,48000,-16,experiment,1,odd,3,85874,87140,3549,NA,87142,89352,73345,3554,NA,91357,92298,88146,41763,91357,NA,Sternberg task,7,6968,8,yes,1024
88.88888889,88.88888889,904.8888889,904.8888889,black,practice,legacy,legacy,legacy,0,uniform,1,undefined,1,left,8,8,0,0,8,8,8,0,0,8,8,8,0,8,0,Fri Oct 15 20:26:29 2021,The main experiment item,yes,Sternbergtask.osexp,C:/Users/rayra/Documents,no,mono,no,18,no,white,no,yes,768,legacy,8,8,C:/Users/rayra/Documents/subject-1.csv,legacy,4 3 1 7 9 8,Lentiform Loewenfeld,3.3.9,1,y,0,left,left,NA,left,NA,1176,38208,NA,1176,NA,2,legacy,6,1024,2,48000,-16,experiment,1,odd,4,92305,93520,3549,NA,93522,95730,73345,3554,NA,97735,98911,94526,41763,97735,NA,Sternberg task,8,8144,9,yes,1024
90,90,886.3,886.3,black,practice,legacy,legacy,legacy,0,uniform,1,undefined,1,right,9,9,0,0,9,9,9,0,0,9,9,9,0,9,0,Fri Oct 15 20:26:29 2021,The main experiment item,yes,Sternbergtask.osexp,C:/Users/rayra/Documents,no,mono,no,18,no,white,no,yes,768,legacy,9,9,C:/Users/rayra/Documents/subject-1.csv,legacy,4 1 5,Lentiform Loewenfeld,3.3.9,0,n,0,right,left,NA,right,NA,719,38208,NA,719,NA,2,legacy,3,1024,2,48000,-16,experiment,1,odd,2,98918,100182,3549,NA,100186,102393,73345,3554,NA,104398,105117,101190,41763,104398,NA,Sternberg task,9,8863,10,yes,1024
90.90909091,90.90909091,864.6363636,864.6363636,black,practice,legacy,legacy,legacy,0,uniform,1,undefined,1,right,10,10,0,0,10,10,10,0,0,10,10,10,0,10,0,Fri Oct 15 20:26:29 2021,The main experiment item,yes,Sternbergtask.osexp,C:/Users/rayra/Documents,no,mono,no,18,no,white,no,yes,768,legacy,10,10,C:/Users/rayra/Documents/subject-1.csv,legacy,5,Lentiform Loewenfeld,3.3.9,0,n,0,right,left,NA,right,NA,648,38208,NA,648,NA,2,legacy,1,1024,2,48000,-16,experiment,1,odd,3,105140,106375,3549,NA,106378,108587,73345,3554,NA,110591,111240,107382,41763,110591,NA,Sternberg task,10,9511,11,yes,1024
91.66666667,91.66666667,831.0833333,831.0833333,black,practice,legacy,legacy,legacy,0,uniform,1,undefined,1,left,11,11,0,0,11,11,11,0,0,11,11,11,0,11,0,Fri Oct 15 20:26:29 2021,The main experiment item,yes,Sternbergtask.osexp,C:/Users/rayra/Documents,no,mono,no,18,no,white,no,yes,768,legacy,11,11,C:/Users/rayra/Documents/subject-1.csv,legacy,6,Lentiform Loewenfeld,3.3.9,1,y,0,left,left,NA,left,NA,462,38208,NA,462,NA,2,legacy,1,1024,2,48000,-16,experiment,1,odd,6,111248,112495,3549,NA,112498,114707,73345,3554,NA,116711,117174,113502,41763,116711,NA,Sternberg task,11,9973,12,yes,1024
84.61538462,84.61538462,818.2307692,818.2307692,black,experiment,legacy,legacy,legacy,0,uniform,0,undefined,0,left,12,12,0,0,12,12,12,0,0,12,12,12,0,12,0,Fri Oct 15 20:26:29 2021,The main experiment item,yes,Sternbergtask.osexp,C:/Users/rayra/Documents,no,mono,no,18,no,white,no,yes,768,legacy,0,11,C:/Users/rayra/Documents/subject-1.csv,legacy,6 7 8 5,Lentiform Loewenfeld,3.3.9,3,y,0,right,left,left,right,NA,664,38208,16490,664,NA,2,legacy,4,1024,2,48000,-16,experiment,1,odd,8,117183,134903,3549,134737,134905,137112,73345,3554,118246,139117,139782,135908,41763,139117,NA,Sternberg task,11,10637,13,yes,1024
85.71428571,85.71428571,803.2857143,803.2857143,black,experiment,legacy,legacy,legacy,0,uniform,1,undefined,1,left,13,13,0,0,13,13,13,0,0,13,13,13,0,13,0,Fri Oct 15 20:26:29 2021,The main experiment item,yes,Sternbergtask.osexp,C:/Users/rayra/Documents,no,mono,no,18,no,white,no,yes,768,legacy,1,11,C:/Users/rayra/Documents/subject-1.csv,legacy,6 7 9 3 1 2,Lentiform Loewenfeld,3.3.9,1,y,0,left,left,left,left,NA,609,38208,16490,609,NA,2,legacy,6,1024,2,48000,-16,experiment,1,odd,6,117183,141086,3549,134737,141090,143299,139801,3554,118246,145303,145913,142093,41763,145303,NA,Sternberg task,12,11246,14,yes,1024
86.66666667,86.66666667,808.0666667,808.0666667,black,experiment,legacy,legacy,legacy,0,uniform,1,undefined,1,right,14,14,0,0,14,14,14,0,0,14,14,14,0,14,0,Fri Oct 15 20:26:29 2021,The main experiment item,yes,Sternbergtask.osexp,C:/Users/rayra/Documents,no,mono,no,18,no,white,no,yes,768,legacy,2,11,C:/Users/rayra/Documents/subject-1.csv,legacy,7 8 6 1,Lentiform Loewenfeld,3.3.9,0,n,0,right,left,left,right,NA,875,38208,16490,875,NA,2,legacy,4,1024,2,48000,-16,experiment,1,odd,3,145921,147176,3549,134737,147178,149388,139801,3554,118246,151393,152268,148183,41763,151392,NA,Sternberg task,13,12121,15,yes,1024
87.5,87.5,799.75,799.75,black,experiment,legacy,legacy,legacy,0,uniform,1,undefined,1,left,15,15,0,0,15,15,15,0,0,15,15,15,0,15,0,Fri Oct 15 20:26:29 2021,The main experiment item,yes,Sternbergtask.osexp,C:/Users/rayra/Documents,no,mono,no,18,no,white,no,yes,768,legacy,3,11,C:/Users/rayra/Documents/subject-1.csv,legacy,3 9 7 6 4,Lentiform Loewenfeld,3.3.9,3,y,0,left,left,left,left,NA,675,38208,16490,675,NA,2,legacy,5,1024,2,48000,-16,experiment,1,odd,7,152277,153554,3549,134737,153556,155766,139801,3554,118246,157771,158447,154560,41763,157770,NA,Sternberg task,14,12796,16,yes,1024
88.23529412,88.23529412,784.2941176,784.2941176,black,experiment,legacy,legacy,legacy,0,uniform,1,undefined,1,left,16,16,0,0,16,16,16,0,0,16,16,16,0,16,0,Fri Oct 15 20:26:29 2021,The main experiment item,yes,Sternbergtask.osexp,C:/Users/rayra/Documents,no,mono,no,18,no,white,no,yes,768,legacy,4,11,C:/Users/rayra/Documents/subject-1.csv,legacy,7 6,Lentiform Loewenfeld,3.3.9,2,y,0,left,left,left,left,NA,537,38208,16490,537,NA,2,legacy,2,1024,2,48000,-16,experiment,1,odd,6,158456,159732,3549,134737,159736,161945,139801,3554,118246,163949,164487,160741,41763,163949,NA,Sternberg task,15,13333,17,yes,1024
88.88888889,88.88888889,790.5,790.5,black,experiment,legacy,legacy,legacy,0,uniform,1,undefined,1,right,17,17,0,0,17,17,17,0,0,17,17,17,0,17,0,Fri Oct 15 20:26:29 2021,The main experiment item,yes,Sternbergtask.osexp,C:/Users/rayra/Documents,no,mono,no,18,no,white,no,yes,768,legacy,5,11,C:/Users/rayra/Documents/subject-1.csv,legacy,9 7 4 5 8,Lentiform Loewenfeld,3.3.9,0,n,0,right,left,left,right,NA,896,38208,16490,896,NA,2,legacy,5,1024,2,48000,-16,experiment,1,odd,6,164510,165702,3549,134737,165705,167914,139801,3554,118246,169919,170816,166710,41763,169919,NA,Sternberg task,16,14229,18,yes,1024
89.47368421,89.47368421,776.0526316,776.0526316,black,experiment,legacy,legacy,legacy,0,uniform,1,undefined,1,left,18,18,0,0,18,18,18,0,0,18,18,18,0,18,0,Fri Oct 15 20:26:29 2021,The main experiment item,yes,Sternbergtask.osexp,C:/Users/rayra/Documents,no,mono,no,18,no,white,no,yes,768,legacy,6,11,C:/Users/rayra/Documents/subject-1.csv,legacy,6 2,Lentiform Loewenfeld,3.3.9,1,y,0,left,left,left,left,NA,516,38208,16490,516,NA,2,legacy,2,1024,2,48000,-16,experiment,1,odd,6,170823,172058,3549,134737,172060,174271,139801,3554,118246,176275,176791,173066,41763,176275,NA,Sternberg task,17,14745,19,yes,1024
85,85,796.05,796.05,black,experiment,legacy,legacy,legacy,0,uniform,0,undefined,0,left,19,19,0,0,19,19,19,0,0,19,19,19,0,19,0,Fri Oct 15 20:26:29 2021,The main experiment item,yes,Sternbergtask.osexp,C:/Users/rayra/Documents,no,mono,no,18,no,white,no,yes,768,legacy,7,11,C:/Users/rayra/Documents/subject-1.csv,legacy,4 6 2 5 1,Lentiform Loewenfeld,3.3.9,5,y,0,right,left,left,right,NA,1176,38208,16490,1176,NA,2,legacy,5,1024,2,48000,-16,experiment,1,odd,1,176799,178041,3549,134737,178044,180254,139801,3554,118246,182259,183436,179049,41763,182258,NA,Sternberg task,17,15921,20,yes,1024
85.71428571,85.71428571,809.8095238,809.8095238,black,experiment,legacy,legacy,legacy,0,uniform,1,undefined,1,right,20,20,0,0,20,20,20,0,0,20,20,20,0,20,0,Fri Oct 15 20:26:29 2021,The main experiment item,yes,Sternbergtask.osexp,C:/Users/rayra/Documents,no,mono,no,18,no,white,no,yes,768,legacy,8,11,C:/Users/rayra/Documents/subject-1.csv,legacy,5 9 2 3,Lentiform Loewenfeld,3.3.9,0,n,0,right,left,left,right,NA,1085,38208,16490,1085,NA,2,legacy,4,1024,2,48000,-16,experiment,1,odd,8,176799,184659,3549,134737,184661,186868,183443,3554,118246,188870,189956,185664,41763,188870,NA,Sternberg task,18,17006,21,yes,1024
86.36363636,86.36363636,807.1363636,807.1363636,black,experiment,legacy,legacy,legacy,0,uniform,1,undefined,1,left,21,21,0,0,21,21,21,0,0,21,21,21,0,21,0,Fri Oct 15 20:26:29 2021,The main experiment item,yes,Sternbergtask.osexp,C:/Users/rayra/Documents,no,mono,no,18,no,white,no,yes,768,legacy,9,11,C:/Users/rayra/Documents/subject-1.csv,legacy,9 5 3 8 4,Lentiform Loewenfeld,3.3.9,1,y,0,left,left,left,left,NA,751,38208,16490,751,NA,2,legacy,5,1024,2,48000,-16,experiment,1,odd,9,189962,191122,3549,134737,191124,193332,183443,3554,118246,195337,196088,192128,41763,195337,NA,Sternberg task,19,17757,22,yes,1024
82.60869565,82.60869565,830.5217391,830.5217391,black,experiment,legacy,legacy,legacy,0,uniform,0,undefined,0,right,22,22,0,0,22,22,22,0,0,22,22,22,0,22,0,Fri Oct 15 20:26:29 2021,The main experiment item,yes,Sternbergtask.osexp,C:/Users/rayra/Documents,no,mono,no,18,no,white,no,yes,768,legacy,10,11,C:/Users/rayra/Documents/subject-1.csv,legacy,6 9 4 5 3 2,Lentiform Loewenfeld,3.3.9,0,n,0,left,left,left,left,NA,1345,38208,16490,1345,NA,2,legacy,6,1024,2,48000,-16,experiment,1,odd,8,196112,197376,3549,134737,197378,199588,183443,3554,118246,201594,202939,198382,41763,201594,NA,Sternberg task,19,19102,23,yes,1024
83.33333333,83.33333333,836.5833333,836.5833333,black,experiment,legacy,legacy,legacy,0,uniform,1,undefined,1,right,23,23,0,0,23,23,23,0,0,23,23,23,0,23,0,Fri Oct 15 20:26:29 2021,The main experiment item,yes,Sternbergtask.osexp,C:/Users/rayra/Documents,no,mono,no,18,no,white,no,yes,768,legacy,11,11,C:/Users/rayra/Documents/subject-1.csv,legacy,6 9 7 3 8 2,Lentiform Loewenfeld,3.3.9,0,n,0,right,left,left,right,NA,976,38208,16490,976,NA,2,legacy,6,1024,2,48000,-16,experiment,1,odd,5,196112,204157,3549,134737,204159,206367,202945,3554,118246,208370,209347,205162,41763,208370,NA,Sternberg task,20,20078,24,yes,1024
84,84,832.76,832.76,black,experiment,legacy,legacy,legacy,0,uniform,1,undefined,1,right,24,24,0,0,24,24,24,0,0,24,24,24,0,24,0,Fri Oct 15 20:26:29 2021,The main experiment item,yes,Sternbergtask.osexp,C:/Users/rayra/Documents,no,mono,no,18,no,white,no,yes,768,legacy,12,11,C:/Users/rayra/Documents/subject-1.csv,legacy,6 9 5,Lentiform Loewenfeld,3.3.9,0,n,0,right,left,left,right,NA,741,38208,16490,741,NA,2,legacy,3,1024,2,48000,-16,experiment,1,odd,8,209354,210580,3549,134737,210583,212791,202945,3554,118246,214795,215537,211587,41763,214795,NA,Sternberg task,21,20819,25,yes,1024
84.61538462,84.61538462,838,838,black,experiment,legacy,legacy,legacy,0,uniform,1,undefined,1,left,25,25,0,0,25,25,25,0,0,25,25,25,0,25,0,Fri Oct 15 20:26:29 2021,The main experiment item,yes,Sternbergtask.osexp,C:/Users/rayra/Documents,no,mono,no,18,no,white,no,yes,768,legacy,13,11,C:/Users/rayra/Documents/subject-1.csv,legacy,9 3 8 2 1 4,Lentiform Loewenfeld,3.3.9,3,y,0,left,left,left,left,NA,969,38208,16490,969,NA,2,legacy,6,1024,2,48000,-16,experiment,1,odd,8,215546,216812,3549,134737,216814,219023,202945,3554,118246,221028,221998,217819,41763,221028,NA,Sternberg task,22,21788,26,yes,1024
85.18518519,85.18518519,833.2222222,833.2222222,black,experiment,legacy,legacy,legacy,0,uniform,1,undefined,1,left,26,26,0,0,26,26,26,0,0,26,26,26,0,26,0,Fri Oct 15 20:26:29 2021,The main experiment item,yes,Sternbergtask.osexp,C:/Users/rayra/Documents,no,mono,no,18,no,white,no,yes,768,legacy,14,11,C:/Users/rayra/Documents/subject-1.csv,legacy,9 4 2,Lentiform Loewenfeld,3.3.9,1,y,0,left,left,left,left,NA,709,38208,16490,709,NA,2,legacy,3,1024,2,48000,-16,experiment,1,odd,9,222004,223268,3549,134737,223271,225480,202945,3554,118246,227484,228194,224274,41763,227484,NA,Sternberg task,23,22497,27,yes,1024
85.71428571,85.71428571,833.5714286,833.5714286,black,experiment,legacy,legacy,legacy,0,uniform,1,undefined,1,right,27,27,0,0,27,27,27,0,0,27,27,27,0,27,0,Fri Oct 15 20:26:29 2021,The main experiment item,yes,Sternbergtask.osexp,C:/Users/rayra/Documents,no,mono,no,18,no,white,no,yes,768,legacy,15,11,C:/Users/rayra/Documents/subject-1.csv,legacy,9 5 3 2 8 6,Lentiform Loewenfeld,3.3.9,0,n,0,right,left,left,right,NA,843,38208,16490,843,NA,2,legacy,6,1024,2,48000,-16,experiment,1,odd,7,228203,229445,3549,134737,229448,231656,202945,3554,118246,233660,234504,230452,41763,233659,NA,Sternberg task,24,23340,28,yes,1024
86.20689655,86.20689655,838,838,black,experiment,legacy,legacy,legacy,0,uniform,1,undefined,1,right,28,28,0,0,28,28,28,0,0,28,28,28,0,28,0,Fri Oct 15 20:26:29 2021,The main experiment item,yes,Sternbergtask.osexp,C:/Users/rayra/Documents,no,mono,no,18,no,white,no,yes,768,legacy,16,11,C:/Users/rayra/Documents/subject-1.csv,legacy,2 3 8 5 6 7,Lentiform Loewenfeld,3.3.9,0,n,0,right,left,left,right,NA,962,38208,16490,962,NA,2,legacy,6,1024,2,48000,-16,experiment,1,odd,1,234512,235803,3549,134737,235807,238016,202945,3554,118246,240020,240984,236811,41763,240020,NA,Sternberg task,25,24302,29,yes,1024
83.33333333,83.33333333,839.9666667,839.9666667,black,experiment,legacy,legacy,legacy,0,uniform,0,undefined,0,left,29,29,0,0,29,29,29,0,0,29,29,29,0,29,0,Fri Oct 15 20:26:29 2021,The main experiment item,yes,Sternbergtask.osexp,C:/Users/rayra/Documents,no,mono,no,18,no,white,no,yes,768,legacy,17,11,C:/Users/rayra/Documents/subject-1.csv,legacy,7 8 4 6 9 5,Lentiform Loewenfeld,3.3.9,4,y,0,right,left,left,right,NA,897,38208,16490,897,NA,2,legacy,6,1024,2,48000,-16,experiment,1,odd,6,240991,242282,3549,134737,242286,244494,202945,3554,118246,246500,247398,243290,41763,246500,NA,Sternberg task,25,25199,30,yes,1024
83.87096774,83.87096774,851.9677419,851.9677419,black,experiment,legacy,legacy,legacy,0,uniform,1,undefined,1,left,30,30,0,0,30,30,30,0,0,30,30,30,0,30,0,Fri Oct 15 20:26:29 2021,The main experiment item,yes,Sternbergtask.osexp,C:/Users/rayra/Documents,no,mono,no,18,no,white,no,yes,768,legacy,18,11,C:/Users/rayra/Documents/subject-1.csv,legacy,2 8 5 1,Lentiform Loewenfeld,3.3.9,4,y,0,left,left,left,left,NA,1212,38208,16490,1212,NA,2,legacy,4,1024,2,48000,-16,experiment,1,odd,1,240991,248624,3549,134737,248626,250836,247405,3554,118246,252841,254053,249631,41763,252840,NA,Sternberg task,26,26411,31,yes,1024
81.25,81.25,865.1875,865.1875,black,experiment,legacy,legacy,legacy,0,uniform,0,undefined,0,left,31,31,0,0,31,31,31,0,0,31,31,31,0,31,0,Fri Oct 15 20:26:29 2021,The main experiment item,yes,Sternbergtask.osexp,C:/Users/rayra/Documents,no,mono,no,18,no,white,no,yes,768,legacy,19,11,C:/Users/rayra/Documents/subject-1.csv,legacy,8 5 3 7 4 6,Lentiform Loewenfeld,3.3.9,6,y,0,right,left,left,right,NA,1275,38208,16490,1275,NA,2,legacy,6,1024,2,48000,-16,experiment,1,odd,6,254061,255279,3549,134737,255281,257491,247405,3554,118246,259495,260771,256285,41763,259495,NA,Sternberg task,26,27686,32,yes,1024
81.81818182,81.81818182,866.3030303,866.3030303,black,experiment,legacy,legacy,legacy,0,uniform,1,undefined,1,right,32,32,0,0,32,32,32,0,0,32,32,32,0,32,0,Fri Oct 15 20:26:29 2021,The main experiment item,yes,Sternbergtask.osexp,C:/Users/rayra/Documents,no,mono,no,18,no,white,no,yes,768,legacy,20,11,C:/Users/rayra/Documents/subject-1.csv,legacy,4 2 6 9,Lentiform Loewenfeld,3.3.9,0,n,0,right,left,left,right,NA,902,38208,16490,902,NA,2,legacy,4,1024,2,48000,-16,experiment,1,odd,7,254061,261958,3549,134737,261961,264168,260778,3554,118246,266173,267076,262964,41763,266173,NA,Sternberg task,27,28588,33,yes,1024
82.35294118,82.35294118,860.5882353,860.5882353,black,experiment,legacy,legacy,legacy,0,uniform,1,undefined,1,left,33,33,0,0,33,33,33,0,0,33,33,33,0,33,0,Fri Oct 15 20:26:29 2021,The main experiment item,yes,Sternbergtask.osexp,C:/Users/rayra/Documents,no,mono,no,18,no,white,no,yes,768,legacy,21,11,C:/Users/rayra/Documents/subject-1.csv,legacy,9 1 6 7 8,Lentiform Loewenfeld,3.3.9,1,y,0,left,left,left,left,NA,672,38208,16490,672,NA,2,legacy,5,1024,2,48000,-16,experiment,1,odd,9,267083,268290,3549,134737,268292,270500,260778,3554,118246,272505,273179,269296,41763,272505,NA,Sternberg task,28,29260,34,yes,1024
82.85714286,82.85714286,857.8285714,857.8285714,black,experiment,legacy,legacy,legacy,0,uniform,1,undefined,1,right,34,34,0,0,34,34,34,0,0,34,34,34,0,34,0,Fri Oct 15 20:26:29 2021,The main experiment item,yes,Sternbergtask.osexp,C:/Users/rayra/Documents,no,mono,no,18,no,white,no,yes,768,legacy,22,11,C:/Users/rayra/Documents/subject-1.csv,legacy,6 2 9 3 8 4,Lentiform Loewenfeld,3.3.9,0,n,0,right,left,left,right,NA,764,38208,16490,764,NA,2,legacy,6,1024,2,48000,-16,experiment,1,odd,1,273188,274422,3549,134737,274424,276634,260778,3554,118246,278639,279404,275429,41763,278638,NA,Sternberg task,29,30024,35,yes,1024
80.55555556,80.55555556,863.8055556,863.8055556,black,experiment,legacy,legacy,legacy,0,uniform,0,undefined,0,left,35,35,0,0,35,35,35,0,0,35,35,35,0,35,0,Fri Oct 15 20:26:29 2021,The main experiment item,yes,Sternbergtask.osexp,C:/Users/rayra/Documents,no,mono,no,18,no,white,no,yes,768,legacy,23,11,C:/Users/rayra/Documents/subject-1.csv,legacy,3 5 7 1,Lentiform Loewenfeld,3.3.9,3,y,0,right,left,left,right,NA,1073,38208,16490,1073,NA,2,legacy,4,1024,2,48000,-16,experiment,1,odd,7,279413,280652,3549,134737,280655,282864,260778,3554,118246,284868,285942,281660,41763,284867,NA,Sternberg task,29,31097,36,yes,1024
78.37837838,78.37837838,869,869,black,experiment,legacy,legacy,legacy,0,uniform,0,undefined,0,left,36,36,0,0,36,36,36,0,0,36,36,36,0,36,0,Fri Oct 15 20:26:29 2021,The main experiment item,yes,Sternbergtask.osexp,C:/Users/rayra/Documents,no,mono,no,18,no,white,no,yes,768,legacy,24,11,C:/Users/rayra/Documents/subject-1.csv,legacy,6 1 2,Lentiform Loewenfeld,3.3.9,3,y,0,right,left,left,right,NA,1056,38208,16490,1056,NA,2,legacy,3,1024,2,48000,-16,experiment,1,odd,2,279413,287199,3549,134737,287202,289411,285964,3554,118246,291415,292471,288205,41763,291415,NA,Sternberg task,29,32153,37,yes,1024
78.94736842,78.94736842,864.6315789,864.6315789,black,experiment,legacy,legacy,legacy,0,uniform,1,undefined,1,right,37,37,0,0,37,37,37,0,0,37,37,37,0,37,0,Fri Oct 15 20:26:29 2021,The main experiment item,yes,Sternbergtask.osexp,C:/Users/rayra/Documents,no,mono,no,18,no,white,no,yes,768,legacy,25,11,C:/Users/rayra/Documents/subject-1.csv,legacy,8 4 3 9,Lentiform Loewenfeld,3.3.9,0,n,0,right,left,left,right,NA,703,38208,16490,703,NA,2,legacy,4,1024,2,48000,-16,experiment,1,odd,5,279413,293764,3549,134737,293768,295977,292478,3554,118246,297981,298685,294772,41763,297981,NA,Sternberg task,30,32856,38,yes,1024
79.48717949,79.48717949,868.8974359,868.8974359,black,experiment,legacy,legacy,legacy,0,uniform,1,undefined,1,left,38,38,0,0,38,38,38,0,0,38,38,38,0,38,0,Fri Oct 15 20:26:29 2021,The main experiment item,yes,Sternbergtask.osexp,C:/Users/rayra/Documents,no,mono,no,18,no,white,no,yes,768,legacy,26,11,C:/Users/rayra/Documents/subject-1.csv,legacy,5 2 6,Lentiform Loewenfeld,3.3.9,2,y,0,left,left,left,left,NA,1031,38208,16490,1031,NA,2,legacy,3,1024,2,48000,-16,experiment,1,odd,2,298693,300003,3549,134737,300007,302215,292478,3554,118246,304219,305251,301011,41763,304219,NA,Sternberg task,31,33887,39,yes,1024
80,80,876.35,876.35,black,experiment,legacy,legacy,legacy,0,uniform,1,undefined,1,left,39,39,0,0,39,39,39,0,0,39,39,39,0,39,0,Fri Oct 15 20:26:29 2021,The main experiment item,yes,Sternbergtask.osexp,C:/Users/rayra/Documents,no,mono,no,18,no,white,no,yes,768,legacy,27,11,C:/Users/rayra/Documents/subject-1.csv,legacy,2 3 7 4,Lentiform Loewenfeld,3.3.9,1,y,0,left,left,left,left,NA,1167,38208,16490,1167,NA,2,legacy,4,1024,2,48000,-16,experiment,1,odd,2,305259,306497,3549,134737,306500,308708,292478,3554,118246,310713,311880,307504,41763,310712,NA,Sternberg task,32,35054,40,yes,1024
80.48780488,80.48780488,877.7073171,877.7073171,black,experiment,legacy,legacy,legacy,0,uniform,1,undefined,1,right,40,40,0,0,40,40,40,0,0,40,40,40,0,40,0,Fri Oct 15 20:26:29 2021,The main experiment item,yes,Sternbergtask.osexp,C:/Users/rayra/Documents,no,mono,no,18,no,white,no,yes,768,legacy,28,11,C:/Users/rayra/Documents/subject-1.csv,legacy,7 1,Lentiform Loewenfeld,3.3.9,0,n,0,right,left,left,right,NA,932,38208,16490,932,NA,2,legacy,2,1024,2,48000,-16,experiment,1,odd,8,311903,313148,3549,134737,313151,315359,292478,3554,118246,317363,318297,314154,41763,317363,NA,Sternberg task,33,35986,41,yes,1024
80.95238095,80.95238095,879.7857143,879.7857143,black,experiment,legacy,legacy,legacy,0,uniform,1,undefined,1,right,41,41,0,0,41,41,41,0,0,41,41,41,0,41,0,Fri Oct 15 20:26:29 2021,The main experiment item,yes,Sternbergtask.osexp,C:/Users/rayra/Documents,no,mono,no,18,no,white,no,yes,768,legacy,29,11,C:/Users/rayra/Documents/subject-1.csv,legacy,3 4 9 6 7 8,Lentiform Loewenfeld,3.3.9,0,n,0,right,left,left,right,NA,965,38208,16490,965,NA,2,legacy,6,1024,2,48000,-16,experiment,1,odd,2,318305,319570,3549,134737,319572,321780,292478,3554,118246,323785,324752,320576,41763,323785,NA,Sternberg task,34,36951,42,yes,1024
79.06976744,79.06976744,890.3488372,890.3488372,black,experiment,legacy,legacy,legacy,0,uniform,0,undefined,0,left,42,42,0,0,42,42,42,0,0,42,42,42,0,42,0,Fri Oct 15 20:26:29 2021,The main experiment item,yes,Sternbergtask.osexp,C:/Users/rayra/Documents,no,mono,no,18,no,white,no,yes,768,legacy,30,11,C:/Users/rayra/Documents/subject-1.csv,legacy,3 2 1 4 7,Lentiform Loewenfeld,3.3.9,2,y,0,right,left,left,right,NA,1334,38208,16490,1334,NA,2,legacy,5,1024,2,48000,-16,experiment,1,odd,2,324759,325997,3549,134737,325999,328207,292478,3554,118246,330211,331547,327003,41763,330211,NA,Sternberg task,34,38285,43,yes,1024
77.27272727,77.27272727,915.5681818,915.5681818,black,experiment,legacy,legacy,legacy,0,uniform,0,undefined,0,right,43,43,0,0,43,43,43,0,0,43,43,43,0,43,0,Fri Oct 15 20:26:29 2021,The main experiment item,yes,Sternbergtask.osexp,C:/Users/rayra/Documents,no,mono,no,18,no,white,no,yes,768,legacy,31,11,C:/Users/rayra/Documents/subject-1.csv,legacy,1 7 5 2,Lentiform Loewenfeld,3.3.9,0,n,0,None,left,left,None,NA,2000,38208,16490,2000,NA,2,legacy,4,1024,2,48000,-16,experiment,1,odd,3,324759,332786,3549,134737,332788,334997,331553,3554,118246,337001,339001,333792,41763,337001,NA,Sternberg task,34,40285,44,yes,1024
77.77777778,77.77777778,915.2222222,915.2222222,black,experiment,legacy,legacy,legacy,0,uniform,1,undefined,1,left,44,44,0,0,44,44,44,0,0,44,44,44,0,44,0,Fri Oct 15 20:26:29 2021,The main experiment item,yes,Sternbergtask.osexp,C:/Users/rayra/Documents,no,mono,no,18,no,white,no,yes,768,legacy,32,11,C:/Users/rayra/Documents/subject-1.csv,legacy,5 7 8 2 3 8,Lentiform Loewenfeld,3.3.9,5,y,0,left,left,left,left,NA,900,38208,16490,900,NA,2,legacy,6,1024,2,48000,-16,experiment,1,odd,3,324759,340218,3549,134737,340220,342428,339008,3554,118246,344432,345334,341223,41763,344432,NA,Sternberg task,35,41185,45,yes,1024
78.26086957,78.26086957,918.5,918.5,black,experiment,legacy,legacy,legacy,0,uniform,1,undefined,1,left,45,45,0,0,45,45,45,0,0,45,45,45,0,45,0,Fri Oct 15 20:26:29 2021,The main experiment item,yes,Sternbergtask.osexp,C:/Users/rayra/Documents,no,mono,no,18,no,white,no,yes,768,legacy,33,11,C:/Users/rayra/Documents/subject-1.csv,legacy,9 1 7 2,Lentiform Loewenfeld,3.3.9,2,y,0,left,left,left,left,NA,1066,38208,16490,1066,NA,2,legacy,4,1024,2,48000,-16,experiment,1,odd,1,345358,346647,3549,134737,346651,348860,339008,3554,118246,350864,351931,347655,41763,350864,NA,Sternberg task,36,42251,46,yes,1024
78.72340426,78.72340426,926.0212766,926.0212766,black,experiment,legacy,legacy,legacy,0,uniform,1,undefined,1,right,46,46,0,0,46,46,46,0,0,46,46,46,0,46,0,Fri Oct 15 20:26:29 2021,The main experiment item,yes,Sternbergtask.osexp,C:/Users/rayra/Documents,no,mono,no,18,no,white,no,yes,768,legacy,34,11,C:/Users/rayra/Documents/subject-1.csv,legacy,2 7 5,Lentiform Loewenfeld,3.3.9,0,n,0,right,left,left,right,NA,1272,38208,16490,1272,NA,2,legacy,3,1024,2,48000,-16,experiment,1,odd,8,351937,353151,3549,134737,353153,355361,339008,3554,118246,357367,358639,354157,41763,357366,NA,Sternberg task,37,43523,47,yes,1024
79.16666667,79.16666667,923.4583333,923.4583333,black,experiment,legacy,legacy,legacy,0,uniform,1,undefined,1,right,47,47,0,0,47,47,47,0,0,47,47,47,0,47,0,Fri Oct 15 20:26:29 2021,The main experiment item,yes,Sternbergtask.osexp,C:/Users/rayra/Documents,no,mono,no,18,no,white,no,yes,768,legacy,35,11,C:/Users/rayra/Documents/subject-1.csv,legacy,2 5 1 4,Lentiform Loewenfeld,3.3.9,0,n,0,right,left,left,right,NA,803,38208,16490,803,NA,2,legacy,4,1024,2,48000,-16,experiment,1,odd,6,358662,359880,3549,134737,359882,362090,339008,3554,118246,364094,364898,360886,41763,364094,NA,Sternberg task,38,44326,48,yes,1024
79.59183673,79.59183673,923.6938776,923.6938776,black,experiment,legacy,legacy,legacy,0,uniform,1,undefined,1,left,48,48,0,0,48,48,48,0,0,48,48,48,0,48,0,Fri Oct 15 20:26:29 2021,The main experiment item,yes,Sternbergtask.osexp,C:/Users/rayra/Documents,no,mono,no,18,no,white,no,yes,768,legacy,36,11,C:/Users/rayra/Documents/subject-1.csv,legacy,4 6 5 8,Lentiform Loewenfeld,3.3.9,1,y,0,left,left,left,left,NA,935,38208,16490,935,NA,2,legacy,4,1024,2,48000,-16,experiment,1,odd,4,364904,366129,3549,134737,366131,368339,339008,3554,118246,370343,371278,367135,41763,370343,NA,Sternberg task,39,45261,49,yes,1024
80,80,920.4,920.4,black,experiment,legacy,legacy,legacy,0,uniform,1,undefined,1,right,49,49,0,0,49,49,49,0,0,49,49,49,0,49,0,Fri Oct 15 20:26:29 2021,The main experiment item,yes,Sternbergtask.osexp,C:/Users/rayra/Documents,no,mono,no,18,no,white,no,yes,768,legacy,37,11,C:/Users/rayra/Documents/subject-1.csv,legacy,6 8,Lentiform Loewenfeld,3.3.9,0,n,0,right,left,left,right,NA,759,38208,16490,759,NA,2,legacy,2,1024,2,48000,-16,experiment,1,odd,9,371285,372527,3549,134737,372529,374738,339008,3554,118246,376742,377502,373533,41763,376742,NA,Sternberg task,40,46020,50,yes,1024
80.39215686,80.39215686,919.2156863,919.2156863,black,experiment,legacy,legacy,legacy,0,uniform,1,undefined,1,left,50,50,0,0,50,50,50,0,0,50,50,50,0,50,0,Fri Oct 15 20:26:29 2021,The main experiment item,yes,Sternbergtask.osexp,C:/Users/rayra/Documents,no,mono,no,18,no,white,no,yes,768,legacy,38,11,C:/Users/rayra/Documents/subject-1.csv,legacy,5 2 9 6 1 7,Lentiform Loewenfeld,3.3.9,3,y,0,left,left,left,left,NA,860,38208,16490,860,NA,2,legacy,6,1024,2,48000,-16,experiment,1,odd,9,377526,378788,3549,134737,378790,380999,339008,3554,118246,383004,383867,379794,41763,383004,NA,Sternberg task,41,46880,51,yes,1024
80.76923077,80.76923077,916.9423077,916.9423077,black,experiment,legacy,legacy,legacy,0,uniform,1,undefined,1,right,51,51,0,0,51,51,51,0,0,51,51,51,0,51,0,Fri Oct 15 20:26:29 2021,The main experiment item,yes,Sternbergtask.osexp,C:/Users/rayra/Documents,no,mono,no,18,no,white,no,yes,768,legacy,39,11,C:/Users/rayra/Documents/subject-1.csv,legacy,4 2 7 6 1 3,Lentiform Loewenfeld,3.3.9,0,n,0,right,left,left,right,NA,801,38208,16490,801,NA,2,legacy,6,1024,2,48000,-16,experiment,1,odd,8,383876,385095,3549,134737,385098,387307,339008,3554,118246,389312,390114,386102,41763,389312,NA,Sternberg task,42,47681,52,yes,1024
81.13207547,81.13207547,913.3962264,913.3962264,black,experiment,legacy,legacy,legacy,0,uniform,1,undefined,1,right,52,52,0,0,52,52,52,0,0,52,52,52,0,52,0,Fri Oct 15 20:26:29 2021,The main experiment item,yes,Sternbergtask.osexp,C:/Users/rayra/Documents,no,mono,no,18,no,white,no,yes,768,legacy,40,11,C:/Users/rayra/Documents/subject-1.csv,legacy,5 7 3,Lentiform Loewenfeld,3.3.9,0,n,0,right,left,left,right,NA,729,38208,16490,729,NA,2,legacy,3,1024,2,48000,-16,experiment,1,odd,9,390122,391330,3549,134737,391332,393541,339008,3554,118246,395545,396276,392336,41763,395545,NA,Sternberg task,43,48410,53,yes,1024
81.48148148,81.48148148,915.1666667,915.1666667,black,experiment,legacy,legacy,legacy,0,uniform,1,undefined,1,right,53,53,0,0,53,53,53,0,0,53,53,53,0,53,0,Fri Oct 15 20:26:29 2021,The main experiment item,yes,Sternbergtask.osexp,C:/Users/rayra/Documents,no,mono,no,18,no,white,no,yes,768,legacy,41,11,C:/Users/rayra/Documents/subject-1.csv,legacy,3 9 8 1 6 4,Lentiform Loewenfeld,3.3.9,0,n,0,right,left,left,right,NA,1009,38208,16490,1009,NA,2,legacy,6,1024,2,48000,-16,experiment,1,odd,7,396284,397558,3549,134737,397561,399772,339008,3554,118246,401777,402787,398566,41763,401776,NA,Sternberg task,44,49419,54,yes,1024
81.81818182,81.81818182,915.3272727,915.3272727,black,experiment,legacy,legacy,legacy,0,uniform,1,undefined,1,right,54,54,0,0,54,54,54,0,0,54,54,54,0,54,0,Fri Oct 15 20:26:29 2021,The main experiment item,yes,Sternbergtask.osexp,C:/Users/rayra/Documents,no,mono,no,18,no,white,no,yes,768,legacy,42,11,C:/Users/rayra/Documents/subject-1.csv,legacy,5 3 8 7 2 4,Lentiform Loewenfeld,3.3.9,0,n,0,right,left,left,right,NA,924,38208,16490,924,NA,2,legacy,6,1024,2,48000,-16,experiment,1,odd,9,402794,404028,3549,134737,404030,406239,339008,3554,118246,408243,409168,405034,41763,408243,NA,Sternberg task,45,50343,55,yes,1024
82.14285714,82.14285714,913.0357143,913.0357143,black,experiment,legacy,legacy,legacy,0,uniform,1,undefined,1,right,55,55,0,0,55,55,55,0,0,55,55,55,0,55,0,Fri Oct 15 20:26:29 2021,The main experiment item,yes,Sternbergtask.osexp,C:/Users/rayra/Documents,no,mono,no,18,no,white,no,yes,768,legacy,43,11,C:/Users/rayra/Documents/subject-1.csv,legacy,1 4 9 3,Lentiform Loewenfeld,3.3.9,0,n,0,right,left,left,right,NA,787,38208,16490,787,NA,2,legacy,4,1024,2,48000,-16,experiment,1,odd,5,409176,410451,3549,134737,410454,412661,339008,3554,118246,414667,415456,411458,41763,414667,NA,Sternberg task,46,51130,56,yes,1024
82.45614035,82.45614035,906.5263158,906.5263158,black,experiment,legacy,legacy,legacy,0,uniform,1,undefined,1,left,56,56,0,0,56,56,56,0,0,56,56,56,0,56,0,Fri Oct 15 20:26:29 2021,The main experiment item,yes,Sternbergtask.osexp,C:/Users/rayra/Documents,no,mono,no,18,no,white,no,yes,768,legacy,44,11,C:/Users/rayra/Documents/subject-1.csv,legacy,6 9 3 1,Lentiform Loewenfeld,3.3.9,4,y,0,left,left,left,left,NA,542,38208,16490,542,NA,2,legacy,4,1024,2,48000,-16,experiment,1,odd,1,415463,416664,3549,134737,416667,418875,339008,3554,118246,420880,421424,417671,41763,420880,NA,Sternberg task,47,51672,57,yes,1024
82.75862069,82.75862069,906.2758621,906.2758621,black,experiment,legacy,legacy,legacy,0,uniform,1,undefined,1,left,57,57,0,0,57,57,57,0,0,57,57,57,0,57,0,Fri Oct 15 20:26:29 2021,The main experiment item,yes,Sternbergtask.osexp,C:/Users/rayra/Documents,no,mono,no,18,no,white,no,yes,768,legacy,45,11,C:/Users/rayra/Documents/subject-1.csv,legacy,9 3 1 2 5,Lentiform Loewenfeld,3.3.9,4,y,0,left,left,left,left,NA,892,38208,16490,892,NA,2,legacy,5,1024,2,48000,-16,experiment,1,odd,2,421432,422698,3549,134737,422700,424909,339008,3554,118246,426913,427807,423704,41763,426912,NA,Sternberg task,48,52564,58,yes,1024
83.05084746,83.05084746,907.3728814,907.3728814,black,experiment,legacy,legacy,legacy,0,uniform,1,undefined,1,left,58,58,0,0,58,58,58,0,0,58,58,58,0,58,0,Fri Oct 15 20:26:29 2021,The main experiment item,yes,Sternbergtask.osexp,C:/Users/rayra/Documents,no,mono,no,18,no,white,no,yes,768,legacy,46,11,C:/Users/rayra/Documents/subject-1.csv,legacy,3 5 4 7,Lentiform Loewenfeld,3.3.9,1,y,0,left,left,left,left,NA,971,38208,16490,971,NA,2,legacy,4,1024,2,48000,-16,experiment,1,odd,3,427813,429111,3549,134737,429114,431320,339008,3554,118246,433324,434297,430118,41763,433324,NA,Sternberg task,49,53535,59,yes,1024
83.33333333,83.33333333,908.3666667,908.3666667,black,experiment,legacy,legacy,legacy,0,uniform,1,undefined,1,left,59,59,0,0,59,59,59,0,0,59,59,59,0,59,0,Fri Oct 15 20:26:29 2021,The main experiment item,yes,Sternbergtask.osexp,C:/Users/rayra/Documents,no,mono,no,18,no,white,no,yes,768,legacy,47,11,C:/Users/rayra/Documents/subject-1.csv,legacy,9 6 2 4 1,Lentiform Loewenfeld,3.3.9,4,y,0,left,left,left,left,NA,967,38208,16490,967,NA,2,legacy,5,1024,2,48000,-16,experiment,1,odd,4,434303,435549,3549,134737,435552,437760,339008,3554,118246,439764,440733,436556,41763,439764,NA,Sternberg task,50,54502,60,yes,1024
83.60655738,83.60655738,903.6229508,903.6229508,black,experiment,legacy,legacy,legacy,0,uniform,1,undefined,1,left,60,60,0,0,60,60,60,0,0,60,60,60,0,60,0,Fri Oct 15 20:26:29 2021,The main experiment item,yes,Sternbergtask.osexp,C:/Users/rayra/Documents,no,mono,no,18,no,white,no,yes,768,legacy,48,11,C:/Users/rayra/Documents/subject-1.csv,legacy,7 1 3,Lentiform Loewenfeld,3.3.9,2,y,0,left,left,left,left,NA,619,38208,16490,619,NA,2,legacy,3,1024,2,48000,-16,experiment,1,odd,1,440739,441974,3549,134737,441976,444184,339008,3554,118246,446190,446811,442980,41763,446190,NA,Sternberg task,51,55121,61,yes,1024
83.87096774,83.87096774,913.7741935,913.7741935,black,experiment,legacy,legacy,legacy,0,uniform,1,undefined,1,right,61,61,0,0,61,61,61,0,0,61,61,61,0,61,0,Fri Oct 15 20:26:29 2021,The main experiment item,yes,Sternbergtask.osexp,C:/Users/rayra/Documents,no,mono,no,18,no,white,no,yes,768,legacy,49,11,C:/Users/rayra/Documents/subject-1.csv,legacy,3 9 1,Lentiform Loewenfeld,3.3.9,0,n,0,right,left,left,right,NA,1533,38208,16490,1533,NA,2,legacy,3,1024,2,48000,-16,experiment,1,odd,7,446819,448106,3549,134737,448108,450317,339008,3554,118246,452322,453857,449112,41763,452322,NA,Sternberg task,52,56654,62,yes,1024
84.12698413,84.12698413,917.2539683,917.2539683,black,experiment,legacy,legacy,legacy,0,uniform,1,undefined,1,left,62,62,0,0,62,62,62,0,0,62,62,62,0,62,0,Fri Oct 15 20:26:29 2021,The main experiment item,yes,Sternbergtask.osexp,C:/Users/rayra/Documents,no,mono,no,18,no,white,no,yes,768,legacy,50,11,C:/Users/rayra/Documents/subject-1.csv,legacy,2 4 6 9,Lentiform Loewenfeld,3.3.9,3,y,0,left,left,left,left,NA,1133,38208,16490,1133,NA,2,legacy,4,1024,2,48000,-16,experiment,1,odd,6,453863,455108,3549,134737,455111,457320,339008,3554,118246,459324,460459,456115,41763,459323,NA,Sternberg task,53,57787,63,yes,1024
84.375,84.375,916.5625,916.5625,black,experiment,legacy,legacy,legacy,0,uniform,1,undefined,1,left,63,63,0,0,63,63,63,0,0,63,63,63,0,63,0,Fri Oct 15 20:26:29 2021,The main experiment item,yes,Sternbergtask.osexp,C:/Users/rayra/Documents,no,mono,no,18,no,white,no,yes,768,legacy,51,11,C:/Users/rayra/Documents/subject-1.csv,legacy,1 4 9 3 2 5,Lentiform Loewenfeld,3.3.9,3,y,0,left,left,left,left,NA,873,38208,16490,873,NA,2,legacy,6,1024,2,48000,-16,experiment,1,odd,9,460466,461694,3549,134737,461697,463905,339008,3554,118246,465910,466784,462701,41763,465910,NA,Sternberg task,54,58660,64,yes,1024
84.61538462,84.61538462,909.8,909.8,black,experiment,legacy,legacy,legacy,0,uniform,1,undefined,1,left,64,64,0,0,64,64,64,0,0,64,64,64,0,64,0,Fri Oct 15 20:26:29 2021,The main experiment item,yes,Sternbergtask.osexp,C:/Users/rayra/Documents,no,mono,no,18,no,white,no,yes,768,legacy,52,11,C:/Users/rayra/Documents/subject-1.csv,legacy,8,Lentiform Loewenfeld,3.3.9,1,y,0,left,left,left,left,NA,477,38208,16490,477,NA,2,legacy,1,1024,2,48000,-16,experiment,1,odd,8,466806,468039,3549,134737,468042,470250,339008,3554,118246,472256,472735,469046,41763,472256,NA,Sternberg task,55,59137,65,yes,1024
84.84848485,84.84848485,909.6060606,909.6060606,black,experiment,legacy,legacy,legacy,0,uniform,1,undefined,1,right,65,65,0,0,65,65,65,0,0,65,65,65,0,65,0,Fri Oct 15 20:26:29 2021,The main experiment item,yes,Sternbergtask.osexp,C:/Users/rayra/Documents,no,mono,no,18,no,white,no,yes,768,legacy,53,11,C:/Users/rayra/Documents/subject-1.csv,legacy,1 7 5 2 9,Lentiform Loewenfeld,3.3.9,0,n,0,right,left,left,right,NA,897,38208,16490,897,NA,2,legacy,5,1024,2,48000,-16,experiment,1,odd,3,472745,474000,3549,134737,474002,476211,339008,3554,118246,478217,479116,475007,41763,478216,NA,Sternberg task,56,60034,66,yes,1024
85.07462687,85.07462687,906.9701493,906.9701493,black,experiment,legacy,legacy,legacy,0,uniform,1,undefined,1,left,66,66,0,0,66,66,66,0,0,66,66,66,0,66,0,Fri Oct 15 20:26:29 2021,The main experiment item,yes,Sternbergtask.osexp,C:/Users/rayra/Documents,no,mono,no,18,no,white,no,yes,768,legacy,54,11,C:/Users/rayra/Documents/subject-1.csv,legacy,8 7 3,Lentiform Loewenfeld,3.3.9,1,y,0,left,left,left,left,NA,733,38208,16490,733,NA,2,legacy,3,1024,2,48000,-16,experiment,1,odd,8,479123,480352,3549,134737,480354,482562,339008,3554,118246,484566,485302,481358,41763,484566,NA,Sternberg task,57,60767,67,yes,1024
85.29411765,85.29411765,905.0147059,905.0147059,black,experiment,legacy,legacy,legacy,0,uniform,1,undefined,1,left,67,67,0,0,67,67,67,0,0,67,67,67,0,67,0,Fri Oct 15 20:26:29 2021,The main experiment item,yes,Sternbergtask.osexp,C:/Users/rayra/Documents,no,mono,no,18,no,white,no,yes,768,legacy,55,11,C:/Users/rayra/Documents/subject-1.csv,legacy,4,Lentiform Loewenfeld,3.3.9,1,y,0,left,left,left,left,NA,774,38208,16490,774,NA,2,legacy,1,1024,2,48000,-16,experiment,1,odd,4,485310,486604,3549,134737,486608,488817,339008,3554,118246,490821,491596,487612,41763,490821,NA,Sternberg task,58,61541,68,yes,1024
85.50724638,85.50724638,900.1449275,900.1449275,black,experiment,legacy,legacy,legacy,0,uniform,1,undefined,1,right,68,68,0,0,68,68,68,0,0,68,68,68,0,68,0,Fri Oct 15 20:26:29 2021,The main experiment item,yes,Sternbergtask.osexp,C:/Users/rayra/Documents,no,mono,no,18,no,white,no,yes,768,legacy,56,11,C:/Users/rayra/Documents/subject-1.csv,legacy,5,Lentiform Loewenfeld,3.3.9,0,n,0,right,left,left,right,NA,569,38208,16490,569,NA,2,legacy,1,1024,2,48000,-16,experiment,1,odd,8,491603,492891,3549,134737,492894,495103,339008,3554,118246,497108,497679,493899,41763,497108,NA,Sternberg task,59,62110,69,yes,1024
85.71428571,85.71428571,904.1428571,904.1428571,black,experiment,legacy,legacy,legacy,0,uniform,1,undefined,1,right,69,69,0,0,69,69,69,0,0,69,69,69,0,69,0,Fri Oct 15 20:26:29 2021,The main experiment item,yes,Sternbergtask.osexp,C:/Users/rayra/Documents,no,mono,no,18,no,white,no,yes,768,legacy,57,11,C:/Users/rayra/Documents/subject-1.csv,legacy,8 5 4 2 9 6,Lentiform Loewenfeld,3.3.9,0,n,0,right,left,left,right,NA,1180,38208,16490,1180,NA,2,legacy,6,1024,2,48000,-16,experiment,1,odd,3,497688,498939,3549,134737,498942,501150,339008,3554,118246,503156,504338,499946,41763,503156,NA,Sternberg task,60,63290,70,yes,1024
85.91549296,85.91549296,902.6619718,902.6619718,black,experiment,legacy,legacy,legacy,0,uniform,1,undefined,1,right,70,70,0,0,70,70,70,0,0,70,70,70,0,70,0,Fri Oct 15 20:26:29 2021,The main experiment item,yes,Sternbergtask.osexp,C:/Users/rayra/Documents,no,mono,no,18,no,white,no,yes,768,legacy,58,11,C:/Users/rayra/Documents/subject-1.csv,legacy,2 6 4 3 9,Lentiform Loewenfeld,3.3.9,0,n,0,right,left,left,right,NA,799,38208,16490,799,NA,2,legacy,5,1024,2,48000,-16,experiment,1,odd,1,504345,505545,3549,134737,505547,507753,339008,3554,118246,509758,510559,506551,41763,509757,NA,Sternberg task,61,64089,71,yes,1024
86.11111111,86.11111111,898.4444444,898.4444444,black,experiment,legacy,legacy,legacy,0,uniform,1,undefined,1,left,71,71,0,0,71,71,71,0,0,71,71,71,0,71,0,Fri Oct 15 20:26:29 2021,The main experiment item,yes,Sternbergtask.osexp,C:/Users/rayra/Documents,no,mono,no,18,no,white,no,yes,768,legacy,59,11,C:/Users/rayra/Documents/subject-1.csv,legacy,3 5 9 6 2 4,Lentiform Loewenfeld,3.3.9,1,y,0,left,left,left,left,NA,599,38208,16490,599,NA,2,legacy,6,1024,2,48000,-16,experiment,1,odd,3,510567,511847,3549,134737,511849,514059,339008,3554,118246,516063,516663,512854,41763,516063,NA,Sternberg task,62,64688,72,yes,1024
86.30136986,86.30136986,897.6438356,897.6438356,black,experiment,legacy,legacy,legacy,0,uniform,1,undefined,1,right,72,72,0,0,72,72,72,0,0,72,72,72,0,72,0,Fri Oct 15 20:26:29 2021,The main experiment item,yes,Sternbergtask.osexp,C:/Users/rayra/Documents,no,mono,no,18,no,white,no,yes,768,legacy,60,11,C:/Users/rayra/Documents/subject-1.csv,legacy,7 1 8 4 9 3,Lentiform Loewenfeld,3.3.9,0,n,0,right,left,left,right,NA,840,38208,16490,840,NA,2,legacy,6,1024,2,48000,-16,experiment,1,odd,6,516673,517967,3549,134737,517971,520180,339008,3554,118246,522186,523028,518975,41763,522184,NA,Sternberg task,63,65528,73,yes,1024
85.13513514,85.13513514,899.0135135,899.0135135,black,experiment,legacy,legacy,legacy,0,uniform,0,undefined,0,left,73,73,0,0,73,73,73,0,0,73,73,73,0,73,0,Fri Oct 15 20:26:29 2021,The main experiment item,yes,Sternbergtask.osexp,C:/Users/rayra/Documents,no,mono,no,18,no,white,no,yes,768,legacy,61,11,C:/Users/rayra/Documents/subject-1.csv,legacy,9 5 8 1,Lentiform Loewenfeld,3.3.9,2,y,0,right,left,left,right,NA,999,38208,16490,999,NA,2,legacy,4,1024,2,48000,-16,experiment,1,odd,5,523051,524294,3549,134737,524296,526504,339008,3554,118246,528509,529509,525300,41763,528509,NA,Sternberg task,63,66527,74,yes,1024
85.33333333,85.33333333,900.4133333,900.4133333,black,experiment,legacy,legacy,legacy,0,uniform,1,undefined,1,left,74,74,0,0,74,74,74,0,0,74,74,74,0,74,0,Fri Oct 15 20:26:29 2021,The main experiment item,yes,Sternbergtask.osexp,C:/Users/rayra/Documents,no,mono,no,18,no,white,no,yes,768,legacy,62,11,C:/Users/rayra/Documents/subject-1.csv,legacy,3 9 6 2,Lentiform Loewenfeld,3.3.9,4,y,0,left,left,left,left,NA,1004,38208,16490,1004,NA,2,legacy,4,1024,2,48000,-16,experiment,1,odd,2,523051,530776,3549,134737,530779,532987,529515,3554,118246,534991,535997,531783,41763,534991,NA,Sternberg task,64,67531,75,yes,1024
85.52631579,85.52631579,902.1052632,902.1052632,black,experiment,legacy,legacy,legacy,0,uniform,1,undefined,1,right,75,75,0,0,75,75,75,0,0,75,75,75,0,75,0,Fri Oct 15 20:26:29 2021,The main experiment item,yes,Sternbergtask.osexp,C:/Users/rayra/Documents,no,mono,no,18,no,white,no,yes,768,legacy,63,11,C:/Users/rayra/Documents/subject-1.csv,legacy,2 8 7 9 5 3,Lentiform Loewenfeld,3.3.9,0,n,0,right,left,left,right,NA,1029,38208,16490,1029,NA,2,legacy,6,1024,2,48000,-16,experiment,1,odd,6,536004,537240,3549,134737,537242,539450,529515,3554,118246,541455,542486,538246,41763,541455,NA,Sternberg task,65,68560,76,yes,1024
85.71428571,85.71428571,901.7402597,901.7402597,black,experiment,legacy,legacy,legacy,0,uniform,1,undefined,1,right,76,76,0,0,76,76,76,0,0,76,76,76,0,76,0,Fri Oct 15 20:26:29 2021,The main experiment item,yes,Sternbergtask.osexp,C:/Users/rayra/Documents,no,mono,no,18,no,white,no,yes,768,legacy,64,11,C:/Users/rayra/Documents/subject-1.csv,legacy,2 8 9 4 1,Lentiform Loewenfeld,3.3.9,0,n,0,right,left,left,right,NA,874,38208,16490,874,NA,2,legacy,5,1024,2,48000,-16,experiment,1,odd,5,542492,543725,3549,134737,543728,545937,529515,3554,118246,547941,548817,544732,41763,547941,NA,Sternberg task,66,69434,77,yes,1024
85.8974359,85.8974359,899.9615385,899.9615385,black,experiment,legacy,legacy,legacy,0,uniform,1,undefined,1,left,77,77,0,0,77,77,77,0,0,77,77,77,0,77,0,Fri Oct 15 20:26:29 2021,The main experiment item,yes,Sternbergtask.osexp,C:/Users/rayra/Documents,no,mono,no,18,no,white,no,yes,768,legacy,65,11,C:/Users/rayra/Documents/subject-1.csv,legacy,8 1 6,Lentiform Loewenfeld,3.3.9,3,y,0,left,left,left,left,NA,763,38208,16490,763,NA,2,legacy,3,1024,2,48000,-16,experiment,1,odd,6,548823,550066,3549,134737,550069,552279,529515,3554,118246,554283,555048,551074,41763,554283,NA,Sternberg task,67,70197,78,yes,1024
86.07594937,86.07594937,898.6455696,898.6455696,black,experiment,legacy,legacy,legacy,0,uniform,1,undefined,1,right,78,78,0,0,78,78,78,0,0,78,78,78,0,78,0,Fri Oct 15 20:26:29 2021,The main experiment item,yes,Sternbergtask.osexp,C:/Users/rayra/Documents,no,mono,no,18,no,white,no,yes,768,legacy,66,11,C:/Users/rayra/Documents/subject-1.csv,legacy,8 6 3 4 7,Lentiform Loewenfeld,3.3.9,0,n,0,right,left,left,right,NA,796,38208,16490,796,NA,2,legacy,5,1024,2,48000,-16,experiment,1,odd,1,555057,556292,3549,134737,556294,558501,529515,3554,118246,560507,561305,557298,41763,560506,NA,Sternberg task,68,70993,79,yes,1024
86.25,86.25,901.2375,901.2375,black,experiment,legacy,legacy,legacy,0,uniform,1,undefined,1,right,79,79,0,0,79,79,79,0,0,79,79,79,0,79,0,Fri Oct 15 20:26:29 2021,The main experiment item,yes,Sternbergtask.osexp,C:/Users/rayra/Documents,no,mono,no,18,no,white,no,yes,768,legacy,67,11,C:/Users/rayra/Documents/subject-1.csv,legacy,1 7 8 3 9,Lentiform Loewenfeld,3.3.9,0,n,0,right,left,left,right,NA,1106,38208,16490,1106,NA,2,legacy,5,1024,2,48000,-16,experiment,1,odd,2,561313,562562,3549,134737,562564,564774,529515,3554,118246,566778,567886,563568,41763,566778,NA,Sternberg task,69,72099,80,yes,1024
86.41975309,86.41975309,898.6666667,898.6666667,black,experiment,legacy,legacy,legacy,0,uniform,1,undefined,1,right,80,80,0,0,80,80,80,0,0,80,80,80,0,80,0,Fri Oct 15 20:26:29 2021,The main experiment item,yes,Sternbergtask.osexp,C:/Users/rayra/Documents,no,mono,no,18,no,white,no,yes,768,legacy,68,11,C:/Users/rayra/Documents/subject-1.csv,legacy,7 9 1 6,Lentiform Loewenfeld,3.3.9,0,n,0,right,left,left,right,NA,693,38208,16490,693,NA,2,legacy,4,1024,2,48000,-16,experiment,1,odd,4,567893,569172,3549,134737,569174,571383,529515,3554,118246,573388,574083,570179,41763,573387,NA,Sternberg task,70,72792,81,yes,1024
86.58536585,86.58536585,895.6585366,895.6585366,black,experiment,legacy,legacy,legacy,0,uniform,1,undefined,1,right,81,81,0,0,81,81,81,0,0,81,81,81,0,81,0,Fri Oct 15 20:26:29 2021,The main experiment item,yes,Sternbergtask.osexp,C:/Users/rayra/Documents,no,mono,no,18,no,white,no,yes,768,legacy,69,11,C:/Users/rayra/Documents/subject-1.csv,legacy,4 1,Lentiform Loewenfeld,3.3.9,0,n,0,right,left,left,right,NA,652,38208,16490,652,NA,2,legacy,2,1024,2,48000,-16,experiment,1,odd,6,574091,575306,3549,134737,575308,577519,529515,3554,118246,579522,580176,576314,41763,579522,NA,Sternberg task,71,73444,82,yes,1024
86.74698795,86.74698795,897.6144578,897.6144578,black,experiment,legacy,legacy,legacy,0,uniform,1,undefined,1,left,82,82,0,0,82,82,82,0,0,82,82,82,0,82,0,Fri Oct 15 20:26:29 2021,The main experiment item,yes,Sternbergtask.osexp,C:/Users/rayra/Documents,no,mono,no,18,no,white,no,yes,768,legacy,70,11,C:/Users/rayra/Documents/subject-1.csv,legacy,5 7 3 6 2,Lentiform Loewenfeld,3.3.9,5,y,0,left,left,left,left,NA,1058,38208,16490,1058,NA,2,legacy,5,1024,2,48000,-16,experiment,1,odd,2,580183,581423,3549,134737,581425,583634,529515,3554,118246,585639,586698,582429,41763,585639,NA,Sternberg task,72,74502,83,yes,1024
85.71428571,85.71428571,897.6904762,897.6904762,black,experiment,legacy,legacy,legacy,0,uniform,0,undefined,0,left,83,83,0,0,83,83,83,0,0,83,83,83,0,83,0,Fri Oct 15 20:26:29 2021,The main experiment item,yes,Sternbergtask.osexp,C:/Users/rayra/Documents,no,mono,no,18,no,white,no,yes,768,legacy,71,11,C:/Users/rayra/Documents/subject-1.csv,legacy,6 9 7 4 5 1,Lentiform Loewenfeld,3.3.9,2,y,0,right,left,left,right,NA,904,38208,16490,904,NA,2,legacy,6,1024,2,48000,-16,experiment,1,odd,9,586705,587908,3549,134737,587910,590119,529515,3554,118246,592123,593028,588913,41763,592123,NA,Sternberg task,72,75406,84,yes,1024
85.88235294,85.88235294,899.4117647,899.4117647,black,experiment,legacy,legacy,legacy,0,uniform,1,undefined,1,right,84,84,0,0,84,84,84,0,0,84,84,84,0,84,0,Fri Oct 15 20:26:29 2021,The main experiment item,yes,Sternbergtask.osexp,C:/Users/rayra/Documents,no,mono,no,18,no,white,no,yes,768,legacy,72,11,C:/Users/rayra/Documents/subject-1.csv,legacy,1 4 9 2 5,Lentiform Loewenfeld,3.3.9,0,n,0,right,left,left,right,NA,1044,38208,16490,1044,NA,2,legacy,5,1024,2,48000,-16,experiment,1,odd,7,586705,594289,3549,134737,594292,596501,593051,3554,118246,598506,599551,595297,41763,598506,NA,Sternberg task,73,76450,85,yes,1024
86.04651163,86.04651163,895.7325581,895.7325581,black,experiment,legacy,legacy,legacy,0,uniform,1,undefined,1,left,85,85,0,0,85,85,85,0,0,85,85,85,0,85,0,Fri Oct 15 20:26:29 2021,The main experiment item,yes,Sternbergtask.osexp,C:/Users/rayra/Documents,no,mono,no,18,no,white,no,yes,768,legacy,73,11,C:/Users/rayra/Documents/subject-1.csv,legacy,7 4 2 6 3 5,Lentiform Loewenfeld,3.3.9,6,y,0,left,left,left,left,NA,583,38208,16490,583,NA,2,legacy,6,1024,2,48000,-16,experiment,1,odd,5,599558,600792,3549,134737,600795,603005,593051,3554,118246,605010,605596,601800,41763,605009,NA,Sternberg task,74,77033,86,yes,1024
86.20689655,86.20689655,896.0114943,896.0114943,black,experiment,legacy,legacy,legacy,0,uniform,1,undefined,1,right,86,86,0,0,86,86,86,0,0,86,86,86,0,86,0,Fri Oct 15 20:26:29 2021,The main experiment item,yes,Sternbergtask.osexp,C:/Users/rayra/Documents,no,mono,no,18,no,white,no,yes,768,legacy,74,11,C:/Users/rayra/Documents/subject-1.csv,legacy,2 8 6 3 1,Lentiform Loewenfeld,3.3.9,0,n,0,right,left,left,right,NA,920,38208,16490,920,NA,2,legacy,5,1024,2,48000,-16,experiment,1,odd,7,605606,606824,3549,134737,606827,609035,593051,3554,118246,611040,611962,607831,41763,611040,NA,Sternberg task,75,77953,87,yes,1024
86.36363636,86.36363636,894.7386364,894.7386364,black,experiment,legacy,legacy,legacy,0,uniform,1,undefined,1,left,87,87,0,0,87,87,87,0,0,87,87,87,0,87,0,Fri Oct 15 20:26:29 2021,The main experiment item,yes,Sternbergtask.osexp,C:/Users/rayra/Documents,no,mono,no,18,no,white,no,yes,768,legacy,75,11,C:/Users/rayra/Documents/subject-1.csv,legacy,8 5 1 3 9,Lentiform Loewenfeld,3.3.9,4,y,0,left,left,left,left,NA,784,38208,16490,784,NA,2,legacy,5,1024,2,48000,-16,experiment,1,odd,3,611968,613261,3549,134737,613265,615474,593051,3554,118246,617479,618265,614270,41763,617478,NA,Sternberg task,76,78737,88,yes,1024
86.51685393,86.51685393,892.4719101,892.4719101,black,experiment,legacy,legacy,legacy,0,uniform,1,undefined,1,right,88,88,0,0,88,88,88,0,0,88,88,88,0,88,0,Fri Oct 15 20:26:29 2021,The main experiment item,yes,Sternbergtask.osexp,C:/Users/rayra/Documents,no,mono,no,18,no,white,no,yes,768,legacy,76,11,C:/Users/rayra/Documents/subject-1.csv,legacy,7 1 5 6 3,Lentiform Loewenfeld,3.3.9,0,n,0,right,left,left,right,NA,693,38208,16490,693,NA,2,legacy,5,1024,2,48000,-16,experiment,1,odd,8,618273,619540,3549,134737,619543,621752,593051,3554,118246,623757,624452,620547,41763,623756,NA,Sternberg task,77,79430,89,yes,1024
86.66666667,86.66666667,890.4777778,890.4777778,black,experiment,legacy,legacy,legacy,0,uniform,1,undefined,1,right,89,89,0,0,89,89,89,0,0,89,89,89,0,89,0,Fri Oct 15 20:26:29 2021,The main experiment item,yes,Sternbergtask.osexp,C:/Users/rayra/Documents,no,mono,no,18,no,white,no,yes,768,legacy,77,11,C:/Users/rayra/Documents/subject-1.csv,legacy,1 5 3 2 8,Lentiform Loewenfeld,3.3.9,0,n,0,right,left,left,right,NA,713,38208,16490,713,NA,2,legacy,5,1024,2,48000,-16,experiment,1,odd,4,624460,625741,3549,134737,625743,627952,593051,3554,118246,629958,630672,626748,41763,629958,NA,Sternberg task,78,80143,90,yes,1024
86.81318681,86.81318681,888.1208791,888.1208791,black,experiment,legacy,legacy,legacy,0,uniform,1,undefined,1,right,90,90,0,0,90,90,90,0,0,90,90,90,0,90,0,Fri Oct 15 20:26:29 2021,The main experiment item,yes,Sternbergtask.osexp,C:/Users/rayra/Documents,no,mono,no,18,no,white,no,yes,768,legacy,78,11,C:/Users/rayra/Documents/subject-1.csv,legacy,1 6 4,Lentiform Loewenfeld,3.3.9,0,n,0,right,left,left,right,NA,676,38208,16490,676,NA,2,legacy,3,1024,2,48000,-16,experiment,1,odd,7,630680,631947,3549,134737,631950,634158,593051,3554,118246,636163,636841,632954,41763,636163,NA,Sternberg task,79,80819,91,yes,1024
86.95652174,86.95652174,885.8913043,885.8913043,black,experiment,legacy,legacy,legacy,0,uniform,1,undefined,1,right,91,91,0,0,91,91,91,0,0,91,91,91,0,91,0,Fri Oct 15 20:26:29 2021,The main experiment item,yes,Sternbergtask.osexp,C:/Users/rayra/Documents,no,mono,no,18,no,white,no,yes,768,legacy,79,11,C:/Users/rayra/Documents/subject-1.csv,legacy,9 8 2 7 4,Lentiform Loewenfeld,3.3.9,0,n,0,right,left,left,right,NA,683,38208,16490,683,NA,2,legacy,5,1024,2,48000,-16,experiment,1,odd,5,636848,638102,3549,134737,638105,640314,593051,3554,118246,642319,643005,639109,41763,642318,NA,Sternberg task,80,81502,92,yes,1024
87.09677419,87.09677419,885.7096774,885.7096774,black,experiment,legacy,legacy,legacy,0,uniform,1,undefined,1,left,92,92,0,0,92,92,92,0,0,92,92,92,0,92,0,Fri Oct 15 20:26:29 2021,The main experiment item,yes,Sternbergtask.osexp,C:/Users/rayra/Documents,no,mono,no,18,no,white,no,yes,768,legacy,80,11,C:/Users/rayra/Documents/subject-1.csv,legacy,8 9 5 7 1 6,Lentiform Loewenfeld,3.3.9,4,y,0,left,left,left,left,NA,869,38208,16490,869,NA,2,legacy,6,1024,2,48000,-16,experiment,1,odd,7,643030,644263,3549,134737,644266,646477,593051,3554,118246,648481,649351,645271,41763,648480,NA,Sternberg task,81,82371,93,yes,1024
87.23404255,87.23404255,887.7446809,887.7446809,black,experiment,legacy,legacy,legacy,0,uniform,1,undefined,1,left,93,93,0,0,93,93,93,0,0,93,93,93,0,93,0,Fri Oct 15 20:26:29 2021,The main experiment item,yes,Sternbergtask.osexp,C:/Users/rayra/Documents,no,mono,no,18,no,white,no,yes,768,legacy,81,11,C:/Users/rayra/Documents/subject-1.csv,legacy,4 7 6 8 2 3,Lentiform Loewenfeld,3.3.9,6,y,0,left,left,left,left,NA,1077,38208,16490,1077,NA,2,legacy,6,1024,2,48000,-16,experiment,1,odd,3,649357,650594,3549,134737,650597,652806,593051,3554,118246,654811,655890,651601,41763,654811,NA,Sternberg task,82,83448,94,yes,1024
87.36842105,87.36842105,886.5578947,886.5578947,black,experiment,legacy,legacy,legacy,0,uniform,1,undefined,1,right,94,94,0,0,94,94,94,0,0,94,94,94,0,94,0,Fri Oct 15 20:26:29 2021,The main experiment item,yes,Sternbergtask.osexp,C:/Users/rayra/Documents,no,mono,no,18,no,white,no,yes,768,legacy,82,11,C:/Users/rayra/Documents/subject-1.csv,legacy,2 8 9,Lentiform Loewenfeld,3.3.9,0,n,0,right,left,left,right,NA,775,38208,16490,775,NA,2,legacy,3,1024,2,48000,-16,experiment,1,odd,6,655896,657124,3549,134737,657127,659336,593051,3554,118246,661341,662118,658130,41763,661341,NA,Sternberg task,83,84223,95,yes,1024
86.45833333,86.45833333,886.03125,886.03125,black,experiment,legacy,legacy,legacy,0,uniform,0,undefined,0,left,95,95,0,0,95,95,95,0,0,95,95,95,0,95,0,Fri Oct 15 20:26:29 2021,The main experiment item,yes,Sternbergtask.osexp,C:/Users/rayra/Documents,no,mono,no,18,no,white,no,yes,768,legacy,83,11,C:/Users/rayra/Documents/subject-1.csv,legacy,4 9 7 8 5 3,Lentiform Loewenfeld,3.3.9,4,y,0,right,left,left,right,NA,836,38208,16490,836,NA,2,legacy,6,1024,2,48000,-16,experiment,1,odd,8,662124,663377,3549,134737,663380,665590,593051,3554,118246,667594,668432,664385,41763,667594,NA,Sternberg task,83,85059,96,yes,1024
86.59793814,86.59793814,883.3298969,883.3298969,black,experiment,legacy,legacy,legacy,0,uniform,1,undefined,1,right,96,96,0,0,96,96,96,0,0,96,96,96,0,96,0,Fri Oct 15 20:26:29 2021,The main experiment item,yes,Sternbergtask.osexp,C:/Users/rayra/Documents,no,mono,no,18,no,white,no,yes,768,legacy,84,11,C:/Users/rayra/Documents/subject-1.csv,legacy,8 9,Lentiform Loewenfeld,3.3.9,0,n,0,right,left,left,right,NA,624,38208,16490,624,NA,2,legacy,2,1024,2,48000,-16,experiment,1,odd,5,662124,669730,3549,134737,669733,671942,668439,3554,118246,673946,674572,670738,41763,673946,NA,Sternberg task,84,85683,97,yes,1024
86.73469388,86.73469388,880.7755102,880.7755102,black,experiment,legacy,legacy,legacy,0,uniform,1,undefined,1,right,97,97,0,0,97,97,97,0,0,97,97,97,0,97,0,Fri Oct 15 20:26:29 2021,The main experiment item,yes,Sternbergtask.osexp,C:/Users/rayra/Documents,no,mono,no,18,no,white,no,yes,768,legacy,85,11,C:/Users/rayra/Documents/subject-1.csv,legacy,1,Lentiform Loewenfeld,3.3.9,0,n,0,right,left,left,right,NA,633,38208,16490,633,NA,2,legacy,1,1024,2,48000,-16,experiment,1,odd,7,674582,675855,3549,134737,675858,678067,668439,3554,118246,680071,680706,676862,41763,680071,NA,Sternberg task,85,86316,98,yes,1024
86.86868687,86.86868687,878.8181818,878.8181818,black,experiment,legacy,legacy,legacy,0,uniform,1,undefined,1,right,98,98,0,0,98,98,98,0,0,98,98,98,0,98,0,Fri Oct 15 20:26:29 2021,The main experiment item,yes,Sternbergtask.osexp,C:/Users/rayra/Documents,no,mono,no,18,no,white,no,yes,768,legacy,86,11,C:/Users/rayra/Documents/subject-1.csv,legacy,8 5 7 3 6,Lentiform Loewenfeld,3.3.9,0,n,0,right,left,left,right,NA,687,38208,16490,687,NA,2,legacy,5,1024,2,48000,-16,experiment,1,odd,9,680713,681965,3549,134737,681968,684176,668439,3554,118246,686182,686871,682972,41763,686180,NA,Sternberg task,86,87003,99,yes,1024
87,87,878.47,878.47,black,experiment,legacy,legacy,legacy,0,uniform,1,undefined,1,left,99,99,0,0,99,99,99,0,0,99,99,99,0,99,0,Fri Oct 15 20:26:29 2021,The main experiment item,yes,Sternbergtask.osexp,C:/Users/rayra/Documents,no,mono,no,18,no,white,no,yes,768,legacy,87,11,C:/Users/rayra/Documents/subject-1.csv,legacy,8 9 5 6 7,Lentiform Loewenfeld,3.3.9,1,y,0,left,left,left,left,NA,844,38208,16490,844,NA,2,legacy,5,1024,2,48000,-16,experiment,1,odd,8,686878,688120,3549,134737,688122,690331,668439,3554,118246,692335,693181,689126,41763,692335,NA,Sternberg task,87,87847,100,yes,1024
87.12871287,87.12871287,876.6237624,876.6237624,black,experiment,legacy,legacy,legacy,0,uniform,1,undefined,1,right,100,100,0,0,100,100,100,0,0,100,100,100,0,100,0,Fri Oct 15 20:26:29 2021,The main experiment item,yes,Sternbergtask.osexp,C:/Users/rayra/Documents,no,mono,no,18,no,white,no,yes,768,legacy,88,11,C:/Users/rayra/Documents/subject-1.csv,legacy,7 6 4 8 1 2,Lentiform Loewenfeld,3.3.9,0,n,0,right,left,left,right,NA,692,38208,16490,692,NA,2,legacy,6,1024,2,48000,-16,experiment,1,odd,9,693189,694372,3549,134737,694374,696582,668439,3554,118246,698587,699280,695378,41763,698587,NA,Sternberg task,88,88539,101,yes,1024
87.25490196,87.25490196,872.4803922,872.4803922,black,experiment,legacy,legacy,legacy,0,uniform,1,undefined,1,left,101,101,0,0,101,101,101,0,0,101,101,101,0,101,0,Fri Oct 15 20:26:29 2021,The main experiment item,yes,Sternbergtask.osexp,C:/Users/rayra/Documents,no,mono,no,18,no,white,no,yes,768,legacy,89,11,C:/Users/rayra/Documents/subject-1.csv,legacy,7,Lentiform Loewenfeld,3.3.9,1,y,0,left,left,left,left,NA,454,38208,16490,454,NA,2,legacy,1,1024,2,48000,-16,experiment,1,odd,7,699287,700578,3549,134737,700581,702790,668439,3554,118246,704795,705252,701584,41763,704794,NA,Sternberg task,89,88993,102,yes,1024
87.37864078,87.37864078,872.5533981,872.5533981,black,experiment,legacy,legacy,legacy,0,uniform,1,undefined,1,left,102,102,0,0,102,102,102,0,0,102,102,102,0,102,0,Fri Oct 15 20:26:29 2021,The main experiment item,yes,Sternbergtask.osexp,C:/Users/rayra/Documents,no,mono,no,18,no,white,no,yes,768,legacy,90,11,C:/Users/rayra/Documents/subject-1.csv,legacy,4 1 8 7 5,Lentiform Loewenfeld,3.3.9,3,y,0,left,left,left,left,NA,880,38208,16490,880,NA,2,legacy,5,1024,2,48000,-16,experiment,1,odd,8,705260,706513,3549,134737,706515,708727,668439,3554,118246,710731,711613,707522,41763,710731,NA,Sternberg task,90,89873,103,yes,1024
87.5,87.5,870.5288462,870.5288462,black,experiment,legacy,legacy,legacy,0,uniform,1,undefined,1,right,103,103,0,0,103,103,103,0,0,103,103,103,0,103,0,Fri Oct 15 20:26:29 2021,The main experiment item,yes,Sternbergtask.osexp,C:/Users/rayra/Documents,no,mono,no,18,no,white,no,yes,768,legacy,91,11,C:/Users/rayra/Documents/subject-1.csv,legacy,5 2,Lentiform Loewenfeld,3.3.9,0,n,0,right,left,left,right,NA,662,38208,16490,662,NA,2,legacy,2,1024,2,48000,-16,experiment,1,odd,7,711636,712816,3549,134737,712818,715028,668439,3554,118246,717032,717698,713822,41763,717032,NA,Sternberg task,91,90535,104,yes,1024
87.61904762,87.61904762,868.3333333,868.3333333,black,experiment,legacy,legacy,legacy,0,uniform,1,undefined,1,left,104,104,0,0,104,104,104,0,0,104,104,104,0,104,0,Fri Oct 15 20:26:29 2021,The main experiment item,yes,Sternbergtask.osexp,C:/Users/rayra/Documents,no,mono,no,18,no,white,no,yes,768,legacy,92,11,C:/Users/rayra/Documents/subject-1.csv,legacy,8 3,Lentiform Loewenfeld,3.3.9,2,y,0,left,left,left,left,NA,640,38208,16490,640,NA,2,legacy,2,1024,2,48000,-16,experiment,1,odd,3,717706,718997,3549,134737,719000,721209,668439,3554,118246,723213,723856,720004,41763,723213,NA,Sternberg task,92,91175,105,yes,1024
86.79245283,86.79245283,868.6603774,868.6603774,black,experiment,legacy,legacy,legacy,0,uniform,0,undefined,0,left,105,105,0,0,105,105,105,0,0,105,105,105,0,105,0,Fri Oct 15 20:26:29 2021,The main experiment item,yes,Sternbergtask.osexp,C:/Users/rayra/Documents,no,mono,no,18,no,white,no,yes,768,legacy,93,11,C:/Users/rayra/Documents/subject-1.csv,legacy,8 5 4 7 3 1,Lentiform Loewenfeld,3.3.9,2,y,0,right,left,left,right,NA,903,38208,16490,903,NA,2,legacy,6,1024,2,48000,-16,experiment,1,odd,5,723863,725150,3549,134737,725153,727362,668439,3554,118246,729366,730270,726157,41763,729366,NA,Sternberg task,92,92078,106,yes,1024
86.91588785,86.91588785,869.682243,869.682243,black,experiment,legacy,legacy,legacy,0,uniform,1,undefined,1,left,106,106,0,0,106,106,106,0,0,106,106,106,0,106,0,Fri Oct 15 20:26:29 2021,The main experiment item,yes,Sternbergtask.osexp,C:/Users/rayra/Documents,no,mono,no,18,no,white,no,yes,768,legacy,94,11,C:/Users/rayra/Documents/subject-1.csv,legacy,2 3,Lentiform Loewenfeld,3.3.9,1,y,0,left,left,left,left,NA,978,38208,16490,978,NA,2,legacy,2,1024,2,48000,-16,experiment,1,odd,2,723863,731521,3549,134737,731523,733733,730277,3554,118246,735737,736716,732527,41763,735737,NA,Sternberg task,93,93056,107,yes,1024
87.03703704,87.03703704,867.6851852,867.6851852,black,experiment,legacy,legacy,legacy,0,uniform,1,undefined,1,right,107,107,0,0,107,107,107,0,0,107,107,107,0,107,0,Fri Oct 15 20:26:29 2021,The main experiment item,yes,Sternbergtask.osexp,C:/Users/rayra/Documents,no,mono,no,18,no,white,no,yes,768,legacy,95,11,C:/Users/rayra/Documents/subject-1.csv,legacy,7 9,Lentiform Loewenfeld,3.3.9,0,n,0,right,left,left,right,NA,654,38208,16490,654,NA,2,legacy,2,1024,2,48000,-16,experiment,1,odd,1,736737,737978,3549,134737,737980,740189,730277,3554,118246,742193,742849,738984,41763,742193,NA,Sternberg task,94,93710,108,yes,1024
87.1559633,87.1559633,864.9357798,864.9357798,black,experiment,legacy,legacy,legacy,0,uniform,1,undefined,1,right,108,108,0,0,108,108,108,0,0,108,108,108,0,108,0,Fri Oct 15 20:26:29 2021,The main experiment item,yes,Sternbergtask.osexp,C:/Users/rayra/Documents,no,mono,no,18,no,white,no,yes,768,legacy,96,11,C:/Users/rayra/Documents/subject-1.csv,legacy,9,Lentiform Loewenfeld,3.3.9,0,n,0,right,left,left,right,NA,568,38208,16490,568,NA,2,legacy,1,1024,2,48000,-16,experiment,1,odd,6,742873,744115,3549,134737,744117,746325,730277,3554,118246,748331,748901,745121,41763,748331,NA,Sternberg task,95,94278,109,yes,1024
87.27272727,87.27272727,865.3,865.3,black,experiment,legacy,legacy,legacy,0,uniform,1,undefined,1,right,109,109,0,0,109,109,109,0,0,109,109,109,0,109,0,Fri Oct 15 20:26:29 2021,The main experiment item,yes,Sternbergtask.osexp,C:/Users/rayra/Documents,no,mono,no,18,no,white,no,yes,768,legacy,97,11,C:/Users/rayra/Documents/subject-1.csv,legacy,7 3 2 8,Lentiform Loewenfeld,3.3.9,0,n,0,right,left,left,right,NA,905,38208,16490,905,NA,2,legacy,4,1024,2,48000,-16,experiment,1,odd,4,748909,750158,3549,134737,750160,752371,730277,3554,118246,754375,755283,751166,41763,754375,NA,Sternberg task,96,95183,110,yes,1024
86.48648649,86.48648649,868.3693694,868.3693694,black,experiment,legacy,legacy,legacy,0,uniform,0,undefined,0,left,110,110,0,0,110,110,110,0,0,110,110,110,0,110,0,Fri Oct 15 20:26:29 2021,The main experiment item,yes,Sternbergtask.osexp,C:/Users/rayra/Documents,no,mono,no,18,no,white,no,yes,768,legacy,98,11,C:/Users/rayra/Documents/subject-1.csv,legacy,2 4 8 5 1 3,Lentiform Loewenfeld,3.3.9,1,y,0,right,left,left,right,NA,1206,38208,16490,1206,NA,2,legacy,6,1024,2,48000,-16,experiment,1,odd,2,755290,756529,3549,134737,756532,758741,730277,3554,118246,760746,761954,757536,41763,760745,NA,Sternberg task,96,96389,111,yes,1024
86.60714286,86.60714286,866.9732143,866.9732143,black,experiment,legacy,legacy,legacy,0,uniform,1,undefined,1,left,111,111,0,0,111,111,111,0,0,111,111,111,0,111,0,Fri Oct 15 20:26:29 2021,The main experiment item,yes,Sternbergtask.osexp,C:/Users/rayra/Documents,no,mono,no,18,no,white,no,yes,768,legacy,99,11,C:/Users/rayra/Documents/subject-1.csv,legacy,7 2 3,Lentiform Loewenfeld,3.3.9,3,y,0,left,left,left,left,NA,712,38208,16490,712,NA,2,legacy,3,1024,2,48000,-16,experiment,1,odd,3,755290,763239,3549,134737,763241,765449,761977,3554,118246,767453,768168,764244,41763,767453,NA,Sternberg task,97,97101,112,yes,1024
86.72566372,86.72566372,865.9292035,865.9292035,black,experiment,legacy,legacy,legacy,0,uniform,1,undefined,1,right,112,112,0,0,112,112,112,0,0,112,112,112,0,112,0,Fri Oct 15 20:26:29 2021,The main experiment item,yes,Sternbergtask.osexp,C:/Users/rayra/Documents,no,mono,no,18,no,white,no,yes,768,legacy,100,11,C:/Users/rayra/Documents/subject-1.csv,legacy,1 3 2 6 9,Lentiform Loewenfeld,3.3.9,0,n,0,right,left,left,right,NA,749,38208,16490,749,NA,2,legacy,5,1024,2,48000,-16,experiment,1,odd,5,768191,769422,3549,134737,769424,771634,761977,3554,118246,773639,774390,770429,41763,773639,NA,Sternberg task,98,97850,113,yes,1024
86.84210526,86.84210526,865.4473684,865.4473684,black,experiment,legacy,legacy,legacy,0,uniform,1,undefined,1,left,113,113,0,0,113,113,113,0,0,113,113,113,0,113,0,Fri Oct 15 20:26:29 2021,The main experiment item,yes,Sternbergtask.osexp,C:/Users/rayra/Documents,no,mono,no,18,no,white,no,yes,768,legacy,101,11,C:/Users/rayra/Documents/subject-1.csv,legacy,9 8 4,Lentiform Loewenfeld,3.3.9,1,y,0,left,left,left,left,NA,811,38208,16490,811,NA,2,legacy,3,1024,2,48000,-16,experiment,1,odd,9,774398,775593,3549,134737,775595,777804,761977,3554,118246,779808,780621,776600,41763,779808,NA,Sternberg task,99,98661,114,yes,1024
86.95652174,86.95652174,865.1652174,865.1652174,black,experiment,legacy,legacy,legacy,0,uniform,1,undefined,1,left,114,114,0,0,114,114,114,0,0,114,114,114,0,114,0,Fri Oct 15 20:26:29 2021,The main experiment item,yes,Sternbergtask.osexp,C:/Users/rayra/Documents,no,mono,no,18,no,white,no,yes,768,legacy,102,11,C:/Users/rayra/Documents/subject-1.csv,legacy,3 4 9 6 2 9,Lentiform Loewenfeld,3.3.9,5,y,0,left,left,left,left,NA,833,38208,16490,833,NA,2,legacy,6,1024,2,48000,-16,experiment,1,odd,2,780628,781868,3549,134737,781870,784079,761977,3554,118246,786083,786918,782874,41763,786083,NA,Sternberg task,100,99494,115,yes,1024
86.20689655,86.20689655,864.0517241,864.0517241,black,experiment,legacy,legacy,legacy,0,uniform,0,undefined,0,left,115,115,0,0,115,115,115,0,0,115,115,115,0,115,0,Fri Oct 15 20:26:29 2021,The main experiment item,yes,Sternbergtask.osexp,C:/Users/rayra/Documents,no,mono,no,18,no,white,no,yes,768,legacy,103,11,C:/Users/rayra/Documents/subject-1.csv,legacy,2 6 1 7 4,Lentiform Loewenfeld,3.3.9,2,y,0,right,left,left,right,NA,736,38208,16490,736,NA,2,legacy,5,1024,2,48000,-16,experiment,1,odd,6,786941,788189,3549,134737,788191,790400,761977,3554,118246,792404,793143,789196,41763,792404,NA,Sternberg task,100,100230,116,yes,1024
86.32478632,86.32478632,863.974359,863.974359,black,experiment,legacy,legacy,legacy,0,uniform,1,undefined,1,left,116,116,0,0,116,116,116,0,0,116,116,116,0,116,0,Fri Oct 15 20:26:29 2021,The main experiment item,yes,Sternbergtask.osexp,C:/Users/rayra/Documents,no,mono,no,18,no,white,no,yes,768,legacy,104,11,C:/Users/rayra/Documents/subject-1.csv,legacy,4 3 2 5 8,Lentiform Loewenfeld,3.3.9,2,y,0,left,left,left,left,NA,855,38208,16490,855,NA,2,legacy,5,1024,2,48000,-16,experiment,1,odd,3,786941,794430,3549,134737,794432,796641,793168,3554,118246,798647,799503,795437,41763,798647,NA,Sternberg task,101,101085,117,yes,1024
86.44067797,86.44067797,862.7966102,862.7966102,black,experiment,legacy,legacy,legacy,0,uniform,1,undefined,1,left,117,117,0,0,117,117,117,0,0,117,117,117,0,117,0,Fri Oct 15 20:26:29 2021,The main experiment item,yes,Sternbergtask.osexp,C:/Users/rayra/Documents,no,mono,no,18,no,white,no,yes,768,legacy,105,11,C:/Users/rayra/Documents/subject-1.csv,legacy,7 8 6 3 1,Lentiform Loewenfeld,3.3.9,5,y,0,left,left,left,left,NA,725,38208,16490,725,NA,2,legacy,5,1024,2,48000,-16,experiment,1,odd,1,799511,800692,3549,134737,800694,802904,793168,3554,118246,804910,805638,801700,41763,804909,NA,Sternberg task,102,101810,118,yes,1024
86.55462185,86.55462185,861.2352941,861.2352941,black,experiment,legacy,legacy,legacy,0,uniform,1,undefined,1,right,118,118,0,0,118,118,118,0,0,118,118,118,0,118,0,Fri Oct 15 20:26:29 2021,The main experiment item,yes,Sternbergtask.osexp,C:/Users/rayra/Documents,no,mono,no,18,no,white,no,yes,768,legacy,106,11,C:/Users/rayra/Documents/subject-1.csv,legacy,6 3 1 7 9 8,Lentiform Loewenfeld,3.3.9,0,n,0,right,left,left,right,NA,677,38208,16490,677,NA,2,legacy,6,1024,2,48000,-16,experiment,1,odd,4,805647,806951,3549,134737,806955,809164,793168,3554,118246,811169,811849,807959,41763,811169,NA,Sternberg task,103,102487,119,yes,1024
86.66666667,86.66666667,858.6083333,858.6083333,black,experiment,legacy,legacy,legacy,0,uniform,1,undefined,1,left,119,119,0,0,119,119,119,0,0,119,119,119,0,119,0,Fri Oct 15 20:26:29 2021,The main experiment item,yes,Sternbergtask.osexp,C:/Users/rayra/Documents,no,mono,no,18,no,white,no,yes,768,legacy,107,11,C:/Users/rayra/Documents/subject-1.csv,legacy,4 1 5,Lentiform Loewenfeld,3.3.9,2,y,0,left,left,left,left,NA,546,38208,16490,546,NA,2,legacy,3,1024,2,48000,-16,experiment,1,odd,1,811866,813130,3549,134737,813133,815340,793168,3554,118246,817346,817894,814137,41763,817345,NA,Sternberg task,104,103033,120,yes,1024
86.7768595,86.7768595,858.5702479,858.5702479,black,experiment,legacy,legacy,legacy,0,uniform,1,undefined,1,left,120,120,0,0,120,120,120,0,0,120,120,120,0,120,0,Fri Oct 15 20:26:29 2021,The main experiment item,yes,Sternbergtask.osexp,C:/Users/rayra/Documents,no,mono,no,18,no,white,no,yes,768,legacy,108,11,C:/Users/rayra/Documents/subject-1.csv,legacy,8 9 6 1,Lentiform Loewenfeld,3.3.9,2,y,0,left,left,left,left,NA,854,38208,16490,854,NA,2,legacy,4,1024,2,48000,-16,experiment,1,odd,9,817916,819179,3549,134737,819181,821390,793168,3554,118246,823396,824252,820185,41763,823394,NA,Sternberg task,105,103887,121,yes,1024
86.8852459,86.8852459,858.7213115,858.7213115,black,experiment,legacy,legacy,legacy,0,uniform,1,undefined,1,right,121,121,0,0,121,121,121,0,0,121,121,121,0,121,0,Fri Oct 15 20:26:29 2021,The main experiment item,yes,Sternbergtask.osexp,C:/Users/rayra/Documents,no,mono,no,18,no,white,no,yes,768,legacy,109,11,C:/Users/rayra/Documents/subject-1.csv,legacy,8 4 3 5,Lentiform Loewenfeld,3.3.9,0,n,0,right,left,left,right,NA,877,38208,16490,877,NA,2,legacy,4,1024,2,48000,-16,experiment,1,odd,6,824259,825493,3549,134737,825496,827704,793168,3554,118246,829708,830587,826500,41763,829708,NA,Sternberg task,106,104764,122,yes,1024
86.99186992,86.99186992,856.2276423,856.2276423,black,experiment,legacy,legacy,legacy,0,uniform,1,undefined,1,left,122,122,0,0,122,122,122,0,0,122,122,122,0,122,0,Fri Oct 15 20:26:29 2021,The main experiment item,yes,Sternbergtask.osexp,C:/Users/rayra/Documents,no,mono,no,18,no,white,no,yes,768,legacy,110,11,C:/Users/rayra/Documents/subject-1.csv,legacy,3 4,Lentiform Loewenfeld,3.3.9,1,y,0,left,left,left,left,NA,552,38208,16490,552,NA,2,legacy,2,1024,2,48000,-16,experiment,1,odd,3,830596,831881,3549,134737,831885,834094,793168,3554,118246,836098,836652,832890,41763,836098,NA,Sternberg task,107,105316,123,yes,1024
87.09677419,87.09677419,855.5887097,855.5887097,black,experiment,legacy,legacy,legacy,0,uniform,1,undefined,1,right,123,123,0,0,123,123,123,0,0,123,123,123,0,123,0,Fri Oct 15 20:26:29 2021,The main experiment item,yes,Sternbergtask.osexp,C:/Users/rayra/Documents,no,mono,no,18,no,white,no,yes,768,legacy,111,11,C:/Users/rayra/Documents/subject-1.csv,legacy,5 3 2 6 9 8,Lentiform Loewenfeld,3.3.9,0,n,0,right,left,left,right,NA,777,38208,16490,777,NA,2,legacy,6,1024,2,48000,-16,experiment,1,odd,4,836661,837912,3549,134737,837914,840120,793168,3554,118246,842125,842905,838916,41763,842125,NA,Sternberg task,108,106093,124,yes,1024
87.2,87.2,854.688,854.688,black,experiment,legacy,legacy,legacy,0,uniform,1,undefined,1,right,124,124,0,0,124,124,124,0,0,124,124,124,0,124,0,Fri Oct 15 20:26:29 2021,The main experiment item,yes,Sternbergtask.osexp,C:/Users/rayra/Documents,no,mono,no,18,no,white,no,yes,768,legacy,112,11,C:/Users/rayra/Documents/subject-1.csv,legacy,6 9 4 5 2,Lentiform Loewenfeld,3.3.9,0,n,0,right,left,left,right,NA,743,38208,16490,743,NA,2,legacy,5,1024,2,48000,-16,experiment,1,odd,1,842913,844139,3549,134737,844141,846351,793168,3554,118246,848355,849101,845145,41763,848354,NA,Sternberg task,109,106836,125,yes,1024
87.3015873,87.3015873,855.1666667,855.1666667,black,experiment,legacy,legacy,legacy,0,uniform,1,undefined,1,right,125,125,0,0,125,125,125,0,0,125,125,125,0,125,0,Fri Oct 15 20:26:29 2021,The main experiment item,yes,Sternbergtask.osexp,C:/Users/rayra/Documents,no,mono,no,18,no,white,no,yes,768,legacy,113,11,C:/Users/rayra/Documents/subject-1.csv,legacy,8 2 1 4 5 9,Lentiform Loewenfeld,3.3.9,0,n,0,right,left,left,right,NA,915,38208,16490,915,NA,2,legacy,6,1024,2,48000,-16,experiment,1,odd,7,849108,850340,3549,134737,850342,852551,793168,3554,118246,854555,855471,851346,41763,854555,NA,Sternberg task,110,107751,126,yes,1024
86.61417323,86.61417323,856.2913386,856.2913386,black,experiment,legacy,legacy,legacy,0,uniform,0,undefined,0,right,126,126,0,0,126,126,126,0,0,126,126,126,0,126,0,Fri Oct 15 20:26:29 2021,The main experiment item,yes,Sternbergtask.osexp,C:/Users/rayra/Documents,no,mono,no,18,no,white,no,yes,768,legacy,114,11,C:/Users/rayra/Documents/subject-1.csv,legacy,1 6 4 3 9 7,Lentiform Loewenfeld,3.3.9,0,n,0,left,left,left,left,NA,998,38208,16490,998,NA,2,legacy,6,1024,2,48000,-16,experiment,1,odd,8,855479,856685,3549,134737,856688,858897,793168,3554,118246,860901,861901,857692,41763,860901,NA,Sternberg task,110,108749,127,yes,1024
86.71875,86.71875,855.34375,855.34375,black,experiment,legacy,legacy,legacy,0,uniform,1,undefined,1,right,127,127,0,0,127,127,127,0,0,127,127,127,0,127,0,Fri Oct 15 20:26:29 2021,The main experiment item,yes,Sternbergtask.osexp,C:/Users/rayra/Documents,no,mono,no,18,no,white,no,yes,768,legacy,115,11,C:/Users/rayra/Documents/subject-1.csv,legacy,7 4 2 8 1 9,Lentiform Loewenfeld,3.3.9,0,n,0,right,left,left,right,NA,735,38208,16490,735,NA,2,legacy,6,1024,2,48000,-16,experiment,1,odd,5,855479,863165,3549,134737,863169,865378,861908,3554,118246,867383,868119,864172,41763,867382,NA,Sternberg task,111,109484,128,yes,1024
86.82170543,86.82170543,855.1627907,855.1627907,black,experiment,legacy,legacy,legacy,0,uniform,1,undefined,1,right,128,128,0,0,128,128,128,0,0,128,128,128,0,128,0,Fri Oct 15 20:26:29 2021,The main experiment item,yes,Sternbergtask.osexp,C:/Users/rayra/Documents,no,mono,no,18,no,white,no,yes,768,legacy,116,11,C:/Users/rayra/Documents/subject-1.csv,legacy,6 8 4,Lentiform Loewenfeld,3.3.9,0,n,0,right,left,left,right,NA,832,38208,16490,832,NA,2,legacy,3,1024,2,48000,-16,experiment,1,odd,1,868125,869360,3549,134737,869362,871570,861908,3554,118246,873574,874409,870366,41763,873574,NA,Sternberg task,112,110316,129,yes,1024
86.92307692,86.92307692,854.2769231,854.2769231,black,experiment,legacy,legacy,legacy,0,uniform,1,undefined,1,right,129,129,0,0,129,129,129,0,0,129,129,129,0,129,0,Fri Oct 15 20:26:29 2021,The main experiment item,yes,Sternbergtask.osexp,C:/Users/rayra/Documents,no,mono,no,18,no,white,no,yes,768,legacy,117,11,C:/Users/rayra/Documents/subject-1.csv,legacy,4 8 1 2,Lentiform Loewenfeld,3.3.9,0,n,0,right,left,left,right,NA,740,38208,16490,740,NA,2,legacy,4,1024,2,48000,-16,experiment,1,odd,7,874432,875692,3549,134737,875695,877903,861908,3554,118246,879907,880650,876699,41763,879907,NA,Sternberg task,113,111056,130,yes,1024
87.02290076,87.02290076,853.778626,853.778626,black,experiment,legacy,legacy,legacy,0,uniform,1,undefined,1,left,130,130,0,0,130,130,130,0,0,130,130,130,0,130,0,Fri Oct 15 20:26:29 2021,The main experiment item,yes,Sternbergtask.osexp,C:/Users/rayra/Documents,no,mono,no,18,no,white,no,yes,768,legacy,118,11,C:/Users/rayra/Documents/subject-1.csv,legacy,2 5 4 8 7,Lentiform Loewenfeld,3.3.9,3,y,0,left,left,left,left,NA,789,38208,16490,789,NA,2,legacy,5,1024,2,48000,-16,experiment,1,odd,4,880656,881895,3549,134737,881897,884104,861908,3554,118246,886110,886902,882901,41763,886109,NA,Sternberg task,114,111845,131,yes,1024
87.12121212,87.12121212,853.8712121,853.8712121,black,experiment,legacy,legacy,legacy,0,uniform,1,undefined,1,right,131,131,0,0,131,131,131,0,0,131,131,131,0,131,0,Fri Oct 15 20:26:29 2021,The main experiment item,yes,Sternbergtask.osexp,C:/Users/rayra/Documents,no,mono,no,18,no,white,no,yes,768,legacy,119,11,C:/Users/rayra/Documents/subject-1.csv,legacy,3 4 2,Lentiform Loewenfeld,3.3.9,0,n,0,right,left,left,right,NA,866,38208,16490,866,NA,2,legacy,3,1024,2,48000,-16,experiment,1,odd,5,886910,888156,3549,134737,888158,890367,861908,3554,118246,892371,893239,889162,41763,892371,NA,Sternberg task,115,112711,132,yes,1024
87.21804511,87.21804511,850.8496241,850.8496241,black,experiment,legacy,legacy,legacy,0,uniform,1,undefined,1,left,132,132,0,0,132,132,132,0,0,132,132,132,0,132,0,Fri Oct 15 20:26:29 2021,The main experiment item,yes,Sternbergtask.osexp,C:/Users/rayra/Documents,no,mono,no,18,no,white,no,yes,768,legacy,120,11,C:/Users/rayra/Documents/subject-1.csv,legacy,6 5,Lentiform Loewenfeld,3.3.9,2,y,0,left,left,left,left,NA,452,38208,16490,452,NA,2,legacy,2,1024,2,48000,-16,experiment,1,odd,5,893246,894492,3549,134737,894494,896703,861908,3554,118246,898708,899164,895498,41763,898708,NA,Sternberg task,116,113163,133,yes,1024
87.31343284,87.31343284,851.1940299,851.1940299,black,experiment,legacy,legacy,legacy,0,uniform,1,undefined,1,left,133,133,0,0,133,133,133,0,0,133,133,133,0,133,0,Fri Oct 15 20:26:29 2021,The main experiment item,yes,Sternbergtask.osexp,C:/Users/rayra/Documents,no,mono,no,18,no,white,no,yes,768,legacy,121,11,C:/Users/rayra/Documents/subject-1.csv,legacy,6 8 9 3 4 9,Lentiform Loewenfeld,3.3.9,5,y,0,left,left,left,left,NA,897,38208,16490,897,NA,2,legacy,6,1024,2,48000,-16,experiment,1,odd,4,899173,900430,3549,134737,900433,902644,861908,3554,118246,904649,905548,901440,41763,904648,NA,Sternberg task,117,114060,134,yes,1024
87.40740741,87.40740741,851.9037037,851.9037037,black,experiment,legacy,legacy,legacy,0,uniform,1,undefined,1,right,134,134,0,0,134,134,134,0,0,134,134,134,0,134,0,Fri Oct 15 20:26:29 2021,The main experiment item,yes,Sternbergtask.osexp,C:/Users/rayra/Documents,no,mono,no,18,no,white,no,yes,768,legacy,122,11,C:/Users/rayra/Documents/subject-1.csv,legacy,1 8 7,Lentiform Loewenfeld,3.3.9,0,n,0,right,left,left,right,NA,947,38208,16490,947,NA,2,legacy,3,1024,2,48000,-16,experiment,1,odd,4,905556,906809,3549,134737,906811,909020,861908,3554,118246,911024,911973,907815,41763,911024,NA,Sternberg task,118,115007,135,yes,1024
87.5,87.5,852.6985294,852.6985294,black,experiment,legacy,legacy,legacy,0,uniform,1,undefined,1,right,135,135,0,0,135,135,135,0,0,135,135,135,0,135,0,Fri Oct 15 20:26:29 2021,The main experiment item,yes,Sternbergtask.osexp,C:/Users/rayra/Documents,no,mono,no,18,no,white,no,yes,768,legacy,123,11,C:/Users/rayra/Documents/subject-1.csv,legacy,6 7 5 9,Lentiform Loewenfeld,3.3.9,0,n,0,right,left,left,right,NA,960,38208,16490,960,NA,2,legacy,4,1024,2,48000,-16,experiment,1,odd,2,911981,913222,3549,134737,913223,915432,861908,3554,118246,917436,918398,914226,41763,917436,NA,Sternberg task,119,115967,136,yes,1024
87.59124088,87.59124088,852.3138686,852.3138686,black,experiment,legacy,legacy,legacy,0,uniform,1,undefined,1,right,136,136,0,0,136,136,136,0,0,136,136,136,0,136,0,Fri Oct 15 20:26:29 2021,The main experiment item,yes,Sternbergtask.osexp,C:/Users/rayra/Documents,no,mono,no,18,no,white,no,yes,768,legacy,124,11,C:/Users/rayra/Documents/subject-1.csv,legacy,1 4 3 6 5,Lentiform Loewenfeld,3.3.9,0,n,0,right,left,left,right,NA,800,38208,16490,800,NA,2,legacy,5,1024,2,48000,-16,experiment,1,odd,8,918406,919668,3549,134737,919671,921879,861908,3554,118246,923883,924686,920674,41763,923883,NA,Sternberg task,120,116767,137,yes,1024
87.68115942,87.68115942,851.2028986,851.2028986,black,experiment,legacy,legacy,legacy,0,uniform,1,undefined,1,left,137,137,0,0,137,137,137,0,0,137,137,137,0,137,0,Fri Oct 15 20:26:29 2021,The main experiment item,yes,Sternbergtask.osexp,C:/Users/rayra/Documents,no,mono,no,18,no,white,no,yes,768,legacy,125,11,C:/Users/rayra/Documents/subject-1.csv,legacy,7 1 8 5 6 2,Lentiform Loewenfeld,3.3.9,2,y,0,left,left,left,left,NA,699,38208,16490,699,NA,2,legacy,6,1024,2,48000,-16,experiment,1,odd,1,924709,925905,3549,134737,925907,928117,861908,3554,118246,930121,930821,926912,41763,930121,NA,Sternberg task,121,117466,138,yes,1024
