acc,accuracy,average_response_time,avg_rt,background,block,canvas_backend,clock_backend,color_backend,compensation,coordinates,correct,correct_instruction1,correct_new_keyboard_response,correct_response,count_ISI,count_correctFeedback,count_expSequence,count_experiment,count_experimentLoop,count_fixation,count_getting_started,count_incorrectFeeback,count_instruction1,count_instructions2,count_logger,count_memorySet,count_new_keyboard_response,count_practiceLoop,count_probe,count_thankYou,count_welcome,datetime,description,disable_garbage_collection,experiment_file,experiment_path,font_bold,font_family,font_italic,font_size,font_underline,foreground,form_clicks,fullscreen,height,keyboard_backend,live_row,live_row_practiceLoop,logfile,mouse_backend,numberSet,opensesame_codename,opensesame_version,posInSet,present,repeat_cycle,response,response_instruction1,response_instructions2,response_new_keyboard_response,response_thankYou,response_time,response_time_instruction1,response_time_instructions2,response_time_new_keyboard_response,response_time_thankYou,response_time_welcome,response_welcome,round_decimals,sampler_backend,setSize,sound_buf_size,sound_channels,sound_freq,sound_sample_size,start,subject_nr,subject_parity,target,time_ISI,time_correctFeedback,time_expSequence,time_experiment,time_experimentLoop,time_fixation,time_getting_started,time_incorrectFeeback,time_instruction1,time_instructions2,time_logger,time_memorySet,time_new_keyboard_response,time_practiceLoop,time_probe,time_thankYou,time_welcome,title,total_correct,total_response_time,total_responses,uniform_coordinates,width
0,0,869,869,black,practice,legacy,legacy,legacy,0,uniform,0,undefined,0,right,0,0,0,0,0,0,NA,0,0,0,0,0,0,0,0,0,NA,Fri Oct 25 19:23:32 2019,The main experiment item,yes,SternbergTask.osexp,/Users/juancastaneda/Documents/Grad School /Advanced Quantitative Methods & Experimental Design,no,mono,no,18,no,white,no,yes,768,legacy,0,0,/Users/juancastaneda/Documents/Grad School /Advanced Quantitative Methods & Experimental Design/Sterberg Task/JC-subject-3.csv,legacy,2 1,Kafkaesque Koffka,3.2.8,0,n,0,left,right,NA,left,NA,869,133417,NA,869,NA,NA,NA,2,legacy,2,1024,2,48000,-16,experiment,3,odd,5,139022,NA,136779,2776,NA,136792,NA,NA,2792,NA,141905,137806,141035,136330,141035,NA,NA,Sternberg Task,0,869,1,yes,1024
50,50,1390,1390,black,practice,legacy,legacy,legacy,0,uniform,1,undefined,1,left,1,1,1,0,0,1,NA,1,0,0,1,1,1,0,1,0,NA,Fri Oct 25 19:23:32 2019,The main experiment item,yes,SternbergTask.osexp,/Users/juancastaneda/Documents/Grad School /Advanced Quantitative Methods & Experimental Design,no,mono,no,18,no,white,no,yes,768,legacy,1,1,/Users/juancastaneda/Documents/Grad School /Advanced Quantitative Methods & Experimental Design/Sterberg Task/JC-subject-3.csv,legacy,4 8,Kafkaesque Koffka,3.2.8,1,y,0,left,right,NA,left,NA,1911,133417,NA,1911,NA,NA,NA,2,legacy,2,1024,2,48000,-16,experiment,3,odd,4,145301,NA,143058,2776,NA,143070,NA,141963,2792,NA,149227,144084,147315,136330,147314,NA,NA,Sternberg Task,1,2780,2,yes,1024
66.66666667,66.66666667,1246,1246,black,practice,legacy,legacy,legacy,0,uniform,1,undefined,1,right,2,2,2,0,0,2,NA,2,0,0,2,2,2,0,2,0,NA,Fri Oct 25 19:23:32 2019,The main experiment item,yes,SternbergTask.osexp,/Users/juancastaneda/Documents/Grad School /Advanced Quantitative Methods & Experimental Design,no,mono,no,18,no,white,no,yes,768,legacy,2,2,/Users/juancastaneda/Documents/Grad School /Advanced Quantitative Methods & Experimental Design/Sterberg Task/JC-subject-3.csv,legacy,5,Kafkaesque Koffka,3.2.8,0,n,0,right,right,NA,right,NA,958,133417,NA,958,NA,NA,NA,2,legacy,1,1024,2,48000,-16,experiment,3,odd,3,152581,149243,150330,2776,NA,150342,NA,141963,2792,NA,155553,151356,154594,136330,154594,NA,NA,Sternberg Task,2,3738,3,yes,1024
75,75,1250.75,1250.75,black,practice,legacy,legacy,legacy,0,uniform,1,undefined,1,right,3,3,3,0,0,3,NA,3,0,0,3,3,3,0,3,0,NA,Fri Oct 25 19:23:32 2019,The main experiment item,yes,SternbergTask.osexp,/Users/juancastaneda/Documents/Grad School /Advanced Quantitative Methods & Experimental Design,no,mono,no,18,no,white,no,yes,768,legacy,3,3,/Users/juancastaneda/Documents/Grad School /Advanced Quantitative Methods & Experimental Design/Sterberg Task/JC-subject-3.csv,legacy,5 7 8 4 1 2,Kafkaesque Koffka,3.2.8,0,n,0,right,right,NA,right,NA,1265,133417,NA,1265,NA,NA,NA,2,legacy,6,1024,2,48000,-16,experiment,3,odd,6,158901,155568,156657,2776,NA,156670,NA,141963,2792,NA,162181,157685,160914,136330,160914,NA,NA,Sternberg Task,3,5003,4,yes,1024
80,80,1117.8,1117.8,black,practice,legacy,legacy,legacy,0,uniform,1,undefined,1,right,4,4,4,0,0,4,NA,4,0,0,4,4,4,0,4,0,NA,Fri Oct 25 19:23:32 2019,The main experiment item,yes,SternbergTask.osexp,/Users/juancastaneda/Documents/Grad School /Advanced Quantitative Methods & Experimental Design,no,mono,no,18,no,white,no,yes,768,legacy,4,4,/Users/juancastaneda/Documents/Grad School /Advanced Quantitative Methods & Experimental Design/Sterberg Task/JC-subject-3.csv,legacy,4 1 5,Kafkaesque Koffka,3.2.8,0,n,0,right,right,NA,right,NA,586,133417,NA,586,NA,NA,NA,2,legacy,3,1024,2,48000,-16,experiment,3,odd,2,165526,162196,163283,2776,NA,163295,NA,141963,2792,NA,168127,164309,167539,136330,167539,NA,NA,Sternberg Task,4,5589,5,yes,1024
83.33333333,83.33333333,1066.666667,1066.666667,black,practice,legacy,legacy,legacy,0,uniform,1,undefined,1,left,5,5,5,0,0,5,NA,5,0,0,5,5,5,0,5,0,NA,Fri Oct 25 19:23:32 2019,The main experiment item,yes,SternbergTask.osexp,/Users/juancastaneda/Documents/Grad School /Advanced Quantitative Methods & Experimental Design,no,mono,no,18,no,white,no,yes,768,legacy,5,5,/Users/juancastaneda/Documents/Grad School /Advanced Quantitative Methods & Experimental Design/Sterberg Task/JC-subject-3.csv,legacy,1 5 2 9,Kafkaesque Koffka,3.2.8,2,y,0,left,right,NA,left,NA,811,133417,NA,811,NA,NA,NA,2,legacy,4,1024,2,48000,-16,experiment,3,odd,5,171473,168141,169230,2776,NA,169242,NA,141963,2792,NA,174298,170256,173486,136330,173486,NA,NA,Sternberg Task,5,6400,6,yes,1024
85.71428571,85.71428571,1181.714286,1181.714286,black,practice,legacy,legacy,legacy,0,uniform,1,undefined,1,left,6,6,6,0,0,6,NA,6,0,0,6,6,6,0,6,0,NA,Fri Oct 25 19:23:32 2019,The main experiment item,yes,SternbergTask.osexp,/Users/juancastaneda/Documents/Grad School /Advanced Quantitative Methods & Experimental Design,no,mono,no,18,no,white,no,yes,768,legacy,6,6,/Users/juancastaneda/Documents/Grad School /Advanced Quantitative Methods & Experimental Design/Sterberg Task/JC-subject-3.csv,legacy,4 3 1 7 9 8,Kafkaesque Koffka,3.2.8,1,y,0,left,right,NA,left,NA,1872,133417,NA,1872,NA,NA,NA,2,legacy,6,1024,2,48000,-16,experiment,3,odd,4,177646,174314,175401,2776,NA,175414,NA,141963,2792,NA,181534,176429,179661,136330,179661,NA,NA,Sternberg Task,6,8272,7,yes,1024
87.5,87.5,1141,1141,black,practice,legacy,legacy,legacy,0,uniform,1,undefined,1,right,7,7,7,0,0,7,NA,7,0,0,7,7,7,0,7,0,NA,Fri Oct 25 19:23:32 2019,The main experiment item,yes,SternbergTask.osexp,/Users/juancastaneda/Documents/Grad School /Advanced Quantitative Methods & Experimental Design,no,mono,no,18,no,white,no,yes,768,legacy,7,7,/Users/juancastaneda/Documents/Grad School /Advanced Quantitative Methods & Experimental Design/Sterberg Task/JC-subject-3.csv,legacy,9 6 7 4 5,Kafkaesque Koffka,3.2.8,0,n,0,right,right,NA,right,NA,856,133417,NA,856,NA,NA,NA,2,legacy,5,1024,2,48000,-16,experiment,3,odd,3,184882,181549,182636,2776,NA,182649,NA,141963,2792,NA,187753,183665,186896,136330,186896,NA,NA,Sternberg Task,7,9128,8,yes,1024
88.88888889,88.88888889,1166.666667,1166.666667,black,practice,legacy,legacy,legacy,0,uniform,1,undefined,1,left,8,8,8,0,0,8,NA,8,0,0,8,8,8,0,8,0,NA,Fri Oct 25 19:23:32 2019,The main experiment item,yes,SternbergTask.osexp,/Users/juancastaneda/Documents/Grad School /Advanced Quantitative Methods & Experimental Design,no,mono,no,18,no,white,no,yes,768,legacy,8,8,/Users/juancastaneda/Documents/Grad School /Advanced Quantitative Methods & Experimental Design/Sterberg Task/JC-subject-3.csv,legacy,1 7 9 8 5,Kafkaesque Koffka,3.2.8,4,y,0,left,right,NA,left,NA,1372,133417,NA,1372,NA,NA,NA,2,legacy,5,1024,2,48000,-16,experiment,3,odd,8,191100,187769,188856,2776,NA,188869,NA,141963,2792,NA,194486,189884,193113,136330,193113,NA,NA,Sternberg Task,8,10500,9,yes,1024
90,90,1118.3,1118.3,black,practice,legacy,legacy,legacy,0,uniform,1,undefined,1,left,9,9,9,0,0,9,NA,9,0,0,9,9,9,0,9,0,NA,Fri Oct 25 19:23:32 2019,The main experiment item,yes,SternbergTask.osexp,/Users/juancastaneda/Documents/Grad School /Advanced Quantitative Methods & Experimental Design,no,mono,no,18,no,white,no,yes,768,legacy,9,9,/Users/juancastaneda/Documents/Grad School /Advanced Quantitative Methods & Experimental Design/Sterberg Task/JC-subject-3.csv,legacy,6,Kafkaesque Koffka,3.2.8,1,y,0,left,right,NA,left,NA,683,133417,NA,683,NA,NA,NA,2,legacy,1,1024,2,48000,-16,experiment,3,odd,6,197843,194501,195599,2776,NA,195611,NA,141963,2792,NA,200540,196625,199856,136330,199856,NA,NA,Sternberg Task,9,11183,10,yes,1024
90.90909091,90.90909091,1091.545455,1091.545455,black,practice,legacy,legacy,legacy,0,uniform,1,undefined,1,left,10,10,10,0,0,10,NA,10,0,0,10,10,10,0,10,0,NA,Fri Oct 25 19:23:32 2019,The main experiment item,yes,SternbergTask.osexp,/Users/juancastaneda/Documents/Grad School /Advanced Quantitative Methods & Experimental Design,no,mono,no,18,no,white,no,yes,768,legacy,10,10,/Users/juancastaneda/Documents/Grad School /Advanced Quantitative Methods & Experimental Design/Sterberg Task/JC-subject-3.csv,legacy,2 9 4,Kafkaesque Koffka,3.2.8,3,y,0,left,right,NA,left,NA,824,133417,NA,824,NA,NA,NA,2,legacy,3,1024,2,48000,-16,experiment,3,odd,4,203887,200554,201642,2776,NA,201656,NA,141963,2792,NA,206725,202671,205900,136330,205900,NA,NA,Sternberg Task,10,12007,11,yes,1024
91.66666667,91.66666667,1065.75,1065.75,black,practice,legacy,legacy,legacy,0,uniform,1,undefined,1,right,11,11,11,0,0,11,NA,11,0,0,11,11,11,0,11,0,NA,Fri Oct 25 19:23:32 2019,The main experiment item,yes,SternbergTask.osexp,/Users/juancastaneda/Documents/Grad School /Advanced Quantitative Methods & Experimental Design,no,mono,no,18,no,white,no,yes,768,legacy,11,11,/Users/juancastaneda/Documents/Grad School /Advanced Quantitative Methods & Experimental Design/Sterberg Task/JC-subject-3.csv,legacy,3 1 9 4,Kafkaesque Koffka,3.2.8,0,n,0,right,right,NA,right,NA,782,133417,NA,782,NA,NA,NA,2,legacy,4,1024,2,48000,-16,experiment,3,odd,6,210071,206741,207828,2776,NA,207841,NA,141963,2792,NA,212868,208855,212085,136330,212085,NA,NA,Sternberg Task,11,12789,12,yes,1024
92.30769231,92.30769231,1027.076923,1027.076923,black,experiment,legacy,legacy,legacy,0,uniform,1,undefined,1,right,12,12,12,0,0,12,NA,12,0,0,12,12,12,0,12,0,NA,Fri Oct 25 19:23:32 2019,The main experiment item,yes,SternbergTask.osexp,/Users/juancastaneda/Documents/Grad School /Advanced Quantitative Methods & Experimental Design,no,mono,no,18,no,white,no,yes,768,legacy,0,11,/Users/juancastaneda/Documents/Grad School /Advanced Quantitative Methods & Experimental Design/Sterberg Task/JC-subject-3.csv,legacy,1 6 4 3 9 7,Kafkaesque Koffka,3.2.8,0,n,0,right,right,right,right,NA,563,133417,8914,563,NA,NA,NA,2,legacy,6,1024,2,48000,-16,experiment,3,odd,8,225176,212884,222932,2776,222837,222945,NA,141963,2792,213922,227753,223959,227189,136330,227189,NA,NA,Sternberg Task,12,13352,13,yes,1024
92.85714286,92.85714286,1030.428571,1030.428571,black,experiment,legacy,legacy,legacy,0,uniform,1,undefined,1,right,13,13,13,0,0,13,NA,13,0,0,13,13,13,0,13,0,NA,Fri Oct 25 19:23:32 2019,The main experiment item,yes,SternbergTask.osexp,/Users/juancastaneda/Documents/Grad School /Advanced Quantitative Methods & Experimental Design,no,mono,no,18,no,white,no,yes,768,legacy,1,11,/Users/juancastaneda/Documents/Grad School /Advanced Quantitative Methods & Experimental Design/Sterberg Task/JC-subject-3.csv,legacy,7 4 2 8 1 9,Kafkaesque Koffka,3.2.8,0,n,0,right,right,right,right,NA,1074,133417,8914,1074,NA,NA,NA,2,legacy,6,1024,2,48000,-16,experiment,3,odd,5,231101,227769,228857,2776,222837,228870,NA,141963,2792,213922,234191,229885,233116,136330,233116,NA,NA,Sternberg Task,13,14426,14,yes,1024
93.33333333,93.33333333,1004.666667,1004.666667,black,experiment,legacy,legacy,legacy,0,uniform,1,undefined,1,right,14,14,14,0,0,14,NA,14,0,0,14,14,14,0,14,0,NA,Fri Oct 25 19:23:32 2019,The main experiment item,yes,SternbergTask.osexp,/Users/juancastaneda/Documents/Grad School /Advanced Quantitative Methods & Experimental Design,no,mono,no,18,no,white,no,yes,768,legacy,2,11,/Users/juancastaneda/Documents/Grad School /Advanced Quantitative Methods & Experimental Design/Sterberg Task/JC-subject-3.csv,legacy,1 5 3 2 8,Kafkaesque Koffka,3.2.8,0,n,0,right,right,right,right,NA,644,133417,8914,644,NA,NA,NA,2,legacy,5,1024,2,48000,-16,experiment,3,odd,4,237539,234207,235295,2776,222837,235307,NA,141963,2792,213922,240198,236322,239553,136330,239553,NA,NA,Sternberg Task,14,15070,15,yes,1024
93.75,93.75,976.0625,976.0625,black,experiment,legacy,legacy,legacy,0,uniform,1,undefined,1,right,15,15,15,0,0,15,NA,15,0,0,15,15,15,0,15,0,NA,Fri Oct 25 19:23:32 2019,The main experiment item,yes,SternbergTask.osexp,/Users/juancastaneda/Documents/Grad School /Advanced Quantitative Methods & Experimental Design,no,mono,no,18,no,white,no,yes,768,legacy,3,11,/Users/juancastaneda/Documents/Grad School /Advanced Quantitative Methods & Experimental Design/Sterberg Task/JC-subject-3.csv,legacy,8 5 7 3 6,Kafkaesque Koffka,3.2.8,0,n,0,right,right,right,right,NA,547,133417,8914,547,NA,NA,NA,2,legacy,5,1024,2,48000,-16,experiment,3,odd,9,243545,240214,241301,2776,222837,241313,NA,141963,2792,213922,246108,242328,245559,136330,245559,NA,NA,Sternberg Task,15,15617,16,yes,1024
94.11764706,94.11764706,957.8235294,957.8235294,black,experiment,legacy,legacy,legacy,0,uniform,1,undefined,1,right,16,16,16,0,0,16,NA,16,0,0,16,16,16,0,16,0,NA,Fri Oct 25 19:23:32 2019,The main experiment item,yes,SternbergTask.osexp,/Users/juancastaneda/Documents/Grad School /Advanced Quantitative Methods & Experimental Design,no,mono,no,18,no,white,no,yes,768,legacy,4,11,/Users/juancastaneda/Documents/Grad School /Advanced Quantitative Methods & Experimental Design/Sterberg Task/JC-subject-3.csv,legacy,3 4 9 6 7 8,Kafkaesque Koffka,3.2.8,0,n,0,right,right,right,right,NA,666,133417,8914,666,NA,NA,NA,2,legacy,6,1024,2,48000,-16,experiment,3,odd,2,249456,246123,247210,2776,222837,247222,NA,141963,2792,213922,252136,248237,251469,136330,251469,NA,NA,Sternberg Task,16,16283,17,yes,1024
94.44444444,94.44444444,938.9444444,938.9444444,black,experiment,legacy,legacy,legacy,0,uniform,1,undefined,1,left,17,17,17,0,0,17,NA,17,0,0,17,17,17,0,17,0,NA,Fri Oct 25 19:23:32 2019,The main experiment item,yes,SternbergTask.osexp,/Users/juancastaneda/Documents/Grad School /Advanced Quantitative Methods & Experimental Design,no,mono,no,18,no,white,no,yes,768,legacy,5,11,/Users/juancastaneda/Documents/Grad School /Advanced Quantitative Methods & Experimental Design/Sterberg Task/JC-subject-3.csv,legacy,9 5 3 8 4,Kafkaesque Koffka,3.2.8,1,y,0,left,right,right,left,NA,618,133417,8914,618,NA,NA,NA,2,legacy,5,1024,2,48000,-16,experiment,3,odd,9,255482,252152,253239,2776,222837,253251,NA,141963,2792,213922,258114,254265,257495,136330,257495,NA,NA,Sternberg Task,17,16901,18,yes,1024
94.73684211,94.73684211,927.4736842,927.4736842,black,experiment,legacy,legacy,legacy,0,uniform,1,undefined,1,right,18,18,18,0,0,18,NA,18,0,0,18,18,18,0,18,0,NA,Fri Oct 25 19:23:32 2019,The main experiment item,yes,SternbergTask.osexp,/Users/juancastaneda/Documents/Grad School /Advanced Quantitative Methods & Experimental Design,no,mono,no,18,no,white,no,yes,768,legacy,6,11,/Users/juancastaneda/Documents/Grad School /Advanced Quantitative Methods & Experimental Design/Sterberg Task/JC-subject-3.csv,legacy,1,Kafkaesque Koffka,3.2.8,0,n,0,right,right,right,right,NA,721,133417,8914,721,NA,NA,NA,2,legacy,1,1024,2,48000,-16,experiment,3,odd,7,261461,258131,259217,2776,222837,259229,NA,141963,2792,213922,264196,260244,263474,136330,263474,NA,NA,Sternberg Task,18,17622,19,yes,1024
95,95,912.05,912.05,black,experiment,legacy,legacy,legacy,0,uniform,1,undefined,1,right,19,19,19,0,0,19,NA,19,0,0,19,19,19,0,19,0,NA,Fri Oct 25 19:23:32 2019,The main experiment item,yes,SternbergTask.osexp,/Users/juancastaneda/Documents/Grad School /Advanced Quantitative Methods & Experimental Design,no,mono,no,18,no,white,no,yes,768,legacy,7,11,/Users/juancastaneda/Documents/Grad School /Advanced Quantitative Methods & Experimental Design/Sterberg Task/JC-subject-3.csv,legacy,2 8 9,Kafkaesque Koffka,3.2.8,0,n,0,right,right,right,right,NA,619,133417,8914,619,NA,NA,NA,2,legacy,3,1024,2,48000,-16,experiment,3,odd,6,267545,264215,265301,2776,222837,265314,NA,141963,2792,213922,270180,266328,269559,136330,269558,NA,NA,Sternberg Task,19,18241,20,yes,1024
95.23809524,95.23809524,898.1428571,898.1428571,black,experiment,legacy,legacy,legacy,0,uniform,1,undefined,1,left,20,20,20,0,0,20,NA,20,0,0,20,20,20,0,20,0,NA,Fri Oct 25 19:23:32 2019,The main experiment item,yes,SternbergTask.osexp,/Users/juancastaneda/Documents/Grad School /Advanced Quantitative Methods & Experimental Design,no,mono,no,18,no,white,no,yes,768,legacy,8,11,/Users/juancastaneda/Documents/Grad School /Advanced Quantitative Methods & Experimental Design/Sterberg Task/JC-subject-3.csv,legacy,5 2 9 6 1 7,Kafkaesque Koffka,3.2.8,3,y,0,left,right,right,left,NA,620,133417,8914,620,NA,NA,NA,2,legacy,6,1024,2,48000,-16,experiment,3,odd,9,273527,270196,271283,2776,222837,271296,NA,141963,2792,213922,276162,272310,275540,136330,275540,NA,NA,Sternberg Task,20,18861,21,yes,1024
90.90909091,90.90909091,891.2727273,891.2727273,black,experiment,legacy,legacy,legacy,0,uniform,0,undefined,0,left,21,21,21,0,0,21,NA,21,0,0,21,21,21,0,21,0,NA,Fri Oct 25 19:23:32 2019,The main experiment item,yes,SternbergTask.osexp,/Users/juancastaneda/Documents/Grad School /Advanced Quantitative Methods & Experimental Design,no,mono,no,18,no,white,no,yes,768,legacy,9,11,/Users/juancastaneda/Documents/Grad School /Advanced Quantitative Methods & Experimental Design/Sterberg Task/JC-subject-3.csv,legacy,6 8 9 3 4 9,Kafkaesque Koffka,3.2.8,5,y,0,right,right,right,right,NA,747,133417,8914,747,NA,NA,NA,2,legacy,6,1024,2,48000,-16,experiment,3,odd,4,279507,276177,277264,2776,222837,277276,NA,141963,2792,213922,282269,278291,281521,136330,281520,NA,NA,Sternberg Task,20,19608,22,yes,1024
91.30434783,91.30434783,878.9130435,878.9130435,black,experiment,legacy,legacy,legacy,0,uniform,1,undefined,1,left,22,22,22,0,0,22,NA,22,0,0,22,22,22,0,22,0,NA,Fri Oct 25 19:23:32 2019,The main experiment item,yes,SternbergTask.osexp,/Users/juancastaneda/Documents/Grad School /Advanced Quantitative Methods & Experimental Design,no,mono,no,18,no,white,no,yes,768,legacy,10,11,/Users/juancastaneda/Documents/Grad School /Advanced Quantitative Methods & Experimental Design/Sterberg Task/JC-subject-3.csv,legacy,9 6 2 4 1,Kafkaesque Koffka,3.2.8,4,y,0,left,right,right,left,NA,607,133417,8914,607,NA,NA,NA,2,legacy,5,1024,2,48000,-16,experiment,3,odd,4,285615,276177,283371,2776,222837,283384,NA,282285,2792,213922,288236,284399,287628,136330,287628,NA,NA,Sternberg Task,21,20215,23,yes,1024
91.66666667,91.66666667,860.5416667,860.5416667,black,experiment,legacy,legacy,legacy,0,uniform,1,undefined,1,left,23,23,23,0,0,23,NA,23,0,0,23,23,23,0,23,0,NA,Fri Oct 25 19:23:32 2019,The main experiment item,yes,SternbergTask.osexp,/Users/juancastaneda/Documents/Grad School /Advanced Quantitative Methods & Experimental Design,no,mono,no,18,no,white,no,yes,768,legacy,11,11,/Users/juancastaneda/Documents/Grad School /Advanced Quantitative Methods & Experimental Design/Sterberg Task/JC-subject-3.csv,legacy,3 4,Kafkaesque Koffka,3.2.8,1,y,0,left,right,right,left,NA,438,133417,8914,438,NA,NA,NA,2,legacy,2,1024,2,48000,-16,experiment,3,odd,3,291579,288250,289335,2776,222837,289348,NA,282285,2792,213922,294031,290362,293592,136330,293592,NA,NA,Sternberg Task,22,20653,24,yes,1024
92,92,862.44,862.44,black,experiment,legacy,legacy,legacy,0,uniform,1,undefined,1,left,24,24,24,0,0,24,NA,24,0,0,24,24,24,0,24,0,NA,Fri Oct 25 19:23:32 2019,The main experiment item,yes,SternbergTask.osexp,/Users/juancastaneda/Documents/Grad School /Advanced Quantitative Methods & Experimental Design,no,mono,no,18,no,white,no,yes,768,legacy,12,11,/Users/juancastaneda/Documents/Grad School /Advanced Quantitative Methods & Experimental Design/Sterberg Task/JC-subject-3.csv,legacy,9 4 2,Kafkaesque Koffka,3.2.8,1,y,0,left,right,right,left,NA,908,133417,8914,908,NA,NA,NA,2,legacy,3,1024,2,48000,-16,experiment,3,odd,9,297376,294046,295132,2776,222837,295144,NA,282285,2792,213922,300307,296159,299397,136330,299397,NA,NA,Sternberg Task,23,21561,25,yes,1024
88.46153846,88.46153846,859.5,859.5,black,experiment,legacy,legacy,legacy,0,uniform,0,undefined,0,left,25,25,25,0,0,25,NA,25,0,0,25,25,25,0,25,0,NA,Fri Oct 25 19:23:32 2019,The main experiment item,yes,SternbergTask.osexp,/Users/juancastaneda/Documents/Grad School /Advanced Quantitative Methods & Experimental Design,no,mono,no,18,no,white,no,yes,768,legacy,13,11,/Users/juancastaneda/Documents/Grad School /Advanced Quantitative Methods & Experimental Design/Sterberg Task/JC-subject-3.csv,legacy,4 6 2 5 1,Kafkaesque Koffka,3.2.8,5,y,0,right,right,right,right,NA,786,133417,8914,786,NA,NA,NA,2,legacy,5,1024,2,48000,-16,experiment,3,odd,1,303652,300322,301408,2776,222837,301421,NA,282285,2792,213922,306454,302435,305667,136330,305667,NA,NA,Sternberg Task,23,22347,26,yes,1024
88.88888889,88.88888889,849.5185185,849.5185185,black,experiment,legacy,legacy,legacy,0,uniform,1,undefined,1,left,26,26,26,0,0,26,NA,26,0,0,26,26,26,0,26,0,NA,Fri Oct 25 19:23:32 2019,The main experiment item,yes,SternbergTask.osexp,/Users/juancastaneda/Documents/Grad School /Advanced Quantitative Methods & Experimental Design,no,mono,no,18,no,white,no,yes,768,legacy,14,11,/Users/juancastaneda/Documents/Grad School /Advanced Quantitative Methods & Experimental Design/Sterberg Task/JC-subject-3.csv,legacy,6 9 3 1,Kafkaesque Koffka,3.2.8,4,y,0,left,right,right,left,NA,590,133417,8914,590,NA,NA,NA,2,legacy,4,1024,2,48000,-16,experiment,3,odd,1,309803,300322,307558,2776,222837,307571,NA,306471,2792,213922,312408,308585,311817,136330,311816,NA,NA,Sternberg Task,24,22937,27,yes,1024
89.28571429,89.28571429,835.1785714,835.1785714,black,experiment,legacy,legacy,legacy,0,uniform,1,undefined,1,left,27,27,27,0,0,27,NA,27,0,0,27,27,27,0,27,0,NA,Fri Oct 25 19:23:32 2019,The main experiment item,yes,SternbergTask.osexp,/Users/juancastaneda/Documents/Grad School /Advanced Quantitative Methods & Experimental Design,no,mono,no,18,no,white,no,yes,768,legacy,15,11,/Users/juancastaneda/Documents/Grad School /Advanced Quantitative Methods & Experimental Design/Sterberg Task/JC-subject-3.csv,legacy,7 8 4 6 9 5,Kafkaesque Koffka,3.2.8,4,y,0,left,right,right,left,NA,448,133417,8914,448,NA,NA,NA,2,legacy,6,1024,2,48000,-16,experiment,3,odd,6,315757,312424,313512,2776,222837,313524,NA,306471,2792,213922,318219,314539,317770,136330,317770,NA,NA,Sternberg Task,25,23385,28,yes,1024
89.65517241,89.65517241,825.137931,825.137931,black,experiment,legacy,legacy,legacy,0,uniform,1,undefined,1,left,28,28,28,0,0,28,NA,28,0,0,28,28,28,0,28,0,NA,Fri Oct 25 19:23:32 2019,The main experiment item,yes,SternbergTask.osexp,/Users/juancastaneda/Documents/Grad School /Advanced Quantitative Methods & Experimental Design,no,mono,no,18,no,white,no,yes,768,legacy,16,11,/Users/juancastaneda/Documents/Grad School /Advanced Quantitative Methods & Experimental Design/Sterberg Task/JC-subject-3.csv,legacy,2 4 6 9,Kafkaesque Koffka,3.2.8,3,y,0,left,right,right,left,NA,544,133417,8914,544,NA,NA,NA,2,legacy,4,1024,2,48000,-16,experiment,3,odd,6,321566,318235,319322,2776,222837,319335,NA,306471,2792,213922,324125,320349,323579,136330,323579,NA,NA,Sternberg Task,26,23929,29,yes,1024
90,90,814,814,black,experiment,legacy,legacy,legacy,0,uniform,1,undefined,1,left,29,29,29,0,0,29,NA,29,0,0,29,29,29,0,29,0,NA,Fri Oct 25 19:23:32 2019,The main experiment item,yes,SternbergTask.osexp,/Users/juancastaneda/Documents/Grad School /Advanced Quantitative Methods & Experimental Design,no,mono,no,18,no,white,no,yes,768,legacy,17,11,/Users/juancastaneda/Documents/Grad School /Advanced Quantitative Methods & Experimental Design/Sterberg Task/JC-subject-3.csv,legacy,2 5 4 8 7,Kafkaesque Koffka,3.2.8,3,y,0,left,right,right,left,NA,491,133417,8914,491,NA,NA,NA,2,legacy,5,1024,2,48000,-16,experiment,3,odd,4,327470,324140,325226,2776,222837,325238,NA,306471,2792,213922,329976,326253,329483,136330,329483,NA,NA,Sternberg Task,27,24420,30,yes,1024
90.32258065,90.32258065,810.1290323,810.1290323,black,experiment,legacy,legacy,legacy,0,uniform,1,undefined,1,left,30,30,30,0,0,30,NA,30,0,0,30,30,30,0,30,0,NA,Fri Oct 25 19:23:32 2019,The main experiment item,yes,SternbergTask.osexp,/Users/juancastaneda/Documents/Grad School /Advanced Quantitative Methods & Experimental Design,no,mono,no,18,no,white,no,yes,768,legacy,18,11,/Users/juancastaneda/Documents/Grad School /Advanced Quantitative Methods & Experimental Design/Sterberg Task/JC-subject-3.csv,legacy,9 3 1 2 5,Kafkaesque Koffka,3.2.8,4,y,0,left,right,right,left,NA,694,133417,8914,694,NA,NA,NA,2,legacy,5,1024,2,48000,-16,experiment,3,odd,2,333324,329992,331078,2776,222837,331090,NA,306471,2792,213922,336032,332105,335337,136330,335337,NA,NA,Sternberg Task,28,25114,31,yes,1024
90.625,90.625,805.625,805.625,black,experiment,legacy,legacy,legacy,0,uniform,1,undefined,1,right,31,31,31,0,0,31,NA,31,0,0,31,31,31,0,31,0,NA,Fri Oct 25 19:23:32 2019,The main experiment item,yes,SternbergTask.osexp,/Users/juancastaneda/Documents/Grad School /Advanced Quantitative Methods & Experimental Design,no,mono,no,18,no,white,no,yes,768,legacy,19,11,/Users/juancastaneda/Documents/Grad School /Advanced Quantitative Methods & Experimental Design/Sterberg Task/JC-subject-3.csv,legacy,1 4 3 6 5,Kafkaesque Koffka,3.2.8,0,n,0,right,right,right,right,NA,666,133417,8914,666,NA,NA,NA,2,legacy,5,1024,2,48000,-16,experiment,3,odd,8,339376,336047,337133,2776,222837,337145,NA,306471,2792,213922,342058,338160,341390,136330,341390,NA,NA,Sternberg Task,29,25780,32,yes,1024
90.90909091,90.90909091,795.3333333,795.3333333,black,experiment,legacy,legacy,legacy,0,uniform,1,undefined,1,right,32,32,32,0,0,32,NA,32,0,0,32,32,32,0,32,0,NA,Fri Oct 25 19:23:32 2019,The main experiment item,yes,SternbergTask.osexp,/Users/juancastaneda/Documents/Grad School /Advanced Quantitative Methods & Experimental Design,no,mono,no,18,no,white,no,yes,768,legacy,20,11,/Users/juancastaneda/Documents/Grad School /Advanced Quantitative Methods & Experimental Design/Sterberg Task/JC-subject-3.csv,legacy,8 9,Kafkaesque Koffka,3.2.8,0,n,0,right,right,right,right,NA,466,133417,8914,466,NA,NA,NA,2,legacy,2,1024,2,48000,-16,experiment,3,odd,5,345401,342074,343159,2776,222837,343171,NA,306471,2792,213922,347881,344185,347414,136330,347414,NA,NA,Sternberg Task,30,26246,33,yes,1024
91.17647059,91.17647059,804.1176471,804.1176471,black,experiment,legacy,legacy,legacy,0,uniform,1,undefined,1,right,33,33,33,0,0,33,NA,33,0,0,33,33,33,0,33,0,NA,Fri Oct 25 19:23:32 2019,The main experiment item,yes,SternbergTask.osexp,/Users/juancastaneda/Documents/Grad School /Advanced Quantitative Methods & Experimental Design,no,mono,no,18,no,white,no,yes,768,legacy,21,11,/Users/juancastaneda/Documents/Grad School /Advanced Quantitative Methods & Experimental Design/Sterberg Task/JC-subject-3.csv,legacy,9,Kafkaesque Koffka,3.2.8,0,n,0,right,right,right,right,NA,1094,133417,8914,1094,NA,NA,NA,2,legacy,1,1024,2,48000,-16,experiment,3,odd,6,351223,347897,348981,2776,222837,348994,NA,306471,2792,213922,354331,350007,353236,136330,353236,NA,NA,Sternberg Task,31,27340,34,yes,1024
91.42857143,91.42857143,799.1142857,799.1142857,black,experiment,legacy,legacy,legacy,0,uniform,1,undefined,1,right,34,34,34,0,0,34,NA,34,0,0,34,34,34,0,34,0,NA,Fri Oct 25 19:23:32 2019,The main experiment item,yes,SternbergTask.osexp,/Users/juancastaneda/Documents/Grad School /Advanced Quantitative Methods & Experimental Design,no,mono,no,18,no,white,no,yes,768,legacy,22,11,/Users/juancastaneda/Documents/Grad School /Advanced Quantitative Methods & Experimental Design/Sterberg Task/JC-subject-3.csv,legacy,6 3 1 7 9 8,Kafkaesque Koffka,3.2.8,0,n,0,right,right,right,right,NA,629,133417,8914,629,NA,NA,NA,2,legacy,6,1024,2,48000,-16,experiment,3,odd,4,357678,354347,355433,2776,222837,355446,NA,306471,2792,213922,360322,356460,359692,136330,359691,NA,NA,Sternberg Task,32,27969,35,yes,1024
91.66666667,91.66666667,794.8888889,794.8888889,black,experiment,legacy,legacy,legacy,0,uniform,1,undefined,1,right,35,35,35,0,0,35,NA,35,0,0,35,35,35,0,35,0,NA,Fri Oct 25 19:23:32 2019,The main experiment item,yes,SternbergTask.osexp,/Users/juancastaneda/Documents/Grad School /Advanced Quantitative Methods & Experimental Design,no,mono,no,18,no,white,no,yes,768,legacy,23,11,/Users/juancastaneda/Documents/Grad School /Advanced Quantitative Methods & Experimental Design/Sterberg Task/JC-subject-3.csv,legacy,8 2 1 4 5 9,Kafkaesque Koffka,3.2.8,0,n,0,right,right,right,right,NA,647,133417,8914,647,NA,NA,NA,2,legacy,6,1024,2,48000,-16,experiment,3,odd,7,363671,360339,361427,2776,222837,361439,NA,306471,2792,213922,366334,362453,365685,136330,365684,NA,NA,Sternberg Task,33,28616,36,yes,1024
91.89189189,91.89189189,787.6216216,787.6216216,black,experiment,legacy,legacy,legacy,0,uniform,1,undefined,1,right,36,36,36,0,0,36,NA,36,0,0,36,36,36,0,36,0,NA,Fri Oct 25 19:23:32 2019,The main experiment item,yes,SternbergTask.osexp,/Users/juancastaneda/Documents/Grad School /Advanced Quantitative Methods & Experimental Design,no,mono,no,18,no,white,no,yes,768,legacy,24,11,/Users/juancastaneda/Documents/Grad School /Advanced Quantitative Methods & Experimental Design/Sterberg Task/JC-subject-3.csv,legacy,7 9,Kafkaesque Koffka,3.2.8,0,n,0,right,right,right,right,NA,526,133417,8914,526,NA,NA,NA,2,legacy,2,1024,2,48000,-16,experiment,3,odd,1,369679,366350,367434,2776,222837,367447,NA,306471,2792,213922,372221,368462,371693,136330,371693,NA,NA,Sternberg Task,34,29142,37,yes,1024
89.47368421,89.47368421,780.3947368,780.3947368,black,experiment,legacy,legacy,legacy,0,uniform,0,undefined,0,left,37,37,37,0,0,37,NA,37,0,0,37,37,37,0,37,0,NA,Fri Oct 25 19:23:32 2019,The main experiment item,yes,SternbergTask.osexp,/Users/juancastaneda/Documents/Grad School /Advanced Quantitative Methods & Experimental Design,no,mono,no,18,no,white,no,yes,768,legacy,25,11,/Users/juancastaneda/Documents/Grad School /Advanced Quantitative Methods & Experimental Design/Sterberg Task/JC-subject-3.csv,legacy,7 4 2 6 3 5,Kafkaesque Koffka,3.2.8,6,y,0,right,right,right,right,NA,513,133417,8914,513,NA,NA,NA,2,legacy,6,1024,2,48000,-16,experiment,3,odd,5,375565,372236,373322,2776,222837,373335,NA,306471,2792,213922,378094,374349,377579,136330,377578,NA,NA,Sternberg Task,34,29655,38,yes,1024
87.17948718,87.17948718,772.3846154,772.3846154,black,experiment,legacy,legacy,legacy,0,uniform,0,undefined,0,left,38,38,38,0,0,38,NA,38,0,0,38,38,38,0,38,0,NA,Fri Oct 25 19:23:32 2019,The main experiment item,yes,SternbergTask.osexp,/Users/juancastaneda/Documents/Grad School /Advanced Quantitative Methods & Experimental Design,no,mono,no,18,no,white,no,yes,768,legacy,26,11,/Users/juancastaneda/Documents/Grad School /Advanced Quantitative Methods & Experimental Design/Sterberg Task/JC-subject-3.csv,legacy,7 6,Kafkaesque Koffka,3.2.8,2,y,0,right,right,right,right,NA,468,133417,8914,468,NA,NA,NA,2,legacy,2,1024,2,48000,-16,experiment,3,odd,6,381436,372236,379193,2776,222837,379205,NA,378108,2792,213922,383918,380220,383449,136330,383449,NA,NA,Sternberg Task,34,30123,39,yes,1024
87.5,87.5,773.925,773.925,black,experiment,legacy,legacy,legacy,0,uniform,1,undefined,1,left,39,39,39,0,0,39,NA,39,0,0,39,39,39,0,39,0,NA,Fri Oct 25 19:23:32 2019,The main experiment item,yes,SternbergTask.osexp,/Users/juancastaneda/Documents/Grad School /Advanced Quantitative Methods & Experimental Design,no,mono,no,18,no,white,no,yes,768,legacy,27,11,/Users/juancastaneda/Documents/Grad School /Advanced Quantitative Methods & Experimental Design/Sterberg Task/JC-subject-3.csv,legacy,2 4 8 5 1 3,Kafkaesque Koffka,3.2.8,1,y,0,left,right,right,left,NA,834,133417,8914,834,NA,NA,NA,2,legacy,6,1024,2,48000,-16,experiment,3,odd,2,387262,372236,385019,2776,222837,385031,NA,383934,2792,213922,390110,386045,389275,136330,389275,NA,NA,Sternberg Task,35,30957,40,yes,1024
87.80487805,87.80487805,766.5609756,766.5609756,black,experiment,legacy,legacy,legacy,0,uniform,1,undefined,1,left,40,40,40,0,0,40,NA,40,0,0,40,40,40,0,40,0,NA,Fri Oct 25 19:23:32 2019,The main experiment item,yes,SternbergTask.osexp,/Users/juancastaneda/Documents/Grad School /Advanced Quantitative Methods & Experimental Design,no,mono,no,18,no,white,no,yes,768,legacy,28,11,/Users/juancastaneda/Documents/Grad School /Advanced Quantitative Methods & Experimental Design/Sterberg Task/JC-subject-3.csv,legacy,2 3 7 4,Kafkaesque Koffka,3.2.8,1,y,0,left,right,right,left,NA,472,133417,8914,472,NA,NA,NA,2,legacy,4,1024,2,48000,-16,experiment,3,odd,2,393451,390126,391207,2776,222837,391219,NA,383934,2792,213922,395938,392234,395464,136330,395464,NA,NA,Sternberg Task,36,31429,41,yes,1024
88.0952381,88.0952381,761.8095238,761.8095238,black,experiment,legacy,legacy,legacy,0,uniform,1,undefined,1,right,41,41,41,0,0,41,NA,41,0,0,41,41,41,0,41,0,NA,Fri Oct 25 19:23:32 2019,The main experiment item,yes,SternbergTask.osexp,/Users/juancastaneda/Documents/Grad School /Advanced Quantitative Methods & Experimental Design,no,mono,no,18,no,white,no,yes,768,legacy,29,11,/Users/juancastaneda/Documents/Grad School /Advanced Quantitative Methods & Experimental Design/Sterberg Task/JC-subject-3.csv,legacy,8 5 4 2 9 6,Kafkaesque Koffka,3.2.8,0,n,0,right,right,right,right,NA,567,133417,8914,567,NA,NA,NA,2,legacy,6,1024,2,48000,-16,experiment,3,odd,3,399279,395953,397035,2776,222837,397047,NA,383934,2792,213922,401862,398062,401293,136330,401292,NA,NA,Sternberg Task,37,31996,42,yes,1024
88.37209302,88.37209302,755.9534884,755.9534884,black,experiment,legacy,legacy,legacy,0,uniform,1,undefined,1,right,42,42,42,0,0,42,NA,42,0,0,42,42,42,0,42,0,NA,Fri Oct 25 19:23:32 2019,The main experiment item,yes,SternbergTask.osexp,/Users/juancastaneda/Documents/Grad School /Advanced Quantitative Methods & Experimental Design,no,mono,no,18,no,white,no,yes,768,legacy,30,11,/Users/juancastaneda/Documents/Grad School /Advanced Quantitative Methods & Experimental Design/Sterberg Task/JC-subject-3.csv,legacy,4 1,Kafkaesque Koffka,3.2.8,0,n,0,right,right,right,right,NA,510,133417,8914,510,NA,NA,NA,2,legacy,2,1024,2,48000,-16,experiment,3,odd,6,405202,401878,402959,2776,222837,402971,NA,383934,2792,213922,407727,403986,407215,136330,407215,NA,NA,Sternberg Task,38,32506,43,yes,1024
86.36363636,86.36363636,764.9772727,764.9772727,black,experiment,legacy,legacy,legacy,0,uniform,0,undefined,0,left,43,43,43,0,0,43,NA,43,0,0,43,43,43,0,43,0,NA,Fri Oct 25 19:23:32 2019,The main experiment item,yes,SternbergTask.osexp,/Users/juancastaneda/Documents/Grad School /Advanced Quantitative Methods & Experimental Design,no,mono,no,18,no,white,no,yes,768,legacy,31,11,/Users/juancastaneda/Documents/Grad School /Advanced Quantitative Methods & Experimental Design/Sterberg Task/JC-subject-3.csv,legacy,3 9 7 6 4,Kafkaesque Koffka,3.2.8,3,y,0,right,right,right,right,NA,1153,133417,8914,1153,NA,NA,NA,2,legacy,5,1024,2,48000,-16,experiment,3,odd,7,411067,407741,408823,2776,222837,408836,NA,383934,2792,213922,414235,409850,413081,136330,413080,NA,NA,Sternberg Task,38,33659,44,yes,1024
86.66666667,86.66666667,760.9111111,760.9111111,black,experiment,legacy,legacy,legacy,0,uniform,1,undefined,1,right,44,44,44,0,0,44,NA,44,0,0,44,44,44,0,44,0,NA,Fri Oct 25 19:23:32 2019,The main experiment item,yes,SternbergTask.osexp,/Users/juancastaneda/Documents/Grad School /Advanced Quantitative Methods & Experimental Design,no,mono,no,18,no,white,no,yes,768,legacy,32,11,/Users/juancastaneda/Documents/Grad School /Advanced Quantitative Methods & Experimental Design/Sterberg Task/JC-subject-3.csv,legacy,4 8 1 2,Kafkaesque Koffka,3.2.8,0,n,0,right,right,right,right,NA,582,133417,8914,582,NA,NA,NA,2,legacy,4,1024,2,48000,-16,experiment,3,odd,7,417575,407741,415331,2776,222837,415344,NA,414251,2792,213922,420173,416358,419589,136330,419589,NA,NA,Sternberg Task,39,34241,45,yes,1024
86.95652174,86.95652174,755.7391304,755.7391304,black,experiment,legacy,legacy,legacy,0,uniform,1,undefined,1,right,45,45,45,0,0,45,NA,45,0,0,45,45,45,0,45,0,NA,Fri Oct 25 19:23:32 2019,The main experiment item,yes,SternbergTask.osexp,/Users/juancastaneda/Documents/Grad School /Advanced Quantitative Methods & Experimental Design,no,mono,no,18,no,white,no,yes,768,legacy,33,11,/Users/juancastaneda/Documents/Grad School /Advanced Quantitative Methods & Experimental Design/Sterberg Task/JC-subject-3.csv,legacy,2 8 6 3 1,Kafkaesque Koffka,3.2.8,0,n,0,right,right,right,right,NA,523,133417,8914,523,NA,NA,NA,2,legacy,5,1024,2,48000,-16,experiment,3,odd,7,423514,420189,421270,2776,222837,421282,NA,414251,2792,213922,426051,422296,425527,136330,425527,NA,NA,Sternberg Task,40,34764,46,yes,1024
87.23404255,87.23404255,753.3404255,753.3404255,black,experiment,legacy,legacy,legacy,0,uniform,1,undefined,1,left,46,46,46,0,0,46,NA,46,0,0,46,46,46,0,46,0,NA,Fri Oct 25 19:23:32 2019,The main experiment item,yes,SternbergTask.osexp,/Users/juancastaneda/Documents/Grad School /Advanced Quantitative Methods & Experimental Design,no,mono,no,18,no,white,no,yes,768,legacy,34,11,/Users/juancastaneda/Documents/Grad School /Advanced Quantitative Methods & Experimental Design/Sterberg Task/JC-subject-3.csv,legacy,6 9 7 4 5 1,Kafkaesque Koffka,3.2.8,2,y,0,left,right,right,left,NA,643,133417,8914,643,NA,NA,NA,2,legacy,6,1024,2,48000,-16,experiment,3,odd,9,429393,426067,427149,2776,222837,427161,NA,414251,2792,213922,432051,428176,431406,136330,431406,NA,NA,Sternberg Task,41,35407,47,yes,1024
87.5,87.5,751.2708333,751.2708333,black,experiment,legacy,legacy,legacy,0,uniform,1,undefined,1,right,47,47,47,0,0,47,NA,47,0,0,47,47,47,0,47,0,NA,Fri Oct 25 19:23:32 2019,The main experiment item,yes,SternbergTask.osexp,/Users/juancastaneda/Documents/Grad School /Advanced Quantitative Methods & Experimental Design,no,mono,no,18,no,white,no,yes,768,legacy,35,11,/Users/juancastaneda/Documents/Grad School /Advanced Quantitative Methods & Experimental Design/Sterberg Task/JC-subject-3.csv,legacy,1 4 9 3,Kafkaesque Koffka,3.2.8,0,n,0,right,right,right,right,NA,654,133417,8914,654,NA,NA,NA,2,legacy,4,1024,2,48000,-16,experiment,3,odd,5,435392,432067,433148,2776,222837,433161,NA,414251,2792,213922,438060,434175,437405,136330,437405,NA,NA,Sternberg Task,42,36061,48,yes,1024
87.75510204,87.75510204,747.0816327,747.0816327,black,experiment,legacy,legacy,legacy,0,uniform,1,undefined,1,left,48,48,48,0,0,48,NA,48,0,0,48,48,48,0,48,0,NA,Fri Oct 25 19:23:32 2019,The main experiment item,yes,SternbergTask.osexp,/Users/juancastaneda/Documents/Grad School /Advanced Quantitative Methods & Experimental Design,no,mono,no,18,no,white,no,yes,768,legacy,36,11,/Users/juancastaneda/Documents/Grad School /Advanced Quantitative Methods & Experimental Design/Sterberg Task/JC-subject-3.csv,legacy,6 1 2,Kafkaesque Koffka,3.2.8,3,y,0,left,right,right,left,NA,546,133417,8914,546,NA,NA,NA,2,legacy,3,1024,2,48000,-16,experiment,3,odd,2,441400,438075,439156,2776,222837,439168,NA,414251,2792,213922,443961,440183,443413,136330,443413,NA,NA,Sternberg Task,43,36607,49,yes,1024
88,88,746.48,746.48,black,experiment,legacy,legacy,legacy,0,uniform,1,undefined,1,right,49,49,49,0,0,49,NA,49,0,0,49,49,49,0,49,0,NA,Fri Oct 25 19:23:32 2019,The main experiment item,yes,SternbergTask.osexp,/Users/juancastaneda/Documents/Grad School /Advanced Quantitative Methods & Experimental Design,no,mono,no,18,no,white,no,yes,768,legacy,37,11,/Users/juancastaneda/Documents/Grad School /Advanced Quantitative Methods & Experimental Design/Sterberg Task/JC-subject-3.csv,legacy,7 6 4 8 1 2,Kafkaesque Koffka,3.2.8,0,n,0,right,right,right,right,NA,717,133417,8914,717,NA,NA,NA,2,legacy,6,1024,2,48000,-16,experiment,3,odd,9,447300,443976,445057,2776,222837,445069,NA,414251,2792,213922,450032,446083,449313,136330,449313,NA,NA,Sternberg Task,44,37324,50,yes,1024
86.2745098,86.2745098,741.1960784,741.1960784,black,experiment,legacy,legacy,legacy,0,uniform,0,undefined,0,left,50,50,50,0,0,50,NA,50,0,0,50,50,50,0,50,0,NA,Fri Oct 25 19:23:32 2019,The main experiment item,yes,SternbergTask.osexp,/Users/juancastaneda/Documents/Grad School /Advanced Quantitative Methods & Experimental Design,no,mono,no,18,no,white,no,yes,768,legacy,38,11,/Users/juancastaneda/Documents/Grad School /Advanced Quantitative Methods & Experimental Design/Sterberg Task/JC-subject-3.csv,legacy,8 1 6,Kafkaesque Koffka,3.2.8,3,y,0,right,right,right,right,NA,477,133417,8914,477,NA,NA,NA,2,legacy,3,1024,2,48000,-16,experiment,3,odd,6,453375,450051,451131,2776,222837,451144,NA,414251,2792,213922,455867,452158,455388,136330,455388,NA,NA,Sternberg Task,44,37801,51,yes,1024
86.53846154,86.53846154,736.8653846,736.8653846,black,experiment,legacy,legacy,legacy,0,uniform,1,undefined,1,right,51,51,51,0,0,51,NA,51,0,0,51,51,51,0,51,0,NA,Fri Oct 25 19:23:32 2019,The main experiment item,yes,SternbergTask.osexp,/Users/juancastaneda/Documents/Grad School /Advanced Quantitative Methods & Experimental Design,no,mono,no,18,no,white,no,yes,768,legacy,39,11,/Users/juancastaneda/Documents/Grad School /Advanced Quantitative Methods & Experimental Design/Sterberg Task/JC-subject-3.csv,legacy,9 8 2 7 4,Kafkaesque Koffka,3.2.8,0,n,0,right,right,right,right,NA,516,133417,8914,516,NA,NA,NA,2,legacy,5,1024,2,48000,-16,experiment,3,odd,5,459208,450051,456965,2776,222837,456977,NA,455883,2792,213922,461739,457992,461221,136330,461221,NA,NA,Sternberg Task,45,38317,52,yes,1024
86.79245283,86.79245283,731.8679245,731.8679245,black,experiment,legacy,legacy,legacy,0,uniform,1,undefined,1,left,52,52,52,0,0,52,NA,52,0,0,52,52,52,0,52,0,NA,Fri Oct 25 19:23:32 2019,The main experiment item,yes,SternbergTask.osexp,/Users/juancastaneda/Documents/Grad School /Advanced Quantitative Methods & Experimental Design,no,mono,no,18,no,white,no,yes,768,legacy,40,11,/Users/juancastaneda/Documents/Grad School /Advanced Quantitative Methods & Experimental Design/Sterberg Task/JC-subject-3.csv,legacy,3 5 7 1,Kafkaesque Koffka,3.2.8,3,y,0,left,right,right,left,NA,472,133417,8914,472,NA,NA,NA,2,legacy,4,1024,2,48000,-16,experiment,3,odd,7,465081,461755,462837,2776,222837,462850,NA,455883,2792,213922,467568,463865,467094,136330,467094,NA,NA,Sternberg Task,46,38789,53,yes,1024
87.03703704,87.03703704,730.8518519,730.8518519,black,experiment,legacy,legacy,legacy,0,uniform,1,undefined,1,right,53,53,53,0,0,53,NA,53,0,0,53,53,53,0,53,0,NA,Fri Oct 25 19:23:32 2019,The main experiment item,yes,SternbergTask.osexp,/Users/juancastaneda/Documents/Grad School /Advanced Quantitative Methods & Experimental Design,no,mono,no,18,no,white,no,yes,768,legacy,41,11,/Users/juancastaneda/Documents/Grad School /Advanced Quantitative Methods & Experimental Design/Sterberg Task/JC-subject-3.csv,legacy,6 9 7 3 8 2,Kafkaesque Koffka,3.2.8,0,n,0,right,right,right,right,NA,677,133417,8914,677,NA,NA,NA,2,legacy,6,1024,2,48000,-16,experiment,3,odd,5,470908,467582,468665,2776,222837,468677,NA,455883,2792,213922,473601,469692,472922,136330,472921,NA,NA,Sternberg Task,47,39466,54,yes,1024
87.27272727,87.27272727,727.8727273,727.8727273,black,experiment,legacy,legacy,legacy,0,uniform,1,undefined,1,right,54,54,54,0,0,54,NA,54,0,0,54,54,54,0,54,0,NA,Fri Oct 25 19:23:32 2019,The main experiment item,yes,SternbergTask.osexp,/Users/juancastaneda/Documents/Grad School /Advanced Quantitative Methods & Experimental Design,no,mono,no,18,no,white,no,yes,768,legacy,42,11,/Users/juancastaneda/Documents/Grad School /Advanced Quantitative Methods & Experimental Design/Sterberg Task/JC-subject-3.csv,legacy,2 3 8 5 6 7,Kafkaesque Koffka,3.2.8,0,n,0,right,right,right,right,NA,567,133417,8914,567,NA,NA,NA,2,legacy,6,1024,2,48000,-16,experiment,3,odd,1,476943,473616,474700,2776,222837,474712,NA,455883,2792,213922,479525,475727,478957,136330,478956,NA,NA,Sternberg Task,48,40033,55,yes,1024
85.71428571,85.71428571,730.4642857,730.4642857,black,experiment,legacy,legacy,legacy,0,uniform,0,undefined,0,right,55,55,55,0,0,55,NA,55,0,0,55,55,55,0,55,0,NA,Fri Oct 25 19:23:32 2019,The main experiment item,yes,SternbergTask.osexp,/Users/juancastaneda/Documents/Grad School /Advanced Quantitative Methods & Experimental Design,no,mono,no,18,no,white,no,yes,768,legacy,43,11,/Users/juancastaneda/Documents/Grad School /Advanced Quantitative Methods & Experimental Design/Sterberg Task/JC-subject-3.csv,legacy,3 9 8 1 6 4,Kafkaesque Koffka,3.2.8,0,n,0,left,right,right,left,NA,873,133417,8914,873,NA,NA,NA,2,legacy,6,1024,2,48000,-16,experiment,3,odd,7,482872,479541,480627,2776,222837,480640,NA,455883,2792,213922,485761,481656,484886,136330,484885,NA,NA,Sternberg Task,48,40906,56,yes,1024
84.21052632,84.21052632,725.0701754,725.0701754,black,experiment,legacy,legacy,legacy,0,uniform,0,undefined,0,left,56,56,56,0,0,56,NA,56,0,0,56,56,56,0,56,0,NA,Fri Oct 25 19:23:32 2019,The main experiment item,yes,SternbergTask.osexp,/Users/juancastaneda/Documents/Grad School /Advanced Quantitative Methods & Experimental Design,no,mono,no,18,no,white,no,yes,768,legacy,44,11,/Users/juancastaneda/Documents/Grad School /Advanced Quantitative Methods & Experimental Design/Sterberg Task/JC-subject-3.csv,legacy,7 1 8 5 6 2,Kafkaesque Koffka,3.2.8,2,y,0,right,right,right,right,NA,423,133417,8914,423,NA,NA,NA,2,legacy,6,1024,2,48000,-16,experiment,3,odd,1,489107,479541,486863,2776,222837,486876,NA,485777,2792,213922,491544,487890,491120,136330,491120,NA,NA,Sternberg Task,48,41329,57,yes,1024
84.48275862,84.48275862,724,724,black,experiment,legacy,legacy,legacy,0,uniform,1,undefined,1,left,57,57,57,0,0,57,NA,57,0,0,57,57,57,0,57,0,NA,Fri Oct 25 19:23:32 2019,The main experiment item,yes,SternbergTask.osexp,/Users/juancastaneda/Documents/Grad School /Advanced Quantitative Methods & Experimental Design,no,mono,no,18,no,white,no,yes,768,legacy,45,11,/Users/juancastaneda/Documents/Grad School /Advanced Quantitative Methods & Experimental Design/Sterberg Task/JC-subject-3.csv,legacy,9 3 8 2 1 4,Kafkaesque Koffka,3.2.8,3,y,0,left,right,right,left,NA,663,133417,8914,663,NA,NA,NA,2,legacy,6,1024,2,48000,-16,experiment,3,odd,8,494939,479541,492697,2776,222837,492711,NA,491560,2792,213922,497618,493726,496953,136330,496953,NA,NA,Sternberg Task,49,41992,58,yes,1024
83.05084746,83.05084746,720.3728814,720.3728814,black,experiment,legacy,legacy,legacy,0,uniform,0,undefined,0,right,58,58,58,0,0,58,NA,58,0,0,58,58,58,0,58,0,NA,Fri Oct 25 19:23:32 2019,The main experiment item,yes,SternbergTask.osexp,/Users/juancastaneda/Documents/Grad School /Advanced Quantitative Methods & Experimental Design,no,mono,no,18,no,white,no,yes,768,legacy,46,11,/Users/juancastaneda/Documents/Grad School /Advanced Quantitative Methods & Experimental Design/Sterberg Task/JC-subject-3.csv,legacy,7 1 8 4 9 3,Kafkaesque Koffka,3.2.8,0,n,0,left,right,right,left,NA,510,133417,8914,510,NA,NA,NA,2,legacy,6,1024,2,48000,-16,experiment,3,odd,6,500963,497634,498719,2776,222837,498732,NA,491560,2792,213922,503487,499747,502976,136330,502976,NA,NA,Sternberg Task,49,42502,59,yes,1024
83.33333333,83.33333333,718.5333333,718.5333333,black,experiment,legacy,legacy,legacy,0,uniform,1,undefined,1,left,59,59,59,0,0,59,NA,59,0,0,59,59,59,0,59,0,NA,Fri Oct 25 19:23:32 2019,The main experiment item,yes,SternbergTask.osexp,/Users/juancastaneda/Documents/Grad School /Advanced Quantitative Methods & Experimental Design,no,mono,no,18,no,white,no,yes,768,legacy,47,11,/Users/juancastaneda/Documents/Grad School /Advanced Quantitative Methods & Experimental Design/Sterberg Task/JC-subject-3.csv,legacy,8 5 3 7 4 6,Kafkaesque Koffka,3.2.8,6,y,0,left,right,right,left,NA,610,133417,8914,610,NA,NA,NA,2,legacy,6,1024,2,48000,-16,experiment,3,odd,6,506832,497634,504589,2776,222837,504601,NA,503503,2792,213922,509458,505615,508846,136330,508846,NA,NA,Sternberg Task,50,43112,60,yes,1024
83.60655738,83.60655738,716.9672131,716.9672131,black,experiment,legacy,legacy,legacy,0,uniform,1,undefined,1,right,60,60,60,0,0,60,NA,60,0,0,60,60,60,0,60,0,NA,Fri Oct 25 19:23:32 2019,The main experiment item,yes,SternbergTask.osexp,/Users/juancastaneda/Documents/Grad School /Advanced Quantitative Methods & Experimental Design,no,mono,no,18,no,white,no,yes,768,legacy,48,11,/Users/juancastaneda/Documents/Grad School /Advanced Quantitative Methods & Experimental Design/Sterberg Task/JC-subject-3.csv,legacy,6 9 5,Kafkaesque Koffka,3.2.8,0,n,0,right,right,right,right,NA,623,133417,8914,623,NA,NA,NA,2,legacy,3,1024,2,48000,-16,experiment,3,odd,8,512805,509474,510560,2776,222837,510573,NA,503503,2792,213922,515443,511587,514818,136330,514818,NA,NA,Sternberg Task,51,43735,61,yes,1024
83.87096774,83.87096774,714.8064516,714.8064516,black,experiment,legacy,legacy,legacy,0,uniform,1,undefined,1,right,61,61,61,0,0,61,NA,61,0,0,61,61,61,0,61,0,NA,Fri Oct 25 19:23:32 2019,The main experiment item,yes,SternbergTask.osexp,/Users/juancastaneda/Documents/Grad School /Advanced Quantitative Methods & Experimental Design,no,mono,no,18,no,white,no,yes,768,legacy,49,11,/Users/juancastaneda/Documents/Grad School /Advanced Quantitative Methods & Experimental Design/Sterberg Task/JC-subject-3.csv,legacy,5 7 3,Kafkaesque Koffka,3.2.8,0,n,0,right,right,right,right,NA,583,133417,8914,583,NA,NA,NA,2,legacy,3,1024,2,48000,-16,experiment,3,odd,9,518789,515458,516544,2776,222837,516556,NA,503503,2792,213922,521388,517571,520803,136330,520803,NA,NA,Sternberg Task,52,44318,62,yes,1024
84.12698413,84.12698413,713.8571429,713.8571429,black,experiment,legacy,legacy,legacy,0,uniform,1,undefined,1,right,62,62,62,0,0,62,NA,62,0,0,62,62,62,0,62,0,NA,Fri Oct 25 19:23:32 2019,The main experiment item,yes,SternbergTask.osexp,/Users/juancastaneda/Documents/Grad School /Advanced Quantitative Methods & Experimental Design,no,mono,no,18,no,white,no,yes,768,legacy,50,11,/Users/juancastaneda/Documents/Grad School /Advanced Quantitative Methods & Experimental Design/Sterberg Task/JC-subject-3.csv,legacy,1 4 9 2 5,Kafkaesque Koffka,3.2.8,0,n,0,right,right,right,right,NA,655,133417,8914,655,NA,NA,NA,2,legacy,5,1024,2,48000,-16,experiment,3,odd,7,524734,521404,522490,2776,222837,522502,NA,503503,2792,213922,527405,523517,526748,136330,526747,NA,NA,Sternberg Task,53,44973,63,yes,1024
84.375,84.375,710.40625,710.40625,black,experiment,legacy,legacy,legacy,0,uniform,1,undefined,1,right,63,63,63,0,0,63,NA,63,0,0,63,63,63,0,63,0,NA,Fri Oct 25 19:23:32 2019,The main experiment item,yes,SternbergTask.osexp,/Users/juancastaneda/Documents/Grad School /Advanced Quantitative Methods & Experimental Design,no,mono,no,18,no,white,no,yes,768,legacy,51,11,/Users/juancastaneda/Documents/Grad School /Advanced Quantitative Methods & Experimental Design/Sterberg Task/JC-subject-3.csv,legacy,6 9 4 5 2,Kafkaesque Koffka,3.2.8,0,n,0,right,right,right,right,NA,493,133417,8914,493,NA,NA,NA,2,legacy,5,1024,2,48000,-16,experiment,3,odd,1,530750,527419,528506,2776,222837,528518,NA,503503,2792,213922,533259,529533,532764,136330,532764,NA,NA,Sternberg Task,54,45466,64,yes,1024
84.61538462,84.61538462,707.0461538,707.0461538,black,experiment,legacy,legacy,legacy,0,uniform,1,undefined,1,right,64,64,64,0,0,64,NA,64,0,0,64,64,64,0,64,0,NA,Fri Oct 25 19:23:32 2019,The main experiment item,yes,SternbergTask.osexp,/Users/juancastaneda/Documents/Grad School /Advanced Quantitative Methods & Experimental Design,no,mono,no,18,no,white,no,yes,768,legacy,52,11,/Users/juancastaneda/Documents/Grad School /Advanced Quantitative Methods & Experimental Design/Sterberg Task/JC-subject-3.csv,legacy,5 2,Kafkaesque Koffka,3.2.8,0,n,0,right,right,right,right,NA,492,133417,8914,492,NA,NA,NA,2,legacy,2,1024,2,48000,-16,experiment,3,odd,7,536604,533275,534360,2776,222837,534372,NA,503503,2792,213922,539111,535387,538617,136330,538617,NA,NA,Sternberg Task,55,45958,65,yes,1024
83.33333333,83.33333333,707.5151515,707.5151515,black,experiment,legacy,legacy,legacy,0,uniform,0,undefined,0,left,65,65,65,0,0,65,NA,65,0,0,65,65,65,0,65,0,NA,Fri Oct 25 19:23:32 2019,The main experiment item,yes,SternbergTask.osexp,/Users/juancastaneda/Documents/Grad School /Advanced Quantitative Methods & Experimental Design,no,mono,no,18,no,white,no,yes,768,legacy,53,11,/Users/juancastaneda/Documents/Grad School /Advanced Quantitative Methods & Experimental Design/Sterberg Task/JC-subject-3.csv,legacy,5 2 6,Kafkaesque Koffka,3.2.8,2,y,0,right,right,right,right,NA,738,133417,8914,738,NA,NA,NA,2,legacy,3,1024,2,48000,-16,experiment,3,odd,2,542455,539126,540211,2776,222837,540223,NA,503503,2792,213922,545208,541238,544468,136330,544468,NA,NA,Sternberg Task,55,46696,66,yes,1024
83.58208955,83.58208955,705.2686567,705.2686567,black,experiment,legacy,legacy,legacy,0,uniform,1,undefined,1,left,66,66,66,0,0,66,NA,66,0,0,66,66,66,0,66,0,NA,Fri Oct 25 19:23:32 2019,The main experiment item,yes,SternbergTask.osexp,/Users/juancastaneda/Documents/Grad School /Advanced Quantitative Methods & Experimental Design,no,mono,no,18,no,white,no,yes,768,legacy,54,11,/Users/juancastaneda/Documents/Grad School /Advanced Quantitative Methods & Experimental Design/Sterberg Task/JC-subject-3.csv,legacy,4,Kafkaesque Koffka,3.2.8,1,y,0,left,right,right,left,NA,557,133417,8914,557,NA,NA,NA,2,legacy,1,1024,2,48000,-16,experiment,3,odd,4,548552,539126,546309,2776,222837,546322,NA,545224,2792,213922,551125,547336,550566,136330,550566,NA,NA,Sternberg Task,56,47253,67,yes,1024
83.82352941,83.82352941,713.6029412,713.6029412,black,experiment,legacy,legacy,legacy,0,uniform,1,undefined,1,right,67,67,67,0,0,67,NA,67,0,0,67,67,67,0,67,0,NA,Fri Oct 25 19:23:32 2019,The main experiment item,yes,SternbergTask.osexp,/Users/juancastaneda/Documents/Grad School /Advanced Quantitative Methods & Experimental Design,no,mono,no,18,no,white,no,yes,768,legacy,55,11,/Users/juancastaneda/Documents/Grad School /Advanced Quantitative Methods & Experimental Design/Sterberg Task/JC-subject-3.csv,legacy,9 7 4 5 8,Kafkaesque Koffka,3.2.8,0,n,0,right,right,right,right,NA,1272,133417,8914,1272,NA,NA,NA,2,legacy,5,1024,2,48000,-16,experiment,3,odd,6,554471,551141,552227,2776,222837,552239,NA,545224,2792,213922,557759,553254,556485,136330,556485,NA,NA,Sternberg Task,57,48525,68,yes,1024
84.05797101,84.05797101,714.1884058,714.1884058,black,experiment,legacy,legacy,legacy,0,uniform,1,undefined,1,left,68,68,68,0,0,68,NA,68,0,0,68,68,68,0,68,0,NA,Fri Oct 25 19:23:32 2019,The main experiment item,yes,SternbergTask.osexp,/Users/juancastaneda/Documents/Grad School /Advanced Quantitative Methods & Experimental Design,no,mono,no,18,no,white,no,yes,768,legacy,56,11,/Users/juancastaneda/Documents/Grad School /Advanced Quantitative Methods & Experimental Design/Sterberg Task/JC-subject-3.csv,legacy,9 1 7 2,Kafkaesque Koffka,3.2.8,2,y,0,left,right,right,left,NA,754,133417,8914,754,NA,NA,NA,2,legacy,4,1024,2,48000,-16,experiment,3,odd,1,561102,557773,558858,2776,222837,558870,NA,545224,2792,213922,563872,559885,563116,136330,563115,NA,NA,Sternberg Task,58,49279,69,yes,1024
82.85714286,82.85714286,712.0142857,712.0142857,black,experiment,legacy,legacy,legacy,0,uniform,0,undefined,0,right,69,69,69,0,0,69,NA,69,0,0,69,69,69,0,69,0,NA,Fri Oct 25 19:23:32 2019,The main experiment item,yes,SternbergTask.osexp,/Users/juancastaneda/Documents/Grad School /Advanced Quantitative Methods & Experimental Design,no,mono,no,18,no,white,no,yes,768,legacy,57,11,/Users/juancastaneda/Documents/Grad School /Advanced Quantitative Methods & Experimental Design/Sterberg Task/JC-subject-3.csv,legacy,2 8 7 9 5 3,Kafkaesque Koffka,3.2.8,0,n,0,left,right,right,left,NA,562,133417,8914,562,NA,NA,NA,2,legacy,6,1024,2,48000,-16,experiment,3,odd,6,567218,563888,564974,2776,222837,564987,NA,545224,2792,213922,569796,566001,569232,136330,569232,NA,NA,Sternberg Task,58,49841,70,yes,1024
83.09859155,83.09859155,713.8591549,713.8591549,black,experiment,legacy,legacy,legacy,0,uniform,1,undefined,1,right,70,70,70,0,0,70,NA,70,0,0,70,70,70,0,70,0,NA,Fri Oct 25 19:23:32 2019,The main experiment item,yes,SternbergTask.osexp,/Users/juancastaneda/Documents/Grad School /Advanced Quantitative Methods & Experimental Design,no,mono,no,18,no,white,no,yes,768,legacy,58,11,/Users/juancastaneda/Documents/Grad School /Advanced Quantitative Methods & Experimental Design/Sterberg Task/JC-subject-3.csv,legacy,1 6 4,Kafkaesque Koffka,3.2.8,0,n,0,right,right,right,right,NA,843,133417,8914,843,NA,NA,NA,2,legacy,3,1024,2,48000,-16,experiment,3,odd,7,573141,563888,570898,2776,222837,570910,NA,569811,2792,213922,575999,571925,575154,136330,575154,NA,NA,Sternberg Task,59,50684,71,yes,1024
83.33333333,83.33333333,710.4444444,710.4444444,black,experiment,legacy,legacy,legacy,0,uniform,1,undefined,1,left,71,71,71,0,0,71,NA,71,0,0,71,71,71,0,71,0,NA,Fri Oct 25 19:23:32 2019,The main experiment item,yes,SternbergTask.osexp,/Users/juancastaneda/Documents/Grad School /Advanced Quantitative Methods & Experimental Design,no,mono,no,18,no,white,no,yes,768,legacy,59,11,/Users/juancastaneda/Documents/Grad School /Advanced Quantitative Methods & Experimental Design/Sterberg Task/JC-subject-3.csv,legacy,6 2,Kafkaesque Koffka,3.2.8,1,y,0,left,right,right,left,NA,468,133417,8914,468,NA,NA,NA,2,legacy,2,1024,2,48000,-16,experiment,3,odd,6,579342,576013,577098,2776,222837,577110,NA,569811,2792,213922,581826,578125,581356,136330,581356,NA,NA,Sternberg Task,60,51152,72,yes,1024
83.56164384,83.56164384,710.1506849,710.1506849,black,experiment,legacy,legacy,legacy,0,uniform,1,undefined,1,left,72,72,72,0,0,72,NA,72,0,0,72,72,72,0,72,0,NA,Fri Oct 25 19:23:32 2019,The main experiment item,yes,SternbergTask.osexp,/Users/juancastaneda/Documents/Grad School /Advanced Quantitative Methods & Experimental Design,no,mono,no,18,no,white,no,yes,768,legacy,60,11,/Users/juancastaneda/Documents/Grad School /Advanced Quantitative Methods & Experimental Design/Sterberg Task/JC-subject-3.csv,legacy,9 8 4,Kafkaesque Koffka,3.2.8,1,y,0,left,right,right,left,NA,689,133417,8914,689,NA,NA,NA,2,legacy,3,1024,2,48000,-16,experiment,3,odd,9,585168,581841,582927,2776,222837,582939,NA,569811,2792,213922,587873,583952,587182,136330,587182,NA,NA,Sternberg Task,61,51841,73,yes,1024
83.78378378,83.78378378,708.9324324,708.9324324,black,experiment,legacy,legacy,legacy,0,uniform,1,undefined,1,left,73,73,73,0,0,73,NA,73,0,0,73,73,73,0,73,0,NA,Fri Oct 25 19:23:32 2019,The main experiment item,yes,SternbergTask.osexp,/Users/juancastaneda/Documents/Grad School /Advanced Quantitative Methods & Experimental Design,no,mono,no,18,no,white,no,yes,768,legacy,61,11,/Users/juancastaneda/Documents/Grad School /Advanced Quantitative Methods & Experimental Design/Sterberg Task/JC-subject-3.csv,legacy,8 7 3,Kafkaesque Koffka,3.2.8,1,y,0,left,right,right,left,NA,620,133417,8914,620,NA,NA,NA,2,legacy,3,1024,2,48000,-16,experiment,3,odd,8,591216,587886,588972,2776,222837,588985,NA,569811,2792,213922,593852,589999,593230,136330,593230,NA,NA,Sternberg Task,62,52461,74,yes,1024
84,84,708.6133333,708.6133333,black,experiment,legacy,legacy,legacy,0,uniform,1,undefined,1,right,74,74,74,0,0,74,NA,74,0,0,74,74,74,0,74,0,NA,Fri Oct 25 19:23:32 2019,The main experiment item,yes,SternbergTask.osexp,/Users/juancastaneda/Documents/Grad School /Advanced Quantitative Methods & Experimental Design,no,mono,no,18,no,white,no,yes,768,legacy,62,11,/Users/juancastaneda/Documents/Grad School /Advanced Quantitative Methods & Experimental Design/Sterberg Task/JC-subject-3.csv,legacy,2 6 4 3 9,Kafkaesque Koffka,3.2.8,0,n,0,right,right,right,right,NA,685,133417,8914,685,NA,NA,NA,2,legacy,5,1024,2,48000,-16,experiment,3,odd,1,597198,593868,594955,2776,222837,594967,NA,569811,2792,213922,599898,595982,599211,136330,599211,NA,NA,Sternberg Task,63,53146,75,yes,1024
84.21052632,84.21052632,708.8815789,708.8815789,black,experiment,legacy,legacy,legacy,0,uniform,1,undefined,1,left,75,75,75,0,0,75,NA,75,0,0,75,75,75,0,75,0,NA,Fri Oct 25 19:23:32 2019,The main experiment item,yes,SternbergTask.osexp,/Users/juancastaneda/Documents/Grad School /Advanced Quantitative Methods & Experimental Design,no,mono,no,18,no,white,no,yes,768,legacy,63,11,/Users/juancastaneda/Documents/Grad School /Advanced Quantitative Methods & Experimental Design/Sterberg Task/JC-subject-3.csv,legacy,5 7 3 6 2,Kafkaesque Koffka,3.2.8,5,y,0,left,right,right,left,NA,729,133417,8914,729,NA,NA,NA,2,legacy,5,1024,2,48000,-16,experiment,3,odd,2,603242,599914,601000,2776,222837,601011,NA,569811,2792,213922,605987,602026,605256,136330,605256,NA,NA,Sternberg Task,64,53875,76,yes,1024
84.41558442,84.41558442,707.6233766,707.6233766,black,experiment,legacy,legacy,legacy,0,uniform,1,undefined,1,left,76,76,76,0,0,76,NA,76,0,0,76,76,76,0,76,0,NA,Fri Oct 25 19:23:32 2019,The main experiment item,yes,SternbergTask.osexp,/Users/juancastaneda/Documents/Grad School /Advanced Quantitative Methods & Experimental Design,no,mono,no,18,no,white,no,yes,768,legacy,64,11,/Users/juancastaneda/Documents/Grad School /Advanced Quantitative Methods & Experimental Design/Sterberg Task/JC-subject-3.csv,legacy,6 7 8 5,Kafkaesque Koffka,3.2.8,3,y,0,left,right,right,left,NA,612,133417,8914,612,NA,NA,NA,2,legacy,4,1024,2,48000,-16,experiment,3,odd,8,609332,606002,607088,2776,222837,607100,NA,569811,2792,213922,611959,608115,611345,136330,611345,NA,NA,Sternberg Task,65,54487,77,yes,1024
84.61538462,84.61538462,708.2948718,708.2948718,black,experiment,legacy,legacy,legacy,0,uniform,1,undefined,1,right,77,77,77,0,0,77,NA,77,0,0,77,77,77,0,77,0,NA,Fri Oct 25 19:23:32 2019,The main experiment item,yes,SternbergTask.osexp,/Users/juancastaneda/Documents/Grad School /Advanced Quantitative Methods & Experimental Design,no,mono,no,18,no,white,no,yes,768,legacy,65,11,/Users/juancastaneda/Documents/Grad School /Advanced Quantitative Methods & Experimental Design/Sterberg Task/JC-subject-3.csv,legacy,1 7 5 2,Kafkaesque Koffka,3.2.8,0,n,0,right,right,right,right,NA,760,133417,8914,760,NA,NA,NA,2,legacy,4,1024,2,48000,-16,experiment,3,odd,3,615303,611975,613060,2776,222837,613072,NA,569811,2792,213922,618079,614086,617317,136330,617316,NA,NA,Sternberg Task,66,55247,78,yes,1024
84.81012658,84.81012658,705.4683544,705.4683544,black,experiment,legacy,legacy,legacy,0,uniform,1,undefined,1,left,78,78,78,0,0,78,NA,78,0,0,78,78,78,0,78,0,NA,Fri Oct 25 19:23:32 2019,The main experiment item,yes,SternbergTask.osexp,/Users/juancastaneda/Documents/Grad School /Advanced Quantitative Methods & Experimental Design,no,mono,no,18,no,white,no,yes,768,legacy,66,11,/Users/juancastaneda/Documents/Grad School /Advanced Quantitative Methods & Experimental Design/Sterberg Task/JC-subject-3.csv,legacy,8 9 5 6 7,Kafkaesque Koffka,3.2.8,1,y,0,left,right,right,left,NA,485,133417,8914,485,NA,NA,NA,2,legacy,5,1024,2,48000,-16,experiment,3,odd,8,621428,618099,619185,2776,222837,619197,NA,569811,2792,213922,623928,620211,623441,136330,623441,NA,NA,Sternberg Task,67,55732,79,yes,1024
85,85,706.375,706.375,black,experiment,legacy,legacy,legacy,0,uniform,1,undefined,1,right,79,79,79,0,0,79,NA,79,0,0,79,79,79,0,79,0,NA,Fri Oct 25 19:23:32 2019,The main experiment item,yes,SternbergTask.osexp,/Users/juancastaneda/Documents/Grad School /Advanced Quantitative Methods & Experimental Design,no,mono,no,18,no,white,no,yes,768,legacy,67,11,/Users/juancastaneda/Documents/Grad School /Advanced Quantitative Methods & Experimental Design/Sterberg Task/JC-subject-3.csv,legacy,8 4 3 9,Kafkaesque Koffka,3.2.8,0,n,0,right,right,right,right,NA,778,133417,8914,778,NA,NA,NA,2,legacy,4,1024,2,48000,-16,experiment,3,odd,5,627272,623943,625029,2776,222837,625041,NA,569811,2792,213922,630066,626055,629286,136330,629286,NA,NA,Sternberg Task,68,56510,80,yes,1024
85.18518519,85.18518519,707.5061728,707.5061728,black,experiment,legacy,legacy,legacy,0,uniform,1,undefined,1,right,80,80,80,0,0,80,NA,80,0,0,80,80,80,0,80,0,NA,Fri Oct 25 19:23:32 2019,The main experiment item,yes,SternbergTask.osexp,/Users/juancastaneda/Documents/Grad School /Advanced Quantitative Methods & Experimental Design,no,mono,no,18,no,white,no,yes,768,legacy,68,11,/Users/juancastaneda/Documents/Grad School /Advanced Quantitative Methods & Experimental Design/Sterberg Task/JC-subject-3.csv,legacy,3 4 2,Kafkaesque Koffka,3.2.8,0,n,0,right,right,right,right,NA,798,133417,8914,798,NA,NA,NA,2,legacy,3,1024,2,48000,-16,experiment,3,odd,5,633412,630082,631168,2776,222837,631180,NA,569811,2792,213922,636225,632195,635425,136330,635425,NA,NA,Sternberg Task,69,57308,81,yes,1024
84.14634146,84.14634146,712.7560976,712.7560976,black,experiment,legacy,legacy,legacy,0,uniform,0,undefined,0,left,81,81,81,0,0,81,NA,81,0,0,81,81,81,0,81,0,NA,Fri Oct 25 19:23:32 2019,The main experiment item,yes,SternbergTask.osexp,/Users/juancastaneda/Documents/Grad School /Advanced Quantitative Methods & Experimental Design,no,mono,no,18,no,white,no,yes,768,legacy,69,11,/Users/juancastaneda/Documents/Grad School /Advanced Quantitative Methods & Experimental Design/Sterberg Task/JC-subject-3.csv,legacy,2 6 1 7 4,Kafkaesque Koffka,3.2.8,2,y,0,right,right,right,right,NA,1138,133417,8914,1138,NA,NA,NA,2,legacy,5,1024,2,48000,-16,experiment,3,odd,6,639572,636241,637327,2776,222837,637340,NA,569811,2792,213922,642727,638355,641586,136330,641586,NA,NA,Sternberg Task,69,58446,82,yes,1024
84.3373494,84.3373494,712.4337349,712.4337349,black,experiment,legacy,legacy,legacy,0,uniform,1,undefined,1,left,82,82,82,0,0,82,NA,82,0,0,82,82,82,0,82,0,NA,Fri Oct 25 19:23:32 2019,The main experiment item,yes,SternbergTask.osexp,/Users/juancastaneda/Documents/Grad School /Advanced Quantitative Methods & Experimental Design,no,mono,no,18,no,white,no,yes,768,legacy,70,11,/Users/juancastaneda/Documents/Grad School /Advanced Quantitative Methods & Experimental Design/Sterberg Task/JC-subject-3.csv,legacy,4 3 2 5 8,Kafkaesque Koffka,3.2.8,2,y,0,left,right,right,left,NA,686,133417,8914,686,NA,NA,NA,2,legacy,5,1024,2,48000,-16,experiment,3,odd,3,646071,636241,643828,2776,222837,643840,NA,642741,2792,213922,648772,644855,648084,136330,648084,NA,NA,Sternberg Task,70,59132,83,yes,1024
84.52380952,84.52380952,712.4047619,712.4047619,black,experiment,legacy,legacy,legacy,0,uniform,1,undefined,1,right,83,83,83,0,0,83,NA,83,0,0,83,83,83,0,83,0,NA,Fri Oct 25 19:23:32 2019,The main experiment item,yes,SternbergTask.osexp,/Users/juancastaneda/Documents/Grad School /Advanced Quantitative Methods & Experimental Design,no,mono,no,18,no,white,no,yes,768,legacy,71,11,/Users/juancastaneda/Documents/Grad School /Advanced Quantitative Methods & Experimental Design/Sterberg Task/JC-subject-3.csv,legacy,7 1 5 6 3,Kafkaesque Koffka,3.2.8,0,n,0,right,right,right,right,NA,710,133417,8914,710,NA,NA,NA,2,legacy,5,1024,2,48000,-16,experiment,3,odd,8,652118,648788,649875,2776,222837,649887,NA,642741,2792,213922,654844,650902,654132,136330,654132,NA,NA,Sternberg Task,71,59842,84,yes,1024
84.70588235,84.70588235,712.5294118,712.5294118,black,experiment,legacy,legacy,legacy,0,uniform,1,undefined,1,left,84,84,84,0,0,84,NA,84,0,0,84,84,84,0,84,0,NA,Fri Oct 25 19:23:32 2019,The main experiment item,yes,SternbergTask.osexp,/Users/juancastaneda/Documents/Grad School /Advanced Quantitative Methods & Experimental Design,no,mono,no,18,no,white,no,yes,768,legacy,72,11,/Users/juancastaneda/Documents/Grad School /Advanced Quantitative Methods & Experimental Design/Sterberg Task/JC-subject-3.csv,legacy,4 1 8 7 5,Kafkaesque Koffka,3.2.8,3,y,0,left,right,right,left,NA,723,133417,8914,723,NA,NA,NA,2,legacy,5,1024,2,48000,-16,experiment,3,odd,8,658189,654860,655946,2776,222837,655958,NA,642741,2792,213922,660927,656972,660202,136330,660202,NA,NA,Sternberg Task,72,60565,85,yes,1024
84.88372093,84.88372093,712.5813953,712.5813953,black,experiment,legacy,legacy,legacy,0,uniform,1,undefined,1,right,85,85,85,0,0,85,NA,85,0,0,85,85,85,0,85,0,NA,Fri Oct 25 19:23:32 2019,The main experiment item,yes,SternbergTask.osexp,/Users/juancastaneda/Documents/Grad School /Advanced Quantitative Methods & Experimental Design,no,mono,no,18,no,white,no,yes,768,legacy,73,11,/Users/juancastaneda/Documents/Grad School /Advanced Quantitative Methods & Experimental Design/Sterberg Task/JC-subject-3.csv,legacy,5 3 8 7 2 4,Kafkaesque Koffka,3.2.8,0,n,0,right,right,right,right,NA,717,133417,8914,717,NA,NA,NA,2,legacy,6,1024,2,48000,-16,experiment,3,odd,9,664272,660943,662028,2776,222837,662041,NA,642741,2792,213922,667005,663055,666286,136330,666285,NA,NA,Sternberg Task,73,61282,86,yes,1024
85.05747126,85.05747126,713.4482759,713.4482759,black,experiment,legacy,legacy,legacy,0,uniform,1,undefined,1,left,86,86,86,0,0,86,NA,86,0,0,86,86,86,0,86,0,NA,Fri Oct 25 19:23:32 2019,The main experiment item,yes,SternbergTask.osexp,/Users/juancastaneda/Documents/Grad School /Advanced Quantitative Methods & Experimental Design,no,mono,no,18,no,white,no,yes,768,legacy,74,11,/Users/juancastaneda/Documents/Grad School /Advanced Quantitative Methods & Experimental Design/Sterberg Task/JC-subject-3.csv,legacy,8 5 1 3 9,Kafkaesque Koffka,3.2.8,4,y,0,left,right,right,left,NA,788,133417,8914,788,NA,NA,NA,2,legacy,5,1024,2,48000,-16,experiment,3,odd,3,670351,667021,668107,2776,222837,668120,NA,642741,2792,213922,673155,669134,672365,136330,672365,NA,NA,Sternberg Task,74,62070,87,yes,1024
85.22727273,85.22727273,710.8181818,710.8181818,black,experiment,legacy,legacy,legacy,0,uniform,1,undefined,1,left,87,87,87,0,0,87,NA,87,0,0,87,87,87,0,87,0,NA,Fri Oct 25 19:23:32 2019,The main experiment item,yes,SternbergTask.osexp,/Users/juancastaneda/Documents/Grad School /Advanced Quantitative Methods & Experimental Design,no,mono,no,18,no,white,no,yes,768,legacy,75,11,/Users/juancastaneda/Documents/Grad School /Advanced Quantitative Methods & Experimental Design/Sterberg Task/JC-subject-3.csv,legacy,6 7 9 3 1 2,Kafkaesque Koffka,3.2.8,1,y,0,left,right,right,left,NA,482,133417,8914,482,NA,NA,NA,2,legacy,6,1024,2,48000,-16,experiment,3,odd,6,676501,673171,674258,2776,222837,674271,NA,642741,2792,213922,678999,675285,678515,136330,678515,NA,NA,Sternberg Task,75,62552,88,yes,1024
85.39325843,85.39325843,708.7303371,708.7303371,black,experiment,legacy,legacy,legacy,0,uniform,1,undefined,1,left,88,88,88,0,0,88,NA,88,0,0,88,88,88,0,88,0,NA,Fri Oct 25 19:23:32 2019,The main experiment item,yes,SternbergTask.osexp,/Users/juancastaneda/Documents/Grad School /Advanced Quantitative Methods & Experimental Design,no,mono,no,18,no,white,no,yes,768,legacy,76,11,/Users/juancastaneda/Documents/Grad School /Advanced Quantitative Methods & Experimental Design/Sterberg Task/JC-subject-3.csv,legacy,3 5 9 6 2 4,Kafkaesque Koffka,3.2.8,1,y,0,left,right,right,left,NA,525,133417,8914,525,NA,NA,NA,2,legacy,6,1024,2,48000,-16,experiment,3,odd,3,682344,679013,680099,2776,222837,680112,NA,642741,2792,213922,684884,681126,684357,136330,684357,NA,NA,Sternberg Task,76,63077,89,yes,1024
85.55555556,85.55555556,707.5222222,707.5222222,black,experiment,legacy,legacy,legacy,0,uniform,1,undefined,1,right,89,89,89,0,0,89,NA,89,0,0,89,89,89,0,89,0,NA,Fri Oct 25 19:23:32 2019,The main experiment item,yes,SternbergTask.osexp,/Users/juancastaneda/Documents/Grad School /Advanced Quantitative Methods & Experimental Design,no,mono,no,18,no,white,no,yes,768,legacy,77,11,/Users/juancastaneda/Documents/Grad School /Advanced Quantitative Methods & Experimental Design/Sterberg Task/JC-subject-3.csv,legacy,7 1,Kafkaesque Koffka,3.2.8,0,n,0,right,right,right,right,NA,600,133417,8914,600,NA,NA,NA,2,legacy,2,1024,2,48000,-16,experiment,3,odd,8,688226,684900,685985,2776,222837,685997,NA,642741,2792,213922,690842,687010,690240,136330,690240,NA,NA,Sternberg Task,77,63677,90,yes,1024
84.61538462,84.61538462,706.7802198,706.7802198,black,experiment,legacy,legacy,legacy,0,uniform,0,undefined,0,left,90,90,90,0,0,90,NA,90,0,0,90,90,90,0,90,0,NA,Fri Oct 25 19:23:32 2019,The main experiment item,yes,SternbergTask.osexp,/Users/juancastaneda/Documents/Grad School /Advanced Quantitative Methods & Experimental Design,no,mono,no,18,no,white,no,yes,768,legacy,78,11,/Users/juancastaneda/Documents/Grad School /Advanced Quantitative Methods & Experimental Design/Sterberg Task/JC-subject-3.csv,legacy,3 9 6 2,Kafkaesque Koffka,3.2.8,4,y,0,right,right,right,right,NA,640,133417,8914,640,NA,NA,NA,2,legacy,4,1024,2,48000,-16,experiment,3,odd,2,694187,690858,691944,2776,222837,691956,NA,642741,2792,213922,696843,692971,696201,136330,696200,NA,NA,Sternberg Task,77,64317,91,yes,1024
84.7826087,84.7826087,706.0217391,706.0217391,black,experiment,legacy,legacy,legacy,0,uniform,1,undefined,1,left,91,91,91,0,0,91,NA,91,0,0,91,91,91,0,91,0,NA,Fri Oct 25 19:23:32 2019,The main experiment item,yes,SternbergTask.osexp,/Users/juancastaneda/Documents/Grad School /Advanced Quantitative Methods & Experimental Design,no,mono,no,18,no,white,no,yes,768,legacy,79,11,/Users/juancastaneda/Documents/Grad School /Advanced Quantitative Methods & Experimental Design/Sterberg Task/JC-subject-3.csv,legacy,2 8 5 1,Kafkaesque Koffka,3.2.8,4,y,0,left,right,right,left,NA,637,133417,8914,637,NA,NA,NA,2,legacy,4,1024,2,48000,-16,experiment,3,odd,1,700188,690858,697944,2776,222837,697957,NA,696859,2792,213922,702841,698972,702202,136330,702201,NA,NA,Sternberg Task,78,64954,92,yes,1024
84.94623656,84.94623656,705.7849462,705.7849462,black,experiment,legacy,legacy,legacy,0,uniform,1,undefined,1,left,92,92,92,0,0,92,NA,92,0,0,92,92,92,0,92,0,NA,Fri Oct 25 19:23:32 2019,The main experiment item,yes,SternbergTask.osexp,/Users/juancastaneda/Documents/Grad School /Advanced Quantitative Methods & Experimental Design,no,mono,no,18,no,white,no,yes,768,legacy,80,11,/Users/juancastaneda/Documents/Grad School /Advanced Quantitative Methods & Experimental Design/Sterberg Task/JC-subject-3.csv,legacy,4 7 6 8 2 3,Kafkaesque Koffka,3.2.8,6,y,0,left,right,right,left,NA,684,133417,8914,684,NA,NA,NA,2,legacy,6,1024,2,48000,-16,experiment,3,odd,3,706186,702857,703943,2776,222837,703956,NA,696859,2792,213922,708885,704970,708199,136330,708199,NA,NA,Sternberg Task,79,65638,93,yes,1024
85.10638298,85.10638298,704.6702128,704.6702128,black,experiment,legacy,legacy,legacy,0,uniform,1,undefined,1,left,93,93,93,0,0,93,NA,93,0,0,93,93,93,0,93,0,NA,Fri Oct 25 19:23:32 2019,The main experiment item,yes,SternbergTask.osexp,/Users/juancastaneda/Documents/Grad School /Advanced Quantitative Methods & Experimental Design,no,mono,no,18,no,white,no,yes,768,legacy,81,11,/Users/juancastaneda/Documents/Grad School /Advanced Quantitative Methods & Experimental Design/Sterberg Task/JC-subject-3.csv,legacy,4 9 7 8 5 3,Kafkaesque Koffka,3.2.8,4,y,0,left,right,right,left,NA,601,133417,8914,601,NA,NA,NA,2,legacy,6,1024,2,48000,-16,experiment,3,odd,8,712228,708899,709985,2776,222837,709998,NA,696859,2792,213922,714846,711012,714243,136330,714243,NA,NA,Sternberg Task,80,66239,94,yes,1024
85.26315789,85.26315789,704.3263158,704.3263158,black,experiment,legacy,legacy,legacy,0,uniform,1,undefined,1,right,94,94,94,0,0,94,NA,94,0,0,94,94,94,0,94,0,NA,Fri Oct 25 19:23:32 2019,The main experiment item,yes,SternbergTask.osexp,/Users/juancastaneda/Documents/Grad School /Advanced Quantitative Methods & Experimental Design,no,mono,no,18,no,white,no,yes,768,legacy,82,11,/Users/juancastaneda/Documents/Grad School /Advanced Quantitative Methods & Experimental Design/Sterberg Task/JC-subject-3.csv,legacy,6 2 9 3 8 4,Kafkaesque Koffka,3.2.8,0,n,0,right,right,right,right,NA,672,133417,8914,672,NA,NA,NA,2,legacy,6,1024,2,48000,-16,experiment,3,odd,1,718191,714862,715948,2776,222837,715961,NA,696859,2792,213922,720878,716975,720204,136330,720204,NA,NA,Sternberg Task,81,66911,95,yes,1024
85.41666667,85.41666667,701.71875,701.71875,black,experiment,legacy,legacy,legacy,0,uniform,1,undefined,1,left,95,95,95,0,0,95,NA,95,0,0,95,95,95,0,95,0,NA,Fri Oct 25 19:23:32 2019,The main experiment item,yes,SternbergTask.osexp,/Users/juancastaneda/Documents/Grad School /Advanced Quantitative Methods & Experimental Design,no,mono,no,18,no,white,no,yes,768,legacy,83,11,/Users/juancastaneda/Documents/Grad School /Advanced Quantitative Methods & Experimental Design/Sterberg Task/JC-subject-3.csv,legacy,1 4 9 3 2 5,Kafkaesque Koffka,3.2.8,3,y,0,left,right,right,left,NA,454,133417,8914,454,NA,NA,NA,2,legacy,6,1024,2,48000,-16,experiment,3,odd,9,724222,720894,721980,2776,222837,721992,NA,696859,2792,213922,726693,723006,726237,136330,726236,NA,NA,Sternberg Task,82,67365,96,yes,1024
85.56701031,85.56701031,700.5876289,700.5876289,black,experiment,legacy,legacy,legacy,0,uniform,1,undefined,1,right,96,96,96,0,0,96,NA,96,0,0,96,96,96,0,96,0,NA,Fri Oct 25 19:23:32 2019,The main experiment item,yes,SternbergTask.osexp,/Users/juancastaneda/Documents/Grad School /Advanced Quantitative Methods & Experimental Design,no,mono,no,18,no,white,no,yes,768,legacy,84,11,/Users/juancastaneda/Documents/Grad School /Advanced Quantitative Methods & Experimental Design/Sterberg Task/JC-subject-3.csv,legacy,1 3 2 6 9,Kafkaesque Koffka,3.2.8,0,n,0,right,right,right,right,NA,592,133417,8914,592,NA,NA,NA,2,legacy,5,1024,2,48000,-16,experiment,3,odd,5,730040,726709,727797,2776,222837,727809,NA,696859,2792,213922,732647,728824,732053,136330,732053,NA,NA,Sternberg Task,83,67957,97,yes,1024
85.71428571,85.71428571,698.7142857,698.7142857,black,experiment,legacy,legacy,legacy,0,uniform,1,undefined,1,left,97,97,97,0,0,97,NA,97,0,0,97,97,97,0,97,0,NA,Fri Oct 25 19:23:32 2019,The main experiment item,yes,SternbergTask.osexp,/Users/juancastaneda/Documents/Grad School /Advanced Quantitative Methods & Experimental Design,no,mono,no,18,no,white,no,yes,768,legacy,85,11,/Users/juancastaneda/Documents/Grad School /Advanced Quantitative Methods & Experimental Design/Sterberg Task/JC-subject-3.csv,legacy,7 1 3,Kafkaesque Koffka,3.2.8,2,y,0,left,right,right,left,NA,517,133417,8914,517,NA,NA,NA,2,legacy,3,1024,2,48000,-16,experiment,3,odd,1,735993,732664,733750,2776,222837,733762,NA,696859,2792,213922,738525,734777,738006,136330,738006,NA,NA,Sternberg Task,84,68474,98,yes,1024
85.85858586,85.85858586,696.8585859,696.8585859,black,experiment,legacy,legacy,legacy,0,uniform,1,undefined,1,right,98,98,98,0,0,98,NA,98,0,0,98,98,98,0,98,0,NA,Fri Oct 25 19:23:32 2019,The main experiment item,yes,SternbergTask.osexp,/Users/juancastaneda/Documents/Grad School /Advanced Quantitative Methods & Experimental Design,no,mono,no,18,no,white,no,yes,768,legacy,86,11,/Users/juancastaneda/Documents/Grad School /Advanced Quantitative Methods & Experimental Design/Sterberg Task/JC-subject-3.csv,legacy,6 7 5 9,Kafkaesque Koffka,3.2.8,0,n,0,right,right,right,right,NA,515,133417,8914,515,NA,NA,NA,2,legacy,4,1024,2,48000,-16,experiment,3,odd,2,741871,738540,739626,2776,222837,739639,NA,696859,2792,213922,744402,740655,743885,136330,743885,NA,NA,Sternberg Task,85,68989,99,yes,1024
85,85,697.84,697.84,black,experiment,legacy,legacy,legacy,0,uniform,0,undefined,0,right,99,99,99,0,0,99,NA,99,0,0,99,99,99,0,99,0,NA,Fri Oct 25 19:23:32 2019,The main experiment item,yes,SternbergTask.osexp,/Users/juancastaneda/Documents/Grad School /Advanced Quantitative Methods & Experimental Design,no,mono,no,18,no,white,no,yes,768,legacy,87,11,/Users/juancastaneda/Documents/Grad School /Advanced Quantitative Methods & Experimental Design/Sterberg Task/JC-subject-3.csv,legacy,2 5 1 4,Kafkaesque Koffka,3.2.8,0,n,0,left,right,right,left,NA,795,133417,8914,795,NA,NA,NA,2,legacy,4,1024,2,48000,-16,experiment,3,odd,6,747750,744418,745505,2776,222837,745517,NA,696859,2792,213922,750562,746532,749764,136330,749763,NA,NA,Sternberg Task,85,69784,100,yes,1024
85.14851485,85.14851485,696.2772277,696.2772277,black,experiment,legacy,legacy,legacy,0,uniform,1,undefined,1,right,100,100,100,0,0,100,NA,100,0,0,100,100,100,0,100,0,NA,Fri Oct 25 19:23:32 2019,The main experiment item,yes,SternbergTask.osexp,/Users/juancastaneda/Documents/Grad School /Advanced Quantitative Methods & Experimental Design,no,mono,no,18,no,white,no,yes,768,legacy,88,11,/Users/juancastaneda/Documents/Grad School /Advanced Quantitative Methods & Experimental Design/Sterberg Task/JC-subject-3.csv,legacy,7 8 6 1,Kafkaesque Koffka,3.2.8,0,n,0,right,right,right,right,NA,540,133417,8914,540,NA,NA,NA,2,legacy,4,1024,2,48000,-16,experiment,3,odd,3,753911,744418,751666,2776,222837,751679,NA,750579,2792,213922,756466,752694,755924,136330,755924,NA,NA,Sternberg Task,86,70324,101,yes,1024
84.31372549,84.31372549,695.0196078,695.0196078,black,experiment,legacy,legacy,legacy,0,uniform,0,undefined,0,left,101,101,101,0,0,101,NA,101,0,0,101,101,101,0,101,0,NA,Fri Oct 25 19:23:32 2019,The main experiment item,yes,SternbergTask.osexp,/Users/juancastaneda/Documents/Grad School /Advanced Quantitative Methods & Experimental Design,no,mono,no,18,no,white,no,yes,768,legacy,89,11,/Users/juancastaneda/Documents/Grad School /Advanced Quantitative Methods & Experimental Design/Sterberg Task/JC-subject-3.csv,legacy,8 9 5 7 1 6,Kafkaesque Koffka,3.2.8,4,y,0,right,right,right,right,NA,568,133417,8914,568,NA,NA,NA,2,legacy,6,1024,2,48000,-16,experiment,3,odd,7,759812,756482,757568,2776,222837,757580,NA,750579,2792,213922,762396,758594,761826,136330,761825,NA,NA,Sternberg Task,86,70892,102,yes,1024
84.46601942,84.46601942,693.8058252,693.8058252,black,experiment,legacy,legacy,legacy,0,uniform,1,undefined,1,left,102,102,102,0,0,102,NA,102,0,0,102,102,102,0,102,0,NA,Fri Oct 25 19:23:32 2019,The main experiment item,yes,SternbergTask.osexp,/Users/juancastaneda/Documents/Grad School /Advanced Quantitative Methods & Experimental Design,no,mono,no,18,no,white,no,yes,768,legacy,90,11,/Users/juancastaneda/Documents/Grad School /Advanced Quantitative Methods & Experimental Design/Sterberg Task/JC-subject-3.csv,legacy,9 5 8 1,Kafkaesque Koffka,3.2.8,2,y,0,left,right,right,left,NA,570,133417,8914,570,NA,NA,NA,2,legacy,4,1024,2,48000,-16,experiment,3,odd,5,765742,756482,763497,2776,222837,763510,NA,762412,2792,213922,768327,764524,767755,136330,767755,NA,NA,Sternberg Task,87,71462,103,yes,1024
83.65384615,83.65384615,696.5,696.5,black,experiment,legacy,legacy,legacy,0,uniform,0,undefined,0,left,103,103,103,0,0,103,NA,103,0,0,103,103,103,0,103,0,NA,Fri Oct 25 19:23:32 2019,The main experiment item,yes,SternbergTask.osexp,/Users/juancastaneda/Documents/Grad School /Advanced Quantitative Methods & Experimental Design,no,mono,no,18,no,white,no,yes,768,legacy,91,11,/Users/juancastaneda/Documents/Grad School /Advanced Quantitative Methods & Experimental Design/Sterberg Task/JC-subject-3.csv,legacy,9 1 6 7 8,Kafkaesque Koffka,3.2.8,1,y,0,right,right,right,right,NA,974,133417,8914,974,NA,NA,NA,2,legacy,5,1024,2,48000,-16,experiment,3,odd,9,771671,768340,769426,2776,222837,769439,NA,762412,2792,213922,774661,770453,773685,136330,773684,NA,NA,Sternberg Task,87,72436,104,yes,1024
83.80952381,83.80952381,696.352381,696.352381,black,experiment,legacy,legacy,legacy,0,uniform,1,undefined,1,right,104,104,104,0,0,104,NA,104,0,0,104,104,104,0,104,0,NA,Fri Oct 25 19:23:32 2019,The main experiment item,yes,SternbergTask.osexp,/Users/juancastaneda/Documents/Grad School /Advanced Quantitative Methods & Experimental Design,no,mono,no,18,no,white,no,yes,768,legacy,92,11,/Users/juancastaneda/Documents/Grad School /Advanced Quantitative Methods & Experimental Design/Sterberg Task/JC-subject-3.csv,legacy,8 4 3 5,Kafkaesque Koffka,3.2.8,0,n,0,right,right,right,right,NA,681,133417,8914,681,NA,NA,NA,2,legacy,4,1024,2,48000,-16,experiment,3,odd,6,778006,768340,775763,2776,222837,775776,NA,774677,2792,213922,780703,776790,780020,136330,780019,NA,NA,Sternberg Task,88,73117,105,yes,1024
83.96226415,83.96226415,694.0283019,694.0283019,black,experiment,legacy,legacy,legacy,0,uniform,1,undefined,1,right,105,105,105,0,0,105,NA,105,0,0,105,105,105,0,105,0,NA,Fri Oct 25 19:23:32 2019,The main experiment item,yes,SternbergTask.osexp,/Users/juancastaneda/Documents/Grad School /Advanced Quantitative Methods & Experimental Design,no,mono,no,18,no,white,no,yes,768,legacy,93,11,/Users/juancastaneda/Documents/Grad School /Advanced Quantitative Methods & Experimental Design/Sterberg Task/JC-subject-3.csv,legacy,7 9 1 6,Kafkaesque Koffka,3.2.8,0,n,0,right,right,right,right,NA,450,133417,8914,450,NA,NA,NA,2,legacy,4,1024,2,48000,-16,experiment,3,odd,4,784049,780719,781806,2776,222837,781818,NA,774677,2792,213922,786515,782833,786063,136330,786063,NA,NA,Sternberg Task,89,73567,106,yes,1024
84.11214953,84.11214953,693.0093458,693.0093458,black,experiment,legacy,legacy,legacy,0,uniform,1,undefined,1,right,106,106,106,0,0,106,NA,106,0,0,106,106,106,0,106,0,NA,Fri Oct 25 19:23:32 2019,The main experiment item,yes,SternbergTask.osexp,/Users/juancastaneda/Documents/Grad School /Advanced Quantitative Methods & Experimental Design,no,mono,no,18,no,white,no,yes,768,legacy,94,11,/Users/juancastaneda/Documents/Grad School /Advanced Quantitative Methods & Experimental Design/Sterberg Task/JC-subject-3.csv,legacy,2 8 9 4 1,Kafkaesque Koffka,3.2.8,0,n,0,right,right,right,right,NA,585,133417,8914,585,NA,NA,NA,2,legacy,5,1024,2,48000,-16,experiment,3,odd,5,789861,786531,787617,2776,222837,787629,NA,774677,2792,213922,792461,788644,791874,136330,791874,NA,NA,Sternberg Task,90,74152,107,yes,1024
84.25925926,84.25925926,691.962963,691.962963,black,experiment,legacy,legacy,legacy,0,uniform,1,undefined,1,left,107,107,107,0,0,107,NA,107,0,0,107,107,107,0,107,0,NA,Fri Oct 25 19:23:32 2019,The main experiment item,yes,SternbergTask.osexp,/Users/juancastaneda/Documents/Grad School /Advanced Quantitative Methods & Experimental Design,no,mono,no,18,no,white,no,yes,768,legacy,95,11,/Users/juancastaneda/Documents/Grad School /Advanced Quantitative Methods & Experimental Design/Sterberg Task/JC-subject-3.csv,legacy,7 8 6 3 1,Kafkaesque Koffka,3.2.8,5,y,0,left,right,right,left,NA,580,133417,8914,580,NA,NA,NA,2,legacy,5,1024,2,48000,-16,experiment,3,odd,1,795806,792477,793562,2776,222837,793575,NA,774677,2792,213922,798402,794589,797819,136330,797819,NA,NA,Sternberg Task,91,74732,108,yes,1024
84.40366972,84.40366972,689.8899083,689.8899083,black,experiment,legacy,legacy,legacy,0,uniform,1,undefined,1,left,108,108,108,0,0,108,NA,108,0,0,108,108,108,0,108,0,NA,Fri Oct 25 19:23:32 2019,The main experiment item,yes,SternbergTask.osexp,/Users/juancastaneda/Documents/Grad School /Advanced Quantitative Methods & Experimental Design,no,mono,no,18,no,white,no,yes,768,legacy,96,11,/Users/juancastaneda/Documents/Grad School /Advanced Quantitative Methods & Experimental Design/Sterberg Task/JC-subject-3.csv,legacy,6 5,Kafkaesque Koffka,3.2.8,2,y,0,left,right,right,left,NA,466,133417,8914,466,NA,NA,NA,2,legacy,2,1024,2,48000,-16,experiment,3,odd,5,801745,798416,799501,2776,222837,799513,NA,774677,2792,213922,804226,800527,803758,136330,803758,NA,NA,Sternberg Task,92,75198,109,yes,1024
84.54545455,84.54545455,688.2363636,688.2363636,black,experiment,legacy,legacy,legacy,0,uniform,1,undefined,1,right,109,109,109,0,0,109,NA,109,0,0,109,109,109,0,109,0,NA,Fri Oct 25 19:23:32 2019,The main experiment item,yes,SternbergTask.osexp,/Users/juancastaneda/Documents/Grad School /Advanced Quantitative Methods & Experimental Design,no,mono,no,18,no,white,no,yes,768,legacy,97,11,/Users/juancastaneda/Documents/Grad School /Advanced Quantitative Methods & Experimental Design/Sterberg Task/JC-subject-3.csv,legacy,8 6 3 4 7,Kafkaesque Koffka,3.2.8,0,n,0,right,right,right,right,NA,508,133417,8914,508,NA,NA,NA,2,legacy,5,1024,2,48000,-16,experiment,3,odd,1,807571,804241,805327,2776,222837,805339,NA,774677,2792,213922,810095,806354,809585,136330,809585,NA,NA,Sternberg Task,93,75706,110,yes,1024
84.68468468,84.68468468,686.963964,686.963964,black,experiment,legacy,legacy,legacy,0,uniform,1,undefined,1,left,110,110,110,0,0,110,NA,110,0,0,110,110,110,0,110,0,NA,Fri Oct 25 19:23:32 2019,The main experiment item,yes,SternbergTask.osexp,/Users/juancastaneda/Documents/Grad School /Advanced Quantitative Methods & Experimental Design,no,mono,no,18,no,white,no,yes,768,legacy,98,11,/Users/juancastaneda/Documents/Grad School /Advanced Quantitative Methods & Experimental Design/Sterberg Task/JC-subject-3.csv,legacy,3 5 4 7,Kafkaesque Koffka,3.2.8,1,y,0,left,right,right,left,NA,547,133417,8914,547,NA,NA,NA,2,legacy,4,1024,2,48000,-16,experiment,3,odd,3,813440,810111,811197,2776,222837,811209,NA,774677,2792,213922,816002,812223,815453,136330,815453,NA,NA,Sternberg Task,94,76253,111,yes,1024
84.82142857,84.82142857,686.0267857,686.0267857,black,experiment,legacy,legacy,legacy,0,uniform,1,undefined,1,right,111,111,111,0,0,111,NA,111,0,0,111,111,111,0,111,0,NA,Fri Oct 25 19:23:32 2019,The main experiment item,yes,SternbergTask.osexp,/Users/juancastaneda/Documents/Grad School /Advanced Quantitative Methods & Experimental Design,no,mono,no,18,no,white,no,yes,768,legacy,99,11,/Users/juancastaneda/Documents/Grad School /Advanced Quantitative Methods & Experimental Design/Sterberg Task/JC-subject-3.csv,legacy,7 3 2 8,Kafkaesque Koffka,3.2.8,0,n,0,right,right,right,right,NA,582,133417,8914,582,NA,NA,NA,2,legacy,4,1024,2,48000,-16,experiment,3,odd,4,819348,816018,817104,2776,222837,817117,NA,774677,2792,213922,821947,818131,821362,136330,821362,NA,NA,Sternberg Task,95,76835,112,yes,1024
84.95575221,84.95575221,684.9911504,684.9911504,black,experiment,legacy,legacy,legacy,0,uniform,1,undefined,1,right,112,112,112,0,0,112,NA,112,0,0,112,112,112,0,112,0,NA,Fri Oct 25 19:23:32 2019,The main experiment item,yes,SternbergTask.osexp,/Users/juancastaneda/Documents/Grad School /Advanced Quantitative Methods & Experimental Design,no,mono,no,18,no,white,no,yes,768,legacy,100,11,/Users/juancastaneda/Documents/Grad School /Advanced Quantitative Methods & Experimental Design/Sterberg Task/JC-subject-3.csv,legacy,1 8 7,Kafkaesque Koffka,3.2.8,0,n,0,right,right,right,right,NA,569,133417,8914,569,NA,NA,NA,2,legacy,3,1024,2,48000,-16,experiment,3,odd,4,825290,821963,823047,2776,222837,823059,NA,774677,2792,213922,827874,824073,827303,136330,827303,NA,NA,Sternberg Task,96,77404,113,yes,1024
85.0877193,85.0877193,683.5263158,683.5263158,black,experiment,legacy,legacy,legacy,0,uniform,1,undefined,1,right,113,113,113,0,0,113,NA,113,0,0,113,113,113,0,113,0,NA,Fri Oct 25 19:23:32 2019,The main experiment item,yes,SternbergTask.osexp,/Users/juancastaneda/Documents/Grad School /Advanced Quantitative Methods & Experimental Design,no,mono,no,18,no,white,no,yes,768,legacy,101,11,/Users/juancastaneda/Documents/Grad School /Advanced Quantitative Methods & Experimental Design/Sterberg Task/JC-subject-3.csv,legacy,3 9 1,Kafkaesque Koffka,3.2.8,0,n,0,right,right,right,right,NA,518,133417,8914,518,NA,NA,NA,2,legacy,3,1024,2,48000,-16,experiment,3,odd,7,831216,827888,828973,2776,222837,828985,NA,774677,2792,213922,833750,830000,833230,136330,833229,NA,NA,Sternberg Task,97,77922,114,yes,1024
85.2173913,85.2173913,682.626087,682.626087,black,experiment,legacy,legacy,legacy,0,uniform,1,undefined,1,left,114,114,114,0,0,114,NA,114,0,0,114,114,114,0,114,0,NA,Fri Oct 25 19:23:32 2019,The main experiment item,yes,SternbergTask.osexp,/Users/juancastaneda/Documents/Grad School /Advanced Quantitative Methods & Experimental Design,no,mono,no,18,no,white,no,yes,768,legacy,102,11,/Users/juancastaneda/Documents/Grad School /Advanced Quantitative Methods & Experimental Design/Sterberg Task/JC-subject-3.csv,legacy,8 3,Kafkaesque Koffka,3.2.8,2,y,0,left,right,right,left,NA,580,133417,8914,580,NA,NA,NA,2,legacy,2,1024,2,48000,-16,experiment,3,odd,3,837095,833766,834852,2776,222837,834865,NA,774677,2792,213922,839690,835879,839108,136330,839108,NA,NA,Sternberg Task,98,78502,115,yes,1024
85.34482759,85.34482759,683.5172414,683.5172414,black,experiment,legacy,legacy,legacy,0,uniform,1,undefined,1,left,115,115,115,0,0,115,NA,115,0,0,115,115,115,0,115,0,NA,Fri Oct 25 19:23:32 2019,The main experiment item,yes,SternbergTask.osexp,/Users/juancastaneda/Documents/Grad School /Advanced Quantitative Methods & Experimental Design,no,mono,no,18,no,white,no,yes,768,legacy,103,11,/Users/juancastaneda/Documents/Grad School /Advanced Quantitative Methods & Experimental Design/Sterberg Task/JC-subject-3.csv,legacy,4 1 5,Kafkaesque Koffka,3.2.8,2,y,0,left,right,right,left,NA,786,133417,8914,786,NA,NA,NA,2,legacy,3,1024,2,48000,-16,experiment,3,odd,1,843036,839706,840792,2776,222837,840805,NA,774677,2792,213922,845837,841820,845049,136330,845049,NA,NA,Sternberg Task,99,79288,116,yes,1024
84.61538462,84.61538462,683.3247863,683.3247863,black,experiment,legacy,legacy,legacy,0,uniform,0,undefined,0,left,116,116,116,0,0,116,NA,116,0,0,116,116,116,0,116,0,NA,Fri Oct 25 19:23:32 2019,The main experiment item,yes,SternbergTask.osexp,/Users/juancastaneda/Documents/Grad School /Advanced Quantitative Methods & Experimental Design,no,mono,no,18,no,white,no,yes,768,legacy,104,11,/Users/juancastaneda/Documents/Grad School /Advanced Quantitative Methods & Experimental Design/Sterberg Task/JC-subject-3.csv,legacy,7,Kafkaesque Koffka,3.2.8,1,y,0,right,right,right,right,NA,661,133417,8914,661,NA,NA,NA,2,legacy,1,1024,2,48000,-16,experiment,3,odd,7,849180,845852,846937,2776,222837,846949,NA,774677,2792,213922,851856,847964,851193,136330,851193,NA,NA,Sternberg Task,99,79949,117,yes,1024
84.74576271,84.74576271,683.1016949,683.1016949,black,experiment,legacy,legacy,legacy,0,uniform,1,undefined,1,right,117,117,117,0,0,117,NA,117,0,0,117,117,117,0,117,0,NA,Fri Oct 25 19:23:32 2019,The main experiment item,yes,SternbergTask.osexp,/Users/juancastaneda/Documents/Grad School /Advanced Quantitative Methods & Experimental Design,no,mono,no,18,no,white,no,yes,768,legacy,105,11,/Users/juancastaneda/Documents/Grad School /Advanced Quantitative Methods & Experimental Design/Sterberg Task/JC-subject-3.csv,legacy,1 7 8 3 9,Kafkaesque Koffka,3.2.8,0,n,0,right,right,right,right,NA,657,133417,8914,657,NA,NA,NA,2,legacy,5,1024,2,48000,-16,experiment,3,odd,2,855202,845852,852958,2776,222837,852971,NA,851872,2792,213922,857876,853986,857216,136330,857216,NA,NA,Sternberg Task,100,80606,118,yes,1024
84.03361345,84.03361345,681.1008403,681.1008403,black,experiment,legacy,legacy,legacy,0,uniform,0,undefined,0,left,118,118,118,0,0,118,NA,118,0,0,118,118,118,0,118,0,NA,Fri Oct 25 19:23:32 2019,The main experiment item,yes,SternbergTask.osexp,/Users/juancastaneda/Documents/Grad School /Advanced Quantitative Methods & Experimental Design,no,mono,no,18,no,white,no,yes,768,legacy,106,11,/Users/juancastaneda/Documents/Grad School /Advanced Quantitative Methods & Experimental Design/Sterberg Task/JC-subject-3.csv,legacy,5 7 8 2 3 8,Kafkaesque Koffka,3.2.8,5,y,0,right,right,right,right,NA,445,133417,8914,445,NA,NA,NA,2,legacy,6,1024,2,48000,-16,experiment,3,odd,3,861218,857890,858975,2776,222837,858988,NA,851872,2792,213922,863680,860002,863233,136330,863232,NA,NA,Sternberg Task,100,81051,119,yes,1024
83.33333333,83.33333333,680.6833333,680.6833333,black,experiment,legacy,legacy,legacy,0,uniform,0,undefined,0,right,119,119,119,0,0,119,NA,119,0,0,119,119,119,0,119,0,NA,Fri Oct 25 19:23:32 2019,The main experiment item,yes,SternbergTask.osexp,/Users/juancastaneda/Documents/Grad School /Advanced Quantitative Methods & Experimental Design,no,mono,no,18,no,white,no,yes,768,legacy,107,11,/Users/juancastaneda/Documents/Grad School /Advanced Quantitative Methods & Experimental Design/Sterberg Task/JC-subject-3.csv,legacy,1 7 5 2 9,Kafkaesque Koffka,3.2.8,0,n,0,left,right,right,left,NA,631,133417,8914,631,NA,NA,NA,2,legacy,5,1024,2,48000,-16,experiment,3,odd,3,867024,857890,864781,2776,222837,864793,NA,863695,2792,213922,869672,865808,869038,136330,869038,NA,NA,Sternberg Task,100,81682,120,yes,1024
82.6446281,82.6446281,680.892562,680.892562,black,experiment,legacy,legacy,legacy,0,uniform,0,undefined,0,left,120,120,120,0,0,120,NA,120,0,0,120,120,120,0,120,0,NA,Fri Oct 25 19:23:32 2019,The main experiment item,yes,SternbergTask.osexp,/Users/juancastaneda/Documents/Grad School /Advanced Quantitative Methods & Experimental Design,no,mono,no,18,no,white,no,yes,768,legacy,108,11,/Users/juancastaneda/Documents/Grad School /Advanced Quantitative Methods & Experimental Design/Sterberg Task/JC-subject-3.csv,legacy,4 6 5 8,Kafkaesque Koffka,3.2.8,1,y,0,right,right,right,right,NA,706,133417,8914,706,NA,NA,NA,2,legacy,4,1024,2,48000,-16,experiment,3,odd,4,873016,857890,870774,2776,222837,870786,NA,869688,2792,213922,875737,871800,875029,136330,875029,NA,NA,Sternberg Task,100,82388,121,yes,1024
82.78688525,82.78688525,679.8688525,679.8688525,black,experiment,legacy,legacy,legacy,0,uniform,1,undefined,1,right,121,121,121,0,0,121,NA,121,0,0,121,121,121,0,121,0,NA,Fri Oct 25 19:23:32 2019,The main experiment item,yes,SternbergTask.osexp,/Users/juancastaneda/Documents/Grad School /Advanced Quantitative Methods & Experimental Design,no,mono,no,18,no,white,no,yes,768,legacy,109,11,/Users/juancastaneda/Documents/Grad School /Advanced Quantitative Methods & Experimental Design/Sterberg Task/JC-subject-3.csv,legacy,5,Kafkaesque Koffka,3.2.8,0,n,0,right,right,right,right,NA,556,133417,8914,556,NA,NA,NA,2,legacy,1,1024,2,48000,-16,experiment,3,odd,8,879080,857890,876838,2776,222837,876850,NA,875753,2792,213922,881654,877864,881094,136330,881094,NA,NA,Sternberg Task,101,82944,122,yes,1024
82.11382114,82.11382114,679.8211382,679.8211382,black,experiment,legacy,legacy,legacy,0,uniform,0,undefined,0,right,122,122,122,0,0,122,NA,122,0,0,122,122,122,0,122,0,NA,Fri Oct 25 19:23:32 2019,The main experiment item,yes,SternbergTask.osexp,/Users/juancastaneda/Documents/Grad School /Advanced Quantitative Methods & Experimental Design,no,mono,no,18,no,white,no,yes,768,legacy,110,11,/Users/juancastaneda/Documents/Grad School /Advanced Quantitative Methods & Experimental Design/Sterberg Task/JC-subject-3.csv,legacy,6 9 4 5 3 2,Kafkaesque Koffka,3.2.8,0,n,0,left,right,right,left,NA,674,133417,8914,674,NA,NA,NA,2,legacy,6,1024,2,48000,-16,experiment,3,odd,8,884999,881670,882756,2776,222837,882768,NA,875753,2792,213922,887687,883783,887011,136330,887011,NA,NA,Sternberg Task,101,83618,123,yes,1024
81.4516129,81.4516129,679.1854839,679.1854839,black,experiment,legacy,legacy,legacy,0,uniform,0,undefined,0,left,123,123,123,0,0,123,NA,123,0,0,123,123,123,0,123,0,NA,Fri Oct 25 19:23:32 2019,The main experiment item,yes,SternbergTask.osexp,/Users/juancastaneda/Documents/Grad School /Advanced Quantitative Methods & Experimental Design,no,mono,no,18,no,white,no,yes,768,legacy,111,11,/Users/juancastaneda/Documents/Grad School /Advanced Quantitative Methods & Experimental Design/Sterberg Task/JC-subject-3.csv,legacy,3 4 9 6 2 9,Kafkaesque Koffka,3.2.8,5,y,0,right,right,right,right,NA,601,133417,8914,601,NA,NA,NA,2,legacy,6,1024,2,48000,-16,experiment,3,odd,2,891031,881670,888788,2776,222837,888801,NA,887701,2792,213922,893648,889815,893045,136330,893045,NA,NA,Sternberg Task,101,84219,124,yes,1024
