"acc","accuracy","average_response_time","avg_rt","background","block","canvas_backend","clock_backend","color_backend","compensation","coordinates","correct","correct_instruction1","correct_new_keyboard_response","correct_response","count_ISI","count_PracticeLoop","count_correctFeedback","count_expSequence","count_experiment","count_experimentLoop","count_fixation","count_incorrectFeedback","count_instruction1","count_instruction2","count_logger","count_memorySet","count_new_keyboard_response","count_probe","count_thankYou","datetime","description","disable_garbage_collection","experiment_file","experiment_path","font_bold","font_family","font_italic","font_size","font_underline","foreground","form_clicks","fullscreen","height","keyboard_backend","live_row","live_row_PracticeLoop","logfile","mouse_backend","numberSet","opensesame_codename","opensesame_version","posInSet","present","repeat_cycle","response","response_instruction1","response_instruction2","response_new_keyboard_response","response_thankYou","response_time","response_time_instruction1","response_time_instruction2","response_time_new_keyboard_response","response_time_thankYou","round_decimals","sampler_backend","setSize","sound_buf_size","sound_channels","sound_freq","sound_sample_size","start","subject_nr","subject_parity","target","time_ISI","time_PracticeLoop","time_correctFeedback","time_expSequence","time_experiment","time_experimentLoop","time_fixation","time_incorrectFeedback","time_instruction1","time_instruction2","time_logger","time_memorySet","time_new_keyboard_response","time_probe","time_thankYou","title","total_correct","total_response_time","total_responses","uniform_coordinates","width"
"0","0","982","982","black","practice","legacy","legacy","legacy","0","uniform","0","undefined","0","right","0","0","0","0","0","0","0","0","0","0","0","0","0","0","0","Tue Oct 12 15:24:13 2021","The main experiment item","yes","Sternbergtask.osexp","C:/Users/warne/OneDrive/Documents/Tarleton - MS Applied Psychology/Adv Quantitative Methods and Experimental Design/Labs","no","mono","no","18","no","white","no","yes","768","legacy","0","0","C:/Users/warne/OneDrive/Documents/Tarleton - MS Applied Psychology/Adv Quantitative Methods and Experimental Design/Labs/AW-subject-3.csv","legacy","4 1 5","Lentiform Loewenfeld","3.3.9","0","n","0","left","right","NA","left","NA","982","37851","NA","982","NA","2","legacy","3","1024","2","48000","-16","experiment","3","odd","2","44792","40243","NA","42588","2381","NA","42590","NA","2391","NA","47776","43591","46793","46793","NA","Sternberg task","0","982","1","yes","1024"
"0","0","1076.5","1076.5","black","practice","legacy","legacy","legacy","0","uniform","0","undefined","0","left","1","0","1","1","0","0","1","1","0","0","1","1","1","1","0","Tue Oct 12 15:24:13 2021","The main experiment item","yes","Sternbergtask.osexp","C:/Users/warne/OneDrive/Documents/Tarleton - MS Applied Psychology/Adv Quantitative Methods and Experimental Design/Labs","no","mono","no","18","no","white","no","yes","768","legacy","1","1","C:/Users/warne/OneDrive/Documents/Tarleton - MS Applied Psychology/Adv Quantitative Methods and Experimental Design/Labs/AW-subject-3.csv","legacy","4 3 1 7 9 8","Lentiform Loewenfeld","3.3.9","1","y","0","right","right","NA","right","NA","1171","37851","NA","1171","NA","2","legacy","6","1024","2","48000","-16","experiment","3","odd","4","51099","40243","NA","48895","2381","NA","48897","47815","2391","NA","54272","49898","53100","53100","NA","Sternberg task","0","2153","2","yes","1024"
"0","0","1384.3333333333333","1384.3333333333333","black","practice","legacy","legacy","legacy","0","uniform","0","undefined","0","right","2","0","2","2","0","0","2","2","0","0","2","2","2","2","0","Tue Oct 12 15:24:13 2021","The main experiment item","yes","Sternbergtask.osexp","C:/Users/warne/OneDrive/Documents/Tarleton - MS Applied Psychology/Adv Quantitative Methods and Experimental Design/Labs","no","mono","no","18","no","white","no","yes","768","legacy","2","2","C:/Users/warne/OneDrive/Documents/Tarleton - MS Applied Psychology/Adv Quantitative Methods and Experimental Design/Labs/AW-subject-3.csv","legacy","5 7 8 4 1 2","Lentiform Loewenfeld","3.3.9","0","n","0","None","right","NA","None","NA","2000","37851","NA","2000","NA","2","legacy","6","1024","2","48000","-16","experiment","3","odd","6","57555","40243","NA","55351","2381","NA","55353","54276","2391","NA","61556","56354","59556","59556","NA","Sternberg task","0","4153","3","yes","1024"
"25","25","1490.25","1490.25","black","practice","legacy","legacy","legacy","0","uniform","1","undefined","1","left","3","0","3","3","0","0","3","3","0","0","3","3","3","3","0","Tue Oct 12 15:24:13 2021","The main experiment item","yes","Sternbergtask.osexp","C:/Users/warne/OneDrive/Documents/Tarleton - MS Applied Psychology/Adv Quantitative Methods and Experimental Design/Labs","no","mono","no","18","no","white","no","yes","768","legacy","3","3","C:/Users/warne/OneDrive/Documents/Tarleton - MS Applied Psychology/Adv Quantitative Methods and Experimental Design/Labs/AW-subject-3.csv","legacy","6","Lentiform Loewenfeld","3.3.9","1","y","0","left","right","NA","left","NA","1808","37851","NA","1808","NA","2","legacy","1","1024","2","48000","-16","experiment","3","odd","6","64851","40243","NA","62646","2381","NA","62648","61561","2391","NA","68660","63650","66852","66852","NA","Sternberg task","1","5961","4","yes","1024"
"40","40","1314.8","1314.8","black","practice","legacy","legacy","legacy","0","uniform","1","undefined","1","right","4","0","4","4","0","0","4","4","0","0","4","4","4","4","0","Tue Oct 12 15:24:13 2021","The main experiment item","yes","Sternbergtask.osexp","C:/Users/warne/OneDrive/Documents/Tarleton - MS Applied Psychology/Adv Quantitative Methods and Experimental Design/Labs","no","mono","no","18","no","white","no","yes","768","legacy","4","4","C:/Users/warne/OneDrive/Documents/Tarleton - MS Applied Psychology/Adv Quantitative Methods and Experimental Design/Labs/AW-subject-3.csv","legacy","5","Lentiform Loewenfeld","3.3.9","0","n","0","right","right","NA","right","NA","613","37851","NA","613","NA","2","legacy","1","1024","2","48000","-16","experiment","3","odd","3","71941","40243","68664","69737","2381","NA","69739","61561","2391","NA","74556","70740","73942","73942","NA","Sternberg task","2","6574","5","yes","1024"
"50","50","1221.6666666666667","1221.6666666666667","black","practice","legacy","legacy","legacy","0","uniform","1","undefined","1","right","5","0","5","5","0","0","5","5","0","0","5","5","5","5","0","Tue Oct 12 15:24:13 2021","The main experiment item","yes","Sternbergtask.osexp","C:/Users/warne/OneDrive/Documents/Tarleton - MS Applied Psychology/Adv Quantitative Methods and Experimental Design/Labs","no","mono","no","18","no","white","no","yes","768","legacy","5","5","C:/Users/warne/OneDrive/Documents/Tarleton - MS Applied Psychology/Adv Quantitative Methods and Experimental Design/Labs/AW-subject-3.csv","legacy","9 6 7 4 5","Lentiform Loewenfeld","3.3.9","0","n","0","right","right","NA","right","NA","756","37851","NA","756","NA","2","legacy","5","1024","2","48000","-16","experiment","3","odd","3","77842","40243","74559","75638","2381","NA","75640","61561","2391","NA","80599","76641","79843","79843","NA","Sternberg task","3","7330","6","yes","1024"
"57.142857142857146","57.142857142857146","1210.4285714285713","1210.4285714285713","black","practice","legacy","legacy","legacy","0","uniform","1","undefined","1","left","6","0","6","6","0","0","6","6","0","0","6","6","6","6","0","Tue Oct 12 15:24:13 2021","The main experiment item","yes","Sternbergtask.osexp","C:/Users/warne/OneDrive/Documents/Tarleton - MS Applied Psychology/Adv Quantitative Methods and Experimental Design/Labs","no","mono","no","18","no","white","no","yes","768","legacy","6","6","C:/Users/warne/OneDrive/Documents/Tarleton - MS Applied Psychology/Adv Quantitative Methods and Experimental Design/Labs/AW-subject-3.csv","legacy","1 7 9 8 5","Lentiform Loewenfeld","3.3.9","4","y","0","left","right","NA","left","NA","1143","37851","NA","1143","NA","2","legacy","5","1024","2","48000","-16","experiment","3","odd","8","83879","40243","80604","81676","2381","NA","81677","61561","2391","NA","87024","82678","85880","85880","NA","Sternberg task","4","8473","7","yes","1024"
"62.5","62.5","1148.625","1148.625","black","practice","legacy","legacy","legacy","0","uniform","1","undefined","1","left","7","0","7","7","0","0","7","7","0","0","7","7","7","7","0","Tue Oct 12 15:24:13 2021","The main experiment item","yes","Sternbergtask.osexp","C:/Users/warne/OneDrive/Documents/Tarleton - MS Applied Psychology/Adv Quantitative Methods and Experimental Design/Labs","no","mono","no","18","no","white","no","yes","768","legacy","7","7","C:/Users/warne/OneDrive/Documents/Tarleton - MS Applied Psychology/Adv Quantitative Methods and Experimental Design/Labs/AW-subject-3.csv","legacy","1 5 2 9","Lentiform Loewenfeld","3.3.9","2","y","0","left","right","NA","left","NA","716","37851","NA","716","NA","2","legacy","4","1024","2","48000","-16","experiment","3","odd","5","90305","40243","87028","88101","2381","NA","88103","61561","2391","NA","93023","89104","92306","92306","NA","Sternberg task","5","9189","8","yes","1024"
"66.66666666666667","66.66666666666667","1097.4444444444443","1097.4444444444443","black","practice","legacy","legacy","legacy","0","uniform","1","undefined","1","right","8","0","8","8","0","0","8","8","0","0","8","8","8","8","0","Tue Oct 12 15:24:13 2021","The main experiment item","yes","Sternbergtask.osexp","C:/Users/warne/OneDrive/Documents/Tarleton - MS Applied Psychology/Adv Quantitative Methods and Experimental Design/Labs","no","mono","no","18","no","white","no","yes","768","legacy","8","8","C:/Users/warne/OneDrive/Documents/Tarleton - MS Applied Psychology/Adv Quantitative Methods and Experimental Design/Labs/AW-subject-3.csv","legacy","2 1","Lentiform Loewenfeld","3.3.9","0","n","0","right","right","NA","right","NA","688","37851","NA","688","NA","2","legacy","2","1024","2","48000","-16","experiment","3","odd","5","96305","40243","93026","94101","2381","NA","94103","61561","2391","NA","98995","95104","98306","98306","NA","Sternberg task","6","9877","9","yes","1024"
"70","70","1056.5","1056.5","black","practice","legacy","legacy","legacy","0","uniform","1","undefined","1","left","9","0","9","9","0","0","9","9","0","0","9","9","9","9","0","Tue Oct 12 15:24:13 2021","The main experiment item","yes","Sternbergtask.osexp","C:/Users/warne/OneDrive/Documents/Tarleton - MS Applied Psychology/Adv Quantitative Methods and Experimental Design/Labs","no","mono","no","18","no","white","no","yes","768","legacy","9","9","C:/Users/warne/OneDrive/Documents/Tarleton - MS Applied Psychology/Adv Quantitative Methods and Experimental Design/Labs/AW-subject-3.csv","legacy","4 8","Lentiform Loewenfeld","3.3.9","1","y","0","left","right","NA","left","NA","688","37851","NA","688","NA","2","legacy","2","1024","2","48000","-16","experiment","3","odd","4","102273","40243","98998","100070","2381","NA","100071","61561","2391","NA","104963","101072","104274","104274","NA","Sternberg task","7","10565","10","yes","1024"
"72.72727272727273","72.72727272727273","1017.8181818181819","1017.8181818181819","black","practice","legacy","legacy","legacy","0","uniform","1","undefined","1","right","10","0","10","10","0","0","10","10","0","0","10","10","10","10","0","Tue Oct 12 15:24:13 2021","The main experiment item","yes","Sternbergtask.osexp","C:/Users/warne/OneDrive/Documents/Tarleton - MS Applied Psychology/Adv Quantitative Methods and Experimental Design/Labs","no","mono","no","18","no","white","no","yes","768","legacy","10","10","C:/Users/warne/OneDrive/Documents/Tarleton - MS Applied Psychology/Adv Quantitative Methods and Experimental Design/Labs/AW-subject-3.csv","legacy","3 1 9 4","Lentiform Loewenfeld","3.3.9","0","n","0","right","right","NA","right","NA","631","37851","NA","631","NA","2","legacy","4","1024","2","48000","-16","experiment","3","odd","6","108243","40243","104966","106039","2381","NA","106041","61561","2391","NA","110875","107042","110243","110243","NA","Sternberg task","8","11196","11","yes","1024"
"75","75","1005.5833333333334","1005.5833333333334","black","practice","legacy","legacy","legacy","0","uniform","1","undefined","1","left","11","0","11","11","0","0","11","11","0","0","11","11","11","11","0","Tue Oct 12 15:24:13 2021","The main experiment item","yes","Sternbergtask.osexp","C:/Users/warne/OneDrive/Documents/Tarleton - MS Applied Psychology/Adv Quantitative Methods and Experimental Design/Labs","no","mono","no","18","no","white","no","yes","768","legacy","11","11","C:/Users/warne/OneDrive/Documents/Tarleton - MS Applied Psychology/Adv Quantitative Methods and Experimental Design/Labs/AW-subject-3.csv","legacy","2 9 4","Lentiform Loewenfeld","3.3.9","3","y","0","left","right","NA","left","NA","871","37851","NA","871","NA","2","legacy","3","1024","2","48000","-16","experiment","3","odd","4","114155","40243","110878","111952","2381","NA","111953","61561","2391","NA","117028","112954","116156","116156","NA","Sternberg task","9","12067","12","yes","1024"
"76.92307692307692","76.92307692307692","982.0769230769231","982.0769230769231","black","experiment","legacy","legacy","legacy","0","uniform","1","undefined","1","left","12","0","12","12","0","0","12","12","0","0","12","12","12","12","0","Tue Oct 12 15:24:13 2021","The main experiment item","yes","Sternbergtask.osexp","C:/Users/warne/OneDrive/Documents/Tarleton - MS Applied Psychology/Adv Quantitative Methods and Experimental Design/Labs","no","mono","no","18","no","white","no","yes","768","legacy","0","11","C:/Users/warne/OneDrive/Documents/Tarleton - MS Applied Psychology/Adv Quantitative Methods and Experimental Design/Labs/AW-subject-3.csv","legacy","3 9 6 2","Lentiform Loewenfeld","3.3.9","4","y","0","left","right","right","left","NA","700","37851","6833","700","NA","2","legacy","4","1024","2","48000","-16","experiment","3","odd","2","127166","40243","117032","124962","2381","124888","124963","61561","2391","118054","129868","125965","129167","129167","NA","Sternberg task","10","12767","13","yes","1024"
"78.57142857142857","78.57142857142857","961.0714285714286","961.0714285714286","black","experiment","legacy","legacy","legacy","0","uniform","1","undefined","1","right","13","0","13","13","0","0","13","13","0","0","13","13","13","13","0","Tue Oct 12 15:24:13 2021","The main experiment item","yes","Sternbergtask.osexp","C:/Users/warne/OneDrive/Documents/Tarleton - MS Applied Psychology/Adv Quantitative Methods and Experimental Design/Labs","no","mono","no","18","no","white","no","yes","768","legacy","1","11","C:/Users/warne/OneDrive/Documents/Tarleton - MS Applied Psychology/Adv Quantitative Methods and Experimental Design/Labs/AW-subject-3.csv","legacy","1","Lentiform Loewenfeld","3.3.9","0","n","0","right","right","right","right","NA","688","37851","6833","688","NA","2","legacy","1","1024","2","48000","-16","experiment","3","odd","7","133150","40243","129874","130946","2381","124888","130948","61561","2391","118054","135840","131949","135151","135151","NA","Sternberg task","11","13455","14","yes","1024"
"80","80","940.7333333333333","940.7333333333333","black","experiment","legacy","legacy","legacy","0","uniform","1","undefined","1","left","14","0","14","14","0","0","14","14","0","0","14","14","14","14","0","Tue Oct 12 15:24:13 2021","The main experiment item","yes","Sternbergtask.osexp","C:/Users/warne/OneDrive/Documents/Tarleton - MS Applied Psychology/Adv Quantitative Methods and Experimental Design/Labs","no","mono","no","18","no","white","no","yes","768","legacy","2","11","C:/Users/warne/OneDrive/Documents/Tarleton - MS Applied Psychology/Adv Quantitative Methods and Experimental Design/Labs/AW-subject-3.csv","legacy","3 5 9 6 2 4","Lentiform Loewenfeld","3.3.9","1","y","0","left","right","right","left","NA","656","37851","6833","656","NA","2","legacy","6","1024","2","48000","-16","experiment","3","odd","3","139122","40243","135843","136918","2381","124888","136920","61561","2391","118054","141779","137921","141123","141123","NA","Sternberg task","12","14111","15","yes","1024"
"81.25","81.25","937.25","937.25","black","experiment","legacy","legacy","legacy","0","uniform","1","undefined","1","right","15","0","15","15","0","0","15","15","0","0","15","15","15","15","0","Tue Oct 12 15:24:13 2021","The main experiment item","yes","Sternbergtask.osexp","C:/Users/warne/OneDrive/Documents/Tarleton - MS Applied Psychology/Adv Quantitative Methods and Experimental Design/Labs","no","mono","no","18","no","white","no","yes","768","legacy","3","11","C:/Users/warne/OneDrive/Documents/Tarleton - MS Applied Psychology/Adv Quantitative Methods and Experimental Design/Labs/AW-subject-3.csv","legacy","1 7 5 2","Lentiform Loewenfeld","3.3.9","0","n","0","right","right","right","right","NA","885","37851","6833","885","NA","2","legacy","4","1024","2","48000","-16","experiment","3","odd","3","145061","40243","141784","142857","2381","124888","142859","61561","2391","118054","147948","143860","147062","147062","NA","Sternberg task","13","14996","16","yes","1024"
"82.3529411764706","82.3529411764706","935.7647058823529","935.7647058823529","black","experiment","legacy","legacy","legacy","0","uniform","1","undefined","1","left","16","0","16","16","0","0","16","16","0","0","16","16","16","16","0","Tue Oct 12 15:24:13 2021","The main experiment item","yes","Sternbergtask.osexp","C:/Users/warne/OneDrive/Documents/Tarleton - MS Applied Psychology/Adv Quantitative Methods and Experimental Design/Labs","no","mono","no","18","no","white","no","yes","768","legacy","4","11","C:/Users/warne/OneDrive/Documents/Tarleton - MS Applied Psychology/Adv Quantitative Methods and Experimental Design/Labs/AW-subject-3.csv","legacy","6 7 8 5","Lentiform Loewenfeld","3.3.9","3","y","0","left","right","right","left","NA","912","37851","6833","912","NA","2","legacy","4","1024","2","48000","-16","experiment","3","odd","8","151229","40243","147954","149025","2381","124888","149027","61561","2391","118054","154143","150028","153230","153230","NA","Sternberg task","14","15908","17","yes","1024"
"83.33333333333333","83.33333333333333","941.8333333333334","941.8333333333334","black","experiment","legacy","legacy","legacy","0","uniform","1","undefined","1","right","17","0","17","17","0","0","17","17","0","0","17","17","17","17","0","Tue Oct 12 15:24:13 2021","The main experiment item","yes","Sternbergtask.osexp","C:/Users/warne/OneDrive/Documents/Tarleton - MS Applied Psychology/Adv Quantitative Methods and Experimental Design/Labs","no","mono","no","18","no","white","no","yes","768","legacy","5","11","C:/Users/warne/OneDrive/Documents/Tarleton - MS Applied Psychology/Adv Quantitative Methods and Experimental Design/Labs/AW-subject-3.csv","legacy","1 6 4","Lentiform Loewenfeld","3.3.9","0","n","0","right","right","right","right","NA","1045","37851","6833","1045","NA","2","legacy","3","1024","2","48000","-16","experiment","3","odd","7","157425","40243","154147","155222","2381","124888","155223","61561","2391","118054","160472","156224","159426","159426","NA","Sternberg task","15","16953","18","yes","1024"
"84.21052631578948","84.21052631578948","936.578947368421","936.578947368421","black","experiment","legacy","legacy","legacy","0","uniform","1","undefined","1","right","18","0","18","18","0","0","18","18","0","0","18","18","18","18","0","Tue Oct 12 15:24:13 2021","The main experiment item","yes","Sternbergtask.osexp","C:/Users/warne/OneDrive/Documents/Tarleton - MS Applied Psychology/Adv Quantitative Methods and Experimental Design/Labs","no","mono","no","18","no","white","no","yes","768","legacy","6","11","C:/Users/warne/OneDrive/Documents/Tarleton - MS Applied Psychology/Adv Quantitative Methods and Experimental Design/Labs/AW-subject-3.csv","legacy","8 9","Lentiform Loewenfeld","3.3.9","0","n","0","right","right","right","right","NA","842","37851","6833","842","NA","2","legacy","2","1024","2","48000","-16","experiment","3","odd","5","163751","40243","160475","161547","2381","124888","161549","61561","2391","118054","166595","162550","165752","165752","NA","Sternberg task","16","17795","19","yes","1024"
"85","85","929.45","929.45","black","experiment","legacy","legacy","legacy","0","uniform","1","undefined","1","left","19","0","19","19","0","0","19","19","0","0","19","19","19","19","0","Tue Oct 12 15:24:13 2021","The main experiment item","yes","Sternbergtask.osexp","C:/Users/warne/OneDrive/Documents/Tarleton - MS Applied Psychology/Adv Quantitative Methods and Experimental Design/Labs","no","mono","no","18","no","white","no","yes","768","legacy","7","11","C:/Users/warne/OneDrive/Documents/Tarleton - MS Applied Psychology/Adv Quantitative Methods and Experimental Design/Labs/AW-subject-3.csv","legacy","7 2 3","Lentiform Loewenfeld","3.3.9","3","y","0","left","right","right","left","NA","794","37851","6833","794","NA","2","legacy","3","1024","2","48000","-16","experiment","3","odd","3","169876","40243","166600","167671","2381","124888","167673","61561","2391","118054","172672","168674","171877","171877","NA","Sternberg task","17","18589","20","yes","1024"
"85.71428571428571","85.71428571428571","921.3333333333334","921.3333333333334","black","experiment","legacy","legacy","legacy","0","uniform","1","undefined","1","left","20","0","20","20","0","0","20","20","0","0","20","20","20","20","0","Tue Oct 12 15:24:13 2021","The main experiment item","yes","Sternbergtask.osexp","C:/Users/warne/OneDrive/Documents/Tarleton - MS Applied Psychology/Adv Quantitative Methods and Experimental Design/Labs","no","mono","no","18","no","white","no","yes","768","legacy","8","11","C:/Users/warne/OneDrive/Documents/Tarleton - MS Applied Psychology/Adv Quantitative Methods and Experimental Design/Labs/AW-subject-3.csv","legacy","1 4 9 3 2 5","Lentiform Loewenfeld","3.3.9","3","y","0","left","right","right","left","NA","759","37851","6833","759","NA","2","legacy","6","1024","2","48000","-16","experiment","3","odd","9","175954","40243","172675","173748","2381","124888","173750","61561","2391","118054","178715","174751","177955","177955","NA","Sternberg task","18","19348","21","yes","1024"
"86.36363636363636","86.36363636363636","947.4545454545455","947.4545454545455","black","experiment","legacy","legacy","legacy","0","uniform","1","undefined","1","right","21","0","21","21","0","0","21","21","0","0","21","21","21","21","0","Tue Oct 12 15:24:13 2021","The main experiment item","yes","Sternbergtask.osexp","C:/Users/warne/OneDrive/Documents/Tarleton - MS Applied Psychology/Adv Quantitative Methods and Experimental Design/Labs","no","mono","no","18","no","white","no","yes","768","legacy","9","11","C:/Users/warne/OneDrive/Documents/Tarleton - MS Applied Psychology/Adv Quantitative Methods and Experimental Design/Labs/AW-subject-3.csv","legacy","2 8 7 9 5 3","Lentiform Loewenfeld","3.3.9","0","n","0","right","right","right","right","NA","1496","37851","6833","1496","NA","2","legacy","6","1024","2","48000","-16","experiment","3","odd","6","181998","40243","178719","179794","2381","124888","179796","61561","2391","118054","185496","180797","183999","183999","NA","Sternberg task","19","20844","22","yes","1024"
"86.95652173913044","86.95652173913044","941.4782608695652","941.4782608695652","black","experiment","legacy","legacy","legacy","0","uniform","1","undefined","1","right","22","0","22","22","0","0","22","22","0","0","22","22","22","22","0","Tue Oct 12 15:24:13 2021","The main experiment item","yes","Sternbergtask.osexp","C:/Users/warne/OneDrive/Documents/Tarleton - MS Applied Psychology/Adv Quantitative Methods and Experimental Design/Labs","no","mono","no","18","no","white","no","yes","768","legacy","10","11","C:/Users/warne/OneDrive/Documents/Tarleton - MS Applied Psychology/Adv Quantitative Methods and Experimental Design/Labs/AW-subject-3.csv","legacy","1 6 4 3 9 7","Lentiform Loewenfeld","3.3.9","0","n","0","right","right","right","right","NA","810","37851","6833","810","NA","2","legacy","6","1024","2","48000","-16","experiment","3","odd","8","188776","40243","185499","186572","2381","124888","186574","61561","2391","118054","191588","187575","190777","190777","NA","Sternberg task","20","21654","23","yes","1024"
"87.5","87.5","934.0833333333334","934.0833333333334","black","experiment","legacy","legacy","legacy","0","uniform","1","undefined","1","left","23","0","23","23","0","0","23","23","0","0","23","23","23","23","0","Tue Oct 12 15:24:13 2021","The main experiment item","yes","Sternbergtask.osexp","C:/Users/warne/OneDrive/Documents/Tarleton - MS Applied Psychology/Adv Quantitative Methods and Experimental Design/Labs","no","mono","no","18","no","white","no","yes","768","legacy","11","11","C:/Users/warne/OneDrive/Documents/Tarleton - MS Applied Psychology/Adv Quantitative Methods and Experimental Design/Labs/AW-subject-3.csv","legacy","4","Lentiform Loewenfeld","3.3.9","1","y","0","left","right","right","left","NA","764","37851","6833","764","NA","2","legacy","1","1024","2","48000","-16","experiment","3","odd","4","194870","40243","191594","192666","2381","124888","192667","61561","2391","118054","197636","193669","196871","196871","NA","Sternberg task","21","22418","24","yes","1024"
"88","88","934.32","934.32","black","experiment","legacy","legacy","legacy","0","uniform","1","undefined","1","left","24","0","24","24","0","0","24","24","0","0","24","24","24","24","0","Tue Oct 12 15:24:13 2021","The main experiment item","yes","Sternbergtask.osexp","C:/Users/warne/OneDrive/Documents/Tarleton - MS Applied Psychology/Adv Quantitative Methods and Experimental Design/Labs","no","mono","no","18","no","white","no","yes","768","legacy","12","11","C:/Users/warne/OneDrive/Documents/Tarleton - MS Applied Psychology/Adv Quantitative Methods and Experimental Design/Labs/AW-subject-3.csv","legacy","4 9 7 8 5 3","Lentiform Loewenfeld","3.3.9","4","y","0","left","right","right","left","NA","940","37851","6833","940","NA","2","legacy","6","1024","2","48000","-16","experiment","3","odd","8","200918","40243","197640","198715","2381","124888","198716","61561","2391","118054","203860","199717","202919","202919","NA","Sternberg task","22","23358","25","yes","1024"
"88.46153846153847","88.46153846153847","928.2692307692307","928.2692307692307","black","experiment","legacy","legacy","legacy","0","uniform","1","undefined","1","right","25","0","25","25","0","0","25","25","0","0","25","25","25","25","0","Tue Oct 12 15:24:13 2021","The main experiment item","yes","Sternbergtask.osexp","C:/Users/warne/OneDrive/Documents/Tarleton - MS Applied Psychology/Adv Quantitative Methods and Experimental Design/Labs","no","mono","no","18","no","white","no","yes","768","legacy","13","11","C:/Users/warne/OneDrive/Documents/Tarleton - MS Applied Psychology/Adv Quantitative Methods and Experimental Design/Labs/AW-subject-3.csv","legacy","6 9 7 3 8 2","Lentiform Loewenfeld","3.3.9","0","n","0","right","right","right","right","NA","777","37851","6833","777","NA","2","legacy","6","1024","2","48000","-16","experiment","3","odd","5","207141","40243","203864","204937","2381","124888","204939","61561","2391","118054","209920","205940","209142","209142","NA","Sternberg task","23","24135","26","yes","1024"
"88.88888888888889","88.88888888888889","922.5555555555555","922.5555555555555","black","experiment","legacy","legacy","legacy","0","uniform","1","undefined","1","right","26","0","26","26","0","0","26","26","0","0","26","26","26","26","0","Tue Oct 12 15:24:13 2021","The main experiment item","yes","Sternbergtask.osexp","C:/Users/warne/OneDrive/Documents/Tarleton - MS Applied Psychology/Adv Quantitative Methods and Experimental Design/Labs","no","mono","no","18","no","white","no","yes","768","legacy","14","11","C:/Users/warne/OneDrive/Documents/Tarleton - MS Applied Psychology/Adv Quantitative Methods and Experimental Design/Labs/AW-subject-3.csv","legacy","7 1 5 6 3","Lentiform Loewenfeld","3.3.9","0","n","0","right","right","right","right","NA","774","37851","6833","774","NA","2","legacy","5","1024","2","48000","-16","experiment","3","odd","8","213204","40243","209926","211000","2381","124888","211002","61561","2391","118054","215980","212003","215205","215205","NA","Sternberg task","24","24909","27","yes","1024"
"89.28571428571429","89.28571428571429","914.1071428571429","914.1071428571429","black","experiment","legacy","legacy","legacy","0","uniform","1","undefined","1","left","27","0","27","27","0","0","27","27","0","0","27","27","27","27","0","Tue Oct 12 15:24:13 2021","The main experiment item","yes","Sternbergtask.osexp","C:/Users/warne/OneDrive/Documents/Tarleton - MS Applied Psychology/Adv Quantitative Methods and Experimental Design/Labs","no","mono","no","18","no","white","no","yes","768","legacy","15","11","C:/Users/warne/OneDrive/Documents/Tarleton - MS Applied Psychology/Adv Quantitative Methods and Experimental Design/Labs/AW-subject-3.csv","legacy","8 9 5 6 7","Lentiform Loewenfeld","3.3.9","1","y","0","left","right","right","left","NA","686","37851","6833","686","NA","2","legacy","5","1024","2","48000","-16","experiment","3","odd","8","219264","40243","215984","217057","2381","124888","217059","61561","2391","118054","221952","218060","221265","221265","NA","Sternberg task","25","25595","28","yes","1024"
"89.65517241379311","89.65517241379311","906.6896551724138","906.6896551724138","black","experiment","legacy","legacy","legacy","0","uniform","1","undefined","1","right","28","0","28","28","0","0","28","28","0","0","28","28","28","28","0","Tue Oct 12 15:24:13 2021","The main experiment item","yes","Sternbergtask.osexp","C:/Users/warne/OneDrive/Documents/Tarleton - MS Applied Psychology/Adv Quantitative Methods and Experimental Design/Labs","no","mono","no","18","no","white","no","yes","768","legacy","16","11","C:/Users/warne/OneDrive/Documents/Tarleton - MS Applied Psychology/Adv Quantitative Methods and Experimental Design/Labs/AW-subject-3.csv","legacy","2 8 9","Lentiform Loewenfeld","3.3.9","0","n","0","right","right","right","right","NA","699","37851","6833","699","NA","2","legacy","3","1024","2","48000","-16","experiment","3","odd","6","225236","40243","221957","223032","2381","124888","223034","61561","2391","118054","227940","224035","227239","227239","NA","Sternberg task","26","26294","29","yes","1024"
"90","90","899.7666666666667","899.7666666666667","black","experiment","legacy","legacy","legacy","0","uniform","1","undefined","1","right","29","0","29","29","0","0","29","29","0","0","29","29","29","29","0","Tue Oct 12 15:24:13 2021","The main experiment item","yes","Sternbergtask.osexp","C:/Users/warne/OneDrive/Documents/Tarleton - MS Applied Psychology/Adv Quantitative Methods and Experimental Design/Labs","no","mono","no","18","no","white","no","yes","768","legacy","17","11","C:/Users/warne/OneDrive/Documents/Tarleton - MS Applied Psychology/Adv Quantitative Methods and Experimental Design/Labs/AW-subject-3.csv","legacy","4 2 6 9","Lentiform Loewenfeld","3.3.9","0","n","0","right","right","right","right","NA","699","37851","6833","699","NA","2","legacy","4","1024","2","48000","-16","experiment","3","odd","7","231223","40243","227947","229019","2381","124888","229021","61561","2391","118054","233924","230022","233224","233224","NA","Sternberg task","27","26993","30","yes","1024"
"90.3225806451613","90.3225806451613","894.8387096774194","894.8387096774194","black","experiment","legacy","legacy","legacy","0","uniform","1","undefined","1","left","30","0","30","30","0","0","30","30","0","0","30","30","30","30","0","Tue Oct 12 15:24:13 2021","The main experiment item","yes","Sternbergtask.osexp","C:/Users/warne/OneDrive/Documents/Tarleton - MS Applied Psychology/Adv Quantitative Methods and Experimental Design/Labs","no","mono","no","18","no","white","no","yes","768","legacy","18","11","C:/Users/warne/OneDrive/Documents/Tarleton - MS Applied Psychology/Adv Quantitative Methods and Experimental Design/Labs/AW-subject-3.csv","legacy","9 1 6 7 8","Lentiform Loewenfeld","3.3.9","1","y","0","left","right","right","left","NA","747","37851","6833","747","NA","2","legacy","5","1024","2","48000","-16","experiment","3","odd","9","237207","40243","233929","235003","2381","124888","235005","61561","2391","118054","239956","236006","239208","239208","NA","Sternberg task","28","27740","31","yes","1024"
"90.625","90.625","888.4375","888.4375","black","experiment","legacy","legacy","legacy","0","uniform","1","undefined","1","right","31","0","31","31","0","0","31","31","0","0","31","31","31","31","0","Tue Oct 12 15:24:13 2021","The main experiment item","yes","Sternbergtask.osexp","C:/Users/warne/OneDrive/Documents/Tarleton - MS Applied Psychology/Adv Quantitative Methods and Experimental Design/Labs","no","mono","no","18","no","white","no","yes","768","legacy","19","11","C:/Users/warne/OneDrive/Documents/Tarleton - MS Applied Psychology/Adv Quantitative Methods and Experimental Design/Labs/AW-subject-3.csv","legacy","1 7 5 2 9","Lentiform Loewenfeld","3.3.9","0","n","0","right","right","right","right","NA","690","37851","6833","690","NA","2","legacy","5","1024","2","48000","-16","experiment","3","odd","3","243236","40243","239959","241032","2381","124888","241034","61561","2391","118054","245927","242035","245237","245237","NA","Sternberg task","29","28430","32","yes","1024"
"90.9090909090909","90.9090909090909","883.7272727272727","883.7272727272727","black","experiment","legacy","legacy","legacy","0","uniform","1","undefined","1","left","32","0","32","32","0","0","32","32","0","0","32","32","32","32","0","Tue Oct 12 15:24:13 2021","The main experiment item","yes","Sternbergtask.osexp","C:/Users/warne/OneDrive/Documents/Tarleton - MS Applied Psychology/Adv Quantitative Methods and Experimental Design/Labs","no","mono","no","18","no","white","no","yes","768","legacy","20","11","C:/Users/warne/OneDrive/Documents/Tarleton - MS Applied Psychology/Adv Quantitative Methods and Experimental Design/Labs/AW-subject-3.csv","legacy","9 5 8 1","Lentiform Loewenfeld","3.3.9","2","y","0","left","right","right","left","NA","733","37851","6833","733","NA","2","legacy","4","1024","2","48000","-16","experiment","3","odd","5","249209","40243","245933","247005","2381","124888","247007","61561","2391","118054","251944","248008","251210","251210","NA","Sternberg task","30","29163","33","yes","1024"
"91.17647058823529","91.17647058823529","884.5294117647059","884.5294117647059","black","experiment","legacy","legacy","legacy","0","uniform","1","undefined","1","right","33","0","33","33","0","0","33","33","0","0","33","33","33","33","0","Tue Oct 12 15:24:13 2021","The main experiment item","yes","Sternbergtask.osexp","C:/Users/warne/OneDrive/Documents/Tarleton - MS Applied Psychology/Adv Quantitative Methods and Experimental Design/Labs","no","mono","no","18","no","white","no","yes","768","legacy","21","11","C:/Users/warne/OneDrive/Documents/Tarleton - MS Applied Psychology/Adv Quantitative Methods and Experimental Design/Labs/AW-subject-3.csv","legacy","8 5 7 3 6","Lentiform Loewenfeld","3.3.9","0","n","0","right","right","right","right","NA","911","37851","6833","911","NA","2","legacy","5","1024","2","48000","-16","experiment","3","odd","9","255227","40243","251949","253023","2381","124888","253025","61561","2391","118054","258140","254026","257228","257228","NA","Sternberg task","31","30074","34","yes","1024"
"91.42857142857143","91.42857142857143","879.8","879.8","black","experiment","legacy","legacy","legacy","0","uniform","1","undefined","1","right","34","0","34","34","0","0","34","34","0","0","34","34","34","34","0","Tue Oct 12 15:24:13 2021","The main experiment item","yes","Sternbergtask.osexp","C:/Users/warne/OneDrive/Documents/Tarleton - MS Applied Psychology/Adv Quantitative Methods and Experimental Design/Labs","no","mono","no","18","no","white","no","yes","768","legacy","22","11","C:/Users/warne/OneDrive/Documents/Tarleton - MS Applied Psychology/Adv Quantitative Methods and Experimental Design/Labs/AW-subject-3.csv","legacy","3 4 2","Lentiform Loewenfeld","3.3.9","0","n","0","right","right","right","right","NA","719","37851","6833","719","NA","2","legacy","3","1024","2","48000","-16","experiment","3","odd","5","261420","40243","258145","259216","2381","124888","259218","61561","2391","118054","264140","260219","263421","263421","NA","Sternberg task","32","30793","35","yes","1024"
"91.66666666666667","91.66666666666667","876.9722222222222","876.9722222222222","black","experiment","legacy","legacy","legacy","0","uniform","1","undefined","1","left","35","0","35","35","0","0","35","35","0","0","35","35","35","35","0","Tue Oct 12 15:24:13 2021","The main experiment item","yes","Sternbergtask.osexp","C:/Users/warne/OneDrive/Documents/Tarleton - MS Applied Psychology/Adv Quantitative Methods and Experimental Design/Labs","no","mono","no","18","no","white","no","yes","768","legacy","23","11","C:/Users/warne/OneDrive/Documents/Tarleton - MS Applied Psychology/Adv Quantitative Methods and Experimental Design/Labs/AW-subject-3.csv","legacy","7 1 3","Lentiform Loewenfeld","3.3.9","2","y","0","left","right","right","left","NA","778","37851","6833","778","NA","2","legacy","3","1024","2","48000","-16","experiment","3","odd","1","267420","40243","264144","265216","2381","124888","265218","61561","2391","118054","270200","266219","269421","269421","NA","Sternberg task","33","31571","36","yes","1024"
"89.1891891891892","89.1891891891892","907.3243243243244","907.3243243243244","black","experiment","legacy","legacy","legacy","0","uniform","0","undefined","0","left","36","0","36","36","0","0","36","36","0","0","36","36","36","36","0","Tue Oct 12 15:24:13 2021","The main experiment item","yes","Sternbergtask.osexp","C:/Users/warne/OneDrive/Documents/Tarleton - MS Applied Psychology/Adv Quantitative Methods and Experimental Design/Labs","no","mono","no","18","no","white","no","yes","768","legacy","24","11","C:/Users/warne/OneDrive/Documents/Tarleton - MS Applied Psychology/Adv Quantitative Methods and Experimental Design/Labs/AW-subject-3.csv","legacy","8 5 3 7 4 6","Lentiform Loewenfeld","3.3.9","6","y","0","None","right","right","None","NA","2000","37851","6833","2000","NA","2","legacy","6","1024","2","48000","-16","experiment","3","odd","6","273481","40243","270203","271277","2381","124888","271279","61561","2391","118054","277482","272280","275482","275482","NA","Sternberg task","33","33571","37","yes","1024"
"89.47368421052632","89.47368421052632","901.0263157894736","901.0263157894736","black","experiment","legacy","legacy","legacy","0","uniform","1","undefined","1","left","37","0","37","37","0","0","37","37","0","0","37","37","37","37","0","Tue Oct 12 15:24:13 2021","The main experiment item","yes","Sternbergtask.osexp","C:/Users/warne/OneDrive/Documents/Tarleton - MS Applied Psychology/Adv Quantitative Methods and Experimental Design/Labs","no","mono","no","18","no","white","no","yes","768","legacy","25","11","C:/Users/warne/OneDrive/Documents/Tarleton - MS Applied Psychology/Adv Quantitative Methods and Experimental Design/Labs/AW-subject-3.csv","legacy","8 9 5 7 1 6","Lentiform Loewenfeld","3.3.9","4","y","0","left","right","right","left","NA","668","37851","6833","668","NA","2","legacy","6","1024","2","48000","-16","experiment","3","odd","7","280762","40243","270203","278558","2381","124888","278559","277485","2391","118054","283432","279561","282763","282763","NA","Sternberg task","34","34239","38","yes","1024"
"89.74358974358974","89.74358974358974","898.6923076923077","898.6923076923077","black","experiment","legacy","legacy","legacy","0","uniform","1","undefined","1","right","38","0","38","38","0","0","38","38","0","0","38","38","38","38","0","Tue Oct 12 15:24:13 2021","The main experiment item","yes","Sternbergtask.osexp","C:/Users/warne/OneDrive/Documents/Tarleton - MS Applied Psychology/Adv Quantitative Methods and Experimental Design/Labs","no","mono","no","18","no","white","no","yes","768","legacy","26","11","C:/Users/warne/OneDrive/Documents/Tarleton - MS Applied Psychology/Adv Quantitative Methods and Experimental Design/Labs/AW-subject-3.csv","legacy","6 2 9 3 8 4","Lentiform Loewenfeld","3.3.9","0","n","0","right","right","right","right","NA","810","37851","6833","810","NA","2","legacy","6","1024","2","48000","-16","experiment","3","odd","1","286711","40243","283436","284508","2381","124888","284509","277485","2391","118054","289523","285510","288712","288712","NA","Sternberg task","35","35049","39","yes","1024"
"90","90","900.175","900.175","black","experiment","legacy","legacy","legacy","0","uniform","1","undefined","1","left","39","0","39","39","0","0","39","39","0","0","39","39","39","39","0","Tue Oct 12 15:24:13 2021","The main experiment item","yes","Sternbergtask.osexp","C:/Users/warne/OneDrive/Documents/Tarleton - MS Applied Psychology/Adv Quantitative Methods and Experimental Design/Labs","no","mono","no","18","no","white","no","yes","768","legacy","27","11","C:/Users/warne/OneDrive/Documents/Tarleton - MS Applied Psychology/Adv Quantitative Methods and Experimental Design/Labs/AW-subject-3.csv","legacy","9 3 8 2 1 4","Lentiform Loewenfeld","3.3.9","3","y","0","left","right","right","left","NA","958","37851","6833","958","NA","2","legacy","6","1024","2","48000","-16","experiment","3","odd","8","292805","40243","289526","290600","2381","124888","290601","277485","2391","118054","295764","291602","294806","294806","NA","Sternberg task","36","36007","40","yes","1024"
"90.2439024390244","90.2439024390244","901.609756097561","901.609756097561","black","experiment","legacy","legacy","legacy","0","uniform","1","undefined","1","left","40","0","40","40","0","0","40","40","0","0","40","40","40","40","0","Tue Oct 12 15:24:13 2021","The main experiment item","yes","Sternbergtask.osexp","C:/Users/warne/OneDrive/Documents/Tarleton - MS Applied Psychology/Adv Quantitative Methods and Experimental Design/Labs","no","mono","no","18","no","white","no","yes","768","legacy","28","11","C:/Users/warne/OneDrive/Documents/Tarleton - MS Applied Psychology/Adv Quantitative Methods and Experimental Design/Labs/AW-subject-3.csv","legacy","7","Lentiform Loewenfeld","3.3.9","1","y","0","left","right","right","left","NA","959","37851","6833","959","NA","2","legacy","1","1024","2","48000","-16","experiment","3","odd","7","299044","40243","295769","296836","2381","124888","296838","277485","2391","118054","302004","297842","301045","301045","NA","Sternberg task","37","36966","41","yes","1024"
"90.47619047619048","90.47619047619048","900.2857142857143","900.2857142857143","black","experiment","legacy","legacy","legacy","0","uniform","1","undefined","1","left","41","0","41","41","0","0","41","41","0","0","41","41","41","41","0","Tue Oct 12 15:24:13 2021","The main experiment item","yes","Sternbergtask.osexp","C:/Users/warne/OneDrive/Documents/Tarleton - MS Applied Psychology/Adv Quantitative Methods and Experimental Design/Labs","no","mono","no","18","no","white","no","yes","768","legacy","29","11","C:/Users/warne/OneDrive/Documents/Tarleton - MS Applied Psychology/Adv Quantitative Methods and Experimental Design/Labs/AW-subject-3.csv","legacy","3 5 7 1","Lentiform Loewenfeld","3.3.9","3","y","0","left","right","right","left","NA","846","37851","6833","846","NA","2","legacy","4","1024","2","48000","-16","experiment","3","odd","7","305281","40243","302009","303077","2381","124888","303078","277485","2391","118054","308128","304079","307282","307282","NA","Sternberg task","38","37812","42","yes","1024"
"90.69767441860465","90.69767441860465","896.046511627907","896.046511627907","black","experiment","legacy","legacy","legacy","0","uniform","1","undefined","1","right","42","0","42","42","0","0","42","42","0","0","42","42","42","42","0","Tue Oct 12 15:24:13 2021","The main experiment item","yes","Sternbergtask.osexp","C:/Users/warne/OneDrive/Documents/Tarleton - MS Applied Psychology/Adv Quantitative Methods and Experimental Design/Labs","no","mono","no","18","no","white","no","yes","768","legacy","30","11","C:/Users/warne/OneDrive/Documents/Tarleton - MS Applied Psychology/Adv Quantitative Methods and Experimental Design/Labs/AW-subject-3.csv","legacy","5 9 2 3","Lentiform Loewenfeld","3.3.9","0","n","0","right","right","right","right","NA","718","37851","6833","718","NA","2","legacy","4","1024","2","48000","-16","experiment","3","odd","8","311407","40243","308133","309201","2381","124888","309203","277485","2391","118054","314127","310204","313408","313408","NA","Sternberg task","39","38530","43","yes","1024"
"90.9090909090909","90.9090909090909","917.2045454545455","917.2045454545455","black","experiment","legacy","legacy","legacy","0","uniform","1","undefined","1","left","43","0","43","43","0","0","43","43","0","0","43","43","43","43","0","Tue Oct 12 15:24:13 2021","The main experiment item","yes","Sternbergtask.osexp","C:/Users/warne/OneDrive/Documents/Tarleton - MS Applied Psychology/Adv Quantitative Methods and Experimental Design/Labs","no","mono","no","18","no","white","no","yes","768","legacy","31","11","C:/Users/warne/OneDrive/Documents/Tarleton - MS Applied Psychology/Adv Quantitative Methods and Experimental Design/Labs/AW-subject-3.csv","legacy","2 6 1 7 4","Lentiform Loewenfeld","3.3.9","2","y","0","left","right","right","left","NA","1827","37851","6833","1827","NA","2","legacy","5","1024","2","48000","-16","experiment","3","odd","6","317408","40243","314132","315199","2381","124888","315200","277485","2391","118054","321236","316204","319409","319409","NA","Sternberg task","40","40357","44","yes","1024"
"88.88888888888889","88.88888888888889","910.2222222222222","910.2222222222222","black","experiment","legacy","legacy","legacy","0","uniform","0","undefined","0","right","44","0","44","44","0","0","44","44","0","0","44","44","44","44","0","Tue Oct 12 15:24:13 2021","The main experiment item","yes","Sternbergtask.osexp","C:/Users/warne/OneDrive/Documents/Tarleton - MS Applied Psychology/Adv Quantitative Methods and Experimental Design/Labs","no","mono","no","18","no","white","no","yes","768","legacy","32","11","C:/Users/warne/OneDrive/Documents/Tarleton - MS Applied Psychology/Adv Quantitative Methods and Experimental Design/Labs/AW-subject-3.csv","legacy","6 7 5 9","Lentiform Loewenfeld","3.3.9","0","n","0","left","right","right","left","NA","603","37851","6833","603","NA","2","legacy","4","1024","2","48000","-16","experiment","3","odd","2","324516","40243","321241","322309","2381","124888","322311","277485","2391","118054","327120","323312","326517","326517","NA","Sternberg task","40","40960","45","yes","1024"
"89.1304347826087","89.1304347826087","915.1521739130435","915.1521739130435","black","experiment","legacy","legacy","legacy","0","uniform","1","undefined","1","left","45","0","45","45","0","0","45","45","0","0","45","45","45","45","0","Tue Oct 12 15:24:13 2021","The main experiment item","yes","Sternbergtask.osexp","C:/Users/warne/OneDrive/Documents/Tarleton - MS Applied Psychology/Adv Quantitative Methods and Experimental Design/Labs","no","mono","no","18","no","white","no","yes","768","legacy","33","11","C:/Users/warne/OneDrive/Documents/Tarleton - MS Applied Psychology/Adv Quantitative Methods and Experimental Design/Labs/AW-subject-3.csv","legacy","5 2 9 6 1 7","Lentiform Loewenfeld","3.3.9","3","y","0","left","right","right","left","NA","1137","37851","6833","1137","NA","2","legacy","6","1024","2","48000","-16","experiment","3","odd","9","330401","40243","321241","328194","2381","124888","328195","327125","2391","118054","333540","329197","332402","332402","NA","Sternberg task","41","42097","46","yes","1024"
"89.36170212765957","89.36170212765957","916.0212765957447","916.0212765957447","black","experiment","legacy","legacy","legacy","0","uniform","1","undefined","1","left","46","0","46","46","0","0","46","46","0","0","46","46","46","46","0","Tue Oct 12 15:24:13 2021","The main experiment item","yes","Sternbergtask.osexp","C:/Users/warne/OneDrive/Documents/Tarleton - MS Applied Psychology/Adv Quantitative Methods and Experimental Design/Labs","no","mono","no","18","no","white","no","yes","768","legacy","34","11","C:/Users/warne/OneDrive/Documents/Tarleton - MS Applied Psychology/Adv Quantitative Methods and Experimental Design/Labs/AW-subject-3.csv","legacy","3 2 1 4 7","Lentiform Loewenfeld","3.3.9","2","y","0","left","right","right","left","NA","956","37851","6833","956","NA","2","legacy","5","1024","2","48000","-16","experiment","3","odd","2","336821","40243","333545","334614","2381","124888","334616","327125","2391","118054","339780","335617","338823","338823","NA","Sternberg task","42","43053","47","yes","1024"
"89.58333333333333","89.58333333333333","911.0416666666666","911.0416666666666","black","experiment","legacy","legacy","legacy","0","uniform","1","undefined","1","right","47","0","47","47","0","0","47","47","0","0","47","47","47","47","0","Tue Oct 12 15:24:13 2021","The main experiment item","yes","Sternbergtask.osexp","C:/Users/warne/OneDrive/Documents/Tarleton - MS Applied Psychology/Adv Quantitative Methods and Experimental Design/Labs","no","mono","no","18","no","white","no","yes","768","legacy","35","11","C:/Users/warne/OneDrive/Documents/Tarleton - MS Applied Psychology/Adv Quantitative Methods and Experimental Design/Labs/AW-subject-3.csv","legacy","6 9 4 5 2","Lentiform Loewenfeld","3.3.9","0","n","0","right","right","right","right","NA","677","37851","6833","677","NA","2","legacy","5","1024","2","48000","-16","experiment","3","odd","1","343057","40243","339785","340852","2381","124888","340853","327125","2391","118054","345735","341856","345058","345058","NA","Sternberg task","43","43730","48","yes","1024"
"89.79591836734694","89.79591836734694","913.0204081632653","913.0204081632653","black","experiment","legacy","legacy","legacy","0","uniform","1","undefined","1","right","48","0","48","48","0","0","48","48","0","0","48","48","48","48","0","Tue Oct 12 15:24:13 2021","The main experiment item","yes","Sternbergtask.osexp","C:/Users/warne/OneDrive/Documents/Tarleton - MS Applied Psychology/Adv Quantitative Methods and Experimental Design/Labs","no","mono","no","18","no","white","no","yes","768","legacy","36","11","C:/Users/warne/OneDrive/Documents/Tarleton - MS Applied Psychology/Adv Quantitative Methods and Experimental Design/Labs/AW-subject-3.csv","legacy","5 2","Lentiform Loewenfeld","3.3.9","0","n","0","right","right","right","right","NA","1008","37851","6833","1008","NA","2","legacy","2","1024","2","48000","-16","experiment","3","odd","7","349015","40243","345738","346807","2381","124888","346809","327125","2391","118054","352024","347810","351016","351016","NA","Sternberg task","44","44738","49","yes","1024"
"90","90","911.54","911.54","black","experiment","legacy","legacy","legacy","0","uniform","1","undefined","1","left","49","0","49","49","0","0","49","49","0","0","49","49","49","49","0","Tue Oct 12 15:24:13 2021","The main experiment item","yes","Sternbergtask.osexp","C:/Users/warne/OneDrive/Documents/Tarleton - MS Applied Psychology/Adv Quantitative Methods and Experimental Design/Labs","no","mono","no","18","no","white","no","yes","768","legacy","37","11","C:/Users/warne/OneDrive/Documents/Tarleton - MS Applied Psychology/Adv Quantitative Methods and Experimental Design/Labs/AW-subject-3.csv","legacy","2 4 8 5 1 3","Lentiform Loewenfeld","3.3.9","1","y","0","left","right","right","left","NA","839","37851","6833","839","NA","2","legacy","6","1024","2","48000","-16","experiment","3","odd","2","355304","40243","352029","353096","2381","124888","353098","327125","2391","118054","358144","354099","357305","357305","NA","Sternberg task","45","45577","50","yes","1024"
"90.19607843137256","90.19607843137256","917.6470588235294","917.6470588235294","black","experiment","legacy","legacy","legacy","0","uniform","1","undefined","1","left","50","0","50","50","0","0","50","50","0","0","50","50","50","50","0","Tue Oct 12 15:24:13 2021","The main experiment item","yes","Sternbergtask.osexp","C:/Users/warne/OneDrive/Documents/Tarleton - MS Applied Psychology/Adv Quantitative Methods and Experimental Design/Labs","no","mono","no","18","no","white","no","yes","768","legacy","38","11","C:/Users/warne/OneDrive/Documents/Tarleton - MS Applied Psychology/Adv Quantitative Methods and Experimental Design/Labs/AW-subject-3.csv","legacy","5 7 8 2 3 8","Lentiform Loewenfeld","3.3.9","5","y","0","left","right","right","left","NA","1223","37851","6833","1223","NA","2","legacy","6","1024","2","48000","-16","experiment","3","odd","3","361432","40243","358150","359226","2381","124888","359227","327125","2391","118054","364656","360228","363433","363433","NA","Sternberg task","46","46800","51","yes","1024"
"90.38461538461539","90.38461538461539","917.6153846153846","917.6153846153846","black","experiment","legacy","legacy","legacy","0","uniform","1","undefined","1","left","51","0","51","51","0","0","51","51","0","0","51","51","51","51","0","Tue Oct 12 15:24:13 2021","The main experiment item","yes","Sternbergtask.osexp","C:/Users/warne/OneDrive/Documents/Tarleton - MS Applied Psychology/Adv Quantitative Methods and Experimental Design/Labs","no","mono","no","18","no","white","no","yes","768","legacy","39","11","C:/Users/warne/OneDrive/Documents/Tarleton - MS Applied Psychology/Adv Quantitative Methods and Experimental Design/Labs/AW-subject-3.csv","legacy","4 7 6 8 2 3","Lentiform Loewenfeld","3.3.9","6","y","0","left","right","right","left","NA","916","37851","6833","916","NA","2","legacy","6","1024","2","48000","-16","experiment","3","odd","3","367946","40243","364672","365739","2381","124888","365741","327125","2391","118054","370863","366742","369947","369947","NA","Sternberg task","47","47716","52","yes","1024"
"90.56603773584905","90.56603773584905","917.4905660377359","917.4905660377359","black","experiment","legacy","legacy","legacy","0","uniform","1","undefined","1","right","52","0","52","52","0","0","52","52","0","0","52","52","52","52","0","Tue Oct 12 15:24:13 2021","The main experiment item","yes","Sternbergtask.osexp","C:/Users/warne/OneDrive/Documents/Tarleton - MS Applied Psychology/Adv Quantitative Methods and Experimental Design/Labs","no","mono","no","18","no","white","no","yes","768","legacy","40","11","C:/Users/warne/OneDrive/Documents/Tarleton - MS Applied Psychology/Adv Quantitative Methods and Experimental Design/Labs/AW-subject-3.csv","legacy","7 8 6 1","Lentiform Loewenfeld","3.3.9","0","n","0","right","right","right","right","NA","911","37851","6833","911","NA","2","legacy","4","1024","2","48000","-16","experiment","3","odd","3","374143","40243","370871","371939","2381","124888","371941","327125","2391","118054","377059","372942","376148","376148","NA","Sternberg task","48","48627","53","yes","1024"
"90.74074074074075","90.74074074074075","911.1111111111111","911.1111111111111","black","experiment","legacy","legacy","legacy","0","uniform","1","undefined","1","left","53","0","53","53","0","0","53","53","0","0","53","53","53","53","0","Tue Oct 12 15:24:13 2021","The main experiment item","yes","Sternbergtask.osexp","C:/Users/warne/OneDrive/Documents/Tarleton - MS Applied Psychology/Adv Quantitative Methods and Experimental Design/Labs","no","mono","no","18","no","white","no","yes","768","legacy","41","11","C:/Users/warne/OneDrive/Documents/Tarleton - MS Applied Psychology/Adv Quantitative Methods and Experimental Design/Labs/AW-subject-3.csv","legacy","9 5 3 8 4","Lentiform Loewenfeld","3.3.9","1","y","0","left","right","right","left","NA","573","37851","6833","573","NA","2","legacy","5","1024","2","48000","-16","experiment","3","odd","9","380354","40243","377076","378148","2381","124888","378149","327125","2391","118054","382928","379150","382355","382355","NA","Sternberg task","49","49200","54","yes","1024"
"90.9090909090909","90.9090909090909","908.6909090909091","908.6909090909091","black","experiment","legacy","legacy","legacy","0","uniform","1","undefined","1","right","54","0","54","54","0","0","54","54","0","0","54","54","54","54","0","Tue Oct 12 15:24:13 2021","The main experiment item","yes","Sternbergtask.osexp","C:/Users/warne/OneDrive/Documents/Tarleton - MS Applied Psychology/Adv Quantitative Methods and Experimental Design/Labs","no","mono","no","18","no","white","no","yes","768","legacy","42","11","C:/Users/warne/OneDrive/Documents/Tarleton - MS Applied Psychology/Adv Quantitative Methods and Experimental Design/Labs/AW-subject-3.csv","legacy","5 7 3","Lentiform Loewenfeld","3.3.9","0","n","0","right","right","right","right","NA","778","37851","6833","778","NA","2","legacy","3","1024","2","48000","-16","experiment","3","odd","9","386208","40243","382935","384002","2381","124888","384003","327125","2391","118054","388988","385004","388209","388209","NA","Sternberg task","50","49978","55","yes","1024"
"91.07142857142857","91.07142857142857","923.4821428571429","923.4821428571429","black","experiment","legacy","legacy","legacy","0","uniform","1","undefined","1","right","55","0","55","55","0","0","55","55","0","0","55","55","55","55","0","Tue Oct 12 15:24:13 2021","The main experiment item","yes","Sternbergtask.osexp","C:/Users/warne/OneDrive/Documents/Tarleton - MS Applied Psychology/Adv Quantitative Methods and Experimental Design/Labs","no","mono","no","18","no","white","no","yes","768","legacy","43","11","C:/Users/warne/OneDrive/Documents/Tarleton - MS Applied Psychology/Adv Quantitative Methods and Experimental Design/Labs/AW-subject-3.csv","legacy","4 2 7 6 1 3","Lentiform Loewenfeld","3.3.9","0","n","0","right","right","right","right","NA","1737","37851","6833","1737","NA","2","legacy","6","1024","2","48000","-16","experiment","3","odd","8","392270","40243","388995","390064","2381","124888","390065","327125","2391","118054","396008","391067","394271","394271","NA","Sternberg task","51","51715","56","yes","1024"
"91.2280701754386","91.2280701754386","924.7894736842105","924.7894736842105","black","experiment","legacy","legacy","legacy","0","uniform","1","undefined","1","left","56","0","56","56","0","0","56","56","0","0","56","56","56","56","0","Tue Oct 12 15:24:13 2021","The main experiment item","yes","Sternbergtask.osexp","C:/Users/warne/OneDrive/Documents/Tarleton - MS Applied Psychology/Adv Quantitative Methods and Experimental Design/Labs","no","mono","no","18","no","white","no","yes","768","legacy","44","11","C:/Users/warne/OneDrive/Documents/Tarleton - MS Applied Psychology/Adv Quantitative Methods and Experimental Design/Labs/AW-subject-3.csv","legacy","3 4 9 6 2 9","Lentiform Loewenfeld","3.3.9","5","y","0","left","right","right","left","NA","998","37851","6833","998","NA","2","legacy","6","1024","2","48000","-16","experiment","3","odd","2","399308","40243","396018","397102","2381","124888","397103","327125","2391","118054","402308","398104","401310","401310","NA","Sternberg task","52","52713","57","yes","1024"
"91.37931034482759","91.37931034482759","918.2413793103449","918.2413793103449","black","experiment","legacy","legacy","legacy","0","uniform","1","undefined","1","left","57","0","57","57","0","0","57","57","0","0","57","57","57","57","0","Tue Oct 12 15:24:13 2021","The main experiment item","yes","Sternbergtask.osexp","C:/Users/warne/OneDrive/Documents/Tarleton - MS Applied Psychology/Adv Quantitative Methods and Experimental Design/Labs","no","mono","no","18","no","white","no","yes","768","legacy","45","11","C:/Users/warne/OneDrive/Documents/Tarleton - MS Applied Psychology/Adv Quantitative Methods and Experimental Design/Labs/AW-subject-3.csv","legacy","6 7 9 3 1 2","Lentiform Loewenfeld","3.3.9","1","y","0","left","right","right","left","NA","545","37851","6833","545","NA","2","legacy","6","1024","2","48000","-16","experiment","3","odd","6","405586","40243","402312","403378","2381","124888","403379","327125","2391","118054","408132","404381","407587","407587","NA","Sternberg task","53","53258","58","yes","1024"
"91.52542372881356","91.52542372881356","918.7796610169491","918.7796610169491","black","experiment","legacy","legacy","legacy","0","uniform","1","undefined","1","right","58","0","58","58","0","0","58","58","0","0","58","58","58","58","0","Tue Oct 12 15:24:13 2021","The main experiment item","yes","Sternbergtask.osexp","C:/Users/warne/OneDrive/Documents/Tarleton - MS Applied Psychology/Adv Quantitative Methods and Experimental Design/Labs","no","mono","no","18","no","white","no","yes","768","legacy","46","11","C:/Users/warne/OneDrive/Documents/Tarleton - MS Applied Psychology/Adv Quantitative Methods and Experimental Design/Labs/AW-subject-3.csv","legacy","6 8","Lentiform Loewenfeld","3.3.9","0","n","0","right","right","right","right","NA","950","37851","6833","950","NA","2","legacy","2","1024","2","48000","-16","experiment","3","odd","9","411420","40243","408137","409212","2381","124888","409214","327125","2391","118054","414372","410215","413421","413421","NA","Sternberg task","54","54208","59","yes","1024"
"91.66666666666667","91.66666666666667","914.5","914.5","black","experiment","legacy","legacy","legacy","0","uniform","1","undefined","1","left","59","0","59","59","0","0","59","59","0","0","59","59","59","59","0","Tue Oct 12 15:24:13 2021","The main experiment item","yes","Sternbergtask.osexp","C:/Users/warne/OneDrive/Documents/Tarleton - MS Applied Psychology/Adv Quantitative Methods and Experimental Design/Labs","no","mono","no","18","no","white","no","yes","768","legacy","47","11","C:/Users/warne/OneDrive/Documents/Tarleton - MS Applied Psychology/Adv Quantitative Methods and Experimental Design/Labs/AW-subject-3.csv","legacy","7 8 4 6 9 5","Lentiform Loewenfeld","3.3.9","4","y","0","left","right","right","left","NA","662","37851","6833","662","NA","2","legacy","6","1024","2","48000","-16","experiment","3","odd","6","417649","40243","414375","415443","2381","124888","415444","327125","2391","118054","420312","416445","419650","419650","NA","Sternberg task","55","54870","60","yes","1024"
"91.80327868852459","91.80327868852459","919.0819672131148","919.0819672131148","black","experiment","legacy","legacy","legacy","0","uniform","1","undefined","1","right","60","0","60","60","0","0","60","60","0","0","60","60","60","60","0","Tue Oct 12 15:24:13 2021","The main experiment item","yes","Sternbergtask.osexp","C:/Users/warne/OneDrive/Documents/Tarleton - MS Applied Psychology/Adv Quantitative Methods and Experimental Design/Labs","no","mono","no","18","no","white","no","yes","768","legacy","48","11","C:/Users/warne/OneDrive/Documents/Tarleton - MS Applied Psychology/Adv Quantitative Methods and Experimental Design/Labs/AW-subject-3.csv","legacy","4 8 1 2","Lentiform Loewenfeld","3.3.9","0","n","0","right","right","right","right","NA","1194","37851","6833","1194","NA","2","legacy","4","1024","2","48000","-16","experiment","3","odd","7","423596","40243","420319","421389","2381","124888","421391","327125","2391","118054","426792","422392","425597","425597","NA","Sternberg task","56","56064","61","yes","1024"
"91.93548387096774","91.93548387096774","915.8709677419355","915.8709677419355","black","experiment","legacy","legacy","legacy","0","uniform","1","undefined","1","right","61","0","61","61","0","0","61","61","0","0","61","61","61","61","0","Tue Oct 12 15:24:13 2021","The main experiment item","yes","Sternbergtask.osexp","C:/Users/warne/OneDrive/Documents/Tarleton - MS Applied Psychology/Adv Quantitative Methods and Experimental Design/Labs","no","mono","no","18","no","white","no","yes","768","legacy","49","11","C:/Users/warne/OneDrive/Documents/Tarleton - MS Applied Psychology/Adv Quantitative Methods and Experimental Design/Labs/AW-subject-3.csv","legacy","7 4 2 8 1 9","Lentiform Loewenfeld","3.3.9","0","n","0","right","right","right","right","NA","720","37851","6833","720","NA","2","legacy","6","1024","2","48000","-16","experiment","3","odd","5","430086","40243","426810","427878","2381","124888","427880","327125","2391","118054","432808","428882","432088","432088","NA","Sternberg task","57","56784","62","yes","1024"
"92.06349206349206","92.06349206349206","915.6666666666666","915.6666666666666","black","experiment","legacy","legacy","legacy","0","uniform","1","undefined","1","right","62","0","62","62","0","0","62","62","0","0","62","62","62","62","0","Tue Oct 12 15:24:13 2021","The main experiment item","yes","Sternbergtask.osexp","C:/Users/warne/OneDrive/Documents/Tarleton - MS Applied Psychology/Adv Quantitative Methods and Experimental Design/Labs","no","mono","no","18","no","white","no","yes","768","legacy","50","11","C:/Users/warne/OneDrive/Documents/Tarleton - MS Applied Psychology/Adv Quantitative Methods and Experimental Design/Labs/AW-subject-3.csv","legacy","2 3 8 5 6 7","Lentiform Loewenfeld","3.3.9","0","n","0","right","right","right","right","NA","903","37851","6833","903","NA","2","legacy","6","1024","2","48000","-16","experiment","3","odd","1","436088","40243","432813","433882","2381","124888","433883","327125","2391","118054","438992","434884","438089","438089","NA","Sternberg task","58","57687","63","yes","1024"
"92.1875","92.1875","915.671875","915.671875","black","experiment","legacy","legacy","legacy","0","uniform","1","undefined","1","right","63","0","63","63","0","0","63","63","0","0","63","63","63","63","0","Tue Oct 12 15:24:13 2021","The main experiment item","yes","Sternbergtask.osexp","C:/Users/warne/OneDrive/Documents/Tarleton - MS Applied Psychology/Adv Quantitative Methods and Experimental Design/Labs","no","mono","no","18","no","white","no","yes","768","legacy","51","11","C:/Users/warne/OneDrive/Documents/Tarleton - MS Applied Psychology/Adv Quantitative Methods and Experimental Design/Labs/AW-subject-3.csv","legacy","7 9 1 6","Lentiform Loewenfeld","3.3.9","0","n","0","right","right","right","right","NA","916","37851","6833","916","NA","2","legacy","4","1024","2","48000","-16","experiment","3","odd","4","442270","40243","438997","440065","2381","124888","440067","327125","2391","118054","445187","441068","444271","444271","NA","Sternberg task","59","58603","64","yes","1024"
"90.76923076923077","90.76923076923077","913.7846153846153","913.7846153846153","black","experiment","legacy","legacy","legacy","0","uniform","0","undefined","0","left","64","0","64","64","0","0","64","64","0","0","64","64","64","64","0","Tue Oct 12 15:24:13 2021","The main experiment item","yes","Sternbergtask.osexp","C:/Users/warne/OneDrive/Documents/Tarleton - MS Applied Psychology/Adv Quantitative Methods and Experimental Design/Labs","no","mono","no","18","no","white","no","yes","768","legacy","52","11","C:/Users/warne/OneDrive/Documents/Tarleton - MS Applied Psychology/Adv Quantitative Methods and Experimental Design/Labs/AW-subject-3.csv","legacy","8","Lentiform Loewenfeld","3.3.9","1","y","0","right","right","right","right","NA","793","37851","6833","793","NA","2","legacy","1","1024","2","48000","-16","experiment","3","odd","8","448481","40243","445206","446273","2381","124888","446275","327125","2391","118054","451275","447276","450482","450482","NA","Sternberg task","59","59396","65","yes","1024"
"90.9090909090909","90.9090909090909","910.2272727272727","910.2272727272727","black","experiment","legacy","legacy","legacy","0","uniform","1","undefined","1","right","65","0","65","65","0","0","65","65","0","0","65","65","65","65","0","Tue Oct 12 15:24:13 2021","The main experiment item","yes","Sternbergtask.osexp","C:/Users/warne/OneDrive/Documents/Tarleton - MS Applied Psychology/Adv Quantitative Methods and Experimental Design/Labs","no","mono","no","18","no","white","no","yes","768","legacy","53","11","C:/Users/warne/OneDrive/Documents/Tarleton - MS Applied Psychology/Adv Quantitative Methods and Experimental Design/Labs/AW-subject-3.csv","legacy","3 9 1","Lentiform Loewenfeld","3.3.9","0","n","0","right","right","right","right","NA","679","37851","6833","679","NA","2","legacy","3","1024","2","48000","-16","experiment","3","odd","7","454551","40243","445206","452347","2381","124888","452349","451280","2391","118054","457231","453350","456552","456552","NA","Sternberg task","60","60075","66","yes","1024"
"91.04477611940298","91.04477611940298","916.5074626865671","916.5074626865671","black","experiment","legacy","legacy","legacy","0","uniform","1","undefined","1","left","66","0","66","66","0","0","66","66","0","0","66","66","66","66","0","Tue Oct 12 15:24:13 2021","The main experiment item","yes","Sternbergtask.osexp","C:/Users/warne/OneDrive/Documents/Tarleton - MS Applied Psychology/Adv Quantitative Methods and Experimental Design/Labs","no","mono","no","18","no","white","no","yes","768","legacy","54","11","C:/Users/warne/OneDrive/Documents/Tarleton - MS Applied Psychology/Adv Quantitative Methods and Experimental Design/Labs/AW-subject-3.csv","legacy","5 7 3 6 2","Lentiform Loewenfeld","3.3.9","5","y","0","left","right","right","left","NA","1331","37851","6833","1331","NA","2","legacy","5","1024","2","48000","-16","experiment","3","odd","2","460516","40243","457238","458306","2381","124888","458307","451280","2391","118054","463848","459312","462517","462517","NA","Sternberg task","61","61406","67","yes","1024"
"91.17647058823529","91.17647058823529","917.4705882352941","917.4705882352941","black","experiment","legacy","legacy","legacy","0","uniform","1","undefined","1","right","67","0","67","67","0","0","67","67","0","0","67","67","67","67","0","Tue Oct 12 15:24:13 2021","The main experiment item","yes","Sternbergtask.osexp","C:/Users/warne/OneDrive/Documents/Tarleton - MS Applied Psychology/Adv Quantitative Methods and Experimental Design/Labs","no","mono","no","18","no","white","no","yes","768","legacy","55","11","C:/Users/warne/OneDrive/Documents/Tarleton - MS Applied Psychology/Adv Quantitative Methods and Experimental Design/Labs/AW-subject-3.csv","legacy","7 6 4 8 1 2","Lentiform Loewenfeld","3.3.9","0","n","0","right","right","right","right","NA","982","37851","6833","982","NA","2","legacy","6","1024","2","48000","-16","experiment","3","odd","9","467137","40243","463855","464930","2381","124888","464932","451280","2391","118054","470121","465933","469138","469138","NA","Sternberg task","62","62388","68","yes","1024"
"91.30434782608695","91.30434782608695","919.4057971014493","919.4057971014493","black","experiment","legacy","legacy","legacy","0","uniform","1","undefined","1","right","68","0","68","68","0","0","68","68","0","0","68","68","68","68","0","Tue Oct 12 15:24:13 2021","The main experiment item","yes","Sternbergtask.osexp","C:/Users/warne/OneDrive/Documents/Tarleton - MS Applied Psychology/Adv Quantitative Methods and Experimental Design/Labs","no","mono","no","18","no","white","no","yes","768","legacy","56","11","C:/Users/warne/OneDrive/Documents/Tarleton - MS Applied Psychology/Adv Quantitative Methods and Experimental Design/Labs/AW-subject-3.csv","legacy","1 4 9 2 5","Lentiform Loewenfeld","3.3.9","0","n","0","right","right","right","right","NA","1051","37851","6833","1051","NA","2","legacy","5","1024","2","48000","-16","experiment","3","odd","7","473399","40243","470124","471192","2381","124888","471194","451280","2391","118054","476452","472195","475400","475400","NA","Sternberg task","63","63439","69","yes","1024"
"90","90","916.1285714285714","916.1285714285714","black","experiment","legacy","legacy","legacy","0","uniform","0","undefined","0","right","69","0","69","69","0","0","69","69","0","0","69","69","69","69","0","Tue Oct 12 15:24:13 2021","The main experiment item","yes","Sternbergtask.osexp","C:/Users/warne/OneDrive/Documents/Tarleton - MS Applied Psychology/Adv Quantitative Methods and Experimental Design/Labs","no","mono","no","18","no","white","no","yes","768","legacy","57","11","C:/Users/warne/OneDrive/Documents/Tarleton - MS Applied Psychology/Adv Quantitative Methods and Experimental Design/Labs/AW-subject-3.csv","legacy","3 4 9 6 7 8","Lentiform Loewenfeld","3.3.9","0","n","0","left","right","right","left","NA","690","37851","6833","690","NA","2","legacy","6","1024","2","48000","-16","experiment","3","odd","2","479732","40243","476457","477524","2381","124888","477526","451280","2391","118054","482424","478528","481733","481733","NA","Sternberg task","63","64129","70","yes","1024"
"90.14084507042253","90.14084507042253","923.3521126760563","923.3521126760563","black","experiment","legacy","legacy","legacy","0","uniform","1","undefined","1","left","70","0","70","70","0","0","70","70","0","0","70","70","70","70","0","Tue Oct 12 15:24:13 2021","The main experiment item","yes","Sternbergtask.osexp","C:/Users/warne/OneDrive/Documents/Tarleton - MS Applied Psychology/Adv Quantitative Methods and Experimental Design/Labs","no","mono","no","18","no","white","no","yes","768","legacy","58","11","C:/Users/warne/OneDrive/Documents/Tarleton - MS Applied Psychology/Adv Quantitative Methods and Experimental Design/Labs/AW-subject-3.csv","legacy","8 1 6","Lentiform Loewenfeld","3.3.9","3","y","0","left","right","right","left","NA","1429","37851","6833","1429","NA","2","legacy","3","1024","2","48000","-16","experiment","3","odd","6","485713","40243","476457","483507","2381","124888","483508","482427","2391","118054","489143","484509","487714","487714","NA","Sternberg task","64","65558","71","yes","1024"
"90.27777777777777","90.27777777777777","924.75","924.75","black","experiment","legacy","legacy","legacy","0","uniform","1","undefined","1","left","71","0","71","71","0","0","71","71","0","0","71","71","71","71","0","Tue Oct 12 15:24:13 2021","The main experiment item","yes","Sternbergtask.osexp","C:/Users/warne/OneDrive/Documents/Tarleton - MS Applied Psychology/Adv Quantitative Methods and Experimental Design/Labs","no","mono","no","18","no","white","no","yes","768","legacy","59","11","C:/Users/warne/OneDrive/Documents/Tarleton - MS Applied Psychology/Adv Quantitative Methods and Experimental Design/Labs/AW-subject-3.csv","legacy","4 3 2 5 8","Lentiform Loewenfeld","3.3.9","2","y","0","left","right","right","left","NA","1024","37851","6833","1024","NA","2","legacy","5","1024","2","48000","-16","experiment","3","odd","3","492435","40243","489148","490227","2381","124888","490229","482427","2391","118054","495461","491230","494436","494436","NA","Sternberg task","65","66582","72","yes","1024"
"90.41095890410959","90.41095890410959","933.2054794520548","933.2054794520548","black","experiment","legacy","legacy","legacy","0","uniform","1","undefined","1","right","72","0","72","72","0","0","72","72","0","0","72","72","72","72","0","Tue Oct 12 15:24:13 2021","The main experiment item","yes","Sternbergtask.osexp","C:/Users/warne/OneDrive/Documents/Tarleton - MS Applied Psychology/Adv Quantitative Methods and Experimental Design/Labs","no","mono","no","18","no","white","no","yes","768","legacy","60","11","C:/Users/warne/OneDrive/Documents/Tarleton - MS Applied Psychology/Adv Quantitative Methods and Experimental Design/Labs/AW-subject-3.csv","legacy","1 7 8 3 9","Lentiform Loewenfeld","3.3.9","0","n","0","right","right","right","right","NA","1542","37851","6833","1542","NA","2","legacy","5","1024","2","48000","-16","experiment","3","odd","2","498756","40243","495477","496546","2381","124888","496547","482427","2391","118054","502300","497552","500757","500757","NA","Sternberg task","66","68124","73","yes","1024"
"90.54054054054055","90.54054054054055","935.8513513513514","935.8513513513514","black","experiment","legacy","legacy","legacy","0","uniform","1","undefined","1","left","73","0","73","73","0","0","73","73","0","0","73","73","73","73","0","Tue Oct 12 15:24:13 2021","The main experiment item","yes","Sternbergtask.osexp","C:/Users/warne/OneDrive/Documents/Tarleton - MS Applied Psychology/Adv Quantitative Methods and Experimental Design/Labs","no","mono","no","18","no","white","no","yes","768","legacy","61","11","C:/Users/warne/OneDrive/Documents/Tarleton - MS Applied Psychology/Adv Quantitative Methods and Experimental Design/Labs/AW-subject-3.csv","legacy","7 1 8 5 6 2","Lentiform Loewenfeld","3.3.9","2","y","0","left","right","right","left","NA","1129","37851","6833","1129","NA","2","legacy","6","1024","2","48000","-16","experiment","3","odd","1","505589","40243","502303","503385","2381","124888","503386","482427","2391","118054","508720","504387","507591","507591","NA","Sternberg task","67","69253","74","yes","1024"
"90.66666666666667","90.66666666666667","934.56","934.56","black","experiment","legacy","legacy","legacy","0","uniform","1","undefined","1","right","74","0","74","74","0","0","74","74","0","0","74","74","74","74","0","Tue Oct 12 15:24:13 2021","The main experiment item","yes","Sternbergtask.osexp","C:/Users/warne/OneDrive/Documents/Tarleton - MS Applied Psychology/Adv Quantitative Methods and Experimental Design/Labs","no","mono","no","18","no","white","no","yes","768","legacy","62","11","C:/Users/warne/OneDrive/Documents/Tarleton - MS Applied Psychology/Adv Quantitative Methods and Experimental Design/Labs/AW-subject-3.csv","legacy","2 5 1 4","Lentiform Loewenfeld","3.3.9","0","n","0","right","right","right","right","NA","839","37851","6833","839","NA","2","legacy","4","1024","2","48000","-16","experiment","3","odd","6","512002","40243","508726","509795","2381","124888","509797","482427","2391","118054","514843","510798","514004","514004","NA","Sternberg task","68","70092","75","yes","1024"
"90.78947368421052","90.78947368421052","940.0394736842105","940.0394736842105","black","experiment","legacy","legacy","legacy","0","uniform","1","undefined","1","left","75","0","75","75","0","0","75","75","0","0","75","75","75","75","0","Tue Oct 12 15:24:13 2021","The main experiment item","yes","Sternbergtask.osexp","C:/Users/warne/OneDrive/Documents/Tarleton - MS Applied Psychology/Adv Quantitative Methods and Experimental Design/Labs","no","mono","no","18","no","white","no","yes","768","legacy","63","11","C:/Users/warne/OneDrive/Documents/Tarleton - MS Applied Psychology/Adv Quantitative Methods and Experimental Design/Labs/AW-subject-3.csv","legacy","7 6","Lentiform Loewenfeld","3.3.9","2","y","0","left","right","right","left","NA","1351","37851","6833","1351","NA","2","legacy","2","1024","2","48000","-16","experiment","3","odd","6","518135","40243","514848","515928","2381","124888","515929","482427","2391","118054","521487","516931","520136","520136","NA","Sternberg task","69","71443","76","yes","1024"
"89.6103896103896","89.6103896103896","939.4675324675325","939.4675324675325","black","experiment","legacy","legacy","legacy","0","uniform","0","undefined","0","right","76","0","76","76","0","0","76","76","0","0","76","76","76","76","0","Tue Oct 12 15:24:13 2021","The main experiment item","yes","Sternbergtask.osexp","C:/Users/warne/OneDrive/Documents/Tarleton - MS Applied Psychology/Adv Quantitative Methods and Experimental Design/Labs","no","mono","no","18","no","white","no","yes","768","legacy","64","11","C:/Users/warne/OneDrive/Documents/Tarleton - MS Applied Psychology/Adv Quantitative Methods and Experimental Design/Labs/AW-subject-3.csv","legacy","7 1 8 4 9 3","Lentiform Loewenfeld","3.3.9","0","n","0","left","right","right","left","NA","896","37851","6833","896","NA","2","legacy","6","1024","2","48000","-16","experiment","3","odd","6","524770","40243","521493","522566","2381","124888","522568","482427","2391","118054","527668","523569","526771","526771","NA","Sternberg task","69","72339","77","yes","1024"
"89.74358974358974","89.74358974358974","936.6282051282051","936.6282051282051","black","experiment","legacy","legacy","legacy","0","uniform","1","undefined","1","right","77","0","77","77","0","0","77","77","0","0","77","77","77","77","0","Tue Oct 12 15:24:13 2021","The main experiment item","yes","Sternbergtask.osexp","C:/Users/warne/OneDrive/Documents/Tarleton - MS Applied Psychology/Adv Quantitative Methods and Experimental Design/Labs","no","mono","no","18","no","white","no","yes","768","legacy","65","11","C:/Users/warne/OneDrive/Documents/Tarleton - MS Applied Psychology/Adv Quantitative Methods and Experimental Design/Labs/AW-subject-3.csv","legacy","2 6 4 3 9","Lentiform Loewenfeld","3.3.9","0","n","0","right","right","right","right","NA","718","37851","6833","718","NA","2","legacy","5","1024","2","48000","-16","experiment","3","odd","1","530953","40243","521493","528746","2381","124888","528747","527673","2391","118054","533672","529748","532954","532954","NA","Sternberg task","70","73057","78","yes","1024"
"89.87341772151899","89.87341772151899","935.3924050632911","935.3924050632911","black","experiment","legacy","legacy","legacy","0","uniform","1","undefined","1","left","78","0","78","78","0","0","78","78","0","0","78","78","78","78","0","Tue Oct 12 15:24:13 2021","The main experiment item","yes","Sternbergtask.osexp","C:/Users/warne/OneDrive/Documents/Tarleton - MS Applied Psychology/Adv Quantitative Methods and Experimental Design/Labs","no","mono","no","18","no","white","no","yes","768","legacy","66","11","C:/Users/warne/OneDrive/Documents/Tarleton - MS Applied Psychology/Adv Quantitative Methods and Experimental Design/Labs/AW-subject-3.csv","legacy","3 9 7 6 4","Lentiform Loewenfeld","3.3.9","3","y","0","left","right","right","left","NA","839","37851","6833","839","NA","2","legacy","5","1024","2","48000","-16","experiment","3","odd","7","536952","40243","533679","534746","2381","124888","534748","527673","2391","118054","539792","535749","538953","538953","NA","Sternberg task","71","73896","79","yes","1024"
"90","90","936.3625","936.3625","black","experiment","legacy","legacy","legacy","0","uniform","1","undefined","1","left","79","0","79","79","0","0","79","79","0","0","79","79","79","79","0","Tue Oct 12 15:24:13 2021","The main experiment item","yes","Sternbergtask.osexp","C:/Users/warne/OneDrive/Documents/Tarleton - MS Applied Psychology/Adv Quantitative Methods and Experimental Design/Labs","no","mono","no","18","no","white","no","yes","768","legacy","67","11","C:/Users/warne/OneDrive/Documents/Tarleton - MS Applied Psychology/Adv Quantitative Methods and Experimental Design/Labs/AW-subject-3.csv","legacy","6 8 9 3 4 9","Lentiform Loewenfeld","3.3.9","5","y","0","left","right","right","left","NA","1013","37851","6833","1013","NA","2","legacy","6","1024","2","48000","-16","experiment","3","odd","4","543077","40243","539801","540870","2381","124888","540872","527673","2391","118054","546091","541873","545078","545078","NA","Sternberg task","72","74909","80","yes","1024"
"90.12345679012346","90.12345679012346","933.6296296296297","933.6296296296297","black","experiment","legacy","legacy","legacy","0","uniform","1","undefined","1","left","80","0","80","80","0","0","80","80","0","0","80","80","80","80","0","Tue Oct 12 15:24:13 2021","The main experiment item","yes","Sternbergtask.osexp","C:/Users/warne/OneDrive/Documents/Tarleton - MS Applied Psychology/Adv Quantitative Methods and Experimental Design/Labs","no","mono","no","18","no","white","no","yes","768","legacy","68","11","C:/Users/warne/OneDrive/Documents/Tarleton - MS Applied Psychology/Adv Quantitative Methods and Experimental Design/Labs/AW-subject-3.csv","legacy","6 9 7 4 5 1","Lentiform Loewenfeld","3.3.9","2","y","0","left","right","right","left","NA","715","37851","6833","715","NA","2","legacy","6","1024","2","48000","-16","experiment","3","odd","9","549375","40243","546096","547167","2381","124888","547169","527673","2391","118054","552092","548170","551376","551376","NA","Sternberg task","73","75624","81","yes","1024"
"90.2439024390244","90.2439024390244","937.9756097560976","937.9756097560976","black","experiment","legacy","legacy","legacy","0","uniform","1","undefined","1","right","81","0","81","81","0","0","81","81","0","0","81","81","81","81","0","Tue Oct 12 15:24:13 2021","The main experiment item","yes","Sternbergtask.osexp","C:/Users/warne/OneDrive/Documents/Tarleton - MS Applied Psychology/Adv Quantitative Methods and Experimental Design/Labs","no","mono","no","18","no","white","no","yes","768","legacy","69","11","C:/Users/warne/OneDrive/Documents/Tarleton - MS Applied Psychology/Adv Quantitative Methods and Experimental Design/Labs/AW-subject-3.csv","legacy","8 2 1 4 5 9","Lentiform Loewenfeld","3.3.9","0","n","0","right","right","right","right","NA","1290","37851","6833","1290","NA","2","legacy","6","1024","2","48000","-16","experiment","3","odd","7","555372","40243","552097","553167","2381","124888","553168","527673","2391","118054","558664","554169","557373","557373","NA","Sternberg task","74","76914","82","yes","1024"
"90.36144578313252","90.36144578313252","941.5783132530121","941.5783132530121","black","experiment","legacy","legacy","legacy","0","uniform","1","undefined","1","right","82","0","82","82","0","0","82","82","0","0","82","82","82","82","0","Tue Oct 12 15:24:13 2021","The main experiment item","yes","Sternbergtask.osexp","C:/Users/warne/OneDrive/Documents/Tarleton - MS Applied Psychology/Adv Quantitative Methods and Experimental Design/Labs","no","mono","no","18","no","white","no","yes","768","legacy","70","11","C:/Users/warne/OneDrive/Documents/Tarleton - MS Applied Psychology/Adv Quantitative Methods and Experimental Design/Labs/AW-subject-3.csv","legacy","2 8 9 4 1","Lentiform Loewenfeld","3.3.9","0","n","0","right","right","right","right","NA","1237","37851","6833","1237","NA","2","legacy","5","1024","2","48000","-16","experiment","3","odd","5","561966","40243","558691","559760","2381","124888","559762","527673","2391","118054","565204","560763","563967","563967","NA","Sternberg task","75","78151","83","yes","1024"
"90.47619047619048","90.47619047619048","940.6071428571429","940.6071428571429","black","experiment","legacy","legacy","legacy","0","uniform","1","undefined","1","right","83","0","83","83","0","0","83","83","0","0","83","83","83","83","0","Tue Oct 12 15:24:13 2021","The main experiment item","yes","Sternbergtask.osexp","C:/Users/warne/OneDrive/Documents/Tarleton - MS Applied Psychology/Adv Quantitative Methods and Experimental Design/Labs","no","mono","no","18","no","white","no","yes","768","legacy","71","11","C:/Users/warne/OneDrive/Documents/Tarleton - MS Applied Psychology/Adv Quantitative Methods and Experimental Design/Labs/AW-subject-3.csv","legacy","2 7 5","Lentiform Loewenfeld","3.3.9","0","n","0","right","right","right","right","NA","860","37851","6833","860","NA","2","legacy","3","1024","2","48000","-16","experiment","3","odd","8","568495","40243","565221","566289","2381","124888","566290","527673","2391","118054","571356","567291","570496","570496","NA","Sternberg task","76","79011","84","yes","1024"
"89.41176470588235","89.41176470588235","946.5058823529412","946.5058823529412","black","experiment","legacy","legacy","legacy","0","uniform","0","undefined","0","left","84","0","84","84","0","0","84","84","0","0","84","84","84","84","0","Tue Oct 12 15:24:13 2021","The main experiment item","yes","Sternbergtask.osexp","C:/Users/warne/OneDrive/Documents/Tarleton - MS Applied Psychology/Adv Quantitative Methods and Experimental Design/Labs","no","mono","no","18","no","white","no","yes","768","legacy","72","11","C:/Users/warne/OneDrive/Documents/Tarleton - MS Applied Psychology/Adv Quantitative Methods and Experimental Design/Labs/AW-subject-3.csv","legacy","5 2 6","Lentiform Loewenfeld","3.3.9","2","y","0","right","right","right","right","NA","1442","37851","6833","1442","NA","2","legacy","3","1024","2","48000","-16","experiment","3","odd","2","574633","40243","571361","572427","2381","124888","572429","527673","2391","118054","578076","573430","576634","576634","NA","Sternberg task","76","80453","85","yes","1024"
"89.53488372093024","89.53488372093024","949.1279069767442","949.1279069767442","black","experiment","legacy","legacy","legacy","0","uniform","1","undefined","1","right","85","0","85","85","0","0","85","85","0","0","85","85","85","85","0","Tue Oct 12 15:24:13 2021","The main experiment item","yes","Sternbergtask.osexp","C:/Users/warne/OneDrive/Documents/Tarleton - MS Applied Psychology/Adv Quantitative Methods and Experimental Design/Labs","no","mono","no","18","no","white","no","yes","768","legacy","73","11","C:/Users/warne/OneDrive/Documents/Tarleton - MS Applied Psychology/Adv Quantitative Methods and Experimental Design/Labs/AW-subject-3.csv","legacy","9 7 4 5 8","Lentiform Loewenfeld","3.3.9","0","n","0","right","right","right","right","NA","1172","37851","6833","1172","NA","2","legacy","5","1024","2","48000","-16","experiment","3","odd","6","581355","40243","571361","579149","2381","124888","579151","578080","2391","118054","584528","580152","583356","583356","NA","Sternberg task","77","81625","86","yes","1024"
"89.65517241379311","89.65517241379311","947","947","black","experiment","legacy","legacy","legacy","0","uniform","1","undefined","1","left","86","0","86","86","0","0","86","86","0","0","86","86","86","86","0","Tue Oct 12 15:24:13 2021","The main experiment item","yes","Sternbergtask.osexp","C:/Users/warne/OneDrive/Documents/Tarleton - MS Applied Psychology/Adv Quantitative Methods and Experimental Design/Labs","no","mono","no","18","no","white","no","yes","768","legacy","74","11","C:/Users/warne/OneDrive/Documents/Tarleton - MS Applied Psychology/Adv Quantitative Methods and Experimental Design/Labs/AW-subject-3.csv","legacy","9 8 4","Lentiform Loewenfeld","3.3.9","1","y","0","left","right","right","left","NA","764","37851","6833","764","NA","2","legacy","3","1024","2","48000","-16","experiment","3","odd","9","587806","40243","584534","585603","2381","124888","585604","578080","2391","118054","590572","586605","589807","589807","NA","Sternberg task","78","82389","87","yes","1024"
"89.77272727272727","89.77272727272727","951.9318181818181","951.9318181818181","black","experiment","legacy","legacy","legacy","0","uniform","1","undefined","1","left","87","0","87","87","0","0","87","87","0","0","87","87","87","87","0","Tue Oct 12 15:24:13 2021","The main experiment item","yes","Sternbergtask.osexp","C:/Users/warne/OneDrive/Documents/Tarleton - MS Applied Psychology/Adv Quantitative Methods and Experimental Design/Labs","no","mono","no","18","no","white","no","yes","768","legacy","75","11","C:/Users/warne/OneDrive/Documents/Tarleton - MS Applied Psychology/Adv Quantitative Methods and Experimental Design/Labs/AW-subject-3.csv","legacy","4 1 8 7 5","Lentiform Loewenfeld","3.3.9","3","y","0","left","right","right","left","NA","1381","37851","6833","1381","NA","2","legacy","5","1024","2","48000","-16","experiment","3","odd","8","593853","40243","590577","591646","2381","124888","591648","578080","2391","118054","597235","592649","595854","595854","NA","Sternberg task","79","83770","88","yes","1024"
"89.88764044943821","89.88764044943821","955.1797752808989","955.1797752808989","black","experiment","legacy","legacy","legacy","0","uniform","1","undefined","1","right","88","0","88","88","0","0","88","88","0","0","88","88","88","88","0","Tue Oct 12 15:24:13 2021","The main experiment item","yes","Sternbergtask.osexp","C:/Users/warne/OneDrive/Documents/Tarleton - MS Applied Psychology/Adv Quantitative Methods and Experimental Design/Labs","no","mono","no","18","no","white","no","yes","768","legacy","76","11","C:/Users/warne/OneDrive/Documents/Tarleton - MS Applied Psychology/Adv Quantitative Methods and Experimental Design/Labs/AW-subject-3.csv","legacy","6 3 1 7 9 8","Lentiform Loewenfeld","3.3.9","0","n","0","right","right","right","right","NA","1241","37851","6833","1241","NA","2","legacy","6","1024","2","48000","-16","experiment","3","odd","4","600517","40243","597241","598309","2381","124888","598311","578080","2391","118054","603760","599313","602518","602518","NA","Sternberg task","80","85011","89","yes","1024"
"90","90","960.5777777777778","960.5777777777778","black","experiment","legacy","legacy","legacy","0","uniform","1","undefined","1","left","89","0","89","89","0","0","89","89","0","0","89","89","89","89","0","Tue Oct 12 15:24:13 2021","The main experiment item","yes","Sternbergtask.osexp","C:/Users/warne/OneDrive/Documents/Tarleton - MS Applied Psychology/Adv Quantitative Methods and Experimental Design/Labs","no","mono","no","18","no","white","no","yes","768","legacy","77","11","C:/Users/warne/OneDrive/Documents/Tarleton - MS Applied Psychology/Adv Quantitative Methods and Experimental Design/Labs/AW-subject-3.csv","legacy","6 5","Lentiform Loewenfeld","3.3.9","2","y","0","left","right","right","left","NA","1441","37851","6833","1441","NA","2","legacy","2","1024","2","48000","-16","experiment","3","odd","5","607041","40243","603765","604835","2381","124888","604837","578080","2391","118054","610483","605838","609042","609042","NA","Sternberg task","81","86452","90","yes","1024"
"90.10989010989012","90.10989010989012","963.5384615384615","963.5384615384615","black","experiment","legacy","legacy","legacy","0","uniform","1","undefined","1","left","90","0","90","90","0","0","90","90","0","0","90","90","90","90","0","Tue Oct 12 15:24:13 2021","The main experiment item","yes","Sternbergtask.osexp","C:/Users/warne/OneDrive/Documents/Tarleton - MS Applied Psychology/Adv Quantitative Methods and Experimental Design/Labs","no","mono","no","18","no","white","no","yes","768","legacy","78","11","C:/Users/warne/OneDrive/Documents/Tarleton - MS Applied Psychology/Adv Quantitative Methods and Experimental Design/Labs/AW-subject-3.csv","legacy","2 8 5 1","Lentiform Loewenfeld","3.3.9","4","y","0","left","right","right","left","NA","1230","37851","6833","1230","NA","2","legacy","4","1024","2","48000","-16","experiment","3","odd","1","613764","40243","610486","611556","2381","124888","611558","578080","2391","118054","616995","612559","615765","615765","NA","Sternberg task","82","87682","91","yes","1024"
"90.21739130434783","90.21739130434783","961.7065217391304","961.7065217391304","black","experiment","legacy","legacy","legacy","0","uniform","1","undefined","1","left","91","0","91","91","0","0","91","91","0","0","91","91","91","91","0","Tue Oct 12 15:24:13 2021","The main experiment item","yes","Sternbergtask.osexp","C:/Users/warne/OneDrive/Documents/Tarleton - MS Applied Psychology/Adv Quantitative Methods and Experimental Design/Labs","no","mono","no","18","no","white","no","yes","768","legacy","79","11","C:/Users/warne/OneDrive/Documents/Tarleton - MS Applied Psychology/Adv Quantitative Methods and Experimental Design/Labs/AW-subject-3.csv","legacy","7 8 6 3 1","Lentiform Loewenfeld","3.3.9","5","y","0","left","right","right","left","NA","795","37851","6833","795","NA","2","legacy","5","1024","2","48000","-16","experiment","3","odd","1","620287","40243","617012","618081","2381","124888","618082","578080","2391","118054","623084","619083","622288","622288","NA","Sternberg task","83","88477","92","yes","1024"
"90.3225806451613","90.3225806451613","957.8709677419355","957.8709677419355","black","experiment","legacy","legacy","legacy","0","uniform","1","undefined","1","right","92","0","92","92","0","0","92","92","0","0","92","92","92","92","0","Tue Oct 12 15:24:13 2021","The main experiment item","yes","Sternbergtask.osexp","C:/Users/warne/OneDrive/Documents/Tarleton - MS Applied Psychology/Adv Quantitative Methods and Experimental Design/Labs","no","mono","no","18","no","white","no","yes","768","legacy","80","11","C:/Users/warne/OneDrive/Documents/Tarleton - MS Applied Psychology/Adv Quantitative Methods and Experimental Design/Labs/AW-subject-3.csv","legacy","5","Lentiform Loewenfeld","3.3.9","0","n","0","right","right","right","right","NA","605","37851","6833","605","NA","2","legacy","1","1024","2","48000","-16","experiment","3","odd","8","626361","40243","623087","624154","2381","124888","624155","578080","2391","118054","628968","625157","628362","628362","NA","Sternberg task","84","89082","93","yes","1024"
"90.42553191489361","90.42553191489361","958.531914893617","958.531914893617","black","experiment","legacy","legacy","legacy","0","uniform","1","undefined","1","left","93","0","93","93","0","0","93","93","0","0","93","93","93","93","0","Tue Oct 12 15:24:13 2021","The main experiment item","yes","Sternbergtask.osexp","C:/Users/warne/OneDrive/Documents/Tarleton - MS Applied Psychology/Adv Quantitative Methods and Experimental Design/Labs","no","mono","no","18","no","white","no","yes","768","legacy","81","11","C:/Users/warne/OneDrive/Documents/Tarleton - MS Applied Psychology/Adv Quantitative Methods and Experimental Design/Labs/AW-subject-3.csv","legacy","8 3","Lentiform Loewenfeld","3.3.9","2","y","0","left","right","right","left","NA","1020","37851","6833","1020","NA","2","legacy","2","1024","2","48000","-16","experiment","3","odd","3","632247","40243","628973","630040","2381","124888","630042","578080","2391","118054","635268","631043","634248","634248","NA","Sternberg task","85","90102","94","yes","1024"
"90.52631578947368","90.52631578947368","958.578947368421","958.578947368421","black","experiment","legacy","legacy","legacy","0","uniform","1","undefined","1","left","94","0","94","94","0","0","94","94","0","0","94","94","94","94","0","Tue Oct 12 15:24:13 2021","The main experiment item","yes","Sternbergtask.osexp","C:/Users/warne/OneDrive/Documents/Tarleton - MS Applied Psychology/Adv Quantitative Methods and Experimental Design/Labs","no","mono","no","18","no","white","no","yes","768","legacy","82","11","C:/Users/warne/OneDrive/Documents/Tarleton - MS Applied Psychology/Adv Quantitative Methods and Experimental Design/Labs/AW-subject-3.csv","legacy","6 9 3 1","Lentiform Loewenfeld","3.3.9","4","y","0","left","right","right","left","NA","963","37851","6833","963","NA","2","legacy","4","1024","2","48000","-16","experiment","3","odd","1","638548","40243","635272","636341","2381","124888","636343","578080","2391","118054","641512","637344","640549","640549","NA","Sternberg task","86","91065","95","yes","1024"
"90.625","90.625","958.8958333333334","958.8958333333334","black","experiment","legacy","legacy","legacy","0","uniform","1","undefined","1","left","95","0","95","95","0","0","95","95","0","0","95","95","95","95","0","Tue Oct 12 15:24:13 2021","The main experiment item","yes","Sternbergtask.osexp","C:/Users/warne/OneDrive/Documents/Tarleton - MS Applied Psychology/Adv Quantitative Methods and Experimental Design/Labs","no","mono","no","18","no","white","no","yes","768","legacy","83","11","C:/Users/warne/OneDrive/Documents/Tarleton - MS Applied Psychology/Adv Quantitative Methods and Experimental Design/Labs/AW-subject-3.csv","legacy","8 9 6 1","Lentiform Loewenfeld","3.3.9","2","y","0","left","right","right","left","NA","989","37851","6833","989","NA","2","legacy","4","1024","2","48000","-16","experiment","3","odd","9","644821","40243","641530","642614","2381","124888","642616","578080","2391","118054","647811","643617","646822","646822","NA","Sternberg task","87","92054","96","yes","1024"
