"acc","accuracy","average_response_time","avg_rt","background","block","canvas_backend","clock_backend","color_backend","correct","correct_instruction1","correct_new_keyboard_response","correct_response","count_ISI","count_correctFeedback","count_expSequence","count_experiment","count_experimentLoop","count_fixation","count_incorrectFeedback","count_instruction1","count_instructions2","count_memorySet","count_new_keyboard_response","count_new_logger","count_practiceLoop","count_probe","count_thankYou","datetime","description","disable_garbage_collection","experiment_file","experiment_path","font_bold","font_family","font_italic","font_size","font_underline","foreground","form_clicks","fullscreen","height","keyboard_backend","live_row","live_row_practiceLoop","logfile","mouse_backend","numberSet","opensesame_codename","opensesame_version","posInSet","present","repeat_cycle","response","response_instruction1","response_instructions2","response_new_keyboard_response","response_thankYou","response_time","response_time_instruction1","response_time_instructions2","response_time_new_keyboard_response","response_time_thankYou","round_decimals","sampler_backend","setSize","sound_buf_size","sound_channels","sound_freq","sound_sample_size","start","subject_nr","subject_parity","target","time_ISI","time_correctFeedback","time_expSequence","time_experiment","time_experimentLoop","time_fixation","time_incorrectFeedback","time_instruction1","time_instructions2","time_memorySet","time_new_keyboard_response","time_new_logger","time_practiceLoop","time_probe","time_thankYou","title","total_correct","total_response_time","total_responses","width"
"100","100","541","541","#3d3846","practice","legacy","legacy","legacy","1","undefined","1","right","0","0","0","0","0","0","0","0","0","0","0","0","0","0","0","Sun Oct 22 09:55:55 2023","The main experiment item","False","SternbergTask.osexp","/Users/xaleyelyse/Desktop","False","mono","False","18","no","white","no","yes","768","legacy","0","0","/Users/xaleyelyse/Downloads/XWsubject_4.csv","legacy","5","Melodramatic Milgram","4.0.5","0","n","0","right","left","NA","right","NA","541.0","9211","NA","541","NA","2","legacy","1","1024","2","48000","-16","experiment","4","even","3","14528","NA","12317","2666","NA","12322","NA","2731","NA","13325","16530","17072","11973","16530","NA","Sternberg Task","1","541.0","1","1024"
"100","100","478","478","#3d3846","practice","legacy","legacy","legacy","1","undefined","1","left","1","1","1","0","0","1","1","0","0","1","1","1","0","1","0","Sun Oct 22 09:55:55 2023","The main experiment item","False","SternbergTask.osexp","/Users/xaleyelyse/Desktop","False","mono","False","18","no","white","no","yes","768","legacy","1","1","/Users/xaleyelyse/Downloads/XWsubject_4.csv","legacy","1 7 9 8 5","Melodramatic Milgram","4.0.5","4","y","0","left","left","NA","left","NA","415.0","9211","NA","415","NA","2","legacy","5","1024","2","48000","-16","experiment","4","even","8","20340","17097","18133","2666","NA","18135","NA","2731","NA","19138","22343","22759","11973","22342","NA","Sternberg Task","2","956.0","2","1024"
"100","100","511","511","#3d3846","practice","legacy","legacy","legacy","1","undefined","1","left","2","2","2","0","0","2","2","0","0","2","2","2","0","2","0","Sun Oct 22 09:55:55 2023","The main experiment item","False","SternbergTask.osexp","/Users/xaleyelyse/Desktop","False","mono","False","18","no","white","no","yes","768","legacy","2","2","/Users/xaleyelyse/Downloads/XWsubject_4.csv","legacy","6","Melodramatic Milgram","4.0.5","1","y","0","left","left","NA","left","NA","579.0","9211","NA","579","NA","2","legacy","1","1024","2","48000","-16","experiment","4","even","6","26005","22762","23798","2666","NA","23801","NA","2731","NA","24803","28010","28593","11973","28010","NA","Sternberg Task","3","1535.0","3","1024"
"100","100","524","524","#3d3846","practice","legacy","legacy","legacy","1","undefined","1","right","3","3","3","0","0","3","3","0","0","3","3","3","0","3","0","Sun Oct 22 09:55:55 2023","The main experiment item","False","SternbergTask.osexp","/Users/xaleyelyse/Desktop","False","mono","False","18","no","white","no","yes","768","legacy","3","3","/Users/xaleyelyse/Downloads/XWsubject_4.csv","legacy","4 1 5","Melodramatic Milgram","4.0.5","0","n","0","right","left","NA","right","NA","561.0","9211","NA","561","NA","2","legacy","3","1024","2","48000","-16","experiment","4","even","2","31843","28595","29632","2666","NA","29635","NA","2731","NA","30637","33848","34409","11973","33848","NA","Sternberg Task","4","2096.0","4","1024"
"100","100","540","540","#3d3846","practice","legacy","legacy","legacy","1","undefined","1","right","4","4","4","0","0","4","4","0","0","4","4","4","0","4","0","Sun Oct 22 09:55:55 2023","The main experiment item","False","SternbergTask.osexp","/Users/xaleyelyse/Desktop","False","mono","False","18","no","white","no","yes","768","legacy","4","4","/Users/xaleyelyse/Downloads/XWsubject_4.csv","legacy","5 7 8 4 1 2","Melodramatic Milgram","4.0.5","0","n","0","right","left","NA","right","NA","606.0","9211","NA","606","NA","2","legacy","6","1024","2","48000","-16","experiment","4","even","6","37663","34412","35455","2666","NA","35457","NA","2731","NA","36459","39665","40272","11973","39665","NA","Sternberg Task","5","2702.0","5","1024"
"100","100","540","540","#3d3846","practice","legacy","legacy","legacy","1","undefined","1","left","5","5","5","0","0","5","5","0","0","5","5","5","0","5","0","Sun Oct 22 09:55:55 2023","The main experiment item","False","SternbergTask.osexp","/Users/xaleyelyse/Desktop","False","mono","False","18","no","white","no","yes","768","legacy","5","5","/Users/xaleyelyse/Downloads/XWsubject_4.csv","legacy","4 8","Melodramatic Milgram","4.0.5","1","y","0","left","left","NA","left","NA","540.0","9211","NA","540","NA","2","legacy","2","1024","2","48000","-16","experiment","4","even","4","43520","40275","41312","2666","NA","41314","NA","2731","NA","42316","45522","46063","11973","45522","NA","Sternberg Task","6","3242.0","6","1024"
"100","100","539","539","#3d3846","practice","legacy","legacy","legacy","1","undefined","1","right","6","6","6","0","0","6","6","0","0","6","6","6","0","6","0","Sun Oct 22 09:55:55 2023","The main experiment item","False","SternbergTask.osexp","/Users/xaleyelyse/Desktop","False","mono","False","18","no","white","no","yes","768","legacy","6","6","/Users/xaleyelyse/Downloads/XWsubject_4.csv","legacy","3 1 9 4","Melodramatic Milgram","4.0.5","0","n","0","right","left","NA","right","NA","537.0","9211","NA","537","NA","2","legacy","4","1024","2","48000","-16","experiment","4","even","6","49319","46066","47112","2666","NA","47114","NA","2731","NA","48116","51321","51859","11973","51321","NA","Sternberg Task","7","3779.0","7","1024"
"100","100","553","553","#3d3846","practice","legacy","legacy","legacy","1","undefined","1","left","7","7","7","0","0","7","7","0","0","7","7","7","0","7","0","Sun Oct 22 09:55:55 2023","The main experiment item","False","SternbergTask.osexp","/Users/xaleyelyse/Desktop","False","mono","False","18","no","white","no","yes","768","legacy","7","7","/Users/xaleyelyse/Downloads/XWsubject_4.csv","legacy","4 3 1 7 9 8","Melodramatic Milgram","4.0.5","1","y","0","left","left","NA","left","NA","651.0","9211","NA","651","NA","2","legacy","6","1024","2","48000","-16","experiment","4","even","4","55097","51861","52890","2666","NA","52892","NA","2731","NA","53894","57099","57751","11973","57099","NA","Sternberg Task","8","4430.0","8","1024"
"100","100","553","553","#3d3846","practice","legacy","legacy","legacy","1","undefined","1","right","8","8","8","0","0","8","8","0","0","8","8","8","0","8","0","Sun Oct 22 09:55:55 2023","The main experiment item","False","SternbergTask.osexp","/Users/xaleyelyse/Desktop","False","mono","False","18","no","white","no","yes","768","legacy","8","8","/Users/xaleyelyse/Downloads/XWsubject_4.csv","legacy","2 1","Melodramatic Milgram","4.0.5","0","n","0","right","left","NA","right","NA","551.0","9211","NA","551","NA","2","legacy","2","1024","2","48000","-16","experiment","4","even","5","60991","57754","58785","2666","NA","58787","NA","2731","NA","59789","62994","63545","11973","62994","NA","Sternberg Task","9","4981.0","9","1024"
"100","100","556","556","#3d3846","practice","legacy","legacy","legacy","1","undefined","1","right","9","9","9","0","0","9","9","0","0","9","9","9","0","9","0","Sun Oct 22 09:55:55 2023","The main experiment item","False","SternbergTask.osexp","/Users/xaleyelyse/Desktop","False","mono","False","18","no","white","no","yes","768","legacy","9","9","/Users/xaleyelyse/Downloads/XWsubject_4.csv","legacy","9 6 7 4 5","Melodramatic Milgram","4.0.5","0","n","0","right","left","NA","right","NA","587.0","9211","NA","587","NA","2","legacy","5","1024","2","48000","-16","experiment","4","even","3","66792","63549","64585","2666","NA","64587","NA","2731","NA","65589","68795","69383","11973","68795","NA","Sternberg Task","10","5568.0","10","1024"
"100","100","554","554","#3d3846","practice","legacy","legacy","legacy","1","undefined","1","left","10","10","10","0","0","10","10","0","0","10","10","10","0","10","0","Sun Oct 22 09:55:55 2023","The main experiment item","False","SternbergTask.osexp","/Users/xaleyelyse/Desktop","False","mono","False","18","no","white","no","yes","768","legacy","10","10","/Users/xaleyelyse/Downloads/XWsubject_4.csv","legacy","1 5 2 9","Melodramatic Milgram","4.0.5","2","y","0","left","left","NA","left","NA","529.0","9211","NA","529","NA","2","legacy","4","1024","2","48000","-16","experiment","4","even","5","72628","69385","70422","2666","NA","70424","NA","2731","NA","71426","74631","75161","11973","74631","NA","Sternberg Task","11","6097.0","11","1024"
"100","100","600","600","#3d3846","practice","legacy","legacy","legacy","1","undefined","1","left","11","11","11","0","0","11","11","0","0","11","11","11","0","11","0","Sun Oct 22 09:55:55 2023","The main experiment item","False","SternbergTask.osexp","/Users/xaleyelyse/Desktop","False","mono","False","18","no","white","no","yes","768","legacy","11","11","/Users/xaleyelyse/Downloads/XWsubject_4.csv","legacy","2 9 4","Melodramatic Milgram","4.0.5","3","y","0","left","left","NA","left","NA","1111.0","9211","NA","1111","NA","2","legacy","3","1024","2","48000","-16","experiment","4","even","4","78407","75164","76201","2666","NA","76203","NA","2731","NA","77205","80409","81520","11973","80409","NA","Sternberg Task","12","7208.0","12","1024"
"100","100","594","594","#3d3846","experiment","legacy","legacy","legacy","1","undefined","1","right","12","12","12","0","0","12","12","0","0","12","12","12","0","12","0","Sun Oct 22 09:55:55 2023","The main experiment item","False","SternbergTask.osexp","/Users/xaleyelyse/Desktop","False","mono","False","18","no","white","no","yes","768","legacy","0","11","/Users/xaleyelyse/Downloads/XWsubject_4.csv","legacy","1 6 4 3 9 7","Melodramatic Milgram","4.0.5","0","n","0","right","left","left","right","NA","523.0","9211","1298","523","NA","2","legacy","6","1024","2","48000","-16","experiment","4","even","8","86080","81523","83872","2666","83824","83874","NA","2731","82525","84877","88083","88607","11973","88082","NA","Sternberg Task","13","7731.0","13","1024"
"100","100","586","586","#3d3846","experiment","legacy","legacy","legacy","1","undefined","1","right","13","13","13","0","0","13","13","0","0","13","13","13","0","13","0","Sun Oct 22 09:55:55 2023","The main experiment item","False","SternbergTask.osexp","/Users/xaleyelyse/Desktop","False","mono","False","18","no","white","no","yes","768","legacy","1","11","/Users/xaleyelyse/Downloads/XWsubject_4.csv","legacy","1 4 9 3","Melodramatic Milgram","4.0.5","0","n","0","right","left","left","right","NA","480.0","9211","1298","480","NA","2","legacy","4","1024","2","48000","-16","experiment","4","even","5","91845","88610","89639","2666","83824","89641","NA","2731","82525","90643","93847","94328","11973","93847","NA","Sternberg Task","14","8211.0","14","1024"
"100","100","589","589","#3d3846","experiment","legacy","legacy","legacy","1","undefined","1","left","14","14","14","0","0","14","14","0","0","14","14","14","0","14","0","Sun Oct 22 09:55:55 2023","The main experiment item","False","SternbergTask.osexp","/Users/xaleyelyse/Desktop","False","mono","False","18","no","white","no","yes","768","legacy","2","11","/Users/xaleyelyse/Downloads/XWsubject_4.csv","legacy","2 5 4 8 7","Melodramatic Milgram","4.0.5","3","y","0","left","left","left","left","NA","626.0","9211","1298","626","NA","2","legacy","5","1024","2","48000","-16","experiment","4","even","4","97572","94331","95365","2666","83824","95367","NA","2731","82525","96369","99574","100201","11973","99574","NA","Sternberg Task","15","8837.0","15","1024"
"100","100","578","578","#3d3846","experiment","legacy","legacy","legacy","1","undefined","1","right","15","15","15","0","0","15","15","0","0","15","15","15","0","15","0","Sun Oct 22 09:55:55 2023","The main experiment item","False","SternbergTask.osexp","/Users/xaleyelyse/Desktop","False","mono","False","18","no","white","no","yes","768","legacy","3","11","/Users/xaleyelyse/Downloads/XWsubject_4.csv","legacy","3 9 1","Melodramatic Milgram","4.0.5","0","n","0","right","left","left","right","NA","413.0","9211","1298","413","NA","2","legacy","3","1024","2","48000","-16","experiment","4","even","7","103449","100204","101242","2666","83824","101244","NA","2731","82525","102246","105451","105865","11973","105451","NA","Sternberg Task","16","9250.0","16","1024"
"100","100","579","579","#3d3846","experiment","legacy","legacy","legacy","1","undefined","1","right","16","16","16","0","0","16","16","0","0","16","16","16","0","16","0","Sun Oct 22 09:55:55 2023","The main experiment item","False","SternbergTask.osexp","/Users/xaleyelyse/Desktop","False","mono","False","18","no","white","no","yes","768","legacy","4","11","/Users/xaleyelyse/Downloads/XWsubject_4.csv","legacy","1 5 3 2 8","Melodramatic Milgram","4.0.5","0","n","0","right","left","left","right","NA","604.0","9211","1298","604","NA","2","legacy","5","1024","2","48000","-16","experiment","4","even","4","109102","105868","106896","2666","83824","106898","NA","2731","82525","107900","111104","111709","11973","111104","NA","Sternberg Task","17","9854.0","17","1024"
"100","100","569","569","#3d3846","experiment","legacy","legacy","legacy","1","undefined","1","left","17","17","17","0","0","17","17","0","0","17","17","17","0","17","0","Sun Oct 22 09:55:55 2023","The main experiment item","False","SternbergTask.osexp","/Users/xaleyelyse/Desktop","False","mono","False","18","no","white","no","yes","768","legacy","5","11","/Users/xaleyelyse/Downloads/XWsubject_4.csv","legacy","5 7 3 6 2","Melodramatic Milgram","4.0.5","5","y","0","left","left","left","left","NA","389.0","9211","1298","389","NA","2","legacy","5","1024","2","48000","-16","experiment","4","even","2","114949","111711","112744","2666","83824","112746","NA","2731","82525","113747","116951","117341","11973","116951","NA","Sternberg Task","18","10243.0","18","1024"
"94","94","561","561","#3d3846","experiment","legacy","legacy","legacy","0","undefined","0","left","18","18","18","0","0","18","18","0","0","18","18","18","0","18","0","Sun Oct 22 09:55:55 2023","The main experiment item","False","SternbergTask.osexp","/Users/xaleyelyse/Desktop","False","mono","False","18","no","white","no","yes","768","legacy","6","11","/Users/xaleyelyse/Downloads/XWsubject_4.csv","legacy","7 4 2 6 3 5","Melodramatic Milgram","4.0.5","6","y","0","right","left","left","right","NA","433.0","9211","1298","433","NA","2","legacy","6","1024","2","48000","-16","experiment","4","even","5","120591","117343","118382","2666","83824","118385","NA","2731","82525","119387","122593","123026","11973","122592","NA","Sternberg Task","18","10676.0","19","1024"
"95","95","562","562","#3d3846","experiment","legacy","legacy","legacy","1","undefined","1","right","19","19","19","0","0","19","19","0","0","19","19","19","0","19","0","Sun Oct 22 09:55:55 2023","The main experiment item","False","SternbergTask.osexp","/Users/xaleyelyse/Desktop","False","mono","False","18","no","white","no","yes","768","legacy","7","11","/Users/xaleyelyse/Downloads/XWsubject_4.csv","legacy","8 5 7 3 6","Melodramatic Milgram","4.0.5","0","n","0","right","left","left","right","NA","572.0","9211","1298","572","NA","2","legacy","5","1024","2","48000","-16","experiment","4","even","9","126274","117343","124066","2666","83824","124069","123029","2731","82525","125072","128277","128849","11973","128277","NA","Sternberg Task","19","11248.0","20","1024"
"95","95","560","560","#3d3846","experiment","legacy","legacy","legacy","1","undefined","1","right","20","20","20","0","0","20","20","0","0","20","20","20","0","20","0","Sun Oct 22 09:55:55 2023","The main experiment item","False","SternbergTask.osexp","/Users/xaleyelyse/Desktop","False","mono","False","18","no","white","no","yes","768","legacy","8","11","/Users/xaleyelyse/Downloads/XWsubject_4.csv","legacy","9","Melodramatic Milgram","4.0.5","0","n","0","right","left","left","right","NA","532.0","9211","1298","532","NA","2","legacy","1","1024","2","48000","-16","experiment","4","even","6","132096","128852","129887","2666","83824","129890","123029","2731","82525","130892","134099","134632","11973","134098","NA","Sternberg Task","20","11780.0","21","1024"
"95","95","558","558","#3d3846","experiment","legacy","legacy","legacy","1","undefined","1","right","21","21","21","0","0","21","21","0","0","21","21","21","0","21","0","Sun Oct 22 09:55:55 2023","The main experiment item","False","SternbergTask.osexp","/Users/xaleyelyse/Desktop","False","mono","False","18","no","white","no","yes","768","legacy","9","11","/Users/xaleyelyse/Downloads/XWsubject_4.csv","legacy","6 2 9 3 8 4","Melodramatic Milgram","4.0.5","0","n","0","right","left","left","right","NA","499.0","9211","1298","499","NA","2","legacy","6","1024","2","48000","-16","experiment","4","even","1","137886","134634","135679","2666","83824","135681","123029","2731","82525","136683","139888","140388","11973","139888","NA","Sternberg Task","21","12279.0","22","1024"
"95","95","557","557","#3d3846","experiment","legacy","legacy","legacy","1","undefined","1","right","22","22","22","0","0","22","22","0","0","22","22","22","0","22","0","Sun Oct 22 09:55:55 2023","The main experiment item","False","SternbergTask.osexp","/Users/xaleyelyse/Desktop","False","mono","False","18","no","white","no","yes","768","legacy","10","11","/Users/xaleyelyse/Downloads/XWsubject_4.csv","legacy","8 2 1 4 5 9","Melodramatic Milgram","4.0.5","0","n","0","right","left","left","right","NA","544.0","9211","1298","544","NA","2","legacy","6","1024","2","48000","-16","experiment","4","even","7","143625","140391","141419","2666","83824","141421","123029","2731","82525","142423","145627","146172","11973","145627","NA","Sternberg Task","22","12823.0","23","1024"
"95","95","557","557","#3d3846","experiment","legacy","legacy","legacy","1","undefined","1","right","23","23","23","0","0","23","23","0","0","23","23","23","0","23","0","Sun Oct 22 09:55:55 2023","The main experiment item","False","SternbergTask.osexp","/Users/xaleyelyse/Desktop","False","mono","False","18","no","white","no","yes","768","legacy","11","11","/Users/xaleyelyse/Downloads/XWsubject_4.csv","legacy","2 6 4 3 9","Melodramatic Milgram","4.0.5","0","n","0","right","left","left","right","NA","545.0","9211","1298","545","NA","2","legacy","5","1024","2","48000","-16","experiment","4","even","1","149414","146175","147206","2666","83824","147208","123029","2731","82525","148211","151416","151962","11973","151416","NA","Sternberg Task","23","13368.0","24","1024"
"96","96","550","550","#3d3846","experiment","legacy","legacy","legacy","1","undefined","1","right","24","24","24","0","0","24","24","0","0","24","24","24","0","24","0","Sun Oct 22 09:55:55 2023","The main experiment item","False","SternbergTask.osexp","/Users/xaleyelyse/Desktop","False","mono","False","18","no","white","no","yes","768","legacy","12","11","/Users/xaleyelyse/Downloads/XWsubject_4.csv","legacy","2 5 1 4","Melodramatic Milgram","4.0.5","0","n","0","right","left","left","right","NA","393.0","9211","1298","393","NA","2","legacy","4","1024","2","48000","-16","experiment","4","even","6","155210","151964","153000","2666","83824","153002","123029","2731","82525","154004","157213","157607","11973","157212","NA","Sternberg Task","24","13761.0","25","1024"
"96","96","544","544","#3d3846","experiment","legacy","legacy","legacy","1","undefined","1","right","25","25","25","0","0","25","25","0","0","25","25","25","0","25","0","Sun Oct 22 09:55:55 2023","The main experiment item","False","SternbergTask.osexp","/Users/xaleyelyse/Desktop","False","mono","False","18","no","white","no","yes","768","legacy","13","11","/Users/xaleyelyse/Downloads/XWsubject_4.csv","legacy","6 8","Melodramatic Milgram","4.0.5","0","n","0","right","left","left","right","NA","398.0","9211","1298","398","NA","2","legacy","2","1024","2","48000","-16","experiment","4","even","9","160857","157610","158649","2666","83824","158652","123029","2731","82525","159654","162859","163258","11973","162859","NA","Sternberg Task","25","14159.0","26","1024"
"92","92","544","544","#3d3846","experiment","legacy","legacy","legacy","0","undefined","0","left","26","26","26","0","0","26","26","0","0","26","26","26","0","26","0","Sun Oct 22 09:55:55 2023","The main experiment item","False","SternbergTask.osexp","/Users/xaleyelyse/Desktop","False","mono","False","18","no","white","no","yes","768","legacy","14","11","/Users/xaleyelyse/Downloads/XWsubject_4.csv","legacy","9 3 1 2 5","Melodramatic Milgram","4.0.5","4","y","0","right","left","left","right","NA","549.0","9211","1298","549","NA","2","legacy","5","1024","2","48000","-16","experiment","4","even","2","166507","163263","164299","2666","83824","164302","123029","2731","82525","165304","168509","169059","11973","168509","NA","Sternberg Task","25","14708.0","27","1024"
"92","92","546","546","#3d3846","experiment","legacy","legacy","legacy","1","undefined","1","right","27","27","27","0","0","27","27","0","0","27","27","27","0","27","0","Sun Oct 22 09:55:55 2023","The main experiment item","False","SternbergTask.osexp","/Users/xaleyelyse/Desktop","False","mono","False","18","no","white","no","yes","768","legacy","15","11","/Users/xaleyelyse/Downloads/XWsubject_4.csv","legacy","9 5 3 2 8 6","Melodramatic Milgram","4.0.5","0","n","0","right","left","left","right","NA","601.0","9211","1298","601","NA","2","legacy","6","1024","2","48000","-16","experiment","4","even","7","172327","163263","170120","2666","83824","170122","169062","2731","82525","171124","174329","174931","11973","174329","NA","Sternberg Task","26","15309.0","28","1024"
"93","93","545","545","#3d3846","experiment","legacy","legacy","legacy","1","undefined","1","right","28","28","28","0","0","28","28","0","0","28","28","28","0","28","0","Sun Oct 22 09:55:55 2023","The main experiment item","False","SternbergTask.osexp","/Users/xaleyelyse/Desktop","False","mono","False","18","no","white","no","yes","768","legacy","16","11","/Users/xaleyelyse/Downloads/XWsubject_4.csv","legacy","1 6 4","Melodramatic Milgram","4.0.5","0","n","0","right","left","left","right","NA","508.0","9211","1298","508","NA","2","legacy","3","1024","2","48000","-16","experiment","4","even","7","178171","174935","175965","2666","83824","175967","169062","2731","82525","176969","180174","180683","11973","180174","NA","Sternberg Task","27","15817.0","29","1024"
"90","90","549","549","#3d3846","experiment","legacy","legacy","legacy","0","undefined","0","left","29","29","29","0","0","29","29","0","0","29","29","29","0","29","0","Sun Oct 22 09:55:55 2023","The main experiment item","False","SternbergTask.osexp","/Users/xaleyelyse/Desktop","False","mono","False","18","no","white","no","yes","768","legacy","17","11","/Users/xaleyelyse/Downloads/XWsubject_4.csv","legacy","4 7 6 8 2 3","Melodramatic Milgram","4.0.5","6","y","0","right","left","left","right","NA","665.0","9211","1298","665","NA","2","legacy","6","1024","2","48000","-16","experiment","4","even","3","183925","180686","181718","2666","83824","181721","169062","2731","82525","182723","185928","186594","11973","185928","NA","Sternberg Task","27","16482.0","30","1024"
"90","90","548","548","#3d3846","experiment","legacy","legacy","legacy","1","undefined","1","left","30","30","30","0","0","30","30","0","0","30","30","30","0","30","0","Sun Oct 22 09:55:55 2023","The main experiment item","False","SternbergTask.osexp","/Users/xaleyelyse/Desktop","False","mono","False","18","no","white","no","yes","768","legacy","18","11","/Users/xaleyelyse/Downloads/XWsubject_4.csv","legacy","7","Melodramatic Milgram","4.0.5","1","y","0","left","left","left","left","NA","523.0","9211","1298","523","NA","2","legacy","1","1024","2","48000","-16","experiment","4","even","7","189838","180686","187632","2666","83824","187634","186596","2731","82525","188636","191840","192364","11973","191840","NA","Sternberg Task","28","17005.0","31","1024"
"90","90","548","548","#3d3846","experiment","legacy","legacy","legacy","1","undefined","1","right","31","31","31","0","0","31","31","0","0","31","31","31","0","31","0","Sun Oct 22 09:55:55 2023","The main experiment item","False","SternbergTask.osexp","/Users/xaleyelyse/Desktop","False","mono","False","18","no","white","no","yes","768","legacy","19","11","/Users/xaleyelyse/Downloads/XWsubject_4.csv","legacy","7 6 4 8 1 2","Melodramatic Milgram","4.0.5","0","n","0","right","left","left","right","NA","548.0","9211","1298","548","NA","2","legacy","6","1024","2","48000","-16","experiment","4","even","9","195610","192367","193403","2666","83824","193406","186596","2731","82525","194408","197614","198162","11973","197613","NA","Sternberg Task","29","17553.0","32","1024"
"90","90","548","548","#3d3846","experiment","legacy","legacy","legacy","1","undefined","1","left","32","32","32","0","0","32","32","0","0","32","32","32","0","32","0","Sun Oct 22 09:55:55 2023","The main experiment item","False","SternbergTask.osexp","/Users/xaleyelyse/Desktop","False","mono","False","18","no","white","no","yes","768","legacy","20","11","/Users/xaleyelyse/Downloads/XWsubject_4.csv","legacy","9 5 8 1","Melodramatic Milgram","4.0.5","2","y","0","left","left","left","left","NA","544.0","9211","1298","544","NA","2","legacy","4","1024","2","48000","-16","experiment","4","even","5","201411","198166","199203","2666","83824","199205","186596","2731","82525","200208","203413","203958","11973","203413","NA","Sternberg Task","30","18097.0","33","1024"
"91","91","545","545","#3d3846","experiment","legacy","legacy","legacy","1","undefined","1","right","33","33","33","0","0","33","33","0","0","33","33","33","0","33","0","Sun Oct 22 09:55:55 2023","The main experiment item","False","SternbergTask.osexp","/Users/xaleyelyse/Desktop","False","mono","False","18","no","white","no","yes","768","legacy","21","11","/Users/xaleyelyse/Downloads/XWsubject_4.csv","legacy","5","Melodramatic Milgram","4.0.5","0","n","0","right","left","left","right","NA","453.0","9211","1298","453","NA","2","legacy","1","1024","2","48000","-16","experiment","4","even","8","207214","203961","205007","2666","83824","205009","186596","2731","82525","206011","209216","209670","11973","209216","NA","Sternberg Task","31","18550.0","34","1024"
"91","91","551","551","#3d3846","experiment","legacy","legacy","legacy","1","undefined","1","left","34","34","34","0","0","34","34","0","0","34","34","34","0","34","0","Sun Oct 22 09:55:55 2023","The main experiment item","False","SternbergTask.osexp","/Users/xaleyelyse/Desktop","False","mono","False","18","no","white","no","yes","768","legacy","22","11","/Users/xaleyelyse/Downloads/XWsubject_4.csv","legacy","7 8 6 3 1","Melodramatic Milgram","4.0.5","5","y","0","left","left","left","left","NA","749.0","9211","1298","749","NA","2","legacy","5","1024","2","48000","-16","experiment","4","even","1","212910","209673","210703","2666","83824","210705","186596","2731","82525","211707","214912","215662","11973","214912","NA","Sternberg Task","32","19299.0","35","1024"
"88","88","548","548","#3d3846","experiment","legacy","legacy","legacy","0","undefined","0","left","35","35","35","0","0","35","35","0","0","35","35","35","0","35","0","Sun Oct 22 09:55:55 2023","The main experiment item","False","SternbergTask.osexp","/Users/xaleyelyse/Desktop","False","mono","False","18","no","white","no","yes","768","legacy","23","11","/Users/xaleyelyse/Downloads/XWsubject_4.csv","legacy","8 5 4 7 3 1","Melodramatic Milgram","4.0.5","2","y","0","right","left","left","right","NA","453.0","9211","1298","453","NA","2","legacy","6","1024","2","48000","-16","experiment","4","even","5","218904","215664","216697","2666","83824","216699","186596","2731","82525","217701","220906","221360","11973","220906","NA","Sternberg Task","32","19752.0","36","1024"
"89","89","555","555","#3d3846","experiment","legacy","legacy","legacy","1","undefined","1","left","36","36","36","0","0","36","36","0","0","36","36","36","0","36","0","Sun Oct 22 09:55:55 2023","The main experiment item","False","SternbergTask.osexp","/Users/xaleyelyse/Desktop","False","mono","False","18","no","white","no","yes","768","legacy","24","11","/Users/xaleyelyse/Downloads/XWsubject_4.csv","legacy","6 7 8 5","Melodramatic Milgram","4.0.5","3","y","0","left","left","left","left","NA","812.0","9211","1298","812","NA","2","legacy","4","1024","2","48000","-16","experiment","4","even","8","224607","215664","222399","2666","83824","222401","221362","2731","82525","223403","226609","227421","11973","226609","NA","Sternberg Task","33","20564.0","37","1024"
"89","89","577","577","#3d3846","experiment","legacy","legacy","legacy","1","undefined","1","left","37","37","37","0","0","37","37","0","0","37","37","37","0","37","0","Sun Oct 22 09:55:55 2023","The main experiment item","False","SternbergTask.osexp","/Users/xaleyelyse/Desktop","False","mono","False","18","no","white","no","yes","768","legacy","25","11","/Users/xaleyelyse/Downloads/XWsubject_4.csv","legacy","7 1 8 5 6 2","Melodramatic Milgram","4.0.5","2","y","0","left","left","left","left","NA","1384.0","9211","1298","1384","NA","2","legacy","6","1024","2","48000","-16","experiment","4","even","1","230671","227425","228462","2666","83824","228465","221362","2731","82525","229467","232673","234058","11973","232673","NA","Sternberg Task","34","21948.0","38","1024"
"87","87","578","578","#3d3846","experiment","legacy","legacy","legacy","0","undefined","0","left","38","38","38","0","0","38","38","0","0","38","38","38","0","38","0","Sun Oct 22 09:55:55 2023","The main experiment item","False","SternbergTask.osexp","/Users/xaleyelyse/Desktop","False","mono","False","18","no","white","no","yes","768","legacy","26","11","/Users/xaleyelyse/Downloads/XWsubject_4.csv","legacy","8 5 3 7 4 6","Melodramatic Milgram","4.0.5","6","y","0","right","left","left","right","NA","620.0","9211","1298","620","NA","2","legacy","6","1024","2","48000","-16","experiment","4","even","6","237306","234061","235098","2666","83824","235100","221362","2731","82525","236103","239309","239930","11973","239309","NA","Sternberg Task","34","22568.0","39","1024"
"87","87","573","573","#3d3846","experiment","legacy","legacy","legacy","1","undefined","1","left","39","39","39","0","0","39","39","0","0","39","39","39","0","39","0","Sun Oct 22 09:55:55 2023","The main experiment item","False","SternbergTask.osexp","/Users/xaleyelyse/Desktop","False","mono","False","18","no","white","no","yes","768","legacy","27","11","/Users/xaleyelyse/Downloads/XWsubject_4.csv","legacy","7 8 4 6 9 5","Melodramatic Milgram","4.0.5","4","y","0","left","left","left","left","NA","364.0","9211","1298","364","NA","2","legacy","6","1024","2","48000","-16","experiment","4","even","6","243185","234061","240978","2666","83824","240980","239933","2731","82525","241982","245190","245554","11973","245188","NA","Sternberg Task","35","22932.0","40","1024"
"85","85","573","573","#3d3846","experiment","legacy","legacy","legacy","0","undefined","0","left","40","40","40","0","0","40","40","0","0","40","40","40","0","40","0","Sun Oct 22 09:55:55 2023","The main experiment item","False","SternbergTask.osexp","/Users/xaleyelyse/Desktop","False","mono","False","18","no","white","no","yes","768","legacy","28","11","/Users/xaleyelyse/Downloads/XWsubject_4.csv","legacy","6 1 2","Melodramatic Milgram","4.0.5","3","y","0","right","left","left","right","NA","580.0","9211","1298","580","NA","2","legacy","3","1024","2","48000","-16","experiment","4","even","2","248791","245557","246584","2666","83824","246586","239933","2731","82525","247588","250793","251374","11973","250793","NA","Sternberg Task","35","23512.0","41","1024"
"85","85","576","576","#3d3846","experiment","legacy","legacy","legacy","1","undefined","1","right","41","41","41","0","0","41","41","0","0","41","41","41","0","41","0","Sun Oct 22 09:55:55 2023","The main experiment item","False","SternbergTask.osexp","/Users/xaleyelyse/Desktop","False","mono","False","18","no","white","no","yes","768","legacy","29","11","/Users/xaleyelyse/Downloads/XWsubject_4.csv","legacy","5 9 2 3","Melodramatic Milgram","4.0.5","0","n","0","right","left","left","right","NA","717.0","9211","1298","717","NA","2","legacy","4","1024","2","48000","-16","experiment","4","even","8","254617","245557","252411","2666","83824","252413","251378","2731","82525","253415","256621","257339","11973","256620","NA","Sternberg Task","36","24229.0","42","1024"
"86","86","574","574","#3d3846","experiment","legacy","legacy","legacy","1","undefined","1","left","42","42","42","0","0","42","42","0","0","42","42","42","0","42","0","Sun Oct 22 09:55:55 2023","The main experiment item","False","SternbergTask.osexp","/Users/xaleyelyse/Desktop","False","mono","False","18","no","white","no","yes","768","legacy","30","11","/Users/xaleyelyse/Downloads/XWsubject_4.csv","legacy","4 9 7 8 5 3","Melodramatic Milgram","4.0.5","4","y","0","left","left","left","left","NA","462.0","9211","1298","462","NA","2","legacy","6","1024","2","48000","-16","experiment","4","even","8","260586","257342","258378","2666","83824","258381","251378","2731","82525","259384","262590","263053","11973","262590","NA","Sternberg Task","37","24691.0","43","1024"
"86","86","572","572","#3d3846","experiment","legacy","legacy","legacy","1","undefined","1","left","43","43","43","0","0","43","43","0","0","43","43","43","0","43","0","Sun Oct 22 09:55:55 2023","The main experiment item","False","SternbergTask.osexp","/Users/xaleyelyse/Desktop","False","mono","False","18","no","white","no","yes","768","legacy","31","11","/Users/xaleyelyse/Downloads/XWsubject_4.csv","legacy","4 3 2 5 8","Melodramatic Milgram","4.0.5","2","y","0","left","left","left","left","NA","512.0","9211","1298","512","NA","2","legacy","5","1024","2","48000","-16","experiment","4","even","3","266299","263055","264090","2666","83824","264094","251378","2731","82525","265096","268302","268815","11973","268302","NA","Sternberg Task","38","25203.0","44","1024"
"86","86","572","572","#3d3846","experiment","legacy","legacy","legacy","1","undefined","1","right","44","44","44","0","0","44","44","0","0","44","44","44","0","44","0","Sun Oct 22 09:55:55 2023","The main experiment item","False","SternbergTask.osexp","/Users/xaleyelyse/Desktop","False","mono","False","18","no","white","no","yes","768","legacy","32","11","/Users/xaleyelyse/Downloads/XWsubject_4.csv","legacy","7 1 5 6 3","Melodramatic Milgram","4.0.5","0","n","0","right","left","left","right","NA","543.0","9211","1298","543","NA","2","legacy","5","1024","2","48000","-16","experiment","4","even","8","272061","268818","269853","2666","83824","269855","251378","2731","82525","270858","274063","274607","11973","274063","NA","Sternberg Task","39","25746.0","45","1024"
"86","86","568","568","#3d3846","experiment","legacy","legacy","legacy","1","undefined","1","left","45","45","45","0","0","45","45","0","0","45","45","45","0","45","0","Sun Oct 22 09:55:55 2023","The main experiment item","False","SternbergTask.osexp","/Users/xaleyelyse/Desktop","False","mono","False","18","no","white","no","yes","768","legacy","33","11","/Users/xaleyelyse/Downloads/XWsubject_4.csv","legacy","3 2 1 4 7","Melodramatic Milgram","4.0.5","2","y","0","left","left","left","left","NA","405.0","9211","1298","405","NA","2","legacy","5","1024","2","48000","-16","experiment","4","even","2","277865","274610","275656","2666","83824","275658","251378","2731","82525","276660","279867","280273","11973","279867","NA","Sternberg Task","40","26151.0","46","1024"
"87","87","569","569","#3d3846","experiment","legacy","legacy","legacy","1","undefined","1","right","46","46","46","0","0","46","46","0","0","46","46","46","0","46","0","Sun Oct 22 09:55:55 2023","The main experiment item","False","SternbergTask.osexp","/Users/xaleyelyse/Desktop","False","mono","False","18","no","white","no","yes","768","legacy","34","11","/Users/xaleyelyse/Downloads/XWsubject_4.csv","legacy","7 4 2 8 1 9","Melodramatic Milgram","4.0.5","0","n","0","right","left","left","right","NA","613.0","9211","1298","613","NA","2","legacy","6","1024","2","48000","-16","experiment","4","even","5","283512","280276","281305","2666","83824","281307","251378","2731","82525","282309","285514","286128","11973","285514","NA","Sternberg Task","41","26764.0","47","1024"
"87","87","568","568","#3d3846","experiment","legacy","legacy","legacy","1","undefined","1","right","47","47","47","0","0","47","47","0","0","47","47","47","0","47","0","Sun Oct 22 09:55:55 2023","The main experiment item","False","SternbergTask.osexp","/Users/xaleyelyse/Desktop","False","mono","False","18","no","white","no","yes","768","legacy","35","11","/Users/xaleyelyse/Downloads/XWsubject_4.csv","legacy","1","Melodramatic Milgram","4.0.5","0","n","0","right","left","left","right","NA","538.0","9211","1298","538","NA","2","legacy","1","1024","2","48000","-16","experiment","4","even","7","289371","286131","287163","2666","83824","287165","251378","2731","82525","288167","291374","291913","11973","291374","NA","Sternberg Task","42","27302.0","48","1024"
"87","87","568","568","#3d3846","experiment","legacy","legacy","legacy","1","undefined","1","left","48","48","48","0","0","48","48","0","0","48","48","48","0","48","0","Sun Oct 22 09:55:55 2023","The main experiment item","False","SternbergTask.osexp","/Users/xaleyelyse/Desktop","False","mono","False","18","no","white","no","yes","768","legacy","36","11","/Users/xaleyelyse/Downloads/XWsubject_4.csv","legacy","8 3","Melodramatic Milgram","4.0.5","2","y","0","left","left","left","left","NA","549.0","9211","1298","549","NA","2","legacy","2","1024","2","48000","-16","experiment","4","even","3","295159","291916","292952","2666","83824","292954","251378","2731","82525","293956","297162","297712","11973","297162","NA","Sternberg Task","43","27851.0","49","1024"
"88","88","565","565","#3d3846","experiment","legacy","legacy","legacy","1","undefined","1","left","49","49","49","0","0","49","49","0","0","49","49","49","0","49","0","Sun Oct 22 09:55:55 2023","The main experiment item","False","SternbergTask.osexp","/Users/xaleyelyse/Desktop","False","mono","False","18","no","white","no","yes","768","legacy","37","11","/Users/xaleyelyse/Downloads/XWsubject_4.csv","legacy","4","Melodramatic Milgram","4.0.5","1","y","0","left","left","left","left","NA","408.0","9211","1298","408","NA","2","legacy","1","1024","2","48000","-16","experiment","4","even","4","300959","297715","298752","2666","83824","298754","251378","2731","82525","299756","302961","303370","11973","302961","NA","Sternberg Task","44","28259.0","50","1024"
"88","88","563","563","#3d3846","experiment","legacy","legacy","legacy","1","undefined","1","left","50","50","50","0","0","50","50","0","0","50","50","50","0","50","0","Sun Oct 22 09:55:55 2023","The main experiment item","False","SternbergTask.osexp","/Users/xaleyelyse/Desktop","False","mono","False","18","no","white","no","yes","768","legacy","38","11","/Users/xaleyelyse/Downloads/XWsubject_4.csv","legacy","4 1 5","Melodramatic Milgram","4.0.5","2","y","0","left","left","left","left","NA","465.0","9211","1298","465","NA","2","legacy","3","1024","2","48000","-16","experiment","4","even","1","306619","303373","304410","2666","83824","304413","251378","2731","82525","305415","308621","309087","11973","308621","NA","Sternberg Task","45","28724.0","51","1024"
"88","88","561","561","#3d3846","experiment","legacy","legacy","legacy","1","undefined","1","right","51","51","51","0","0","51","51","0","0","51","51","51","0","51","0","Sun Oct 22 09:55:55 2023","The main experiment item","False","SternbergTask.osexp","/Users/xaleyelyse/Desktop","False","mono","False","18","no","white","no","yes","768","legacy","39","11","/Users/xaleyelyse/Downloads/XWsubject_4.csv","legacy","8 4 3 9","Melodramatic Milgram","4.0.5","0","n","0","right","left","left","right","NA","450.0","9211","1298","450","NA","2","legacy","4","1024","2","48000","-16","experiment","4","even","5","312345","309090","310137","2666","83824","310140","251378","2731","82525","311142","314348","314799","11973","314347","NA","Sternberg Task","46","29174.0","52","1024"
"86","86","559","559","#3d3846","experiment","legacy","legacy","legacy","0","undefined","0","left","52","52","52","0","0","52","52","0","0","52","52","52","0","52","0","Sun Oct 22 09:55:55 2023","The main experiment item","False","SternbergTask.osexp","/Users/xaleyelyse/Desktop","False","mono","False","18","no","white","no","yes","768","legacy","40","11","/Users/xaleyelyse/Downloads/XWsubject_4.csv","legacy","3 4 9 6 2 9","Melodramatic Milgram","4.0.5","5","y","0","right","left","left","right","NA","463.0","9211","1298","463","NA","2","legacy","6","1024","2","48000","-16","experiment","4","even","2","318037","314802","315831","2666","83824","315833","251378","2731","82525","316835","320039","320503","11973","320039","NA","Sternberg Task","46","29637.0","53","1024"
"85","85","559","559","#3d3846","experiment","legacy","legacy","legacy","0","undefined","0","right","53","53","53","0","0","53","53","0","0","53","53","53","0","53","0","Sun Oct 22 09:55:55 2023","The main experiment item","False","SternbergTask.osexp","/Users/xaleyelyse/Desktop","False","mono","False","18","no","white","no","yes","768","legacy","41","11","/Users/xaleyelyse/Downloads/XWsubject_4.csv","legacy","6 7 5 9","Melodramatic Milgram","4.0.5","0","n","0","left","left","left","left","NA","574.0","9211","1298","574","NA","2","legacy","4","1024","2","48000","-16","experiment","4","even","2","323745","314802","321538","2666","83824","321540","320506","2731","82525","322543","325748","326323","11973","325748","NA","Sternberg Task","46","30211.0","54","1024"
"83","83","555","555","#3d3846","experiment","legacy","legacy","legacy","0","undefined","0","right","54","54","54","0","0","54","54","0","0","54","54","54","0","54","0","Sun Oct 22 09:55:55 2023","The main experiment item","False","SternbergTask.osexp","/Users/xaleyelyse/Desktop","False","mono","False","18","no","white","no","yes","768","legacy","42","11","/Users/xaleyelyse/Downloads/XWsubject_4.csv","legacy","6 9 4 5 3 2","Melodramatic Milgram","4.0.5","0","n","0","left","left","left","left","NA","346.0","9211","1298","346","NA","2","legacy","6","1024","2","48000","-16","experiment","4","even","8","329569","314802","327361","2666","83824","327364","326326","2731","82525","328366","331571","331918","11973","331571","NA","Sternberg Task","46","30557.0","55","1024"
"83","83","556","556","#3d3846","experiment","legacy","legacy","legacy","1","undefined","1","left","55","55","55","0","0","55","55","0","0","55","55","55","0","55","0","Sun Oct 22 09:55:55 2023","The main experiment item","False","SternbergTask.osexp","/Users/xaleyelyse/Desktop","False","mono","False","18","no","white","no","yes","768","legacy","43","11","/Users/xaleyelyse/Downloads/XWsubject_4.csv","legacy","3 5 7 1","Melodramatic Milgram","4.0.5","3","y","0","left","left","left","left","NA","591.0","9211","1298","591","NA","2","legacy","4","1024","2","48000","-16","experiment","4","even","7","335165","314802","332958","2666","83824","332960","331921","2731","82525","333962","337169","337761","11973","337168","NA","Sternberg Task","47","31148.0","56","1024"
"84","84","555","555","#3d3846","experiment","legacy","legacy","legacy","1","undefined","1","left","56","56","56","0","0","56","56","0","0","56","56","56","0","56","0","Sun Oct 22 09:55:55 2023","The main experiment item","False","SternbergTask.osexp","/Users/xaleyelyse/Desktop","False","mono","False","18","no","white","no","yes","768","legacy","44","11","/Users/xaleyelyse/Downloads/XWsubject_4.csv","legacy","7 1 3","Melodramatic Milgram","4.0.5","2","y","0","left","left","left","left","NA","496.0","9211","1298","496","NA","2","legacy","3","1024","2","48000","-16","experiment","4","even","1","341007","337764","338799","2666","83824","338802","331921","2731","82525","339804","343011","343508","11973","343011","NA","Sternberg Task","48","31644.0","57","1024"
"84","84","554","554","#3d3846","experiment","legacy","legacy","legacy","1","undefined","1","left","57","57","57","0","0","57","57","0","0","57","57","57","0","57","0","Sun Oct 22 09:55:55 2023","The main experiment item","False","SternbergTask.osexp","/Users/xaleyelyse/Desktop","False","mono","False","18","no","white","no","yes","768","legacy","45","11","/Users/xaleyelyse/Downloads/XWsubject_4.csv","legacy","5 7 8 2 3 8","Melodramatic Milgram","4.0.5","5","y","0","left","left","left","left","NA","522.0","9211","1298","522","NA","2","legacy","6","1024","2","48000","-16","experiment","4","even","3","346768","343510","344558","2666","83824","344561","331921","2731","82525","345563","348771","349294","11973","348771","NA","Sternberg Task","49","32166.0","58","1024"
"84","84","554","554","#3d3846","experiment","legacy","legacy","legacy","1","undefined","1","right","58","58","58","0","0","58","58","0","0","58","58","58","0","58","0","Sun Oct 22 09:55:55 2023","The main experiment item","False","SternbergTask.osexp","/Users/xaleyelyse/Desktop","False","mono","False","18","no","white","no","yes","768","legacy","46","11","/Users/xaleyelyse/Downloads/XWsubject_4.csv","legacy","4 2 7 6 1 3","Melodramatic Milgram","4.0.5","0","n","0","right","left","left","right","NA","533.0","9211","1298","533","NA","2","legacy","6","1024","2","48000","-16","experiment","4","even","8","352532","349296","350326","2666","83824","350327","331921","2731","82525","351329","354535","355069","11973","354535","NA","Sternberg Task","50","32699.0","59","1024"
"85","85","555","555","#3d3846","experiment","legacy","legacy","legacy","1","undefined","1","right","59","59","59","0","0","59","59","0","0","59","59","59","0","59","0","Sun Oct 22 09:55:55 2023","The main experiment item","False","SternbergTask.osexp","/Users/xaleyelyse/Desktop","False","mono","False","18","no","white","no","yes","768","legacy","47","11","/Users/xaleyelyse/Downloads/XWsubject_4.csv","legacy","4 8 1 2","Melodramatic Milgram","4.0.5","0","n","0","right","left","left","right","NA","652.0","9211","1298","652","NA","2","legacy","4","1024","2","48000","-16","experiment","4","even","7","358310","355072","356103","2666","83824","356106","331921","2731","82525","357108","360313","360966","11973","360313","NA","Sternberg Task","51","33351.0","60","1024"
"85","85","556","556","#3d3846","experiment","legacy","legacy","legacy","1","undefined","1","right","60","60","60","0","0","60","60","0","0","60","60","60","0","60","0","Sun Oct 22 09:55:55 2023","The main experiment item","False","SternbergTask.osexp","/Users/xaleyelyse/Desktop","False","mono","False","18","no","white","no","yes","768","legacy","48","11","/Users/xaleyelyse/Downloads/XWsubject_4.csv","legacy","9 8 2 7 4","Melodramatic Milgram","4.0.5","0","n","0","right","left","left","right","NA","565.0","9211","1298","565","NA","2","legacy","5","1024","2","48000","-16","experiment","4","even","5","364213","360968","362005","2666","83824","362008","331921","2731","82525","363010","366216","366782","11973","366216","NA","Sternberg Task","52","33916.0","61","1024"
"83","83","564","564","#3d3846","experiment","legacy","legacy","legacy","0","undefined","0","right","61","61","61","0","0","61","61","0","0","61","61","61","0","61","0","Sun Oct 22 09:55:55 2023","The main experiment item","False","SternbergTask.osexp","/Users/xaleyelyse/Desktop","False","mono","False","18","no","white","no","yes","768","legacy","49","11","/Users/xaleyelyse/Downloads/XWsubject_4.csv","legacy","1 7 8 3 9","Melodramatic Milgram","4.0.5","0","n","0","left","left","left","left","NA","1069.0","9211","1298","1069","NA","2","legacy","5","1024","2","48000","-16","experiment","4","even","2","370031","366785","367821","2666","83824","367825","331921","2731","82525","368827","372033","373103","11973","372033","NA","Sternberg Task","52","34985.0","62","1024"
"84","84","562","562","#3d3846","experiment","legacy","legacy","legacy","1","undefined","1","left","62","62","62","0","0","62","62","0","0","62","62","62","0","62","0","Sun Oct 22 09:55:55 2023","The main experiment item","False","SternbergTask.osexp","/Users/xaleyelyse/Desktop","False","mono","False","18","no","white","no","yes","768","legacy","50","11","/Users/xaleyelyse/Downloads/XWsubject_4.csv","legacy","2 4 8 5 1 3","Melodramatic Milgram","4.0.5","1","y","0","left","left","left","left","NA","450.0","9211","1298","450","NA","2","legacy","6","1024","2","48000","-16","experiment","4","even","2","376350","366785","374143","2666","83824","374145","373105","2731","82525","375147","378352","378803","11973","378352","NA","Sternberg Task","53","35435.0","63","1024"
"84","84","562","562","#3d3846","experiment","legacy","legacy","legacy","1","undefined","1","left","63","63","63","0","0","63","63","0","0","63","63","63","0","63","0","Sun Oct 22 09:55:55 2023","The main experiment item","False","SternbergTask.osexp","/Users/xaleyelyse/Desktop","False","mono","False","18","no","white","no","yes","768","legacy","51","11","/Users/xaleyelyse/Downloads/XWsubject_4.csv","legacy","6 2","Melodramatic Milgram","4.0.5","1","y","0","left","left","left","left","NA","562.0","9211","1298","562","NA","2","legacy","2","1024","2","48000","-16","experiment","4","even","6","382058","378806","379851","2666","83824","379853","373105","2731","82525","380855","384060","384623","11973","384060","NA","Sternberg Task","54","35997.0","64","1024"
"84","84","561","561","#3d3846","experiment","legacy","legacy","legacy","1","undefined","1","right","64","64","64","0","0","64","64","0","0","64","64","64","0","64","0","Sun Oct 22 09:55:55 2023","The main experiment item","False","SternbergTask.osexp","/Users/xaleyelyse/Desktop","False","mono","False","18","no","white","no","yes","768","legacy","52","11","/Users/xaleyelyse/Downloads/XWsubject_4.csv","legacy","2 7 5","Melodramatic Milgram","4.0.5","0","n","0","right","left","left","right","NA","511.0","9211","1298","511","NA","2","legacy","3","1024","2","48000","-16","experiment","4","even","8","387864","384626","385654","2666","83824","385656","373105","2731","82525","386660","389866","390378","11973","389866","NA","Sternberg Task","55","36508.0","65","1024"
"83","83","563","563","#3d3846","experiment","legacy","legacy","legacy","0","undefined","0","right","65","65","65","0","0","65","65","0","0","65","65","65","0","65","0","Sun Oct 22 09:55:55 2023","The main experiment item","False","SternbergTask.osexp","/Users/xaleyelyse/Desktop","False","mono","False","18","no","white","no","yes","768","legacy","53","11","/Users/xaleyelyse/Downloads/XWsubject_4.csv","legacy","7 1 8 4 9 3","Melodramatic Milgram","4.0.5","0","n","0","left","left","left","left","NA","679.0","9211","1298","679","NA","2","legacy","6","1024","2","48000","-16","experiment","4","even","6","393620","390381","391414","2666","83824","391416","373105","2731","82525","392418","395622","396302","11973","395622","NA","Sternberg Task","55","37187.0","66","1024"
"83","83","563","563","#3d3846","experiment","legacy","legacy","legacy","1","undefined","1","left","66","66","66","0","0","66","66","0","0","66","66","66","0","66","0","Sun Oct 22 09:55:55 2023","The main experiment item","False","SternbergTask.osexp","/Users/xaleyelyse/Desktop","False","mono","False","18","no","white","no","yes","768","legacy","54","11","/Users/xaleyelyse/Downloads/XWsubject_4.csv","legacy","8 1 6","Melodramatic Milgram","4.0.5","3","y","0","left","left","left","left","NA","573.0","9211","1298","573","NA","2","legacy","3","1024","2","48000","-16","experiment","4","even","6","399549","390381","397341","2666","83824","397343","396304","2731","82525","398345","401552","402126","11973","401552","NA","Sternberg Task","56","37760.0","67","1024"
"83","83","566","566","#3d3846","experiment","legacy","legacy","legacy","1","undefined","1","left","67","67","67","0","0","67","67","0","0","67","67","67","0","67","0","Sun Oct 22 09:55:55 2023","The main experiment item","False","SternbergTask.osexp","/Users/xaleyelyse/Desktop","False","mono","False","18","no","white","no","yes","768","legacy","55","11","/Users/xaleyelyse/Downloads/XWsubject_4.csv","legacy","5 2 9 6 1 7","Melodramatic Milgram","4.0.5","3","y","0","left","left","left","left","NA","770.0","9211","1298","770","NA","2","legacy","6","1024","2","48000","-16","experiment","4","even","9","405372","402129","403166","2666","83824","403168","396304","2731","82525","404170","407375","408146","11973","407375","NA","Sternberg Task","57","38530.0","68","1024"
"82","82","567","567","#3d3846","experiment","legacy","legacy","legacy","0","undefined","0","right","68","68","68","0","0","68","68","0","0","68","68","68","0","68","0","Sun Oct 22 09:55:55 2023","The main experiment item","False","SternbergTask.osexp","/Users/xaleyelyse/Desktop","False","mono","False","18","no","white","no","yes","768","legacy","56","11","/Users/xaleyelyse/Downloads/XWsubject_4.csv","legacy","5 7 3","Melodramatic Milgram","4.0.5","0","n","0","left","left","left","left","NA","638.0","9211","1298","638","NA","2","legacy","3","1024","2","48000","-16","experiment","4","even","9","411392","408149","409184","2666","83824","409186","396304","2731","82525","410189","413394","414033","11973","413394","NA","Sternberg Task","57","39168.0","69","1024"
"82","82","567","567","#3d3846","experiment","legacy","legacy","legacy","1","undefined","1","left","69","69","69","0","0","69","69","0","0","69","69","69","0","69","0","Sun Oct 22 09:55:55 2023","The main experiment item","False","SternbergTask.osexp","/Users/xaleyelyse/Desktop","False","mono","False","18","no","white","no","yes","768","legacy","57","11","/Users/xaleyelyse/Downloads/XWsubject_4.csv","legacy","9 1 7 2","Melodramatic Milgram","4.0.5","2","y","0","left","left","left","left","NA","526.0","9211","1298","526","NA","2","legacy","4","1024","2","48000","-16","experiment","4","even","1","417287","408149","415079","2666","83824","415082","414036","2731","82525","416084","419289","419815","11973","419289","NA","Sternberg Task","58","39694.0","70","1024"
"81","81","566","566","#3d3846","experiment","legacy","legacy","legacy","0","undefined","0","right","70","70","70","0","0","70","70","0","0","70","70","70","0","70","0","Sun Oct 22 09:55:55 2023","The main experiment item","False","SternbergTask.osexp","/Users/xaleyelyse/Desktop","False","mono","False","18","no","white","no","yes","768","legacy","58","11","/Users/xaleyelyse/Downloads/XWsubject_4.csv","legacy","5 3 8 7 2 4","Melodramatic Milgram","4.0.5","0","n","0","left","left","left","left","NA","521.0","9211","1298","521","NA","2","legacy","6","1024","2","48000","-16","experiment","4","even","9","423053","419818","420847","2666","83824","420849","414036","2731","82525","421851","425058","425580","11973","425057","NA","Sternberg Task","58","40215.0","71","1024"
"81","81","566","566","#3d3846","experiment","legacy","legacy","legacy","1","undefined","1","right","71","71","71","0","0","71","71","0","0","71","71","71","0","71","0","Sun Oct 22 09:55:55 2023","The main experiment item","False","SternbergTask.osexp","/Users/xaleyelyse/Desktop","False","mono","False","18","no","white","no","yes","768","legacy","59","11","/Users/xaleyelyse/Downloads/XWsubject_4.csv","legacy","1 7 5 2 9","Melodramatic Milgram","4.0.5","0","n","0","right","left","left","right","NA","578.0","9211","1298","578","NA","2","legacy","5","1024","2","48000","-16","experiment","4","even","3","428821","419818","426614","2666","83824","426616","425582","2731","82525","427618","430823","431402","11973","430823","NA","Sternberg Task","59","40793.0","72","1024"
"80","80","576","576","#3d3846","experiment","legacy","legacy","legacy","0","undefined","0","right","72","72","72","0","0","72","72","0","0","72","72","72","0","72","0","Sun Oct 22 09:55:55 2023","The main experiment item","False","SternbergTask.osexp","/Users/xaleyelyse/Desktop","False","mono","False","18","no","white","no","yes","768","legacy","60","11","/Users/xaleyelyse/Downloads/XWsubject_4.csv","legacy","9 7 4 5 8","Melodramatic Milgram","4.0.5","0","n","0","left","left","left","left","NA","1281.0","9211","1298","1281","NA","2","legacy","5","1024","2","48000","-16","experiment","4","even","6","434646","431404","432439","2666","83824","432442","425582","2731","82525","433444","436650","437932","11973","436649","NA","Sternberg Task","59","42074.0","73","1024"
"81","81","576","576","#3d3846","experiment","legacy","legacy","legacy","1","undefined","1","right","73","73","73","0","0","73","73","0","0","73","73","73","0","73","0","Sun Oct 22 09:55:55 2023","The main experiment item","False","SternbergTask.osexp","/Users/xaleyelyse/Desktop","False","mono","False","18","no","white","no","yes","768","legacy","61","11","/Users/xaleyelyse/Downloads/XWsubject_4.csv","legacy","3 4 2","Melodramatic Milgram","4.0.5","0","n","0","right","left","left","right","NA","579.0","9211","1298","579","NA","2","legacy","3","1024","2","48000","-16","experiment","4","even","5","441178","431404","438972","2666","83824","438974","437935","2731","82525","439976","443180","443760","11973","443180","NA","Sternberg Task","60","42653.0","74","1024"
"81","81","577","577","#3d3846","experiment","legacy","legacy","legacy","1","undefined","1","left","74","74","74","0","0","74","74","0","0","74","74","74","0","74","0","Sun Oct 22 09:55:55 2023","The main experiment item","False","SternbergTask.osexp","/Users/xaleyelyse/Desktop","False","mono","False","18","no","white","no","yes","768","legacy","62","11","/Users/xaleyelyse/Downloads/XWsubject_4.csv","legacy","1 4 9 3 2 5","Melodramatic Milgram","4.0.5","3","y","0","left","left","left","left","NA","667.0","9211","1298","667","NA","2","legacy","6","1024","2","48000","-16","experiment","4","even","9","447010","443767","444803","2666","83824","444805","437935","2731","82525","445807","449012","449680","11973","449012","NA","Sternberg Task","61","43320.0","75","1024"
"81","81","579","579","#3d3846","experiment","legacy","legacy","legacy","1","undefined","1","right","75","75","75","0","0","75","75","0","0","75","75","75","0","75","0","Sun Oct 22 09:55:55 2023","The main experiment item","False","SternbergTask.osexp","/Users/xaleyelyse/Desktop","False","mono","False","18","no","white","no","yes","768","legacy","63","11","/Users/xaleyelyse/Downloads/XWsubject_4.csv","legacy","6 8 4","Melodramatic Milgram","4.0.5","0","n","0","right","left","left","right","NA","704.0","9211","1298","704","NA","2","legacy","3","1024","2","48000","-16","experiment","4","even","1","452935","449682","450727","2666","83824","450729","437935","2731","82525","451731","454937","455642","11973","454937","NA","Sternberg Task","62","44024.0","76","1024"
"81","81","579","579","#3d3846","experiment","legacy","legacy","legacy","1","undefined","1","right","76","76","76","0","0","76","76","0","0","76","76","76","0","76","0","Sun Oct 22 09:55:55 2023","The main experiment item","False","SternbergTask.osexp","/Users/xaleyelyse/Desktop","False","mono","False","18","no","white","no","yes","768","legacy","64","11","/Users/xaleyelyse/Downloads/XWsubject_4.csv","legacy","4 2 6 9","Melodramatic Milgram","4.0.5","0","n","0","right","left","left","right","NA","600.0","9211","1298","600","NA","2","legacy","4","1024","2","48000","-16","experiment","4","even","7","458878","455645","456672","2666","83824","456674","437935","2731","82525","457676","460881","461482","11973","460881","NA","Sternberg Task","63","44624.0","77","1024"
"82","82","582","582","#3d3846","experiment","legacy","legacy","legacy","1","undefined","1","left","77","77","77","0","0","77","77","0","0","77","77","77","0","77","0","Sun Oct 22 09:55:55 2023","The main experiment item","False","SternbergTask.osexp","/Users/xaleyelyse/Desktop","False","mono","False","18","no","white","no","yes","768","legacy","65","11","/Users/xaleyelyse/Downloads/XWsubject_4.csv","legacy","3 5 4 7","Melodramatic Milgram","4.0.5","1","y","0","left","left","left","left","NA","809.0","9211","1298","809","NA","2","legacy","4","1024","2","48000","-16","experiment","4","even","3","464724","461484","462517","2666","83824","462519","437935","2731","82525","463521","466726","467536","11973","466726","NA","Sternberg Task","64","45433.0","78","1024"
"82","82","582","582","#3d3846","experiment","legacy","legacy","legacy","1","undefined","1","right","78","78","78","0","0","78","78","0","0","78","78","78","0","78","0","Sun Oct 22 09:55:55 2023","The main experiment item","False","SternbergTask.osexp","/Users/xaleyelyse/Desktop","False","mono","False","18","no","white","no","yes","768","legacy","66","11","/Users/xaleyelyse/Downloads/XWsubject_4.csv","legacy","3 9 8 1 6 4","Melodramatic Milgram","4.0.5","0","n","0","right","left","left","right","NA","556.0","9211","1298","556","NA","2","legacy","6","1024","2","48000","-16","experiment","4","even","7","470782","467539","468575","2666","83824","468577","437935","2731","82525","469579","472784","473341","11973","472784","NA","Sternberg Task","65","45989.0","79","1024"
"82","82","586","586","#3d3846","experiment","legacy","legacy","legacy","1","undefined","1","left","79","79","79","0","0","79","79","0","0","79","79","79","0","79","0","Sun Oct 22 09:55:55 2023","The main experiment item","False","SternbergTask.osexp","/Users/xaleyelyse/Desktop","False","mono","False","18","no","white","no","yes","768","legacy","67","11","/Users/xaleyelyse/Downloads/XWsubject_4.csv","legacy","3 9 7 6 4","Melodramatic Milgram","4.0.5","3","y","0","left","left","left","left","NA","965.0","9211","1298","965","NA","2","legacy","5","1024","2","48000","-16","experiment","4","even","7","476586","473343","474380","2666","83824","474382","437935","2731","82525","475384","478588","479554","11973","478588","NA","Sternberg Task","66","46954.0","80","1024"
"82","82","586","586","#3d3846","experiment","legacy","legacy","legacy","1","undefined","1","right","80","80","80","0","0","80","80","0","0","80","80","80","0","80","0","Sun Oct 22 09:55:55 2023","The main experiment item","False","SternbergTask.osexp","/Users/xaleyelyse/Desktop","False","mono","False","18","no","white","no","yes","768","legacy","68","11","/Users/xaleyelyse/Downloads/XWsubject_4.csv","legacy","2 8 9","Melodramatic Milgram","4.0.5","0","n","0","right","left","left","right","NA","513.0","9211","1298","513","NA","2","legacy","3","1024","2","48000","-16","experiment","4","even","6","482801","479557","480593","2666","83824","480595","437935","2731","82525","481598","484804","485318","11973","484803","NA","Sternberg Task","67","47467.0","81","1024"
"82","82","585","585","#3d3846","experiment","legacy","legacy","legacy","1","undefined","1","right","81","81","81","0","0","81","81","0","0","81","81","81","0","81","0","Sun Oct 22 09:55:55 2023","The main experiment item","False","SternbergTask.osexp","/Users/xaleyelyse/Desktop","False","mono","False","18","no","white","no","yes","768","legacy","69","11","/Users/xaleyelyse/Downloads/XWsubject_4.csv","legacy","2 8 6 3 1","Melodramatic Milgram","4.0.5","0","n","0","right","left","left","right","NA","532.0","9211","1298","532","NA","2","legacy","5","1024","2","48000","-16","experiment","4","even","7","488570","485321","486363","2666","83824","486365","437935","2731","82525","487367","490572","491105","11973","490572","NA","Sternberg Task","68","47999.0","82","1024"
"83","83","585","585","#3d3846","experiment","legacy","legacy","legacy","1","undefined","1","right","82","82","82","0","0","82","82","0","0","82","82","82","0","82","0","Sun Oct 22 09:55:55 2023","The main experiment item","False","SternbergTask.osexp","/Users/xaleyelyse/Desktop","False","mono","False","18","no","white","no","yes","768","legacy","70","11","/Users/xaleyelyse/Downloads/XWsubject_4.csv","legacy","5 3 2 6 9 8","Melodramatic Milgram","4.0.5","0","n","0","right","left","left","right","NA","599.0","9211","1298","599","NA","2","legacy","6","1024","2","48000","-16","experiment","4","even","4","494344","491107","492137","2666","83824","492139","437935","2731","82525","493141","496346","496946","11973","496346","NA","Sternberg Task","69","48598.0","83","1024"
"82","82","584","584","#3d3846","experiment","legacy","legacy","legacy","0","undefined","0","left","83","83","83","0","0","83","83","0","0","83","83","83","0","83","0","Sun Oct 22 09:55:55 2023","The main experiment item","False","SternbergTask.osexp","/Users/xaleyelyse/Desktop","False","mono","False","18","no","white","no","yes","768","legacy","71","11","/Users/xaleyelyse/Downloads/XWsubject_4.csv","legacy","8 7 3","Melodramatic Milgram","4.0.5","1","y","0","right","left","left","right","NA","494.0","9211","1298","494","NA","2","legacy","3","1024","2","48000","-16","experiment","4","even","8","500187","496949","497981","2666","83824","497983","437935","2731","82525","498985","502190","502685","11973","502190","NA","Sternberg Task","69","49092.0","84","1024"
"82","82","584","584","#3d3846","experiment","legacy","legacy","legacy","1","undefined","1","right","84","84","84","0","0","84","84","0","0","84","84","84","0","84","0","Sun Oct 22 09:55:55 2023","The main experiment item","False","SternbergTask.osexp","/Users/xaleyelyse/Desktop","False","mono","False","18","no","white","no","yes","768","legacy","72","11","/Users/xaleyelyse/Downloads/XWsubject_4.csv","legacy","1 8 7","Melodramatic Milgram","4.0.5","0","n","0","right","left","left","right","NA","576.0","9211","1298","576","NA","2","legacy","3","1024","2","48000","-16","experiment","4","even","4","505930","496949","503724","2666","83824","503726","502688","2731","82525","504728","507932","508509","11973","507932","NA","Sternberg Task","70","49668.0","85","1024"
"82","82","585","585","#3d3846","experiment","legacy","legacy","legacy","1","undefined","1","right","85","85","85","0","0","85","85","0","0","85","85","85","0","85","0","Sun Oct 22 09:55:55 2023","The main experiment item","False","SternbergTask.osexp","/Users/xaleyelyse/Desktop","False","mono","False","18","no","white","no","yes","768","legacy","73","11","/Users/xaleyelyse/Downloads/XWsubject_4.csv","legacy","2 8 9 4 1","Melodramatic Milgram","4.0.5","0","n","0","right","left","left","right","NA","709.0","9211","1298","709","NA","2","legacy","5","1024","2","48000","-16","experiment","4","even","5","511755","508512","509548","2666","83824","509550","502688","2731","82525","510553","513757","514467","11973","513757","NA","Sternberg Task","71","50377.0","86","1024"
"82","82","586","586","#3d3846","experiment","legacy","legacy","legacy","1","undefined","1","left","86","86","86","0","0","86","86","0","0","86","86","86","0","86","0","Sun Oct 22 09:55:55 2023","The main experiment item","False","SternbergTask.osexp","/Users/xaleyelyse/Desktop","False","mono","False","18","no","white","no","yes","768","legacy","74","11","/Users/xaleyelyse/Downloads/XWsubject_4.csv","legacy","9 3 8 2 1 4","Melodramatic Milgram","4.0.5","3","y","0","left","left","left","left","NA","674.0","9211","1298","674","NA","2","legacy","6","1024","2","48000","-16","experiment","4","even","8","517715","514470","515506","2666","83824","515508","502688","2731","82525","516511","519717","520392","11973","519717","NA","Sternberg Task","72","51051.0","87","1024"
"81","81","586","586","#3d3846","experiment","legacy","legacy","legacy","0","undefined","0","right","87","87","87","0","0","87","87","0","0","87","87","87","0","87","0","Sun Oct 22 09:55:55 2023","The main experiment item","False","SternbergTask.osexp","/Users/xaleyelyse/Desktop","False","mono","False","18","no","white","no","yes","768","legacy","75","11","/Users/xaleyelyse/Downloads/XWsubject_4.csv","legacy","6 3 1 7 9 8","Melodramatic Milgram","4.0.5","0","n","0","left","left","left","left","NA","582.0","9211","1298","582","NA","2","legacy","6","1024","2","48000","-16","experiment","4","even","4","523646","520394","521439","2666","83824","521441","502688","2731","82525","522443","525649","526232","11973","525648","NA","Sternberg Task","72","51633.0","88","1024"
"82","82","585","585","#3d3846","experiment","legacy","legacy","legacy","1","undefined","1","left","88","88","88","0","0","88","88","0","0","88","88","88","0","88","0","Sun Oct 22 09:55:55 2023","The main experiment item","False","SternbergTask.osexp","/Users/xaleyelyse/Desktop","False","mono","False","18","no","white","no","yes","768","legacy","76","11","/Users/xaleyelyse/Downloads/XWsubject_4.csv","legacy","8","Melodramatic Milgram","4.0.5","1","y","0","left","left","left","left","NA","475.0","9211","1298","475","NA","2","legacy","1","1024","2","48000","-16","experiment","4","even","8","529469","520394","527263","2666","83824","527265","526235","2731","82525","528267","531472","531948","11973","531472","NA","Sternberg Task","73","52108.0","89","1024"
"82","82","585","585","#3d3846","experiment","legacy","legacy","legacy","1","undefined","1","right","89","89","89","0","0","89","89","0","0","89","89","89","0","89","0","Sun Oct 22 09:55:55 2023","The main experiment item","False","SternbergTask.osexp","/Users/xaleyelyse/Desktop","False","mono","False","18","no","white","no","yes","768","legacy","77","11","/Users/xaleyelyse/Downloads/XWsubject_4.csv","legacy","3 4 9 6 7 8","Melodramatic Milgram","4.0.5","0","n","0","right","left","left","right","NA","606.0","9211","1298","606","NA","2","legacy","6","1024","2","48000","-16","experiment","4","even","2","535190","531951","532984","2666","83824","532986","526235","2731","82525","533988","537192","537799","11973","537192","NA","Sternberg Task","74","52714.0","90","1024"
"82","82","584","584","#3d3846","experiment","legacy","legacy","legacy","1","undefined","1","left","90","90","90","0","0","90","90","0","0","90","90","90","0","90","0","Sun Oct 22 09:55:55 2023","The main experiment item","False","SternbergTask.osexp","/Users/xaleyelyse/Desktop","False","mono","False","18","no","white","no","yes","768","legacy","78","11","/Users/xaleyelyse/Downloads/XWsubject_4.csv","legacy","9 1 6 7 8","Melodramatic Milgram","4.0.5","1","y","0","left","left","left","left","NA","497.0","9211","1298","497","NA","2","legacy","5","1024","2","48000","-16","experiment","4","even","9","541043","537802","538836","2666","83824","538839","526235","2731","82525","539841","543046","543544","11973","543046","NA","Sternberg Task","75","53211.0","91","1024"
"82","82","585","585","#3d3846","experiment","legacy","legacy","legacy","1","undefined","1","left","91","91","91","0","0","91","91","0","0","91","91","91","0","91","0","Sun Oct 22 09:55:55 2023","The main experiment item","False","SternbergTask.osexp","/Users/xaleyelyse/Desktop","False","mono","False","18","no","white","no","yes","768","legacy","79","11","/Users/xaleyelyse/Downloads/XWsubject_4.csv","legacy","3 9 6 2","Melodramatic Milgram","4.0.5","4","y","0","left","left","left","left","NA","664.0","9211","1298","664","NA","2","legacy","4","1024","2","48000","-16","experiment","4","even","2","546790","543546","544583","2666","83824","544585","526235","2731","82525","545587","548792","549457","11973","548792","NA","Sternberg Task","76","53875.0","92","1024"
"82","82","585","585","#3d3846","experiment","legacy","legacy","legacy","1","undefined","1","left","92","92","92","0","0","92","92","0","0","92","92","92","0","92","0","Sun Oct 22 09:55:55 2023","The main experiment item","False","SternbergTask.osexp","/Users/xaleyelyse/Desktop","False","mono","False","18","no","white","no","yes","768","legacy","80","11","/Users/xaleyelyse/Downloads/XWsubject_4.csv","legacy","6 9 7 4 5 1","Melodramatic Milgram","4.0.5","2","y","0","left","left","left","left","NA","611.0","9211","1298","611","NA","2","legacy","6","1024","2","48000","-16","experiment","4","even","9","552703","549459","550496","2666","83824","550498","526235","2731","82525","551500","554706","555318","11973","554705","NA","Sternberg Task","77","54486.0","93","1024"
"81","81","589","589","#3d3846","experiment","legacy","legacy","legacy","0","undefined","0","right","93","93","93","0","0","93","93","0","0","93","93","93","0","93","0","Sun Oct 22 09:55:55 2023","The main experiment item","False","SternbergTask.osexp","/Users/xaleyelyse/Desktop","False","mono","False","18","no","white","no","yes","768","legacy","81","11","/Users/xaleyelyse/Downloads/XWsubject_4.csv","legacy","7 3 2 8","Melodramatic Milgram","4.0.5","0","n","0","left","left","left","left","NA","967.0","9211","1298","967","NA","2","legacy","4","1024","2","48000","-16","experiment","4","even","4","558572","555321","556365","2666","83824","556367","526235","2731","82525","557369","560574","561542","11973","560574","NA","Sternberg Task","77","55453.0","94","1024"
"81","81","594","594","#3d3846","experiment","legacy","legacy","legacy","0","undefined","0","left","94","94","94","0","0","94","94","0","0","94","94","94","0","94","0","Sun Oct 22 09:55:55 2023","The main experiment item","False","SternbergTask.osexp","/Users/xaleyelyse/Desktop","False","mono","False","18","no","white","no","yes","768","legacy","82","11","/Users/xaleyelyse/Downloads/XWsubject_4.csv","legacy","6 9 3 1","Melodramatic Milgram","4.0.5","4","y","0","right","left","left","right","NA","999.0","9211","1298","999","NA","2","legacy","4","1024","2","48000","-16","experiment","4","even","1","564781","555321","562573","2666","83824","562575","561545","2731","82525","563577","566783","567783","11973","566783","NA","Sternberg Task","77","56452.0","95","1024"
"81","81","593","593","#3d3846","experiment","legacy","legacy","legacy","1","undefined","1","left","95","95","95","0","0","95","95","0","0","95","95","95","0","95","0","Sun Oct 22 09:55:55 2023","The main experiment item","False","SternbergTask.osexp","/Users/xaleyelyse/Desktop","False","mono","False","18","no","white","no","yes","768","legacy","83","11","/Users/xaleyelyse/Downloads/XWsubject_4.csv","legacy","3 4","Melodramatic Milgram","4.0.5","1","y","0","left","left","left","left","NA","563.0","9211","1298","563","NA","2","legacy","2","1024","2","48000","-16","experiment","4","even","3","571024","555321","568817","2666","83824","568819","567785","2731","82525","569821","573026","573590","11973","573026","NA","Sternberg Task","78","57015.0","96","1024"
"81","81","603","603","#3d3846","experiment","legacy","legacy","legacy","1","undefined","1","left","96","96","96","0","0","96","96","0","0","96","96","96","0","96","0","Sun Oct 22 09:55:55 2023","The main experiment item","False","SternbergTask.osexp","/Users/xaleyelyse/Desktop","False","mono","False","18","no","white","no","yes","768","legacy","84","11","/Users/xaleyelyse/Downloads/XWsubject_4.csv","legacy","2 4 6 9","Melodramatic Milgram","4.0.5","3","y","0","left","left","left","left","NA","1491.0","9211","1298","1491","NA","2","legacy","4","1024","2","48000","-16","experiment","4","even","6","576836","573592","574629","2666","83824","574632","567785","2731","82525","575634","578839","580331","11973","578839","NA","Sternberg Task","79","58506.0","97","1024"
"81","81","604","604","#3d3846","experiment","legacy","legacy","legacy","1","undefined","1","left","97","97","97","0","0","97","97","0","0","97","97","97","0","97","0","Sun Oct 22 09:55:55 2023","The main experiment item","False","SternbergTask.osexp","/Users/xaleyelyse/Desktop","False","mono","False","18","no","white","no","yes","768","legacy","85","11","/Users/xaleyelyse/Downloads/XWsubject_4.csv","legacy","9 8 4","Melodramatic Milgram","4.0.5","1","y","0","left","left","left","left","NA","748.0","9211","1298","748","NA","2","legacy","3","1024","2","48000","-16","experiment","4","even","9","583576","580333","581368","2666","83824","581370","567785","2731","82525","582373","585578","586328","11973","585578","NA","Sternberg Task","80","59254.0","98","1024"
"81","81","603","603","#3d3846","experiment","legacy","legacy","legacy","1","undefined","1","left","98","98","98","0","0","98","98","0","0","98","98","98","0","98","0","Sun Oct 22 09:55:55 2023","The main experiment item","False","SternbergTask.osexp","/Users/xaleyelyse/Desktop","False","mono","False","18","no","white","no","yes","768","legacy","86","11","/Users/xaleyelyse/Downloads/XWsubject_4.csv","legacy","8 5 1 3 9","Melodramatic Milgram","4.0.5","4","y","0","left","left","left","left","NA","491.0","9211","1298","491","NA","2","legacy","5","1024","2","48000","-16","experiment","4","even","3","589575","586331","587367","2666","83824","587370","567785","2731","82525","588372","591577","592070","11973","591577","NA","Sternberg Task","81","59745.0","99","1024"
"82","82","606","606","#3d3846","experiment","legacy","legacy","legacy","1","undefined","1","right","99","99","99","0","0","99","99","0","0","99","99","99","0","99","0","Sun Oct 22 09:55:55 2023","The main experiment item","False","SternbergTask.osexp","/Users/xaleyelyse/Desktop","False","mono","False","18","no","white","no","yes","768","legacy","87","11","/Users/xaleyelyse/Downloads/XWsubject_4.csv","legacy","2 3 8 5 6 7","Melodramatic Milgram","4.0.5","0","n","0","right","left","left","right","NA","858.0","9211","1298","858","NA","2","legacy","6","1024","2","48000","-16","experiment","4","even","1","595359","592072","593151","2666","83824","593153","567785","2731","82525","594155","597362","598221","11973","597361","NA","Sternberg Task","82","60603.0","100","1024"
"82","82","606","606","#3d3846","experiment","legacy","legacy","legacy","1","undefined","1","left","100","100","100","0","0","100","100","0","0","100","100","100","0","100","0","Sun Oct 22 09:55:55 2023","The main experiment item","False","SternbergTask.osexp","/Users/xaleyelyse/Desktop","False","mono","False","18","no","white","no","yes","768","legacy","88","11","/Users/xaleyelyse/Downloads/XWsubject_4.csv","legacy","7 2 3","Melodramatic Milgram","4.0.5","3","y","0","left","left","left","left","NA","609.0","9211","1298","609","NA","2","legacy","3","1024","2","48000","-16","experiment","4","even","3","601455","598223","599249","2666","83824","599251","567785","2731","82525","600253","603457","604067","11973","603457","NA","Sternberg Task","83","61212.0","101","1024"
"82","82","604","604","#3d3846","experiment","legacy","legacy","legacy","1","undefined","1","left","101","101","101","0","0","101","101","0","0","101","101","101","0","101","0","Sun Oct 22 09:55:55 2023","The main experiment item","False","SternbergTask.osexp","/Users/xaleyelyse/Desktop","False","mono","False","18","no","white","no","yes","768","legacy","89","11","/Users/xaleyelyse/Downloads/XWsubject_4.csv","legacy","8 9 5 7 1 6","Melodramatic Milgram","4.0.5","4","y","0","left","left","left","left","NA","471.0","9211","1298","471","NA","2","legacy","6","1024","2","48000","-16","experiment","4","even","7","607309","604070","605102","2666","83824","605104","567785","2731","82525","606106","609311","609783","11973","609311","NA","Sternberg Task","84","61683.0","102","1024"
"82","82","605","605","#3d3846","experiment","legacy","legacy","legacy","1","undefined","1","right","102","102","102","0","0","102","102","0","0","102","102","102","0","102","0","Sun Oct 22 09:55:55 2023","The main experiment item","False","SternbergTask.osexp","/Users/xaleyelyse/Desktop","False","mono","False","18","no","white","no","yes","768","legacy","90","11","/Users/xaleyelyse/Downloads/XWsubject_4.csv","legacy","6 9 7 3 8 2","Melodramatic Milgram","4.0.5","0","n","0","right","left","left","right","NA","703.0","9211","1298","703","NA","2","legacy","6","1024","2","48000","-16","experiment","4","even","5","613030","609786","610822","2666","83824","610825","567785","2731","82525","611827","615033","615737","11973","615032","NA","Sternberg Task","85","62386.0","103","1024"
"82","82","605","605","#3d3846","experiment","legacy","legacy","legacy","1","undefined","1","left","103","103","103","0","0","103","103","0","0","103","103","103","0","103","0","Sun Oct 22 09:55:55 2023","The main experiment item","False","SternbergTask.osexp","/Users/xaleyelyse/Desktop","False","mono","False","18","no","white","no","yes","768","legacy","91","11","/Users/xaleyelyse/Downloads/XWsubject_4.csv","legacy","8 9 6 1","Melodramatic Milgram","4.0.5","2","y","0","left","left","left","left","NA","553.0","9211","1298","553","NA","2","legacy","4","1024","2","48000","-16","experiment","4","even","9","618983","615740","616776","2666","83824","616778","567785","2731","82525","617780","620985","621539","11973","620985","NA","Sternberg Task","86","62939.0","104","1024"
"82","82","604","604","#3d3846","experiment","legacy","legacy","legacy","1","undefined","1","right","104","104","104","0","0","104","104","0","0","104","104","104","0","104","0","Sun Oct 22 09:55:55 2023","The main experiment item","False","SternbergTask.osexp","/Users/xaleyelyse/Desktop","False","mono","False","18","no","white","no","yes","768","legacy","92","11","/Users/xaleyelyse/Downloads/XWsubject_4.csv","legacy","7 9","Melodramatic Milgram","4.0.5","0","n","0","right","left","left","right","NA","546.0","9211","1298","546","NA","2","legacy","2","1024","2","48000","-16","experiment","4","even","1","624785","621542","622578","2666","83824","622580","567785","2731","82525","623582","626787","627334","11973","626787","NA","Sternberg Task","87","63485.0","105","1024"
"83","83","605","605","#3d3846","experiment","legacy","legacy","legacy","1","undefined","1","left","105","105","105","0","0","105","105","0","0","105","105","105","0","105","0","Sun Oct 22 09:55:55 2023","The main experiment item","False","SternbergTask.osexp","/Users/xaleyelyse/Desktop","False","mono","False","18","no","white","no","yes","768","legacy","93","11","/Users/xaleyelyse/Downloads/XWsubject_4.csv","legacy","5 2 6","Melodramatic Milgram","4.0.5","2","y","0","left","left","left","left","NA","650.0","9211","1298","650","NA","2","legacy","3","1024","2","48000","-16","experiment","4","even","2","630584","627336","628376","2666","83824","628378","567785","2731","82525","629381","632586","633237","11973","632586","NA","Sternberg Task","88","64135.0","106","1024"
"83","83","607","607","#3d3846","experiment","legacy","legacy","legacy","1","undefined","1","right","106","106","106","0","0","106","106","0","0","106","106","106","0","106","0","Sun Oct 22 09:55:55 2023","The main experiment item","False","SternbergTask.osexp","/Users/xaleyelyse/Desktop","False","mono","False","18","no","white","no","yes","768","legacy","94","11","/Users/xaleyelyse/Downloads/XWsubject_4.csv","legacy","6 9 5","Melodramatic Milgram","4.0.5","0","n","0","right","left","left","right","NA","817.0","9211","1298","817","NA","2","legacy","3","1024","2","48000","-16","experiment","4","even","8","636474","633239","634267","2666","83824","634269","567785","2731","82525","635271","638477","639296","11973","638477","NA","Sternberg Task","89","64952.0","107","1024"
"83","83","607","607","#3d3846","experiment","legacy","legacy","legacy","1","undefined","1","left","107","107","107","0","0","107","107","0","0","107","107","107","0","107","0","Sun Oct 22 09:55:55 2023","The main experiment item","False","SternbergTask.osexp","/Users/xaleyelyse/Desktop","False","mono","False","18","no","white","no","yes","768","legacy","95","11","/Users/xaleyelyse/Downloads/XWsubject_4.csv","legacy","6 5","Melodramatic Milgram","4.0.5","2","y","0","left","left","left","left","NA","652.0","9211","1298","652","NA","2","legacy","2","1024","2","48000","-16","experiment","4","even","5","642536","639298","640330","2666","83824","640332","567785","2731","82525","641334","644539","645192","11973","644539","NA","Sternberg Task","90","65604.0","108","1024"
"82","82","606","606","#3d3846","experiment","legacy","legacy","legacy","0","undefined","0","right","108","108","108","0","0","108","108","0","0","108","108","108","0","108","0","Sun Oct 22 09:55:55 2023","The main experiment item","False","SternbergTask.osexp","/Users/xaleyelyse/Desktop","False","mono","False","18","no","white","no","yes","768","legacy","96","11","/Users/xaleyelyse/Downloads/XWsubject_4.csv","legacy","8 9","Melodramatic Milgram","4.0.5","0","n","0","left","left","left","left","NA","517.0","9211","1298","517","NA","2","legacy","2","1024","2","48000","-16","experiment","4","even","5","648439","645195","646230","2666","83824","646233","567785","2731","82525","647235","650441","650959","11973","650441","NA","Sternberg Task","90","66121.0","109","1024"
"81","81","606","606","#3d3846","experiment","legacy","legacy","legacy","0","undefined","0","left","109","109","109","0","0","109","109","0","0","109","109","109","0","109","0","Sun Oct 22 09:55:55 2023","The main experiment item","False","SternbergTask.osexp","/Users/xaleyelyse/Desktop","False","mono","False","18","no","white","no","yes","768","legacy","97","11","/Users/xaleyelyse/Downloads/XWsubject_4.csv","legacy","8 9 5 6 7","Melodramatic Milgram","4.0.5","1","y","0","right","left","left","right","NA","646.0","9211","1298","646","NA","2","legacy","5","1024","2","48000","-16","experiment","4","even","8","654203","645195","651996","2666","83824","651998","650961","2731","82525","653000","656206","656853","11973","656205","NA","Sternberg Task","90","66767.0","110","1024"
"81","81","606","606","#3d3846","experiment","legacy","legacy","legacy","1","undefined","1","right","110","110","110","0","0","110","110","0","0","110","110","110","0","110","0","Sun Oct 22 09:55:55 2023","The main experiment item","False","SternbergTask.osexp","/Users/xaleyelyse/Desktop","False","mono","False","18","no","white","no","yes","768","legacy","98","11","/Users/xaleyelyse/Downloads/XWsubject_4.csv","legacy","4 1","Melodramatic Milgram","4.0.5","0","n","0","right","left","left","right","NA","546.0","9211","1298","546","NA","2","legacy","2","1024","2","48000","-16","experiment","4","even","6","660100","645195","657892","2666","83824","657894","656855","2731","82525","658897","662102","662650","11973","662102","NA","Sternberg Task","91","67313.0","111","1024"
"82","82","606","606","#3d3846","experiment","legacy","legacy","legacy","1","undefined","1","left","111","111","111","0","0","111","111","0","0","111","111","111","0","111","0","Sun Oct 22 09:55:55 2023","The main experiment item","False","SternbergTask.osexp","/Users/xaleyelyse/Desktop","False","mono","False","18","no","white","no","yes","768","legacy","99","11","/Users/xaleyelyse/Downloads/XWsubject_4.csv","legacy","2 3","Melodramatic Milgram","4.0.5","1","y","0","left","left","left","left","NA","563.0","9211","1298","563","NA","2","legacy","2","1024","2","48000","-16","experiment","4","even","2","665904","662652","663696","2666","83824","663698","656855","2731","82525","664700","667906","668470","11973","667906","NA","Sternberg Task","92","67876.0","112","1024"
"82","82","606","606","#3d3846","experiment","legacy","legacy","legacy","1","undefined","1","right","112","112","112","0","0","112","112","0","0","112","112","112","0","112","0","Sun Oct 22 09:55:55 2023","The main experiment item","False","SternbergTask.osexp","/Users/xaleyelyse/Desktop","False","mono","False","18","no","white","no","yes","768","legacy","100","11","/Users/xaleyelyse/Downloads/XWsubject_4.csv","legacy","2 8 7 9 5 3","Melodramatic Milgram","4.0.5","0","n","0","right","left","left","right","NA","624.0","9211","1298","624","NA","2","legacy","6","1024","2","48000","-16","experiment","4","even","6","671709","668473","669503","2666","83824","669505","656855","2731","82525","670507","673712","674337","11973","673712","NA","Sternberg Task","93","68500.0","113","1024"
"82","82","604","604","#3d3846","experiment","legacy","legacy","legacy","1","undefined","1","left","113","113","113","0","0","113","113","0","0","113","113","113","0","113","0","Sun Oct 22 09:55:55 2023","The main experiment item","False","SternbergTask.osexp","/Users/xaleyelyse/Desktop","False","mono","False","18","no","white","no","yes","768","legacy","101","11","/Users/xaleyelyse/Downloads/XWsubject_4.csv","legacy","4 1 8 7 5","Melodramatic Milgram","4.0.5","3","y","0","left","left","left","left","NA","438.0","9211","1298","438","NA","2","legacy","5","1024","2","48000","-16","experiment","4","even","8","677578","674340","675372","2666","83824","675374","656855","2731","82525","676376","679580","680019","11973","679580","NA","Sternberg Task","94","68938.0","114","1024"
"82","82","603","603","#3d3846","experiment","legacy","legacy","legacy","1","undefined","1","left","114","114","114","0","0","114","114","0","0","114","114","114","0","114","0","Sun Oct 22 09:55:55 2023","The main experiment item","False","SternbergTask.osexp","/Users/xaleyelyse/Desktop","False","mono","False","18","no","white","no","yes","768","legacy","102","11","/Users/xaleyelyse/Downloads/XWsubject_4.csv","legacy","3 5 9 6 2 4","Melodramatic Milgram","4.0.5","1","y","0","left","left","left","left","NA","486.0","9211","1298","486","NA","2","legacy","6","1024","2","48000","-16","experiment","4","even","3","683265","680023","681059","2666","83824","681061","656855","2731","82525","682063","685267","685754","11973","685267","NA","Sternberg Task","95","69424.0","115","1024"
"81","81","603","603","#3d3846","experiment","legacy","legacy","legacy","0","undefined","0","left","115","115","115","0","0","115","115","0","0","115","115","115","0","115","0","Sun Oct 22 09:55:55 2023","The main experiment item","False","SternbergTask.osexp","/Users/xaleyelyse/Desktop","False","mono","False","18","no","white","no","yes","768","legacy","103","11","/Users/xaleyelyse/Downloads/XWsubject_4.csv","legacy","6 7 9 3 1 2","Melodramatic Milgram","4.0.5","1","y","0","right","left","left","right","NA","604.0","9211","1298","604","NA","2","legacy","6","1024","2","48000","-16","experiment","4","even","6","688999","685756","686792","2666","83824","686794","656855","2731","82525","687796","691001","691606","11973","691001","NA","Sternberg Task","95","70028.0","116","1024"
"81","81","602","602","#3d3846","experiment","legacy","legacy","legacy","0","undefined","0","right","116","116","116","0","0","116","116","0","0","116","116","116","0","116","0","Sun Oct 22 09:55:55 2023","The main experiment item","False","SternbergTask.osexp","/Users/xaleyelyse/Desktop","False","mono","False","18","no","white","no","yes","768","legacy","104","11","/Users/xaleyelyse/Downloads/XWsubject_4.csv","legacy","8 5 4 2 9 6","Melodramatic Milgram","4.0.5","0","n","0","left","left","left","left","NA","474.0","9211","1298","474","NA","2","legacy","6","1024","2","48000","-16","experiment","4","even","3","694853","685756","692646","2666","83824","692648","691610","2731","82525","693650","696856","697331","11973","696855","NA","Sternberg Task","95","70502.0","117","1024"
"81","81","602","602","#3d3846","experiment","legacy","legacy","legacy","1","undefined","1","right","117","117","117","0","0","117","117","0","0","117","117","117","0","117","0","Sun Oct 22 09:55:55 2023","The main experiment item","False","SternbergTask.osexp","/Users/xaleyelyse/Desktop","False","mono","False","18","no","white","no","yes","768","legacy","105","11","/Users/xaleyelyse/Downloads/XWsubject_4.csv","legacy","8 4 3 5","Melodramatic Milgram","4.0.5","0","n","0","right","left","left","right","NA","650.0","9211","1298","650","NA","2","legacy","4","1024","2","48000","-16","experiment","4","even","6","700584","685756","698377","2666","83824","698379","697334","2731","82525","699381","702586","703237","11973","702586","NA","Sternberg Task","96","71152.0","118","1024"
"81","81","603","603","#3d3846","experiment","legacy","legacy","legacy","1","undefined","1","right","118","118","118","0","0","118","118","0","0","118","118","118","0","118","0","Sun Oct 22 09:55:55 2023","The main experiment item","False","SternbergTask.osexp","/Users/xaleyelyse/Desktop","False","mono","False","18","no","white","no","yes","768","legacy","106","11","/Users/xaleyelyse/Downloads/XWsubject_4.csv","legacy","7 9 1 6","Melodramatic Milgram","4.0.5","0","n","0","right","left","left","right","NA","690.0","9211","1298","690","NA","2","legacy","4","1024","2","48000","-16","experiment","4","even","4","706473","703239","704267","2666","83824","704269","697334","2731","82525","705271","708475","709166","11973","708475","NA","Sternberg Task","97","71842.0","119","1024"
"81","81","603","603","#3d3846","experiment","legacy","legacy","legacy","1","undefined","1","left","119","119","119","0","0","119","119","0","0","119","119","119","0","119","0","Sun Oct 22 09:55:55 2023","The main experiment item","False","SternbergTask.osexp","/Users/xaleyelyse/Desktop","False","mono","False","18","no","white","no","yes","768","legacy","107","11","/Users/xaleyelyse/Downloads/XWsubject_4.csv","legacy","2 8 5 1","Melodramatic Milgram","4.0.5","4","y","0","left","left","left","left","NA","629.0","9211","1298","629","NA","2","legacy","4","1024","2","48000","-16","experiment","4","even","1","712404","709169","710197","2666","83824","710199","697334","2731","82525","711201","714406","715036","11973","714406","NA","Sternberg Task","98","72471.0","120","1024"
"81","81","602","602","#3d3846","experiment","legacy","legacy","legacy","1","undefined","1","left","120","120","120","0","0","120","120","0","0","120","120","120","0","120","0","Sun Oct 22 09:55:55 2023","The main experiment item","False","SternbergTask.osexp","/Users/xaleyelyse/Desktop","False","mono","False","18","no","white","no","yes","768","legacy","108","11","/Users/xaleyelyse/Downloads/XWsubject_4.csv","legacy","7 6","Melodramatic Milgram","4.0.5","2","y","0","left","left","left","left","NA","432.0","9211","1298","432","NA","2","legacy","2","1024","2","48000","-16","experiment","4","even","6","718280","715038","716074","2666","83824","716076","697334","2731","82525","717078","720283","720716","11973","720283","NA","Sternberg Task","99","72903.0","121","1024"
"81","81","601","601","#3d3846","experiment","legacy","legacy","legacy","1","undefined","1","left","121","121","121","0","0","121","121","0","0","121","121","121","0","121","0","Sun Oct 22 09:55:55 2023","The main experiment item","False","SternbergTask.osexp","/Users/xaleyelyse/Desktop","False","mono","False","18","no","white","no","yes","768","legacy","109","11","/Users/xaleyelyse/Downloads/XWsubject_4.csv","legacy","6 8 9 3 4 9","Melodramatic Milgram","4.0.5","5","y","0","left","left","left","left","NA","505.0","9211","1298","505","NA","2","legacy","6","1024","2","48000","-16","experiment","4","even","4","723962","720719","721756","2666","83824","721758","697334","2731","82525","722760","725963","726470","11973","725963","NA","Sternberg Task","100","73408.0","122","1024"
"81","81","603","603","#3d3846","experiment","legacy","legacy","legacy","0","undefined","0","left","122","122","122","0","0","122","122","0","0","122","122","122","0","122","0","Sun Oct 22 09:55:55 2023","The main experiment item","False","SternbergTask.osexp","/Users/xaleyelyse/Desktop","False","mono","False","18","no","white","no","yes","768","legacy","110","11","/Users/xaleyelyse/Downloads/XWsubject_4.csv","legacy","9 5 3 8 4","Melodramatic Milgram","4.0.5","1","y","0","right","left","left","right","NA","789.0","9211","1298","789","NA","2","legacy","5","1024","2","48000","-16","experiment","4","even","9","729716","726473","727510","2666","83824","727512","697334","2731","82525","728514","731718","732508","11973","731718","NA","Sternberg Task","100","74197.0","123","1024"
"81","81","602","602","#3d3846","experiment","legacy","legacy","legacy","1","undefined","1","right","123","123","123","0","0","123","123","0","0","123","123","123","0","123","0","Sun Oct 22 09:55:55 2023","The main experiment item","False","SternbergTask.osexp","/Users/xaleyelyse/Desktop","False","mono","False","18","no","white","no","yes","768","legacy","111","11","/Users/xaleyelyse/Downloads/XWsubject_4.csv","legacy","6 9 4 5 2","Melodramatic Milgram","4.0.5","0","n","0","right","left","left","right","NA","560.0","9211","1298","560","NA","2","legacy","5","1024","2","48000","-16","experiment","4","even","1","735761","726473","733555","2666","83824","733557","732511","2731","82525","734559","737763","738324","11973","737763","NA","Sternberg Task","101","74757.0","124","1024"
"81","81","602","602","#3d3846","experiment","legacy","legacy","legacy","1","undefined","1","right","124","124","124","0","0","124","124","0","0","124","124","124","0","124","0","Sun Oct 22 09:55:55 2023","The main experiment item","False","SternbergTask.osexp","/Users/xaleyelyse/Desktop","False","mono","False","18","no","white","no","yes","768","legacy","112","11","/Users/xaleyelyse/Downloads/XWsubject_4.csv","legacy","1 7 5 2","Melodramatic Milgram","4.0.5","0","n","0","right","left","left","right","NA","598.0","9211","1298","598","NA","2","legacy","4","1024","2","48000","-16","experiment","4","even","3","741562","738327","739355","2666","83824","739357","732511","2731","82525","740359","743564","744163","11973","743564","NA","Sternberg Task","102","75355.0","125","1024"
"81","81","602","602","#3d3846","experiment","legacy","legacy","legacy","1","undefined","1","left","125","125","125","0","0","125","125","0","0","125","125","125","0","125","0","Sun Oct 22 09:55:55 2023","The main experiment item","False","SternbergTask.osexp","/Users/xaleyelyse/Desktop","False","mono","False","18","no","white","no","yes","768","legacy","113","11","/Users/xaleyelyse/Downloads/XWsubject_4.csv","legacy","2 6 1 7 4","Melodramatic Milgram","4.0.5","2","y","0","left","left","left","left","NA","525.0","9211","1298","525","NA","2","legacy","5","1024","2","48000","-16","experiment","4","even","6","747405","744166","745199","2666","83824","745201","732511","2731","82525","746203","749409","749935","11973","749408","NA","Sternberg Task","103","75880.0","126","1024"
"81","81","604","604","#3d3846","experiment","legacy","legacy","legacy","1","undefined","1","right","126","126","126","0","0","126","126","0","0","126","126","126","0","126","0","Sun Oct 22 09:55:55 2023","The main experiment item","False","SternbergTask.osexp","/Users/xaleyelyse/Desktop","False","mono","False","18","no","white","no","yes","768","legacy","114","11","/Users/xaleyelyse/Downloads/XWsubject_4.csv","legacy","1 4 3 6 5","Melodramatic Milgram","4.0.5","0","n","0","right","left","left","right","NA","901.0","9211","1298","901","NA","2","legacy","5","1024","2","48000","-16","experiment","4","even","8","753181","749938","750975","2666","83824","750977","732511","2731","82525","751979","755184","756086","11973","755184","NA","Sternberg Task","104","76781.0","127","1024"
