"acc","accuracy","average_response_time","avg_rt","background","block","canvas_backend","clock_backend","color_backend","compensation","coordinates","correct","correct_instruction1","correct_keyboard_response","correct_response","count_ISI","count_Instructions2","count_correctFeedback","count_expSequence","count_experiment","count_experimentLoop","count_fixation","count_incorrectFeedback","count_instruction1","count_keyboard_response","count_memorySet","count_new_logger","count_practiceLoop","count_probe","count_thankYou","datetime","description","disable_garbage_collection","experiment_file","experiment_path","font_bold","font_family","font_italic","font_size","font_underline","foreground","form_clicks","fullscreen","height","keyboard_backend","live_row","live_row_practiceLoop","logfile","mouse_backend","numberSet","opensesame_codename","opensesame_version","posInSet","present","repeat_cycle","response","response_Instructions2","response_instruction1","response_keyboard_response","response_thankYou","response_time","response_time_Instructions2","response_time_instruction1","response_time_keyboard_response","response_time_thankYou","round_decimals","sampler_backend","setSize","sound_buf_size","sound_channels","sound_freq","sound_sample_size","start","subject_nr","subject_parity","target","time_ISI","time_Instructions2","time_correctFeedback","time_expSequence","time_experiment","time_experimentLoop","time_fixation","time_incorrectFeedback","time_instruction1","time_keyboard_response","time_memorySet","time_new_logger","time_practiceLoop","time_probe","time_thankYou","title","total_correct","total_response_time","total_responses","uniform_coordinates","width"
"0","0","2000","2000","black","practice","legacy","legacy","legacy","0","uniform","0","undefined","0","right","0","0","0","0","0","0","0","0","0","0","0","0","0","0","0","10/17/21 16:31:36","The main experiment item","yes","Sternbergtask.osexp","C:\Users\Matthew\AppData\Local\Temp","no","mono","no","18","no","white","no","yes","768","legacy","0","0","C:/Users/Matthew/Desktop/subject-4.csv","legacy","9 6 7 4 5","Lentiform Loewenfeld","3.3.9","0","n","0","None","NA","left","None","NA","2000","NA","42280","2000","NA","2","legacy","5","1024","2","48000","-16","experiment","4","even","3","51488","NA","NA","49280","5327","NA","49283","NA","5335","53490","50285","55490","47616","53490","NA","Sternberg task","0","2000","1","yes","1024"
"0","0","1695","1695","black","practice","legacy","legacy","legacy","0","uniform","0","undefined","0","left","1","0","1","1","0","0","1","1","0","1","1","1","0","1","0","10/17/21 16:31:36","The main experiment item","yes","Sternbergtask.osexp","C:\Users\Matthew\AppData\Local\Temp","no","mono","no","18","no","white","no","yes","768","legacy","1","1","C:/Users/Matthew/Desktop/subject-4.csv","legacy","1 5 2 9","Lentiform Loewenfeld","3.3.9","2","y","0","right","NA","left","right","NA","1390","NA","42280","1390","NA","2","legacy","4","1024","2","48000","-16","experiment","4","even","5","58953","NA","NA","56745","5327","NA","56749","55587","5335","60955","57751","62346","47616","60955","NA","Sternberg task","0","3390","2","yes","1024"
"0","0","1796.66666667","1796.66666667","black","practice","legacy","legacy","legacy","0","uniform","0","undefined","0","right","2","0","2","2","0","0","2","2","0","2","2","2","0","2","0","10/17/21 16:31:36","The main experiment item","yes","Sternbergtask.osexp","C:\Users\Matthew\AppData\Local\Temp","no","mono","no","18","no","white","no","yes","768","legacy","2","2","C:/Users/Matthew/Desktop/subject-4.csv","legacy","5 7 8 4 1 2","Lentiform Loewenfeld","3.3.9","0","n","0","None","NA","left","None","NA","2000","NA","42280","2000","NA","2","legacy","6","1024","2","48000","-16","experiment","4","even","6","65745","NA","NA","63537","5327","NA","63541","62362","5335","67747","64543","69747","47616","67747","NA","Sternberg task","0","5390","3","yes","1024"
"0","0","1847.5","1847.5","black","practice","legacy","legacy","legacy","0","uniform","0","undefined","0","left","3","0","3","3","0","0","3","3","0","3","3","3","0","3","0","10/17/21 16:31:36","The main experiment item","yes","Sternbergtask.osexp","C:\Users\Matthew\AppData\Local\Temp","no","mono","no","18","no","white","no","yes","768","legacy","3","3","C:/Users/Matthew/Desktop/subject-4.csv","legacy","4 8","Lentiform Loewenfeld","3.3.9","1","y","0","None","NA","left","None","NA","2000","NA","42280","2000","NA","2","legacy","2","1024","2","48000","-16","experiment","4","even","4","73131","NA","NA","70924","5327","NA","70927","69756","5335","75133","71929","77133","47616","75133","NA","Sternberg task","0","7390","4","yes","1024"
"0","0","1822.6","1822.6","black","practice","legacy","legacy","legacy","0","uniform","0","undefined","0","left","4","0","4","4","0","0","4","4","0","4","4","4","0","4","0","10/17/21 16:31:36","The main experiment item","yes","Sternbergtask.osexp","C:\Users\Matthew\AppData\Local\Temp","no","mono","no","18","no","white","no","yes","768","legacy","4","4","C:/Users/Matthew/Desktop/subject-4.csv","legacy","2 9 4","Lentiform Loewenfeld","3.3.9","3","y","0","right","NA","left","right","NA","1723","NA","42280","1723","NA","2","legacy","3","1024","2","48000","-16","experiment","4","even","4","80537","NA","NA","78329","5327","NA","78333","77155","5335","82540","79335","84264","47616","82539","NA","Sternberg task","0","9113","5","yes","1024"
"16.6666666667","16.6666666667","1716.33333333","1716.33333333","black","practice","legacy","legacy","legacy","0","uniform","1","undefined","1","right","5","0","5","5","0","0","5","5","0","5","5","5","0","5","0","10/17/21 16:31:36","The main experiment item","yes","Sternbergtask.osexp","C:\Users\Matthew\AppData\Local\Temp","no","mono","no","18","no","white","no","yes","768","legacy","5","5","C:/Users/Matthew/Desktop/subject-4.csv","legacy","4 1 5","Lentiform Loewenfeld","3.3.9","0","n","0","right","NA","left","right","NA","1185","NA","42280","1185","NA","2","legacy","3","1024","2","48000","-16","experiment","4","even","2","87653","NA","NA","85445","5327","NA","85448","84272","5335","89657","86450","90843","47616","89656","NA","Sternberg task","1","10298","6","yes","1024"
"14.2857142857","14.2857142857","1756.85714286","1756.85714286","black","practice","legacy","legacy","legacy","0","uniform","0","undefined","0","left","6","0","6","6","0","0","6","6","0","6","6","6","0","6","0","10/17/21 16:31:36","The main experiment item","yes","Sternbergtask.osexp","C:\Users\Matthew\AppData\Local\Temp","no","mono","no","18","no","white","no","yes","768","legacy","6","6","C:/Users/Matthew/Desktop/subject-4.csv","legacy","6","Lentiform Loewenfeld","3.3.9","1","y","0","None","NA","left","None","NA","2000","NA","42280","2000","NA","2","legacy","1","1024","2","48000","-16","experiment","4","even","6","94231","NA","90853","92022","5327","NA","92025","84272","5335","96233","93027","98233","47616","96233","NA","Sternberg task","1","12298","7","yes","1024"
"12.5","12.5","1787.25","1787.25","black","practice","legacy","legacy","legacy","0","uniform","0","undefined","0","left","7","0","7","7","0","0","7","7","0","7","7","7","0","7","0","10/17/21 16:31:36","The main experiment item","yes","Sternbergtask.osexp","C:\Users\Matthew\AppData\Local\Temp","no","mono","no","18","no","white","no","yes","768","legacy","7","7","C:/Users/Matthew/Desktop/subject-4.csv","legacy","4 3 1 7 9 8","Lentiform Loewenfeld","3.3.9","1","y","0","None","NA","left","None","NA","2000","NA","42280","2000","NA","2","legacy","6","1024","2","48000","-16","experiment","4","even","4","101637","NA","90853","99429","5327","NA","99433","98241","5335","103640","100435","105640","47616","103639","NA","Sternberg task","1","14298","8","yes","1024"
"11.1111111111","11.1111111111","1714.33333333","1714.33333333","black","practice","legacy","legacy","legacy","0","uniform","0","undefined","0","left","8","0","8","8","0","0","8","8","0","8","8","8","0","8","0","10/17/21 16:31:36","The main experiment item","yes","Sternbergtask.osexp","C:\Users\Matthew\AppData\Local\Temp","no","mono","no","18","no","white","no","yes","768","legacy","8","8","C:/Users/Matthew/Desktop/subject-4.csv","legacy","1 7 9 8 5","Lentiform Loewenfeld","3.3.9","4","y","0","right","NA","left","right","NA","1131","NA","42280","1131","NA","2","legacy","5","1024","2","48000","-16","experiment","4","even","8","109030","NA","90853","106823","5327","NA","106826","105650","5335","111032","107828","112164","47616","111032","NA","Sternberg task","1","15429","9","yes","1024"
"10","10","1685.2","1685.2","black","practice","legacy","legacy","legacy","0","uniform","0","undefined","0","right","9","0","9","9","0","0","9","9","0","9","9","9","0","9","0","10/17/21 16:31:36","The main experiment item","yes","Sternbergtask.osexp","C:\Users\Matthew\AppData\Local\Temp","no","mono","no","18","no","white","no","yes","768","legacy","9","9","C:/Users/Matthew/Desktop/subject-4.csv","legacy","3 1 9 4","Lentiform Loewenfeld","3.3.9","0","n","0","left","NA","left","left","NA","1423","NA","42280","1423","NA","2","legacy","4","1024","2","48000","-16","experiment","4","even","6","115560","NA","90853","113353","5327","NA","113356","112176","5335","117563","114358","118986","47616","117563","NA","Sternberg task","1","16852","10","yes","1024"
"9.09090909091","9.09090909091","1631.81818182","1631.81818182","black","practice","legacy","legacy","legacy","0","uniform","0","undefined","0","right","10","0","10","10","0","0","10","10","0","10","10","10","0","10","0","10/17/21 16:31:36","The main experiment item","yes","Sternbergtask.osexp","C:\Users\Matthew\AppData\Local\Temp","no","mono","no","18","no","white","no","yes","768","legacy","10","10","C:/Users/Matthew/Desktop/subject-4.csv","legacy","5","Lentiform Loewenfeld","3.3.9","0","n","0","left","NA","left","left","NA","1098","NA","42280","1098","NA","2","legacy","1","1024","2","48000","-16","experiment","4","even","3","122372","NA","90853","120165","5327","NA","120168","118996","5335","124374","121170","125473","47616","124374","NA","Sternberg task","1","17950","11","yes","1024"
"16.6666666667","16.6666666667","1605.08333333","1605.08333333","black","practice","legacy","legacy","legacy","0","uniform","1","undefined","1","right","11","0","11","11","0","0","11","11","0","11","11","11","0","11","0","10/17/21 16:31:36","The main experiment item","yes","Sternbergtask.osexp","C:\Users\Matthew\AppData\Local\Temp","no","mono","no","18","no","white","no","yes","768","legacy","11","11","C:/Users/Matthew/Desktop/subject-4.csv","legacy","2 1","Lentiform Loewenfeld","3.3.9","0","n","0","right","NA","left","right","NA","1311","NA","42280","1311","NA","2","legacy","2","1024","2","48000","-16","experiment","4","even","5","128858","NA","90853","126650","5327","NA","126654","125483","5335","130861","127656","132173","47616","130861","NA","Sternberg task","2","19261","12","yes","1024"
"15.3846153846","15.3846153846","1587.23076923","1587.23076923","black","experiment","legacy","legacy","legacy","0","uniform","0","undefined","0","right","12","0","12","12","0","0","12","12","0","12","12","12","0","12","0","10/17/21 16:31:36","The main experiment item","yes","Sternbergtask.osexp","C:\Users\Matthew\AppData\Local\Temp","no","mono","no","18","no","white","no","yes","768","legacy","0","11","C:/Users/Matthew/Desktop/subject-4.csv","legacy","2 8 7 9 5 3","Lentiform Loewenfeld","3.3.9","0","n","0","left","","left","left","NA","1373","18769","42280","1373","NA","2","legacy","6","1024","2","48000","-16","experiment","4","even","6","158869","133224","132189","156662","5327","156091","156665","125483","5335","160871","157667","162245","47616","160871","NA","Sternberg task","2","20634","13","yes","1024"
"21.4285714286","21.4285714286","1576.07142857","1576.07142857","black","experiment","legacy","legacy","legacy","0","uniform","1","undefined","1","right","13","0","13","13","0","0","13","13","0","13","13","13","0","13","0","10/17/21 16:31:36","The main experiment item","yes","Sternbergtask.osexp","C:\Users\Matthew\AppData\Local\Temp","no","mono","no","18","no","white","no","yes","768","legacy","1","11","C:/Users/Matthew/Desktop/subject-4.csv","legacy","5 9 2 3","Lentiform Loewenfeld","3.3.9","0","n","0","right","","left","right","NA","1431","18769","42280","1431","NA","2","legacy","4","1024","2","48000","-16","experiment","4","even","8","165649","133224","132189","163441","5327","156091","163444","162255","5335","167651","164447","169083","47616","167651","NA","Sternberg task","3","22065","14","yes","1024"
"26.6666666667","26.6666666667","1582.73333333","1582.73333333","black","experiment","legacy","legacy","legacy","0","uniform","1","undefined","1","left","14","0","14","14","0","0","14","14","0","14","14","14","0","14","0","10/17/21 16:31:36","The main experiment item","yes","Sternbergtask.osexp","C:\Users\Matthew\AppData\Local\Temp","no","mono","no","18","no","white","no","yes","768","legacy","2","11","C:/Users/Matthew/Desktop/subject-4.csv","legacy","8 9 5 7 1 6","Lentiform Loewenfeld","3.3.9","4","y","0","left","","left","left","NA","1676","18769","42280","1676","NA","2","legacy","6","1024","2","48000","-16","experiment","4","even","7","172477","133224","169099","170268","5327","156091","170272","162255","5335","174481","171274","176158","47616","174480","NA","Sternberg task","4","23741","15","yes","1024"
"31.25","31.25","1599.875","1599.875","black","experiment","legacy","legacy","legacy","0","uniform","1","undefined","1","left","15","0","15","15","0","0","15","15","0","15","15","15","0","15","0","10/17/21 16:31:36","The main experiment item","yes","Sternbergtask.osexp","C:\Users\Matthew\AppData\Local\Temp","no","mono","no","18","no","white","no","yes","768","legacy","3","11","C:/Users/Matthew/Desktop/subject-4.csv","legacy","6 9 3 1","Lentiform Loewenfeld","3.3.9","4","y","0","left","","left","left","NA","1857","18769","42280","1857","NA","2","legacy","4","1024","2","48000","-16","experiment","4","even","1","179553","133224","176169","177343","5327","156091","177347","162255","5335","181556","178350","183414","47616","181555","NA","Sternberg task","5","25598","16","yes","1024"
"29.4117647059","29.4117647059","1623.41176471","1623.41176471","black","experiment","legacy","legacy","legacy","0","uniform","0","undefined","0","left","16","0","16","16","0","0","16","16","0","16","16","16","0","16","0","10/17/21 16:31:36","The main experiment item","yes","Sternbergtask.osexp","C:\Users\Matthew\AppData\Local\Temp","no","mono","no","18","no","white","no","yes","768","legacy","4","11","C:/Users/Matthew/Desktop/subject-4.csv","legacy","1 4 9 3 2 5","Lentiform Loewenfeld","3.3.9","3","y","0","None","","left","None","NA","2000","18769","42280","2000","NA","2","legacy","6","1024","2","48000","-16","experiment","4","even","9","186810","133224","183423","184603","5327","156091","184606","162255","5335","188813","185608","190814","47616","188813","NA","Sternberg task","5","27598","17","yes","1024"
"33.3333333333","33.3333333333","1597.88888889","1597.88888889","black","experiment","legacy","legacy","legacy","0","uniform","1","undefined","1","left","17","0","17","17","0","0","17","17","0","17","17","17","0","17","0","10/17/21 16:31:36","The main experiment item","yes","Sternbergtask.osexp","C:\Users\Matthew\AppData\Local\Temp","no","mono","no","18","no","white","no","yes","768","legacy","5","11","C:/Users/Matthew/Desktop/subject-4.csv","legacy","7 8 6 3 1","Lentiform Loewenfeld","3.3.9","5","y","0","left","","left","left","NA","1164","18769","42280","1164","NA","2","legacy","5","1024","2","48000","-16","experiment","4","even","1","194207","133224","183423","191999","5327","156091","192002","190824","5335","196209","193004","197374","47616","196209","NA","Sternberg task","6","28762","18","yes","1024"
"31.5789473684","31.5789473684","1550.84210526","1550.84210526","black","experiment","legacy","legacy","legacy","0","uniform","0","undefined","0","left","18","0","18","18","0","0","18","18","0","18","18","18","0","18","0","10/17/21 16:31:36","The main experiment item","yes","Sternbergtask.osexp","C:\Users\Matthew\AppData\Local\Temp","no","mono","no","18","no","white","no","yes","768","legacy","6","11","C:/Users/Matthew/Desktop/subject-4.csv","legacy","3 5 4 7","Lentiform Loewenfeld","3.3.9","1","y","0","right","","left","right","NA","704","18769","42280","704","NA","2","legacy","4","1024","2","48000","-16","experiment","4","even","3","200762","133224","197383","198554","5327","156091","198558","190824","5335","202765","199560","203471","47616","202764","NA","Sternberg task","6","29466","19","yes","1024"
"35","35","1506","1506","black","experiment","legacy","legacy","legacy","0","uniform","1","undefined","1","right","19","0","19","19","0","0","19","19","0","19","19","19","0","19","0","10/17/21 16:31:36","The main experiment item","yes","Sternbergtask.osexp","C:\Users\Matthew\AppData\Local\Temp","no","mono","no","18","no","white","no","yes","768","legacy","7","11","C:/Users/Matthew/Desktop/subject-4.csv","legacy","7 1","Lentiform Loewenfeld","3.3.9","0","n","0","right","","left","right","NA","654","18769","42280","654","NA","2","legacy","2","1024","2","48000","-16","experiment","4","even","8","206855","133224","197383","204648","5327","156091","204651","203482","5335","208857","205653","209512","47616","208857","NA","Sternberg task","7","30120","20","yes","1024"
"38.0952380952","38.0952380952","1496.71428571","1496.71428571","black","experiment","legacy","legacy","legacy","0","uniform","1","undefined","1","right","20","0","20","20","0","0","20","20","0","20","20","20","0","20","0","10/17/21 16:31:36","The main experiment item","yes","Sternbergtask.osexp","C:\Users\Matthew\AppData\Local\Temp","no","mono","no","18","no","white","no","yes","768","legacy","8","11","C:/Users/Matthew/Desktop/subject-4.csv","legacy","2 6 4 3 9","Lentiform Loewenfeld","3.3.9","0","n","0","right","","left","right","NA","1311","18769","42280","1311","NA","2","legacy","5","1024","2","48000","-16","experiment","4","even","1","212901","133224","209523","210692","5327","156091","210696","203482","5335","214903","211698","216215","47616","214903","NA","Sternberg task","8","31431","21","yes","1024"
"40.9090909091","40.9090909091","1451.5","1451.5","black","experiment","legacy","legacy","legacy","0","uniform","1","undefined","1","right","21","0","21","21","0","0","21","21","0","21","21","21","0","21","0","10/17/21 16:31:36","The main experiment item","yes","Sternbergtask.osexp","C:\Users\Matthew\AppData\Local\Temp","no","mono","no","18","no","white","no","yes","768","legacy","9","11","C:/Users/Matthew/Desktop/subject-4.csv","legacy","5 7 3","Lentiform Loewenfeld","3.3.9","0","n","0","right","","left","right","NA","502","18769","42280","502","NA","2","legacy","3","1024","2","48000","-16","experiment","4","even","9","219612","133224","216224","217404","5327","156091","217407","203482","5335","221614","218410","222117","47616","221614","NA","Sternberg task","9","31933","22","yes","1024"
"43.4782608696","43.4782608696","1416.82608696","1416.82608696","black","experiment","legacy","legacy","legacy","0","uniform","1","undefined","1","right","22","0","22","22","0","0","22","22","0","22","22","22","0","22","0","10/17/21 16:31:36","The main experiment item","yes","Sternbergtask.osexp","C:\Users\Matthew\AppData\Local\Temp","no","mono","no","18","no","white","no","yes","768","legacy","10","11","C:/Users/Matthew/Desktop/subject-4.csv","legacy","6 9 4 5 3 2","Lentiform Loewenfeld","3.3.9","0","n","0","right","","left","right","NA","654","18769","42280","654","NA","2","legacy","6","1024","2","48000","-16","experiment","4","even","8","225518","133224","222135","223310","5327","156091","223313","203482","5335","227520","224316","228176","47616","227520","NA","Sternberg task","10","32587","23","yes","1024"
"45.8333333333","45.8333333333","1381.79166667","1381.79166667","black","experiment","legacy","legacy","legacy","0","uniform","1","undefined","1","left","23","0","23","23","0","0","23","23","0","23","23","23","0","23","0","10/17/21 16:31:36","The main experiment item","yes","Sternbergtask.osexp","C:\Users\Matthew\AppData\Local\Temp","no","mono","no","18","no","white","no","yes","768","legacy","11","11","C:/Users/Matthew/Desktop/subject-4.csv","legacy","8 5 3 7 4 6","Lentiform Loewenfeld","3.3.9","6","y","0","left","","left","left","NA","576","18769","42280","576","NA","2","legacy","6","1024","2","48000","-16","experiment","4","even","6","231610","133224","228186","229401","5327","156091","229405","203482","5335","233613","230407","234190","47616","233613","NA","Sternberg task","11","33163","24","yes","1024"
"48","48","1345.56","1345.56","black","experiment","legacy","legacy","legacy","0","uniform","1","undefined","1","right","24","0","24","24","0","0","24","24","0","24","24","24","0","24","0","10/17/21 16:31:36","The main experiment item","yes","Sternbergtask.osexp","C:\Users\Matthew\AppData\Local\Temp","no","mono","no","18","no","white","no","yes","768","legacy","12","11","C:/Users/Matthew/Desktop/subject-4.csv","legacy","2 3 8 5 6 7","Lentiform Loewenfeld","3.3.9","0","n","0","right","","left","right","NA","476","18769","42280","476","NA","2","legacy","6","1024","2","48000","-16","experiment","4","even","1","237578","133224","234199","235370","5327","156091","235374","203482","5335","239581","236376","240058","47616","239581","NA","Sternberg task","12","33639","25","yes","1024"
"50","50","1312.34615385","1312.34615385","black","experiment","legacy","legacy","legacy","0","uniform","1","undefined","1","left","25","0","25","25","0","0","25","25","0","25","25","25","0","25","0","10/17/21 16:31:36","The main experiment item","yes","Sternbergtask.osexp","C:\Users\Matthew\AppData\Local\Temp","no","mono","no","18","no","white","no","yes","768","legacy","13","11","C:/Users/Matthew/Desktop/subject-4.csv","legacy","4","Lentiform Loewenfeld","3.3.9","1","y","0","left","","left","left","NA","482","18769","42280","482","NA","2","legacy","1","1024","2","48000","-16","experiment","4","even","4","243450","133224","240064","241241","5327","156091","241244","203482","5335","245452","242247","245936","47616","245452","NA","Sternberg task","13","34121","26","yes","1024"
"51.8518518519","51.8518518519","1280.07407407","1280.07407407","black","experiment","legacy","legacy","legacy","0","uniform","1","undefined","1","right","26","0","26","26","0","0","26","26","0","26","26","26","0","26","0","10/17/21 16:31:36","The main experiment item","yes","Sternbergtask.osexp","C:\Users\Matthew\AppData\Local\Temp","no","mono","no","18","no","white","no","yes","768","legacy","14","11","C:/Users/Matthew/Desktop/subject-4.csv","legacy","1 8 7","Lentiform Loewenfeld","3.3.9","0","n","0","right","","left","right","NA","441","18769","42280","441","NA","2","legacy","3","1024","2","48000","-16","experiment","4","even","4","249329","133224","245951","247120","5327","156091","247124","203482","5335","251331","248127","251773","47616","251331","NA","Sternberg task","14","34562","27","yes","1024"
"53.5714285714","53.5714285714","1253.57142857","1253.57142857","black","experiment","legacy","legacy","legacy","0","uniform","1","undefined","1","left","27","0","27","27","0","0","27","27","0","27","27","27","0","27","0","10/17/21 16:31:36","The main experiment item","yes","Sternbergtask.osexp","C:\Users\Matthew\AppData\Local\Temp","no","mono","no","18","no","white","no","yes","768","legacy","15","11","C:/Users/Matthew/Desktop/subject-4.csv","legacy","8 5 4 7 3 1","Lentiform Loewenfeld","3.3.9","2","y","0","left","","left","left","NA","538","18769","42280","538","NA","2","legacy","6","1024","2","48000","-16","experiment","4","even","5","255183","133224","251791","252975","5327","156091","252979","203482","5335","257186","253981","257725","47616","257185","NA","Sternberg task","15","35100","28","yes","1024"
"55.1724137931","55.1724137931","1223.86206897","1223.86206897","black","experiment","legacy","legacy","legacy","0","uniform","1","undefined","1","right","28","0","28","28","0","0","28","28","0","28","28","28","0","28","0","10/17/21 16:31:36","The main experiment item","yes","Sternbergtask.osexp","C:\Users\Matthew\AppData\Local\Temp","no","mono","no","18","no","white","no","yes","768","legacy","16","11","C:/Users/Matthew/Desktop/subject-4.csv","legacy","1","Lentiform Loewenfeld","3.3.9","0","n","0","right","","left","right","NA","392","18769","42280","392","NA","2","legacy","1","1024","2","48000","-16","experiment","4","even","7","261113","133224","257742","258905","5327","156091","258909","203482","5335","263115","259911","263508","47616","263115","NA","Sternberg task","16","35492","29","yes","1024"
"56.6666666667","56.6666666667","1213.43333333","1213.43333333","black","experiment","legacy","legacy","legacy","0","uniform","1","undefined","1","right","29","0","29","29","0","0","29","29","0","29","29","29","0","29","0","10/17/21 16:31:36","The main experiment item","yes","Sternbergtask.osexp","C:\Users\Matthew\AppData\Local\Temp","no","mono","no","18","no","white","no","yes","768","legacy","17","11","C:/Users/Matthew/Desktop/subject-4.csv","legacy","3 9 8 1 6 4","Lentiform Loewenfeld","3.3.9","0","n","0","right","","left","right","NA","911","18769","42280","911","NA","2","legacy","6","1024","2","48000","-16","experiment","4","even","7","266899","133224","263519","264692","5327","156091","264695","203482","5335","268901","265697","269813","47616","268901","NA","Sternberg task","17","36403","30","yes","1024"
"58.064516129","58.064516129","1193.32258065","1193.32258065","black","experiment","legacy","legacy","legacy","0","uniform","1","undefined","1","right","30","0","30","30","0","0","30","30","0","30","30","30","0","30","0","10/17/21 16:31:36","The main experiment item","yes","Sternbergtask.osexp","C:\Users\Matthew\AppData\Local\Temp","no","mono","no","18","no","white","no","yes","768","legacy","18","11","C:/Users/Matthew/Desktop/subject-4.csv","legacy","1 4 9 3","Lentiform Loewenfeld","3.3.9","0","n","0","right","","left","right","NA","590","18769","42280","590","NA","2","legacy","4","1024","2","48000","-16","experiment","4","even","5","273212","133224","269830","271003","5327","156091","271007","203482","5335","275214","272009","275805","47616","275214","NA","Sternberg task","18","36993","31","yes","1024"
"59.375","59.375","1169.34375","1169.34375","black","experiment","legacy","legacy","legacy","0","uniform","1","undefined","1","left","31","0","31","31","0","0","31","31","0","31","31","31","0","31","0","10/17/21 16:31:36","The main experiment item","yes","Sternbergtask.osexp","C:\Users\Matthew\AppData\Local\Temp","no","mono","no","18","no","white","no","yes","768","legacy","19","11","C:/Users/Matthew/Desktop/subject-4.csv","legacy","7 1 3","Lentiform Loewenfeld","3.3.9","2","y","0","left","","left","left","NA","426","18769","42280","426","NA","2","legacy","3","1024","2","48000","-16","experiment","4","even","1","279197","133224","275815","276989","5327","156091","276993","203482","5335","281199","277995","281626","47616","281199","NA","Sternberg task","19","37419","32","yes","1024"
"57.5757575758","57.5757575758","1146.03030303","1146.03030303","black","experiment","legacy","legacy","legacy","0","uniform","0","undefined","0","left","32","0","32","32","0","0","32","32","0","32","32","32","0","32","0","10/17/21 16:31:36","The main experiment item","yes","Sternbergtask.osexp","C:\Users\Matthew\AppData\Local\Temp","no","mono","no","18","no","white","no","yes","768","legacy","20","11","C:/Users/Matthew/Desktop/subject-4.csv","legacy","3 9 6 2","Lentiform Loewenfeld","3.3.9","4","y","0","right","","left","right","NA","400","18769","42280","400","NA","2","legacy","4","1024","2","48000","-16","experiment","4","even","2","285019","133224","281635","282810","5327","156091","282813","203482","5335","287022","283816","287423","47616","287021","NA","Sternberg task","19","37819","33","yes","1024"
"58.8235294118","58.8235294118","1127.64705882","1127.64705882","black","experiment","legacy","legacy","legacy","0","uniform","1","undefined","1","left","33","0","33","33","0","0","33","33","0","33","33","33","0","33","0","10/17/21 16:31:36","The main experiment item","yes","Sternbergtask.osexp","C:\Users\Matthew\AppData\Local\Temp","no","mono","no","18","no","white","no","yes","768","legacy","21","11","C:/Users/Matthew/Desktop/subject-4.csv","legacy","6 7 9 3 1 2","Lentiform Loewenfeld","3.3.9","1","y","0","left","","left","left","NA","521","18769","42280","521","NA","2","legacy","6","1024","2","48000","-16","experiment","4","even","6","290827","133224","281635","288620","5327","156091","288623","287439","5335","292830","289625","293352","47616","292829","NA","Sternberg task","20","38340","34","yes","1024"
"60","60","1111.57142857","1111.57142857","black","experiment","legacy","legacy","legacy","0","uniform","1","undefined","1","left","34","0","34","34","0","0","34","34","0","34","34","34","0","34","0","10/17/21 16:31:36","The main experiment item","yes","Sternbergtask.osexp","C:\Users\Matthew\AppData\Local\Temp","no","mono","no","18","no","white","no","yes","768","legacy","22","11","C:/Users/Matthew/Desktop/subject-4.csv","legacy","3 9 7 6 4","Lentiform Loewenfeld","3.3.9","3","y","0","left","","left","left","NA","565","18769","42280","565","NA","2","legacy","5","1024","2","48000","-16","experiment","4","even","7","296769","133224","293367","294561","5327","156091","294564","287439","5335","298771","295567","299338","47616","298771","NA","Sternberg task","21","38905","35","yes","1024"
"61.1111111111","61.1111111111","1096.86111111","1096.86111111","black","experiment","legacy","legacy","legacy","0","uniform","1","undefined","1","left","35","0","35","35","0","0","35","35","0","35","35","35","0","35","0","10/17/21 16:31:36","The main experiment item","yes","Sternbergtask.osexp","C:\Users\Matthew\AppData\Local\Temp","no","mono","no","18","no","white","no","yes","768","legacy","23","11","C:/Users/Matthew/Desktop/subject-4.csv","legacy","9 1 6 7 8","Lentiform Loewenfeld","3.3.9","1","y","0","left","","left","left","NA","582","18769","42280","582","NA","2","legacy","5","1024","2","48000","-16","experiment","4","even","9","302737","133224","299346","300528","5327","156091","300532","287439","5335","304739","301535","305322","47616","304739","NA","Sternberg task","22","39487","36","yes","1024"
"62.1621621622","62.1621621622","1094.78378378","1094.78378378","black","experiment","legacy","legacy","legacy","0","uniform","1","undefined","1","right","36","0","36","36","0","0","36","36","0","36","36","36","0","36","0","10/17/21 16:31:36","The main experiment item","yes","Sternbergtask.osexp","C:\Users\Matthew\AppData\Local\Temp","no","mono","no","18","no","white","no","yes","768","legacy","24","11","C:/Users/Matthew/Desktop/subject-4.csv","legacy","6 3 1 7 9 8","Lentiform Loewenfeld","3.3.9","0","n","0","right","","left","right","NA","1020","18769","42280","1020","NA","2","legacy","6","1024","2","48000","-16","experiment","4","even","4","308728","133224","305339","306520","5327","156091","306524","287439","5335","310731","307526","311753","47616","310730","NA","Sternberg task","23","40507","37","yes","1024"
"63.1578947368","63.1578947368","1081.18421053","1081.18421053","black","experiment","legacy","legacy","legacy","0","uniform","1","undefined","1","left","37","0","37","37","0","0","37","37","0","37","37","37","0","37","0","10/17/21 16:31:36","The main experiment item","yes","Sternbergtask.osexp","C:\Users\Matthew\AppData\Local\Temp","no","mono","no","18","no","white","no","yes","768","legacy","25","11","C:/Users/Matthew/Desktop/subject-4.csv","legacy","2 4 6 9","Lentiform Loewenfeld","3.3.9","3","y","0","left","","left","left","NA","578","18769","42280","578","NA","2","legacy","4","1024","2","48000","-16","experiment","4","even","6","315145","133224","311764","312937","5327","156091","312941","287439","5335","317147","313943","317727","47616","317147","NA","Sternberg task","24","41085","38","yes","1024"
"64.1025641026","64.1025641026","1073.66666667","1073.66666667","black","experiment","legacy","legacy","legacy","0","uniform","1","undefined","1","right","38","0","38","38","0","0","38","38","0","38","38","38","0","38","0","10/17/21 16:31:36","The main experiment item","yes","Sternbergtask.osexp","C:\Users\Matthew\AppData\Local\Temp","no","mono","no","18","no","white","no","yes","768","legacy","26","11","C:/Users/Matthew/Desktop/subject-4.csv","legacy","4 2 6 9","Lentiform Loewenfeld","3.3.9","0","n","0","right","","left","right","NA","788","18769","42280","788","NA","2","legacy","4","1024","2","48000","-16","experiment","4","even","7","321113","133224","317741","318905","5327","156091","318908","287439","5335","323116","319911","323906","47616","323116","NA","Sternberg task","25","41873","39","yes","1024"
"65","65","1058.85","1058.85","black","experiment","legacy","legacy","legacy","0","uniform","1","undefined","1","left","39","0","39","39","0","0","39","39","0","39","39","39","0","39","0","10/17/21 16:31:36","The main experiment item","yes","Sternbergtask.osexp","C:\Users\Matthew\AppData\Local\Temp","no","mono","no","18","no","white","no","yes","768","legacy","27","11","C:/Users/Matthew/Desktop/subject-4.csv","legacy","3 5 7 1","Lentiform Loewenfeld","3.3.9","3","y","0","left","","left","left","NA","481","18769","42280","481","NA","2","legacy","4","1024","2","48000","-16","experiment","4","even","7","327292","133224","323918","325084","5327","156091","325087","287439","5335","329294","326090","329777","47616","329294","NA","Sternberg task","26","42354","40","yes","1024"
"63.4146341463","63.4146341463","1049.2195122","1049.2195122","black","experiment","legacy","legacy","legacy","0","uniform","0","undefined","0","left","40","0","40","40","0","0","40","40","0","40","40","40","0","40","0","10/17/21 16:31:36","The main experiment item","yes","Sternbergtask.osexp","C:\Users\Matthew\AppData\Local\Temp","no","mono","no","18","no","white","no","yes","768","legacy","28","11","C:/Users/Matthew/Desktop/subject-4.csv","legacy","5 7 3 6 2","Lentiform Loewenfeld","3.3.9","5","y","0","right","","left","right","NA","664","18769","42280","664","NA","2","legacy","5","1024","2","48000","-16","experiment","4","even","2","333182","133224","329796","330972","5327","156091","330976","287439","5335","335184","331979","335849","47616","335184","NA","Sternberg task","26","43018","41","yes","1024"
"64.2857142857","64.2857142857","1039.4047619","1039.4047619","black","experiment","legacy","legacy","legacy","0","uniform","1","undefined","1","right","41","0","41","41","0","0","41","41","0","41","41","41","0","41","0","10/17/21 16:31:36","The main experiment item","yes","Sternbergtask.osexp","C:\Users\Matthew\AppData\Local\Temp","no","mono","no","18","no","white","no","yes","768","legacy","29","11","C:/Users/Matthew/Desktop/subject-4.csv","legacy","1 4 3 6 5","Lentiform Loewenfeld","3.3.9","0","n","0","right","","left","right","NA","637","18769","42280","637","NA","2","legacy","5","1024","2","48000","-16","experiment","4","even","8","339288","133224","329796","337079","5327","156091","337083","335860","5335","341290","338085","341928","47616","341290","NA","Sternberg task","27","43655","42","yes","1024"
"65.1162790698","65.1162790698","1045.3255814","1045.3255814","black","experiment","legacy","legacy","legacy","0","uniform","1","undefined","1","left","42","0","42","42","0","0","42","42","0","42","42","42","0","42","0","10/17/21 16:31:36","The main experiment item","yes","Sternbergtask.osexp","C:\Users\Matthew\AppData\Local\Temp","no","mono","no","18","no","white","no","yes","768","legacy","30","11","C:/Users/Matthew/Desktop/subject-4.csv","legacy","6 9 7 4 5 1","Lentiform Loewenfeld","3.3.9","2","y","0","left","","left","left","NA","1294","18769","42280","1294","NA","2","legacy","6","1024","2","48000","-16","experiment","4","even","9","345329","133224","341944","343122","5327","156091","343125","335860","5335","347332","344127","348627","47616","347332","NA","Sternberg task","28","44949","43","yes","1024"
"65.9090909091","65.9090909091","1034","1034","black","experiment","legacy","legacy","legacy","0","uniform","1","undefined","1","right","43","0","43","43","0","0","43","43","0","43","43","43","0","43","0","10/17/21 16:31:36","The main experiment item","yes","Sternbergtask.osexp","C:\Users\Matthew\AppData\Local\Temp","no","mono","no","18","no","white","no","yes","768","legacy","31","11","C:/Users/Matthew/Desktop/subject-4.csv","legacy","6 7 5 9","Lentiform Loewenfeld","3.3.9","0","n","0","right","","left","right","NA","547","18769","42280","547","NA","2","legacy","4","1024","2","48000","-16","experiment","4","even","2","352031","133224","348637","349822","5327","156091","349826","335860","5335","354033","350829","354581","47616","354033","NA","Sternberg task","29","45496","44","yes","1024"
"66.6666666667","66.6666666667","1025.91111111","1025.91111111","black","experiment","legacy","legacy","legacy","0","uniform","1","undefined","1","right","44","0","44","44","0","0","44","44","0","44","44","44","0","44","0","10/17/21 16:31:36","The main experiment item","yes","Sternbergtask.osexp","C:\Users\Matthew\AppData\Local\Temp","no","mono","no","18","no","white","no","yes","768","legacy","32","11","C:/Users/Matthew/Desktop/subject-4.csv","legacy","6 2 9 3 8 4","Lentiform Loewenfeld","3.3.9","0","n","0","right","","left","right","NA","670","18769","42280","670","NA","2","legacy","6","1024","2","48000","-16","experiment","4","even","1","357983","133224","354595","355775","5327","156091","355779","335860","5335","359985","356781","360657","47616","359985","NA","Sternberg task","30","46166","45","yes","1024"
"67.3913043478","67.3913043478","1014.13043478","1014.13043478","black","experiment","legacy","legacy","legacy","0","uniform","1","undefined","1","left","45","0","45","45","0","0","45","45","0","45","45","45","0","45","0","10/17/21 16:31:36","The main experiment item","yes","Sternbergtask.osexp","C:\Users\Matthew\AppData\Local\Temp","no","mono","no","18","no","white","no","yes","768","legacy","33","11","C:/Users/Matthew/Desktop/subject-4.csv","legacy","4 6 5 8","Lentiform Loewenfeld","3.3.9","1","y","0","left","","left","left","NA","484","18769","42280","484","NA","2","legacy","4","1024","2","48000","-16","experiment","4","even","4","364063","133224","360671","361856","5327","156091","361859","335860","5335","366066","362861","366551","47616","366066","NA","Sternberg task","31","46650","46","yes","1024"
"68.085106383","68.085106383","1002.68085106","1002.68085106","black","experiment","legacy","legacy","legacy","0","uniform","1","undefined","1","left","46","0","46","46","0","0","46","46","0","46","46","46","0","46","0","10/17/21 16:31:36","The main experiment item","yes","Sternbergtask.osexp","C:\Users\Matthew\AppData\Local\Temp","no","mono","no","18","no","white","no","yes","768","legacy","34","11","C:/Users/Matthew/Desktop/subject-4.csv","legacy","6 5","Lentiform Loewenfeld","3.3.9","2","y","0","left","","left","left","NA","476","18769","42280","476","NA","2","legacy","2","1024","2","48000","-16","experiment","4","even","5","369957","133224","366562","367749","5327","156091","367752","335860","5335","371959","368755","372437","47616","371959","NA","Sternberg task","32","47126","47","yes","1024"
"68.75","68.75","991.229166667","991.229166667","black","experiment","legacy","legacy","legacy","0","uniform","1","undefined","1","left","47","0","47","47","0","0","47","47","0","47","47","47","0","47","0","10/17/21 16:31:36","The main experiment item","yes","Sternbergtask.osexp","C:\Users\Matthew\AppData\Local\Temp","no","mono","no","18","no","white","no","yes","768","legacy","35","11","C:/Users/Matthew/Desktop/subject-4.csv","legacy","6 2","Lentiform Loewenfeld","3.3.9","1","y","0","left","","left","left","NA","453","18769","42280","453","NA","2","legacy","2","1024","2","48000","-16","experiment","4","even","6","375847","133224","372448","373638","5327","156091","373642","335860","5335","377849","374644","378304","47616","377849","NA","Sternberg task","33","47579","48","yes","1024"
"69.387755102","69.387755102","981.040816327","981.040816327","black","experiment","legacy","legacy","legacy","0","uniform","1","undefined","1","right","48","0","48","48","0","0","48","48","0","48","48","48","0","48","0","10/17/21 16:31:36","The main experiment item","yes","Sternbergtask.osexp","C:\Users\Matthew\AppData\Local\Temp","no","mono","no","18","no","white","no","yes","768","legacy","36","11","C:/Users/Matthew/Desktop/subject-4.csv","legacy","1 7 5 2","Lentiform Loewenfeld","3.3.9","0","n","0","right","","left","right","NA","492","18769","42280","492","NA","2","legacy","4","1024","2","48000","-16","experiment","4","even","3","381705","133224","378314","379496","5327","156091","379500","335860","5335","383708","380503","384202","47616","383708","NA","Sternberg task","34","48071","49","yes","1024"
"70","70","970.84","970.84","black","experiment","legacy","legacy","legacy","0","uniform","1","undefined","1","right","49","0","49","49","0","0","49","49","0","49","49","49","0","49","0","10/17/21 16:31:36","The main experiment item","yes","Sternbergtask.osexp","C:\Users\Matthew\AppData\Local\Temp","no","mono","no","18","no","white","no","yes","768","legacy","37","11","C:/Users/Matthew/Desktop/subject-4.csv","legacy","1 7 5 2 9","Lentiform Loewenfeld","3.3.9","0","n","0","right","","left","right","NA","471","18769","42280","471","NA","2","legacy","5","1024","2","48000","-16","experiment","4","even","3","387605","133224","384214","385396","5327","156091","385400","335860","5335","389607","386403","390081","47616","389607","NA","Sternberg task","35","48542","50","yes","1024"
"70.5882352941","70.5882352941","970.666666667","970.666666667","black","experiment","legacy","legacy","legacy","0","uniform","1","undefined","1","left","50","0","50","50","0","0","50","50","0","50","50","50","0","50","0","10/17/21 16:31:36","The main experiment item","yes","Sternbergtask.osexp","C:\Users\Matthew\AppData\Local\Temp","no","mono","no","18","no","white","no","yes","768","legacy","38","11","C:/Users/Matthew/Desktop/subject-4.csv","legacy","5 7 8 2 3 8","Lentiform Loewenfeld","3.3.9","5","y","0","left","","left","left","NA","962","18769","42280","962","NA","2","legacy","6","1024","2","48000","-16","experiment","4","even","3","393479","133224","390089","391271","5327","156091","391275","335860","5335","395482","392277","396445","47616","395481","NA","Sternberg task","36","49504","51","yes","1024"
"71.1538461538","71.1538461538","964.75","964.75","black","experiment","legacy","legacy","legacy","0","uniform","1","undefined","1","left","51","0","51","51","0","0","51","51","0","51","51","51","0","51","0","10/17/21 16:31:36","The main experiment item","yes","Sternbergtask.osexp","C:\Users\Matthew\AppData\Local\Temp","no","mono","no","18","no","white","no","yes","768","legacy","39","11","C:/Users/Matthew/Desktop/subject-4.csv","legacy","6 1 2","Lentiform Loewenfeld","3.3.9","3","y","0","left","","left","left","NA","663","18769","42280","663","NA","2","legacy","3","1024","2","48000","-16","experiment","4","even","2","399842","133224","396456","397634","5327","156091","397638","335860","5335","401845","398640","402510","47616","401845","NA","Sternberg task","37","50167","52","yes","1024"
"71.6981132075","71.6981132075","967.490566038","967.490566038","black","experiment","legacy","legacy","legacy","0","uniform","1","undefined","1","right","52","0","52","52","0","0","52","52","0","52","52","52","0","52","0","10/17/21 16:31:36","The main experiment item","yes","Sternbergtask.osexp","C:\Users\Matthew\AppData\Local\Temp","no","mono","no","18","no","white","no","yes","768","legacy","40","11","C:/Users/Matthew/Desktop/subject-4.csv","legacy","3 4 2","Lentiform Loewenfeld","3.3.9","0","n","0","right","","left","right","NA","1110","18769","42280","1110","NA","2","legacy","3","1024","2","48000","-16","experiment","4","even","5","405911","133224","402521","403703","5327","156091","403707","335860","5335","407914","404709","409026","47616","407913","NA","Sternberg task","38","51277","53","yes","1024"
"72.2222222222","72.2222222222","960.685185185","960.685185185","black","experiment","legacy","legacy","legacy","0","uniform","1","undefined","1","right","53","0","53","53","0","0","53","53","0","53","53","53","0","53","0","10/17/21 16:31:36","The main experiment item","yes","Sternbergtask.osexp","C:\Users\Matthew\AppData\Local\Temp","no","mono","no","18","no","white","no","yes","768","legacy","41","11","C:/Users/Matthew/Desktop/subject-4.csv","legacy","1 6 4 3 9 7","Lentiform Loewenfeld","3.3.9","0","n","0","right","","left","right","NA","600","18769","42280","600","NA","2","legacy","6","1024","2","48000","-16","experiment","4","even","8","412410","133224","409037","410202","5327","156091","410205","335860","5335","414412","411207","415014","47616","414412","NA","Sternberg task","39","51877","54","yes","1024"
"72.7272727273","72.7272727273","950.636363636","950.636363636","black","experiment","legacy","legacy","legacy","0","uniform","1","undefined","1","left","54","0","54","54","0","0","54","54","0","54","54","54","0","54","0","10/17/21 16:31:36","The main experiment item","yes","Sternbergtask.osexp","C:\Users\Matthew\AppData\Local\Temp","no","mono","no","18","no","white","no","yes","768","legacy","42","11","C:/Users/Matthew/Desktop/subject-4.csv","legacy","9 5 8 1","Lentiform Loewenfeld","3.3.9","2","y","0","left","","left","left","NA","408","18769","42280","408","NA","2","legacy","4","1024","2","48000","-16","experiment","4","even","5","418411","133224","415030","416204","5327","156091","416207","335860","5335","420413","417209","420823","47616","420413","NA","Sternberg task","40","52285","55","yes","1024"
"73.2142857143","73.2142857143","941.035714286","941.035714286","black","experiment","legacy","legacy","legacy","0","uniform","1","undefined","1","right","55","0","55","55","0","0","55","55","0","55","55","55","0","55","0","10/17/21 16:31:36","The main experiment item","yes","Sternbergtask.osexp","C:\Users\Matthew\AppData\Local\Temp","no","mono","no","18","no","white","no","yes","768","legacy","43","11","C:/Users/Matthew/Desktop/subject-4.csv","legacy","8 9","Lentiform Loewenfeld","3.3.9","0","n","0","right","","left","right","NA","413","18769","42280","413","NA","2","legacy","2","1024","2","48000","-16","experiment","4","even","5","424231","133224","420840","422022","5327","156091","422025","335860","5335","426233","423029","426648","47616","426233","NA","Sternberg task","41","52698","56","yes","1024"
"73.6842105263","73.6842105263","938.578947368","938.578947368","black","experiment","legacy","legacy","legacy","0","uniform","1","undefined","1","right","56","0","56","56","0","0","56","56","0","56","56","56","0","56","0","10/17/21 16:31:36","The main experiment item","yes","Sternbergtask.osexp","C:\Users\Matthew\AppData\Local\Temp","no","mono","no","18","no","white","no","yes","768","legacy","44","11","C:/Users/Matthew/Desktop/subject-4.csv","legacy","7 6 4 8 1 2","Lentiform Loewenfeld","3.3.9","0","n","0","right","","left","right","NA","801","18769","42280","801","NA","2","legacy","6","1024","2","48000","-16","experiment","4","even","9","430040","133224","426659","427832","5327","156091","427835","335860","5335","432042","428838","432846","47616","432042","NA","Sternberg task","42","53499","57","yes","1024"
"74.1379310345","74.1379310345","936.24137931","936.24137931","black","experiment","legacy","legacy","legacy","0","uniform","1","undefined","1","left","57","0","57","57","0","0","57","57","0","57","57","57","0","57","0","10/17/21 16:31:36","The main experiment item","yes","Sternbergtask.osexp","C:\Users\Matthew\AppData\Local\Temp","no","mono","no","18","no","white","no","yes","768","legacy","45","11","C:/Users/Matthew/Desktop/subject-4.csv","legacy","2 6 1 7 4","Lentiform Loewenfeld","3.3.9","2","y","0","left","","left","left","NA","803","18769","42280","803","NA","2","legacy","5","1024","2","48000","-16","experiment","4","even","6","436242","133224","432855","434035","5327","156091","434038","335860","5335","438244","435040","439049","47616","438244","NA","Sternberg task","43","54302","58","yes","1024"
"74.5762711864","74.5762711864","933.694915254","933.694915254","black","experiment","legacy","legacy","legacy","0","uniform","1","undefined","1","left","58","0","58","58","0","0","58","58","0","58","58","58","0","58","0","10/17/21 16:31:36","The main experiment item","yes","Sternbergtask.osexp","C:\Users\Matthew\AppData\Local\Temp","no","mono","no","18","no","white","no","yes","768","legacy","46","11","C:/Users/Matthew/Desktop/subject-4.csv","legacy","9 6 2 4 1","Lentiform Loewenfeld","3.3.9","4","y","0","left","","left","left","NA","786","18769","42280","786","NA","2","legacy","5","1024","2","48000","-16","experiment","4","even","4","442463","133224","439064","440255","5327","156091","440259","335860","5335","444466","441261","445254","47616","444465","NA","Sternberg task","44","55088","59","yes","1024"
"75","75","925.45","925.45","black","experiment","legacy","legacy","legacy","0","uniform","1","undefined","1","right","59","0","59","59","0","0","59","59","0","59","59","59","0","59","0","10/17/21 16:31:36","The main experiment item","yes","Sternbergtask.osexp","C:\Users\Matthew\AppData\Local\Temp","no","mono","no","18","no","white","no","yes","768","legacy","47","11","C:/Users/Matthew/Desktop/subject-4.csv","legacy","2 8 9","Lentiform Loewenfeld","3.3.9","0","n","0","right","","left","right","NA","439","18769","42280","439","NA","2","legacy","3","1024","2","48000","-16","experiment","4","even","6","448649","133224","445266","446440","5327","156091","446443","335860","5335","450651","447447","451092","47616","450651","NA","Sternberg task","45","55527","60","yes","1024"
"75.4098360656","75.4098360656","922.93442623","922.93442623","black","experiment","legacy","legacy","legacy","0","uniform","1","undefined","1","right","60","0","60","60","0","0","60","60","0","60","60","60","0","60","0","10/17/21 16:31:36","The main experiment item","yes","Sternbergtask.osexp","C:\Users\Matthew\AppData\Local\Temp","no","mono","no","18","no","white","no","yes","768","legacy","48","11","C:/Users/Matthew/Desktop/subject-4.csv","legacy","7 9 1 6","Lentiform Loewenfeld","3.3.9","0","n","0","right","","left","right","NA","772","18769","42280","772","NA","2","legacy","4","1024","2","48000","-16","experiment","4","even","4","454482","133224","451102","452275","5327","156091","452278","335860","5335","456484","453280","457258","47616","456484","NA","Sternberg task","46","56299","61","yes","1024"
"75.8064516129","75.8064516129","919.806451613","919.806451613","black","experiment","legacy","legacy","legacy","0","uniform","1","undefined","1","left","61","0","61","61","0","0","61","61","0","61","61","61","0","61","0","10/17/21 16:31:36","The main experiment item","yes","Sternbergtask.osexp","C:\Users\Matthew\AppData\Local\Temp","no","mono","no","18","no","white","no","yes","768","legacy","49","11","C:/Users/Matthew/Desktop/subject-4.csv","legacy","8 1 6","Lentiform Loewenfeld","3.3.9","3","y","0","left","","left","left","NA","729","18769","42280","729","NA","2","legacy","3","1024","2","48000","-16","experiment","4","even","6","460649","133224","457267","458441","5327","156091","458445","335860","5335","462651","459447","463382","47616","462651","NA","Sternberg task","47","57028","62","yes","1024"
"76.1904761905","76.1904761905","914.793650794","914.793650794","black","experiment","legacy","legacy","legacy","0","uniform","1","undefined","1","left","62","0","62","62","0","0","62","62","0","62","62","62","0","62","0","10/17/21 16:31:36","The main experiment item","yes","Sternbergtask.osexp","C:\Users\Matthew\AppData\Local\Temp","no","mono","no","18","no","white","no","yes","768","legacy","50","11","C:/Users/Matthew/Desktop/subject-4.csv","legacy","3 2 1 4 7","Lentiform Loewenfeld","3.3.9","2","y","0","left","","left","left","NA","604","18769","42280","604","NA","2","legacy","5","1024","2","48000","-16","experiment","4","even","2","466783","133224","463401","464575","5327","156091","464579","335860","5335","468786","465581","469392","47616","468786","NA","Sternberg task","48","57632","63","yes","1024"
"76.5625","76.5625","910.4375","910.4375","black","experiment","legacy","legacy","legacy","0","uniform","1","undefined","1","left","63","0","63","63","0","0","63","63","0","63","63","63","0","63","0","10/17/21 16:31:36","The main experiment item","yes","Sternbergtask.osexp","C:\Users\Matthew\AppData\Local\Temp","no","mono","no","18","no","white","no","yes","768","legacy","51","11","C:/Users/Matthew/Desktop/subject-4.csv","legacy","6 7 8 5","Lentiform Loewenfeld","3.3.9","3","y","0","left","","left","left","NA","636","18769","42280","636","NA","2","legacy","4","1024","2","48000","-16","experiment","4","even","8","472783","133224","469403","470576","5327","156091","470579","335860","5335","474787","471581","475425","47616","474787","NA","Sternberg task","49","58268","64","yes","1024"
"76.9230769231","76.9230769231","905.323076923","905.323076923","black","experiment","legacy","legacy","legacy","0","uniform","1","undefined","1","right","64","0","64","64","0","0","64","64","0","64","64","64","0","64","0","10/17/21 16:31:36","The main experiment item","yes","Sternbergtask.osexp","C:\Users\Matthew\AppData\Local\Temp","no","mono","no","18","no","white","no","yes","768","legacy","52","11","C:/Users/Matthew/Desktop/subject-4.csv","legacy","1 6 4","Lentiform Loewenfeld","3.3.9","0","n","0","right","","left","right","NA","578","18769","42280","578","NA","2","legacy","3","1024","2","48000","-16","experiment","4","even","7","478825","133224","475441","476618","5327","156091","476621","335860","5335","480828","477623","481408","47616","480828","NA","Sternberg task","50","58846","65","yes","1024"
"77.2727272727","77.2727272727","899.121212121","899.121212121","black","experiment","legacy","legacy","legacy","0","uniform","1","undefined","1","left","65","0","65","65","0","0","65","65","0","65","65","65","0","65","0","10/17/21 16:31:36","The main experiment item","yes","Sternbergtask.osexp","C:\Users\Matthew\AppData\Local\Temp","no","mono","no","18","no","white","no","yes","768","legacy","53","11","C:/Users/Matthew/Desktop/subject-4.csv","legacy","4 1 5","Lentiform Loewenfeld","3.3.9","2","y","0","left","","left","left","NA","496","18769","42280","496","NA","2","legacy","3","1024","2","48000","-16","experiment","4","even","1","484796","133224","481418","482588","5327","156091","482592","335860","5335","486798","483594","487296","47616","486798","NA","Sternberg task","51","59342","66","yes","1024"
"77.6119402985","77.6119402985","896.059701493","896.059701493","black","experiment","legacy","legacy","legacy","0","uniform","1","undefined","1","right","66","0","66","66","0","0","66","66","0","66","66","66","0","66","0","10/17/21 16:31:36","The main experiment item","yes","Sternbergtask.osexp","C:\Users\Matthew\AppData\Local\Temp","no","mono","no","18","no","white","no","yes","768","legacy","54","11","C:/Users/Matthew/Desktop/subject-4.csv","legacy","8 5 4 2 9 6","Lentiform Loewenfeld","3.3.9","0","n","0","right","","left","right","NA","694","18769","42280","694","NA","2","legacy","6","1024","2","48000","-16","experiment","4","even","3","490686","133224","487306","488478","5327","156091","488482","335860","5335","492688","489484","493384","47616","492688","NA","Sternberg task","52","60036","67","yes","1024"
"77.9411764706","77.9411764706","892.279411765","892.279411765","black","experiment","legacy","legacy","legacy","0","uniform","1","undefined","1","right","67","0","67","67","0","0","67","67","0","67","67","67","0","67","0","10/17/21 16:31:36","The main experiment item","yes","Sternbergtask.osexp","C:\Users\Matthew\AppData\Local\Temp","no","mono","no","18","no","white","no","yes","768","legacy","55","11","C:/Users/Matthew/Desktop/subject-4.csv","legacy","8 2 1 4 5 9","Lentiform Loewenfeld","3.3.9","0","n","0","right","","left","right","NA","639","18769","42280","639","NA","2","legacy","6","1024","2","48000","-16","experiment","4","even","7","496776","133224","493394","494568","5327","156091","494571","335860","5335","498778","495574","499419","47616","498778","NA","Sternberg task","53","60675","68","yes","1024"
"78.2608695652","78.2608695652","887.913043478","887.913043478","black","experiment","legacy","legacy","legacy","0","uniform","1","undefined","1","left","68","0","68","68","0","0","68","68","0","68","68","68","0","68","0","10/17/21 16:31:36","The main experiment item","yes","Sternbergtask.osexp","C:\Users\Matthew\AppData\Local\Temp","no","mono","no","18","no","white","no","yes","768","legacy","56","11","C:/Users/Matthew/Desktop/subject-4.csv","legacy","9 8 4","Lentiform Loewenfeld","3.3.9","1","y","0","left","","left","left","NA","591","18769","42280","591","NA","2","legacy","3","1024","2","48000","-16","experiment","4","even","9","502809","133224","499429","500601","5327","156091","500605","335860","5335","504814","501607","505406","47616","504814","NA","Sternberg task","54","61266","69","yes","1024"
"78.5714285714","78.5714285714","885.257142857","885.257142857","black","experiment","legacy","legacy","legacy","0","uniform","1","undefined","1","right","69","0","69","69","0","0","69","69","0","69","69","69","0","69","0","10/17/21 16:31:36","The main experiment item","yes","Sternbergtask.osexp","C:\Users\Matthew\AppData\Local\Temp","no","mono","no","18","no","white","no","yes","768","legacy","57","11","C:/Users/Matthew/Desktop/subject-4.csv","legacy","9 8 2 7 4","Lentiform Loewenfeld","3.3.9","0","n","0","right","","left","right","NA","702","18769","42280","702","NA","2","legacy","5","1024","2","48000","-16","experiment","4","even","5","508814","133224","505423","506606","5327","156091","506610","335860","5335","510816","507612","511519","47616","510816","NA","Sternberg task","55","61968","70","yes","1024"
"78.8732394366","78.8732394366","881.521126761","881.521126761","black","experiment","legacy","legacy","legacy","0","uniform","1","undefined","1","left","70","0","70","70","0","0","70","70","0","70","70","70","0","70","0","10/17/21 16:31:36","The main experiment item","yes","Sternbergtask.osexp","C:\Users\Matthew\AppData\Local\Temp","no","mono","no","18","no","white","no","yes","768","legacy","58","11","C:/Users/Matthew/Desktop/subject-4.csv","legacy","9 5 3 8 4","Lentiform Loewenfeld","3.3.9","1","y","0","left","","left","left","NA","620","18769","42280","620","NA","2","legacy","5","1024","2","48000","-16","experiment","4","even","9","514917","133224","511529","512708","5327","156091","512713","335860","5335","516919","513715","517541","47616","516919","NA","Sternberg task","56","62588","71","yes","1024"
"79.1666666667","79.1666666667","879.875","879.875","black","experiment","legacy","legacy","legacy","0","uniform","1","undefined","1","right","71","0","71","71","0","0","71","71","0","71","71","71","0","71","0","10/17/21 16:31:36","The main experiment item","yes","Sternbergtask.osexp","C:\Users\Matthew\AppData\Local\Temp","no","mono","no","18","no","white","no","yes","768","legacy","59","11","C:/Users/Matthew/Desktop/subject-4.csv","legacy","4 2 7 6 1 3","Lentiform Loewenfeld","3.3.9","0","n","0","right","","left","right","NA","763","18769","42280","763","NA","2","legacy","6","1024","2","48000","-16","experiment","4","even","8","520936","133224","517559","518728","5327","156091","518732","335860","5335","522938","519734","523704","47616","522938","NA","Sternberg task","57","63351","72","yes","1024"
"79.4520547945","79.4520547945","874.561643836","874.561643836","black","experiment","legacy","legacy","legacy","0","uniform","1","undefined","1","right","72","0","72","72","0","0","72","72","0","72","72","72","0","72","0","10/17/21 16:31:36","The main experiment item","yes","Sternbergtask.osexp","C:\Users\Matthew\AppData\Local\Temp","no","mono","no","18","no","white","no","yes","768","legacy","60","11","C:/Users/Matthew/Desktop/subject-4.csv","legacy","9","Lentiform Loewenfeld","3.3.9","0","n","0","right","","left","right","NA","492","18769","42280","492","NA","2","legacy","1","1024","2","48000","-16","experiment","4","even","6","527094","133224","523713","524886","5327","156091","524889","335860","5335","529096","525892","529590","47616","529096","NA","Sternberg task","58","63843","73","yes","1024"
"79.7297297297","79.7297297297","873.432432432","873.432432432","black","experiment","legacy","legacy","legacy","0","uniform","1","undefined","1","left","73","0","73","73","0","0","73","73","0","73","73","73","0","73","0","10/17/21 16:31:36","The main experiment item","yes","Sternbergtask.osexp","C:\Users\Matthew\AppData\Local\Temp","no","mono","no","18","no","white","no","yes","768","legacy","61","11","C:/Users/Matthew/Desktop/subject-4.csv","legacy","9 3 8 2 1 4","Lentiform Loewenfeld","3.3.9","3","y","0","left","","left","left","NA","791","18769","42280","791","NA","2","legacy","6","1024","2","48000","-16","experiment","4","even","8","532983","133224","529600","530775","5327","156091","530779","335860","5335","534986","531781","535779","47616","534985","NA","Sternberg task","59","64634","74","yes","1024"
"80","80","867.173333333","867.173333333","black","experiment","legacy","legacy","legacy","0","uniform","1","undefined","1","right","74","0","74","74","0","0","74","74","0","74","74","74","0","74","0","10/17/21 16:31:36","The main experiment item","yes","Sternbergtask.osexp","C:\Users\Matthew\AppData\Local\Temp","no","mono","no","18","no","white","no","yes","768","legacy","62","11","C:/Users/Matthew/Desktop/subject-4.csv","legacy","2 5 1 4","Lentiform Loewenfeld","3.3.9","0","n","0","right","","left","right","NA","404","18769","42280","404","NA","2","legacy","4","1024","2","48000","-16","experiment","4","even","6","539171","133224","535792","536963","5327","156091","536967","335860","5335","541174","537969","541581","47616","541174","NA","Sternberg task","60","65038","75","yes","1024"
"80.2631578947","80.2631578947","863.236842105","863.236842105","black","experiment","legacy","legacy","legacy","0","uniform","1","undefined","1","right","75","0","75","75","0","0","75","75","0","75","75","75","0","75","0","10/17/21 16:31:36","The main experiment item","yes","Sternbergtask.osexp","C:\Users\Matthew\AppData\Local\Temp","no","mono","no","18","no","white","no","yes","768","legacy","63","11","C:/Users/Matthew/Desktop/subject-4.csv","legacy","3 4 9 6 7 8","Lentiform Loewenfeld","3.3.9","0","n","0","right","","left","right","NA","568","18769","42280","568","NA","2","legacy","6","1024","2","48000","-16","experiment","4","even","2","544978","133224","541592","542770","5327","156091","542774","335860","5335","546979","543776","547549","47616","546979","NA","Sternberg task","61","65606","76","yes","1024"
"80.5194805195","80.5194805195","864.805194805","864.805194805","black","experiment","legacy","legacy","legacy","0","uniform","1","undefined","1","left","76","0","76","76","0","0","76","76","0","76","76","76","0","76","0","10/17/21 16:31:36","The main experiment item","yes","Sternbergtask.osexp","C:\Users\Matthew\AppData\Local\Temp","no","mono","no","18","no","white","no","yes","768","legacy","64","11","C:/Users/Matthew/Desktop/subject-4.csv","legacy","3 4 9 6 2 9","Lentiform Loewenfeld","3.3.9","5","y","0","left","","left","left","NA","984","18769","42280","984","NA","2","legacy","6","1024","2","48000","-16","experiment","4","even","2","550938","133224","547560","548730","5327","156091","548733","335860","5335","552941","549736","553927","47616","552941","NA","Sternberg task","62","66590","77","yes","1024"
"80.7692307692","80.7692307692","861.576923077","861.576923077","black","experiment","legacy","legacy","legacy","0","uniform","1","undefined","1","left","77","0","77","77","0","0","77","77","0","77","77","77","0","77","0","10/17/21 16:31:36","The main experiment item","yes","Sternbergtask.osexp","C:\Users\Matthew\AppData\Local\Temp","no","mono","no","18","no","white","no","yes","768","legacy","65","11","C:/Users/Matthew/Desktop/subject-4.csv","legacy","9 3 1 2 5","Lentiform Loewenfeld","3.3.9","4","y","0","left","","left","left","NA","613","18769","42280","613","NA","2","legacy","5","1024","2","48000","-16","experiment","4","even","2","557322","133224","553938","555113","5327","156091","555117","335860","5335","559324","556119","559940","47616","559324","NA","Sternberg task","63","67203","78","yes","1024"
"81.0126582278","81.0126582278","862.189873418","862.189873418","black","experiment","legacy","legacy","legacy","0","uniform","1","undefined","1","left","78","0","78","78","0","0","78","78","0","78","78","78","0","78","0","10/17/21 16:31:36","The main experiment item","yes","Sternbergtask.osexp","C:\Users\Matthew\AppData\Local\Temp","no","mono","no","18","no","white","no","yes","768","legacy","66","11","C:/Users/Matthew/Desktop/subject-4.csv","legacy","3 5 9 6 2 4","Lentiform Loewenfeld","3.3.9","1","y","0","left","","left","left","NA","910","18769","42280","910","NA","2","legacy","6","1024","2","48000","-16","experiment","4","even","3","563353","133224","559960","561145","5327","156091","561148","335860","5335","565356","562150","566269","47616","565356","NA","Sternberg task","64","68113","79","yes","1024"
"81.25","81.25","863.2125","863.2125","black","experiment","legacy","legacy","legacy","0","uniform","1","undefined","1","left","79","0","79","79","0","0","79","79","0","79","79","79","0","79","0","10/17/21 16:31:36","The main experiment item","yes","Sternbergtask.osexp","C:\Users\Matthew\AppData\Local\Temp","no","mono","no","18","no","white","no","yes","768","legacy","67","11","C:/Users/Matthew/Desktop/subject-4.csv","legacy","4 6 2 5 1","Lentiform Loewenfeld","3.3.9","5","y","0","left","","left","left","NA","944","18769","42280","944","NA","2","legacy","5","1024","2","48000","-16","experiment","4","even","1","569659","133224","566277","567451","5327","156091","567454","335860","5335","571662","568457","572608","47616","571662","NA","Sternberg task","65","69057","80","yes","1024"
"81.4814814815","81.4814814815","859.864197531","859.864197531","black","experiment","legacy","legacy","legacy","0","uniform","1","undefined","1","left","80","0","80","80","0","0","80","80","0","80","80","80","0","80","0","10/17/21 16:31:36","The main experiment item","yes","Sternbergtask.osexp","C:\Users\Matthew\AppData\Local\Temp","no","mono","no","18","no","white","no","yes","768","legacy","68","11","C:/Users/Matthew/Desktop/subject-4.csv","legacy","8 9 6 1","Lentiform Loewenfeld","3.3.9","2","y","0","left","","left","left","NA","592","18769","42280","592","NA","2","legacy","4","1024","2","48000","-16","experiment","4","even","9","576007","133224","572618","573797","5327","156091","573801","335860","5335","578009","574805","578603","47616","578009","NA","Sternberg task","66","69649","81","yes","1024"
"81.7073170732","81.7073170732","860.512195122","860.512195122","black","experiment","legacy","legacy","legacy","0","uniform","1","undefined","1","right","81","0","81","81","0","0","81","81","0","81","81","81","0","81","0","10/17/21 16:31:36","The main experiment item","yes","Sternbergtask.osexp","C:\Users\Matthew\AppData\Local\Temp","no","mono","no","18","no","white","no","yes","768","legacy","69","11","C:/Users/Matthew/Desktop/subject-4.csv","legacy","8 5 7 3 6","Lentiform Loewenfeld","3.3.9","0","n","0","right","","left","right","NA","913","18769","42280","913","NA","2","legacy","5","1024","2","48000","-16","experiment","4","even","9","582001","133224","578613","579791","5327","156091","579795","335860","5335","584004","580798","584919","47616","584004","NA","Sternberg task","67","70562","82","yes","1024"
"81.9277108434","81.9277108434","858","858","black","experiment","legacy","legacy","legacy","0","uniform","1","undefined","1","left","82","0","82","82","0","0","82","82","0","82","82","82","0","82","0","10/17/21 16:31:36","The main experiment item","yes","Sternbergtask.osexp","C:\Users\Matthew\AppData\Local\Temp","no","mono","no","18","no","white","no","yes","768","legacy","70","11","C:/Users/Matthew/Desktop/subject-4.csv","legacy","7 1 8 5 6 2","Lentiform Loewenfeld","3.3.9","2","y","0","left","","left","left","NA","652","18769","42280","652","NA","2","legacy","6","1024","2","48000","-16","experiment","4","even","1","588313","133224","584932","586105","5327","156091","586108","335860","5335","590315","587110","590970","47616","590315","NA","Sternberg task","68","71214","83","yes","1024"
"82.1428571429","82.1428571429","855.892857143","855.892857143","black","experiment","legacy","legacy","legacy","0","uniform","1","undefined","1","right","83","0","83","83","0","0","83","83","0","83","83","83","0","83","0","10/17/21 16:31:36","The main experiment item","yes","Sternbergtask.osexp","C:\Users\Matthew\AppData\Local\Temp","no","mono","no","18","no","white","no","yes","768","legacy","71","11","C:/Users/Matthew/Desktop/subject-4.csv","legacy","1 5 3 2 8","Lentiform Loewenfeld","3.3.9","0","n","0","right","","left","right","NA","681","18769","42280","681","NA","2","legacy","5","1024","2","48000","-16","experiment","4","even","4","594378","133224","590981","592170","5327","156091","592174","335860","5335","596381","593176","597065","47616","596380","NA","Sternberg task","69","71895","84","yes","1024"
"82.3529411765","82.3529411765","853.282352941","853.282352941","black","experiment","legacy","legacy","legacy","0","uniform","1","undefined","1","left","84","0","84","84","0","0","84","84","0","84","84","84","0","84","0","10/17/21 16:31:36","The main experiment item","yes","Sternbergtask.osexp","C:\Users\Matthew\AppData\Local\Temp","no","mono","no","18","no","white","no","yes","768","legacy","72","11","C:/Users/Matthew/Desktop/subject-4.csv","legacy","4 7 6 8 2 3","Lentiform Loewenfeld","3.3.9","6","y","0","left","","left","left","NA","634","18769","42280","634","NA","2","legacy","6","1024","2","48000","-16","experiment","4","even","3","600463","133224","597076","598255","5327","156091","598259","335860","5335","602465","599261","603101","47616","602465","NA","Sternberg task","70","72529","85","yes","1024"
"82.5581395349","82.5581395349","849.348837209","849.348837209","black","experiment","legacy","legacy","legacy","0","uniform","1","undefined","1","left","85","0","85","85","0","0","85","85","0","85","85","85","0","85","0","10/17/21 16:31:36","The main experiment item","yes","Sternbergtask.osexp","C:\Users\Matthew\AppData\Local\Temp","no","mono","no","18","no","white","no","yes","768","legacy","73","11","C:/Users/Matthew/Desktop/subject-4.csv","legacy","7 6","Lentiform Loewenfeld","3.3.9","2","y","0","left","","left","left","NA","515","18769","42280","515","NA","2","legacy","2","1024","2","48000","-16","experiment","4","even","6","606505","133224","603120","604297","5327","156091","604300","335860","5335","608508","605303","609025","47616","608507","NA","Sternberg task","71","73044","86","yes","1024"
"82.7586206897","82.7586206897","846.114942529","846.114942529","black","experiment","legacy","legacy","legacy","0","uniform","1","undefined","1","left","86","0","86","86","0","0","86","86","0","86","86","86","0","86","0","10/17/21 16:31:36","The main experiment item","yes","Sternbergtask.osexp","C:\Users\Matthew\AppData\Local\Temp","no","mono","no","18","no","white","no","yes","768","legacy","74","11","C:/Users/Matthew/Desktop/subject-4.csv","legacy","2 3","Lentiform Loewenfeld","3.3.9","1","y","0","left","","left","left","NA","568","18769","42280","568","NA","2","legacy","2","1024","2","48000","-16","experiment","4","even","2","612421","133224","609036","610212","5327","156091","610216","335860","5335","614423","611218","614993","47616","614423","NA","Sternberg task","72","73612","87","yes","1024"
"82.9545454545","82.9545454545","844","844","black","experiment","legacy","legacy","legacy","0","uniform","1","undefined","1","left","87","0","87","87","0","0","87","87","0","87","87","87","0","87","0","10/17/21 16:31:36","The main experiment item","yes","Sternbergtask.osexp","C:\Users\Matthew\AppData\Local\Temp","no","mono","no","18","no","white","no","yes","768","legacy","75","11","C:/Users/Matthew/Desktop/subject-4.csv","legacy","9 1 7 2","Lentiform Loewenfeld","3.3.9","2","y","0","left","","left","left","NA","660","18769","42280","660","NA","2","legacy","4","1024","2","48000","-16","experiment","4","even","1","618388","133224","615001","616179","5327","156091","616183","335860","5335","620390","617186","621052","47616","620390","NA","Sternberg task","73","74272","88","yes","1024"
"83.1460674157","83.1460674157","840.359550562","840.359550562","black","experiment","legacy","legacy","legacy","0","uniform","1","undefined","1","left","88","0","88","88","0","0","88","88","0","88","88","88","0","88","0","10/17/21 16:31:36","The main experiment item","yes","Sternbergtask.osexp","C:\Users\Matthew\AppData\Local\Temp","no","mono","no","18","no","white","no","yes","768","legacy","76","11","C:/Users/Matthew/Desktop/subject-4.csv","legacy","8 3","Lentiform Loewenfeld","3.3.9","2","y","0","left","","left","left","NA","520","18769","42280","520","NA","2","legacy","2","1024","2","48000","-16","experiment","4","even","3","624454","133224","621063","622242","5327","156091","622249","335860","5335","626456","623252","626979","47616","626456","NA","Sternberg task","74","74792","89","yes","1024"
"83.3333333333","83.3333333333","836.522222222","836.522222222","black","experiment","legacy","legacy","legacy","0","uniform","1","undefined","1","left","89","0","89","89","0","0","89","89","0","89","89","89","0","89","0","10/17/21 16:31:36","The main experiment item","yes","Sternbergtask.osexp","C:\Users\Matthew\AppData\Local\Temp","no","mono","no","18","no","white","no","yes","768","legacy","77","11","C:/Users/Matthew/Desktop/subject-4.csv","legacy","2 4 8 5 1 3","Lentiform Loewenfeld","3.3.9","1","y","0","left","","left","left","NA","495","18769","42280","495","NA","2","legacy","6","1024","2","48000","-16","experiment","4","even","2","630370","133224","626988","628161","5327","156091","628166","335860","5335","632373","629168","632871","47616","632372","NA","Sternberg task","75","75287","90","yes","1024"
"83.5164835165","83.5164835165","834.615384615","834.615384615","black","experiment","legacy","legacy","legacy","0","uniform","1","undefined","1","left","90","0","90","90","0","0","90","90","0","90","90","90","0","90","0","10/17/21 16:31:36","The main experiment item","yes","Sternbergtask.osexp","C:\Users\Matthew\AppData\Local\Temp","no","mono","no","18","no","white","no","yes","768","legacy","78","11","C:/Users/Matthew/Desktop/subject-4.csv","legacy","4 1 8 7 5","Lentiform Loewenfeld","3.3.9","3","y","0","left","","left","left","NA","663","18769","42280","663","NA","2","legacy","5","1024","2","48000","-16","experiment","4","even","8","636269","133224","632882","634061","5327","156091","634065","335860","5335","638271","635067","638936","47616","638271","NA","Sternberg task","76","75950","91","yes","1024"
"83.6956521739","83.6956521739","833.565217391","833.565217391","black","experiment","legacy","legacy","legacy","0","uniform","1","undefined","1","right","91","0","91","91","0","0","91","91","0","91","91","91","0","91","0","10/17/21 16:31:36","The main experiment item","yes","Sternbergtask.osexp","C:\Users\Matthew\AppData\Local\Temp","no","mono","no","18","no","white","no","yes","768","legacy","79","11","C:/Users/Matthew/Desktop/subject-4.csv","legacy","4 1","Lentiform Loewenfeld","3.3.9","0","n","0","right","","left","right","NA","738","18769","42280","738","NA","2","legacy","2","1024","2","48000","-16","experiment","4","even","6","642334","133224","638946","640126","5327","156091","640129","335860","5335","644336","641131","645076","47616","644336","NA","Sternberg task","77","76688","92","yes","1024"
"83.8709677419","83.8709677419","832.215053763","832.215053763","black","experiment","legacy","legacy","legacy","0","uniform","1","undefined","1","right","92","0","92","92","0","0","92","92","0","92","92","92","0","92","0","10/17/21 16:31:36","The main experiment item","yes","Sternbergtask.osexp","C:\Users\Matthew\AppData\Local\Temp","no","mono","no","18","no","white","no","yes","768","legacy","80","11","C:/Users/Matthew/Desktop/subject-4.csv","legacy","5 3 8 7 2 4","Lentiform Loewenfeld","3.3.9","0","n","0","right","","left","right","NA","708","18769","42280","708","NA","2","legacy","6","1024","2","48000","-16","experiment","4","even","9","648463","133224","645086","646255","5327","156091","646258","335860","5335","650465","647261","651175","47616","650465","NA","Sternberg task","78","77396","93","yes","1024"
"84.0425531915","84.0425531915","831.553191489","831.553191489","black","experiment","legacy","legacy","legacy","0","uniform","1","undefined","1","right","93","0","93","93","0","0","93","93","0","93","93","93","0","93","0","10/17/21 16:31:36","The main experiment item","yes","Sternbergtask.osexp","C:\Users\Matthew\AppData\Local\Temp","no","mono","no","18","no","white","no","yes","768","legacy","81","11","C:/Users/Matthew/Desktop/subject-4.csv","legacy","5 3 2 6 9 8","Lentiform Loewenfeld","3.3.9","0","n","0","right","","left","right","NA","770","18769","42280","770","NA","2","legacy","6","1024","2","48000","-16","experiment","4","even","4","654543","133224","651187","652334","5327","156091","652339","335860","5335","656545","653341","657320","47616","656545","NA","Sternberg task","79","78166","94","yes","1024"
"84.2105263158","84.2105263158","829.168421053","829.168421053","black","experiment","legacy","legacy","legacy","0","uniform","1","undefined","1","right","94","0","94","94","0","0","94","94","0","94","94","94","0","94","0","10/17/21 16:31:36","The main experiment item","yes","Sternbergtask.osexp","C:\Users\Matthew\AppData\Local\Temp","no","mono","no","18","no","white","no","yes","768","legacy","82","11","C:/Users/Matthew/Desktop/subject-4.csv","legacy","6 9 4 5 2","Lentiform Loewenfeld","3.3.9","0","n","0","right","","left","right","NA","605","18769","42280","605","NA","2","legacy","5","1024","2","48000","-16","experiment","4","even","1","660713","133224","657330","658505","5327","156091","658509","335860","5335","662715","659511","663323","47616","662715","NA","Sternberg task","80","78771","95","yes","1024"
"84.375","84.375","826.645833333","826.645833333","black","experiment","legacy","legacy","legacy","0","uniform","1","undefined","1","left","95","0","95","95","0","0","95","95","0","95","95","95","0","95","0","10/17/21 16:31:36","The main experiment item","yes","Sternbergtask.osexp","C:\Users\Matthew\AppData\Local\Temp","no","mono","no","18","no","white","no","yes","768","legacy","83","11","C:/Users/Matthew/Desktop/subject-4.csv","legacy","5 2 6","Lentiform Loewenfeld","3.3.9","2","y","0","left","","left","left","NA","587","18769","42280","587","NA","2","legacy","3","1024","2","48000","-16","experiment","4","even","2","666710","133224","663333","664502","5327","156091","664506","335860","5335","668712","665508","669302","47616","668712","NA","Sternberg task","81","79358","96","yes","1024"
"84.5360824742","84.5360824742","831.845360825","831.845360825","black","experiment","legacy","legacy","legacy","0","uniform","1","undefined","1","right","96","0","96","96","0","0","96","96","0","96","96","96","0","96","0","10/17/21 16:31:36","The main experiment item","yes","Sternbergtask.osexp","C:\Users\Matthew\AppData\Local\Temp","no","mono","no","18","no","white","no","yes","768","legacy","84","11","C:/Users/Matthew/Desktop/subject-4.csv","legacy","8 4 3 5","Lentiform Loewenfeld","3.3.9","0","n","0","right","","left","right","NA","1331","18769","42280","1331","NA","2","legacy","4","1024","2","48000","-16","experiment","4","even","6","672694","133224","669312","670486","5327","156091","670490","335860","5335","674696","671492","676029","47616","674696","NA","Sternberg task","82","80689","97","yes","1024"
"84.693877551","84.693877551","827.357142857","827.357142857","black","experiment","legacy","legacy","legacy","0","uniform","1","undefined","1","right","97","0","97","97","0","0","97","97","0","97","97","97","0","97","0","10/17/21 16:31:36","The main experiment item","yes","Sternbergtask.osexp","C:\Users\Matthew\AppData\Local\Temp","no","mono","no","18","no","white","no","yes","768","legacy","85","11","C:/Users/Matthew/Desktop/subject-4.csv","legacy","5 2","Lentiform Loewenfeld","3.3.9","0","n","0","right","","left","right","NA","392","18769","42280","392","NA","2","legacy","2","1024","2","48000","-16","experiment","4","even","7","679417","133224","676038","677209","5327","156091","677213","335860","5335","681420","678215","681815","47616","681420","NA","Sternberg task","83","81081","98","yes","1024"
"84.8484848485","84.8484848485","823.626262626","823.626262626","black","experiment","legacy","legacy","legacy","0","uniform","1","undefined","1","right","98","0","98","98","0","0","98","98","0","98","98","98","0","98","0","10/17/21 16:31:36","The main experiment item","yes","Sternbergtask.osexp","C:\Users\Matthew\AppData\Local\Temp","no","mono","no","18","no","white","no","yes","768","legacy","86","11","C:/Users/Matthew/Desktop/subject-4.csv","legacy","2 8 6 3 1","Lentiform Loewenfeld","3.3.9","0","n","0","right","","left","right","NA","458","18769","42280","458","NA","2","legacy","5","1024","2","48000","-16","experiment","4","even","7","685208","133224","681824","682999","5327","156091","683003","335860","5335","687210","684006","687671","47616","687210","NA","Sternberg task","84","81539","99","yes","1024"
"85","85","821.16","821.16","black","experiment","legacy","legacy","legacy","0","uniform","1","undefined","1","left","99","0","99","99","0","0","99","99","0","99","99","99","0","99","0","10/17/21 16:31:36","The main experiment item","yes","Sternbergtask.osexp","C:\Users\Matthew\AppData\Local\Temp","no","mono","no","18","no","white","no","yes","768","legacy","87","11","C:/Users/Matthew/Desktop/subject-4.csv","legacy","8 9 5 6 7","Lentiform Loewenfeld","3.3.9","1","y","0","left","","left","left","NA","577","18769","42280","577","NA","2","legacy","5","1024","2","48000","-16","experiment","4","even","8","691059","133224","687682","688852","5327","156091","688855","335860","5335","693061","689857","693641","47616","693061","NA","Sternberg task","85","82116","100","yes","1024"
"85.1485148515","85.1485148515","817.98019802","817.98019802","black","experiment","legacy","legacy","legacy","0","uniform","1","undefined","1","left","100","0","100","100","0","0","100","100","0","100","100","100","0","100","0","10/17/21 16:31:36","The main experiment item","yes","Sternbergtask.osexp","C:\Users\Matthew\AppData\Local\Temp","no","mono","no","18","no","white","no","yes","768","legacy","88","11","C:/Users/Matthew/Desktop/subject-4.csv","legacy","3 4","Lentiform Loewenfeld","3.3.9","1","y","0","left","","left","left","NA","500","18769","42280","500","NA","2","legacy","2","1024","2","48000","-16","experiment","4","even","3","697049","133224","693652","694841","5327","156091","694845","335860","5335","699052","695847","699554","47616","699051","NA","Sternberg task","86","82616","101","yes","1024"
"85.2941176471","85.2941176471","819","819","black","experiment","legacy","legacy","legacy","0","uniform","1","undefined","1","right","101","0","101","101","0","0","101","101","0","101","101","101","0","101","0","10/17/21 16:31:36","The main experiment item","yes","Sternbergtask.osexp","C:\Users\Matthew\AppData\Local\Temp","no","mono","no","18","no","white","no","yes","768","legacy","89","11","C:/Users/Matthew/Desktop/subject-4.csv","legacy","7 1 5 6 3","Lentiform Loewenfeld","3.3.9","0","n","0","right","","left","right","NA","922","18769","42280","922","NA","2","legacy","5","1024","2","48000","-16","experiment","4","even","8","702942","133224","699568","700733","5327","156091","700736","335860","5335","704945","701739","705870","47616","704945","NA","Sternberg task","87","83538","102","yes","1024"
"85.4368932039","85.4368932039","816.533980583","816.533980583","black","experiment","legacy","legacy","legacy","0","uniform","1","undefined","1","left","102","0","102","102","0","0","102","102","0","102","102","102","0","102","0","10/17/21 16:31:36","The main experiment item","yes","Sternbergtask.osexp","C:\Users\Matthew\AppData\Local\Temp","no","mono","no","18","no","white","no","yes","768","legacy","90","11","C:/Users/Matthew/Desktop/subject-4.csv","legacy","7 2 3","Lentiform Loewenfeld","3.3.9","3","y","0","left","","left","left","NA","565","18769","42280","565","NA","2","legacy","3","1024","2","48000","-16","experiment","4","even","3","709260","133224","705881","707053","5327","156091","707056","335860","5335","711262","708058","711830","47616","711262","NA","Sternberg task","88","84103","103","yes","1024"
"85.5769230769","85.5769230769","813.057692308","813.057692308","black","experiment","legacy","legacy","legacy","0","uniform","1","undefined","1","right","103","0","103","103","0","0","103","103","0","103","103","103","0","103","0","10/17/21 16:31:36","The main experiment item","yes","Sternbergtask.osexp","C:\Users\Matthew\AppData\Local\Temp","no","mono","no","18","no","white","no","yes","768","legacy","91","11","C:/Users/Matthew/Desktop/subject-4.csv","legacy","8 4 3 9","Lentiform Loewenfeld","3.3.9","0","n","0","right","","left","right","NA","455","18769","42280","455","NA","2","legacy","4","1024","2","48000","-16","experiment","4","even","5","715237","133224","711845","713028","5327","156091","713032","335860","5335","717240","714035","717697","47616","717239","NA","Sternberg task","89","84558","104","yes","1024"
"85.7142857143","85.7142857143","814.085714286","814.085714286","black","experiment","legacy","legacy","legacy","0","uniform","1","undefined","1","right","104","0","104","104","0","0","104","104","0","104","104","104","0","104","0","10/17/21 16:31:36","The main experiment item","yes","Sternbergtask.osexp","C:\Users\Matthew\AppData\Local\Temp","no","mono","no","18","no","white","no","yes","768","legacy","92","11","C:/Users/Matthew/Desktop/subject-4.csv","legacy","4 8 1 2","Lentiform Loewenfeld","3.3.9","0","n","0","right","","left","right","NA","921","18769","42280","921","NA","2","legacy","4","1024","2","48000","-16","experiment","4","even","7","721093","133224","717707","718885","5327","156091","718889","335860","5335","723095","719891","724018","47616","723095","NA","Sternberg task","90","85479","105","yes","1024"
"85.8490566038","85.8490566038","814","814","black","experiment","legacy","legacy","legacy","0","uniform","1","undefined","1","right","105","0","105","105","0","0","105","105","0","105","105","105","0","105","0","10/17/21 16:31:36","The main experiment item","yes","Sternbergtask.osexp","C:\Users\Matthew\AppData\Local\Temp","no","mono","no","18","no","white","no","yes","768","legacy","93","11","C:/Users/Matthew/Desktop/subject-4.csv","legacy","6 8","Lentiform Loewenfeld","3.3.9","0","n","0","right","","left","right","NA","805","18769","42280","805","NA","2","legacy","2","1024","2","48000","-16","experiment","4","even","9","727404","133224","724029","725196","5327","156091","725199","335860","5335","729406","726202","730213","47616","729406","NA","Sternberg task","91","86284","106","yes","1024"
"85.9813084112","85.9813084112","813.242990654","813.242990654","black","experiment","legacy","legacy","legacy","0","uniform","1","undefined","1","left","106","0","106","106","0","0","106","106","0","106","106","106","0","106","0","10/17/21 16:31:36","The main experiment item","yes","Sternbergtask.osexp","C:\Users\Matthew\AppData\Local\Temp","no","mono","no","18","no","white","no","yes","768","legacy","94","11","C:/Users/Matthew/Desktop/subject-4.csv","legacy","9 4 2","Lentiform Loewenfeld","3.3.9","1","y","0","left","","left","left","NA","733","18769","42280","733","NA","2","legacy","3","1024","2","48000","-16","experiment","4","even","9","733621","133224","730235","731411","5327","156091","731415","335860","5335","735623","732419","736358","47616","735623","NA","Sternberg task","92","87017","107","yes","1024"
"86.1111111111","86.1111111111","813.453703704","813.453703704","black","experiment","legacy","legacy","legacy","0","uniform","1","undefined","1","left","107","0","107","107","0","0","107","107","0","107","107","107","0","107","0","10/17/21 16:31:36","The main experiment item","yes","Sternbergtask.osexp","C:\Users\Matthew\AppData\Local\Temp","no","mono","no","18","no","white","no","yes","768","legacy","95","11","C:/Users/Matthew/Desktop/subject-4.csv","legacy","6 8 9 3 4 9","Lentiform Loewenfeld","3.3.9","5","y","0","left","","left","left","NA","836","18769","42280","836","NA","2","legacy","6","1024","2","48000","-16","experiment","4","even","4","739753","133224","736367","737545","5327","156091","737548","335860","5335","741755","738551","742593","47616","741755","NA","Sternberg task","93","87853","108","yes","1024"
"86.2385321101","86.2385321101","809.605504587","809.605504587","black","experiment","legacy","legacy","legacy","0","uniform","1","undefined","1","left","108","0","108","108","0","0","108","108","0","108","108","108","0","108","0","10/17/21 16:31:36","The main experiment item","yes","Sternbergtask.osexp","C:\Users\Matthew\AppData\Local\Temp","no","mono","no","18","no","white","no","yes","768","legacy","96","11","C:/Users/Matthew/Desktop/subject-4.csv","legacy","8","Lentiform Loewenfeld","3.3.9","1","y","0","left","","left","left","NA","394","18769","42280","394","NA","2","legacy","1","1024","2","48000","-16","experiment","4","even","8","746000","133224","742604","743792","5327","156091","743795","335860","5335","748003","744797","748400","47616","748002","NA","Sternberg task","94","88247","109","yes","1024"
"86.3636363636","86.3636363636","807.736363636","807.736363636","black","experiment","legacy","legacy","legacy","0","uniform","1","undefined","1","left","109","0","109","109","0","0","109","109","0","109","109","109","0","109","0","10/17/21 16:31:36","The main experiment item","yes","Sternbergtask.osexp","C:\Users\Matthew\AppData\Local\Temp","no","mono","no","18","no","white","no","yes","768","legacy","97","11","C:/Users/Matthew/Desktop/subject-4.csv","legacy","4 3 2 5 8","Lentiform Loewenfeld","3.3.9","2","y","0","left","","left","left","NA","604","18769","42280","604","NA","2","legacy","5","1024","2","48000","-16","experiment","4","even","3","751792","133224","748411","749584","5327","156091","749588","335860","5335","753794","750590","754401","47616","753794","NA","Sternberg task","95","88851","110","yes","1024"
"86.4864864865","86.4864864865","806.954954955","806.954954955","black","experiment","legacy","legacy","legacy","0","uniform","1","undefined","1","right","110","0","110","110","0","0","110","110","0","110","110","110","0","110","0","10/17/21 16:31:36","The main experiment item","yes","Sternbergtask.osexp","C:\Users\Matthew\AppData\Local\Temp","no","mono","no","18","no","white","no","yes","768","legacy","98","11","C:/Users/Matthew/Desktop/subject-4.csv","legacy","7 8 6 1","Lentiform Loewenfeld","3.3.9","0","n","0","right","","left","right","NA","721","18769","42280","721","NA","2","legacy","4","1024","2","48000","-16","experiment","4","even","3","757794","133224","754412","755586","5327","156091","755590","335860","5335","759796","756592","760520","47616","759796","NA","Sternberg task","96","89572","111","yes","1024"
"86.6071428571","86.6071428571","806.205357143","806.205357143","black","experiment","legacy","legacy","legacy","0","uniform","1","undefined","1","right","111","0","111","111","0","0","111","111","0","111","111","111","0","111","0","10/17/21 16:31:36","The main experiment item","yes","Sternbergtask.osexp","C:\Users\Matthew\AppData\Local\Temp","no","mono","no","18","no","white","no","yes","768","legacy","99","11","C:/Users/Matthew/Desktop/subject-4.csv","legacy","1 4 9 2 5","Lentiform Loewenfeld","3.3.9","0","n","0","right","","left","right","NA","723","18769","42280","723","NA","2","legacy","5","1024","2","48000","-16","experiment","4","even","7","763928","133224","760531","761721","5327","156091","761724","335860","5335","765930","762726","766656","47616","765930","NA","Sternberg task","97","90295","112","yes","1024"
"86.7256637168","86.7256637168","808.017699115","808.017699115","black","experiment","legacy","legacy","legacy","0","uniform","1","undefined","1","right","112","0","112","112","0","0","112","112","0","112","112","112","0","112","0","10/17/21 16:31:36","The main experiment item","yes","Sternbergtask.osexp","C:\Users\Matthew\AppData\Local\Temp","no","mono","no","18","no","white","no","yes","768","legacy","100","11","C:/Users/Matthew/Desktop/subject-4.csv","legacy","1 3 2 6 9","Lentiform Loewenfeld","3.3.9","0","n","0","right","","left","right","NA","1011","18769","42280","1011","NA","2","legacy","5","1024","2","48000","-16","experiment","4","even","5","770062","133224","766667","767854","5327","156091","767858","335860","5335","772065","768860","773078","47616","772064","NA","Sternberg task","98","91306","113","yes","1024"
"86.8421052632","86.8421052632","806.587719298","806.587719298","black","experiment","legacy","legacy","legacy","0","uniform","1","undefined","1","left","113","0","113","113","0","0","113","113","0","113","113","113","0","113","0","10/17/21 16:31:36","The main experiment item","yes","Sternbergtask.osexp","C:\Users\Matthew\AppData\Local\Temp","no","mono","no","18","no","white","no","yes","768","legacy","101","11","C:/Users/Matthew/Desktop/subject-4.csv","legacy","8 5 1 3 9","Lentiform Loewenfeld","3.3.9","4","y","0","left","","left","left","NA","645","18769","42280","645","NA","2","legacy","5","1024","2","48000","-16","experiment","4","even","3","1160859","133224","773093","774304","5327","156091","1158651","335860","5335","1162863","1159655","1163511","47616","1162863","NA","Sternberg task","99","91951","114","yes","1024"
"86.9565217391","86.9565217391","805.634782609","805.634782609","black","experiment","legacy","legacy","legacy","0","uniform","1","undefined","1","left","114","0","114","114","0","0","114","114","0","114","114","114","0","114","0","10/17/21 16:31:36","The main experiment item","yes","Sternbergtask.osexp","C:\Users\Matthew\AppData\Local\Temp","no","mono","no","18","no","white","no","yes","768","legacy","102","11","C:/Users/Matthew/Desktop/subject-4.csv","legacy","4 9 7 8 5 3","Lentiform Loewenfeld","3.3.9","4","y","0","left","","left","left","NA","697","18769","42280","697","NA","2","legacy","6","1024","2","48000","-16","experiment","4","even","8","1166923","133224","1163521","1164714","5327","156091","1164719","335860","5335","1168925","1165721","1169629","47616","1168925","NA","Sternberg task","100","92648","115","yes","1024"
"87.0689655172","87.0689655172","803.267241379","803.267241379","black","experiment","legacy","legacy","legacy","0","uniform","1","undefined","1","right","115","0","115","115","0","0","115","115","0","115","115","115","0","115","0","10/17/21 16:31:36","The main experiment item","yes","Sternbergtask.osexp","C:\Users\Matthew\AppData\Local\Temp","no","mono","no","18","no","white","no","yes","768","legacy","103","11","C:/Users/Matthew/Desktop/subject-4.csv","legacy","3 9 1","Lentiform Loewenfeld","3.3.9","0","n","0","right","","left","right","NA","531","18769","42280","531","NA","2","legacy","3","1024","2","48000","-16","experiment","4","even","7","1173016","133224","1169646","1170808","5327","156091","1170812","335860","5335","1175019","1171814","1175553","47616","1175018","NA","Sternberg task","101","93179","116","yes","1024"
"87.1794871795","87.1794871795","806.931623932","806.931623932","black","experiment","legacy","legacy","legacy","0","uniform","1","undefined","1","right","116","0","116","116","0","0","116","116","0","116","116","116","0","116","0","10/17/21 16:31:36","The main experiment item","yes","Sternbergtask.osexp","C:\Users\Matthew\AppData\Local\Temp","no","mono","no","18","no","white","no","yes","768","legacy","104","11","C:/Users/Matthew/Desktop/subject-4.csv","legacy","7 1 8 4 9 3","Lentiform Loewenfeld","3.3.9","0","n","0","right","","left","right","NA","1232","18769","42280","1232","NA","2","legacy","6","1024","2","48000","-16","experiment","4","even","6","1178949","133224","1175563","1176742","5327","156091","1176745","335860","5335","1180951","1177747","1182185","47616","1180951","NA","Sternberg task","102","94411","117","yes","1024"
"87.2881355932","87.2881355932","805.423728814","805.423728814","black","experiment","legacy","legacy","legacy","0","uniform","1","undefined","1","left","117","0","117","117","0","0","117","117","0","117","117","117","0","117","0","10/17/21 16:31:36","The main experiment item","yes","Sternbergtask.osexp","C:\Users\Matthew\AppData\Local\Temp","no","mono","no","18","no","white","no","yes","768","legacy","105","11","C:/Users/Matthew/Desktop/subject-4.csv","legacy","5 2 9 6 1 7","Lentiform Loewenfeld","3.3.9","3","y","0","left","","left","left","NA","629","18769","42280","629","NA","2","legacy","6","1024","2","48000","-16","experiment","4","even","9","1185574","133224","1182196","1183366","5327","156091","1183369","335860","5335","1187576","1184372","1188208","47616","1187576","NA","Sternberg task","103","95040","118","yes","1024"
"87.3949579832","87.3949579832","803.478991597","803.478991597","black","experiment","legacy","legacy","legacy","0","uniform","1","undefined","1","right","118","0","118","118","0","0","118","118","0","118","118","118","0","118","0","10/17/21 16:31:36","The main experiment item","yes","Sternbergtask.osexp","C:\Users\Matthew\AppData\Local\Temp","no","mono","no","18","no","white","no","yes","768","legacy","106","11","C:/Users/Matthew/Desktop/subject-4.csv","legacy","6 9 5","Lentiform Loewenfeld","3.3.9","0","n","0","right","","left","right","NA","574","18769","42280","574","NA","2","legacy","3","1024","2","48000","-16","experiment","4","even","8","1191597","133224","1188219","1189388","5327","156091","1189392","335860","5335","1193600","1190394","1194176","47616","1193599","NA","Sternberg task","104","95614","119","yes","1024"
"86.6666666667","86.6666666667","801.408333333","801.408333333","black","experiment","legacy","legacy","legacy","0","uniform","0","undefined","0","left","119","0","119","119","0","0","119","119","0","119","119","119","0","119","0","10/17/21 16:31:36","The main experiment item","yes","Sternbergtask.osexp","C:\Users\Matthew\AppData\Local\Temp","no","mono","no","18","no","white","no","yes","768","legacy","107","11","C:/Users/Matthew/Desktop/subject-4.csv","legacy","7 8 4 6 9 5","Lentiform Loewenfeld","3.3.9","4","y","0","right","","left","right","NA","555","18769","42280","555","NA","2","legacy","6","1024","2","48000","-16","experiment","4","even","6","1197589","133224","1194186","1195382","5327","156091","1195385","335860","5335","1199591","1196387","1200149","47616","1199591","NA","Sternberg task","104","96169","120","yes","1024"
"86.7768595041","86.7768595041","799.033057851","799.033057851","black","experiment","legacy","legacy","legacy","0","uniform","1","undefined","1","left","120","0","120","120","0","0","120","120","0","120","120","120","0","120","0","10/17/21 16:31:36","The main experiment item","yes","Sternbergtask.osexp","C:\Users\Matthew\AppData\Local\Temp","no","mono","no","18","no","white","no","yes","768","legacy","108","11","C:/Users/Matthew/Desktop/subject-4.csv","legacy","8 7 3","Lentiform Loewenfeld","3.3.9","1","y","0","left","","left","left","NA","514","18769","42280","514","NA","2","legacy","3","1024","2","48000","-16","experiment","4","even","8","1203551","133224","1194186","1201342","5327","156091","1201346","1200159","5335","1205554","1202349","1206071","47616","1205553","NA","Sternberg task","105","96683","121","yes","1024"
