"acc","accuracy","average_response_time","avg_rt","background","block","canvas_backend","clock_backend","color_backend","correct","correct_instruction1","correct_keyboard_response","correct_response","count_ISI","count_PracticeLoop","count_correctFeedback","count_exSequence","count_experiment","count_experimentLoop","count_fixation","count_incorrectFeedback","count_instruction1","count_instructions2","count_keyboard_response","count_logger","count_memorySet","count_probe","count_thankYou","datetime","description","disable_garbage_collection","experiment_file","experiment_path","font_bold","font_family","font_italic","font_size","font_underline","foreground","form_clicks","fullscreen","height","keyboard_backend","live_row","live_row_PracticeLoop","logfile","mouse_backend","numberSet","opensesame_codename","opensesame_version","posInSet","present","repeat_cycle","response","response_instruction1","response_instructions2","response_keyboard_response","response_thankYou","response_time","response_time_instruction1","response_time_instructions2","response_time_keyboard_response","response_time_thankYou","round_decimals","sampler_backend","setSize","sound_buf_size","sound_channels","sound_freq","sound_sample_size","start","subject_nr","subject_parity","target","time_ISI","time_PracticeLoop","time_correctFeedback","time_exSequence","time_experiment","time_experimentLoop","time_fixation","time_incorrectFeedback","time_instruction1","time_instructions2","time_keyboard_response","time_logger","time_memorySet","time_probe","time_thankYou","title","total_correct","total_response_time","total_responses","width"
"100","100","1474","1474","black","practice","legacy","legacy","legacy","1","undefined","1","left","0","0","0","0","0","0","0","0","0","0","0","0","0","0","0","Tue Oct 17 16:10:19 2023","The main experiment item","True","SternbergTask.osexp","/Users/baileymcwhirter","False","mono","False","18","no","white","no","yes","768","legacy","0","0","/Users/baileymcwhirter/BMsubject-4.csv","legacy","2 9 4","Melodramatic Milgram","4.0.5","3","y","0","left","right","NA","left","NA","1474.0","34137","NA","1474","NA","2","legacy","3","1024","2","48000","-16","experiment","4","even","4","39746","36758","NA","37533","2454","NA","37536","NA","2529","NA","41749","43224","38541","41749","NA","Sternberg Task","1","1474.0","1","1024"
"100","100","1449","1449","black","practice","legacy","legacy","legacy","1","undefined","1","right","1","0","1","1","0","0","1","1","0","0","1","1","1","1","0","Tue Oct 17 16:10:19 2023","The main experiment item","True","SternbergTask.osexp","/Users/baileymcwhirter","False","mono","False","18","no","white","no","yes","768","legacy","1","1","/Users/baileymcwhirter/BMsubject-4.csv","legacy","2 1","Melodramatic Milgram","4.0.5","0","n","0","right","right","NA","right","NA","1425.0","34137","NA","1425","NA","2","legacy","2","1024","2","48000","-16","experiment","4","even","5","46504","36758","43251","44291","2454","NA","44294","NA","2529","NA","48517","49942","45297","48517","NA","Sternberg Task","2","2899.0","2","1024"
"100","100","1233","1233","black","practice","legacy","legacy","legacy","1","undefined","1","left","2","0","2","2","0","0","2","2","0","0","2","2","2","2","0","Tue Oct 17 16:10:19 2023","The main experiment item","True","SternbergTask.osexp","/Users/baileymcwhirter","False","mono","False","18","no","white","no","yes","768","legacy","2","2","/Users/baileymcwhirter/BMsubject-4.csv","legacy","4 8","Melodramatic Milgram","4.0.5","1","y","0","left","right","NA","left","NA","802.0","34137","NA","802","NA","2","legacy","2","1024","2","48000","-16","experiment","4","even","4","53197","36758","49946","50987","2454","NA","50989","NA","2529","NA","55199","56001","51992","55199","NA","Sternberg Task","3","3701.0","3","1024"
"100","100","1134","1134","black","practice","legacy","legacy","legacy","1","undefined","1","right","3","0","3","3","0","0","3","3","0","0","3","3","3","3","0","Tue Oct 17 16:10:19 2023","The main experiment item","True","SternbergTask.osexp","/Users/baileymcwhirter","False","mono","False","18","no","white","no","yes","768","legacy","3","3","/Users/baileymcwhirter/BMsubject-4.csv","legacy","5","Melodramatic Milgram","4.0.5","0","n","0","right","right","NA","right","NA","836.0","34137","NA","836","NA","2","legacy","1","1024","2","48000","-16","experiment","4","even","3","59258","36758","56004","57046","2454","NA","57048","NA","2529","NA","61260","62096","58052","61260","NA","Sternberg Task","4","4537.0","4","1024"
"100","100","1113","1113","black","practice","legacy","legacy","legacy","1","undefined","1","left","4","0","4","4","0","0","4","4","0","0","4","4","4","4","0","Tue Oct 17 16:10:19 2023","The main experiment item","True","SternbergTask.osexp","/Users/baileymcwhirter","False","mono","False","18","no","white","no","yes","768","legacy","4","4","/Users/baileymcwhirter/BMsubject-4.csv","legacy","1 7 9 8 5","Melodramatic Milgram","4.0.5","4","y","0","left","right","NA","left","NA","1030.0","34137","NA","1030","NA","2","legacy","5","1024","2","48000","-16","experiment","4","even","8","65353","36758","62100","63140","2454","NA","63143","NA","2529","NA","67359","68390","64147","67358","NA","Sternberg Task","5","5567.0","5","1024"
"100","100","1097","1097","black","practice","legacy","legacy","legacy","1","undefined","1","left","5","0","5","5","0","0","5","5","0","0","5","5","5","5","0","Tue Oct 17 16:10:19 2023","The main experiment item","True","SternbergTask.osexp","/Users/baileymcwhirter","False","mono","False","18","no","white","no","yes","768","legacy","5","5","/Users/baileymcwhirter/BMsubject-4.csv","legacy","4 3 1 7 9 8","Melodramatic Milgram","4.0.5","1","y","0","left","right","NA","left","NA","1017.0","34137","NA","1017","NA","2","legacy","6","1024","2","48000","-16","experiment","4","even","4","71642","36758","68393","69429","2454","NA","69432","NA","2529","NA","73644","74661","70437","73644","NA","Sternberg Task","6","6584.0","6","1024"
"100","100","1029","1029","black","practice","legacy","legacy","legacy","1","undefined","1","left","6","0","6","6","0","0","6","6","0","0","6","6","6","6","0","Tue Oct 17 16:10:19 2023","The main experiment item","True","SternbergTask.osexp","/Users/baileymcwhirter","False","mono","False","18","no","white","no","yes","768","legacy","6","6","/Users/baileymcwhirter/BMsubject-4.csv","legacy","1 5 2 9","Melodramatic Milgram","4.0.5","2","y","0","left","right","NA","left","NA","620.0","34137","NA","620","NA","2","legacy","4","1024","2","48000","-16","experiment","4","even","5","77917","36758","74664","75707","2454","NA","75709","NA","2529","NA","79919","80540","76711","79919","NA","Sternberg Task","7","7204.0","7","1024"
"100","100","1016","1016","black","practice","legacy","legacy","legacy","1","undefined","1","right","7","0","7","7","0","0","7","7","0","0","7","7","7","7","0","Tue Oct 17 16:10:19 2023","The main experiment item","True","SternbergTask.osexp","/Users/baileymcwhirter","False","mono","False","18","no","white","no","yes","768","legacy","7","7","/Users/baileymcwhirter/BMsubject-4.csv","legacy","3 1 9 4","Melodramatic Milgram","4.0.5","0","n","0","right","right","NA","right","NA","931.0","34137","NA","931","NA","2","legacy","4","1024","2","48000","-16","experiment","4","even","6","83786","36758","80543","81574","2454","NA","81576","NA","2529","NA","85788","86719","82581","85788","NA","Sternberg Task","8","8135.0","8","1024"
"100","100","999","999","black","practice","legacy","legacy","legacy","1","undefined","1","right","8","0","8","8","0","0","8","8","0","0","8","8","8","8","0","Tue Oct 17 16:10:19 2023","The main experiment item","True","SternbergTask.osexp","/Users/baileymcwhirter","False","mono","False","18","no","white","no","yes","768","legacy","8","8","/Users/baileymcwhirter/BMsubject-4.csv","legacy","5 7 8 4 1 2","Melodramatic Milgram","4.0.5","0","n","0","right","right","NA","right","NA","860.0","34137","NA","860","NA","2","legacy","6","1024","2","48000","-16","experiment","4","even","6","89976","36758","86722","87761","2454","NA","87764","NA","2529","NA","91979","92840","88769","91979","NA","Sternberg Task","9","8995.0","9","1024"
"90","90","959","959","black","practice","legacy","legacy","legacy","0","undefined","0","left","9","0","9","9","0","0","9","9","0","0","9","9","9","9","0","Tue Oct 17 16:10:19 2023","The main experiment item","True","SternbergTask.osexp","/Users/baileymcwhirter","False","mono","False","18","no","white","no","yes","768","legacy","9","9","/Users/baileymcwhirter/BMsubject-4.csv","legacy","6","Melodramatic Milgram","4.0.5","1","y","0","right","right","NA","right","NA","600.0","34137","NA","600","NA","2","legacy","1","1024","2","48000","-16","experiment","4","even","6","96098","36758","92843","93885","2454","NA","93887","NA","2529","NA","98100","98701","94891","98100","NA","Sternberg Task","9","9595.0","10","1024"
"90","90","942","942","black","practice","legacy","legacy","legacy","1","undefined","1","right","10","0","10","10","0","0","10","10","0","0","10","10","10","10","0","Tue Oct 17 16:10:19 2023","The main experiment item","True","SternbergTask.osexp","/Users/baileymcwhirter","False","mono","False","18","no","white","no","yes","768","legacy","10","10","/Users/baileymcwhirter/BMsubject-4.csv","legacy","9 6 7 4 5","Melodramatic Milgram","4.0.5","0","n","0","right","right","NA","right","NA","771.0","34137","NA","771","NA","2","legacy","5","1024","2","48000","-16","experiment","4","even","3","101959","36758","92843","99747","2454","NA","99750","98703","2529","NA","103961","104733","100754","103961","NA","Sternberg Task","10","10366.0","11","1024"
"91","91","937","937","black","practice","legacy","legacy","legacy","1","undefined","1","right","11","0","11","11","0","0","11","11","0","0","11","11","11","11","0","Tue Oct 17 16:10:19 2023","The main experiment item","True","SternbergTask.osexp","/Users/baileymcwhirter","False","mono","False","18","no","white","no","yes","768","legacy","11","11","/Users/baileymcwhirter/BMsubject-4.csv","legacy","4 1 5","Melodramatic Milgram","4.0.5","0","n","0","right","right","NA","right","NA","886.0","34137","NA","886","NA","2","legacy","3","1024","2","48000","-16","experiment","4","even","2","107986","36758","104736","105775","2454","NA","105777","98703","2529","NA","109989","110876","106780","109989","NA","Sternberg Task","11","11252.0","12","1024"
"92","92","943","943","black","experiment","legacy","legacy","legacy","1","undefined","1","left","12","0","12","12","0","0","12","12","0","0","12","12","12","12","0","Tue Oct 17 16:10:19 2023","The main experiment item","True","SternbergTask.osexp","/Users/baileymcwhirter","False","mono","False","18","no","white","no","yes","768","legacy","0","11","/Users/baileymcwhirter/BMsubject-4.csv","legacy","4 9 7 8 5 3","Melodramatic Milgram","4.0.5","4","y","0","left","right","right","left","NA","1016.0","34137","5612","1016","NA","2","legacy","6","1024","2","48000","-16","experiment","4","even","8","119759","36758","110878","117544","2454","117494","117546","98703","2529","111881","121761","122777","118553","121761","NA","Sternberg Task","12","12268.0","13","1024"
"92","92","931","931","black","experiment","legacy","legacy","legacy","1","undefined","1","left","13","0","13","13","0","0","13","13","0","0","13","13","13","13","0","Tue Oct 17 16:10:19 2023","The main experiment item","True","SternbergTask.osexp","/Users/baileymcwhirter","False","mono","False","18","no","white","no","yes","768","legacy","1","11","/Users/baileymcwhirter/BMsubject-4.csv","legacy","2 6 1 7 4","Melodramatic Milgram","4.0.5","2","y","0","left","right","right","left","NA","773.0","34137","5612","773","NA","2","legacy","5","1024","2","48000","-16","experiment","4","even","6","126042","36758","122781","123828","2454","117494","123830","98703","2529","111881","128044","128818","124835","128044","NA","Sternberg Task","13","13041.0","14","1024"
"93","93","918","918","black","experiment","legacy","legacy","legacy","1","undefined","1","left","14","0","14","14","0","0","14","14","0","0","14","14","14","14","0","Tue Oct 17 16:10:19 2023","The main experiment item","True","SternbergTask.osexp","/Users/baileymcwhirter","False","mono","False","18","no","white","no","yes","768","legacy","2","11","/Users/baileymcwhirter/BMsubject-4.csv","legacy","3 4 9 6 2 9","Melodramatic Milgram","4.0.5","5","y","0","left","right","right","left","NA","743.0","34137","5612","743","NA","2","legacy","6","1024","2","48000","-16","experiment","4","even","2","132073","36758","128821","129861","2454","117494","129864","98703","2529","111881","134076","134819","130866","134076","NA","Sternberg Task","14","13784.0","15","1024"
"93","93","910","910","black","experiment","legacy","legacy","legacy","1","undefined","1","left","15","0","15","15","0","0","15","15","0","0","15","15","15","15","0","Tue Oct 17 16:10:19 2023","The main experiment item","True","SternbergTask.osexp","/Users/baileymcwhirter","False","mono","False","18","no","white","no","yes","768","legacy","3","11","/Users/baileymcwhirter/BMsubject-4.csv","legacy","9 3 8 2 1 4","Melodramatic Milgram","4.0.5","3","y","0","left","right","right","left","NA","786.0","34137","5612","786","NA","2","legacy","6","1024","2","48000","-16","experiment","4","even","8","138072","36758","134822","135860","2454","117494","135862","98703","2529","111881","140075","140861","136865","140075","NA","Sternberg Task","15","14570.0","16","1024"
"94","94","894","894","black","experiment","legacy","legacy","legacy","1","undefined","1","right","16","0","16","16","0","0","16","16","0","0","16","16","16","16","0","Tue Oct 17 16:10:19 2023","The main experiment item","True","SternbergTask.osexp","/Users/baileymcwhirter","False","mono","False","18","no","white","no","yes","768","legacy","4","11","/Users/baileymcwhirter/BMsubject-4.csv","legacy","2 8 9 4 1","Melodramatic Milgram","4.0.5","0","n","0","right","right","right","right","NA","632.0","34137","5612","632","NA","2","legacy","5","1024","2","48000","-16","experiment","4","even","5","144104","36758","140864","141895","2454","117494","141897","98703","2529","111881","146106","146739","142899","146106","NA","Sternberg Task","16","15202.0","17","1024"
"94","94","888","888","black","experiment","legacy","legacy","legacy","1","undefined","1","right","17","0","17","17","0","0","17","17","0","0","17","17","17","17","0","Tue Oct 17 16:10:19 2023","The main experiment item","True","SternbergTask.osexp","/Users/baileymcwhirter","False","mono","False","18","no","white","no","yes","768","legacy","5","11","/Users/baileymcwhirter/BMsubject-4.csv","legacy","9 7 4 5 8","Melodramatic Milgram","4.0.5","0","n","0","right","right","right","right","NA","791.0","34137","5612","791","NA","2","legacy","5","1024","2","48000","-16","experiment","4","even","6","149982","36758","146741","147773","2454","117494","147775","98703","2529","111881","151984","152776","148778","151984","NA","Sternberg Task","17","15993.0","18","1024"
"94","94","882","882","black","experiment","legacy","legacy","legacy","1","undefined","1","left","18","0","18","18","0","0","18","18","0","0","18","18","18","18","0","Tue Oct 17 16:10:19 2023","The main experiment item","True","SternbergTask.osexp","/Users/baileymcwhirter","False","mono","False","18","no","white","no","yes","768","legacy","6","11","/Users/baileymcwhirter/BMsubject-4.csv","legacy","8 3","Melodramatic Milgram","4.0.5","2","y","0","left","right","right","left","NA","766.0","34137","5612","766","NA","2","legacy","2","1024","2","48000","-16","experiment","4","even","3","156022","36758","152779","153811","2454","117494","153813","98703","2529","111881","158026","158793","154815","158025","NA","Sternberg Task","18","16759.0","19","1024"
"95","95","876","876","black","experiment","legacy","legacy","legacy","1","undefined","1","left","19","0","19","19","0","0","19","19","0","0","19","19","19","19","0","Tue Oct 17 16:10:19 2023","The main experiment item","True","SternbergTask.osexp","/Users/baileymcwhirter","False","mono","False","18","no","white","no","yes","768","legacy","7","11","/Users/baileymcwhirter/BMsubject-4.csv","legacy","4 1 8 7 5","Melodramatic Milgram","4.0.5","3","y","0","left","right","right","left","NA","773.0","34137","5612","773","NA","2","legacy","5","1024","2","48000","-16","experiment","4","even","8","162041","36758","158796","159831","2454","117494","159833","98703","2529","111881","164043","164817","160836","164042","NA","Sternberg Task","19","17532.0","20","1024"
"95","95","867","867","black","experiment","legacy","legacy","legacy","1","undefined","1","left","20","0","20","20","0","0","20","20","0","0","20","20","20","20","0","Tue Oct 17 16:10:19 2023","The main experiment item","True","SternbergTask.osexp","/Users/baileymcwhirter","False","mono","False","18","no","white","no","yes","768","legacy","8","11","/Users/baileymcwhirter/BMsubject-4.csv","legacy","7 6","Melodramatic Milgram","4.0.5","2","y","0","left","right","right","left","NA","677.0","34137","5612","677","NA","2","legacy","2","1024","2","48000","-16","experiment","4","even","6","168061","36758","164820","165848","2454","117494","165850","98703","2529","111881","170065","170743","166856","170065","NA","Sternberg Task","20","18209.0","21","1024"
"95","95","861","861","black","experiment","legacy","legacy","legacy","1","undefined","1","left","21","0","21","21","0","0","21","21","0","0","21","21","21","21","0","Tue Oct 17 16:10:19 2023","The main experiment item","True","SternbergTask.osexp","/Users/baileymcwhirter","False","mono","False","18","no","white","no","yes","768","legacy","9","11","/Users/baileymcwhirter/BMsubject-4.csv","legacy","3 5 9 6 2 4","Melodramatic Milgram","4.0.5","1","y","0","left","right","right","left","NA","738.0","34137","5612","738","NA","2","legacy","6","1024","2","48000","-16","experiment","4","even","3","173992","36758","170746","171780","2454","117494","171782","98703","2529","111881","175994","176732","172787","175994","NA","Sternberg Task","21","18947.0","22","1024"
"95","95","856","856","black","experiment","legacy","legacy","legacy","1","undefined","1","left","22","0","22","22","0","0","22","22","0","0","22","22","22","22","0","Tue Oct 17 16:10:19 2023","The main experiment item","True","SternbergTask.osexp","/Users/baileymcwhirter","False","mono","False","18","no","white","no","yes","768","legacy","10","11","/Users/baileymcwhirter/BMsubject-4.csv","legacy","9 5 3 8 4","Melodramatic Milgram","4.0.5","1","y","0","left","right","right","left","NA","757.0","34137","5612","757","NA","2","legacy","5","1024","2","48000","-16","experiment","4","even","9","179980","36758","176735","177765","2454","117494","177767","98703","2529","111881","181984","182742","178773","181984","NA","Sternberg Task","22","19704.0","23","1024"
"95","95","853","853","black","experiment","legacy","legacy","legacy","1","undefined","1","left","23","0","23","23","0","0","23","23","0","0","23","23","23","23","0","Tue Oct 17 16:10:19 2023","The main experiment item","True","SternbergTask.osexp","/Users/baileymcwhirter","False","mono","False","18","no","white","no","yes","768","legacy","11","11","/Users/baileymcwhirter/BMsubject-4.csv","legacy","6 7 9 3 1 2","Melodramatic Milgram","4.0.5","1","y","0","left","right","right","left","NA","772.0","34137","5612","772","NA","2","legacy","6","1024","2","48000","-16","experiment","4","even","6","185990","36758","182744","183779","2454","117494","183781","98703","2529","111881","187992","188765","184784","187992","NA","Sternberg Task","23","20476.0","24","1024"
"96","96","841","841","black","experiment","legacy","legacy","legacy","1","undefined","1","right","24","0","24","24","0","0","24","24","0","0","24","24","24","24","0","Tue Oct 17 16:10:19 2023","The main experiment item","True","SternbergTask.osexp","/Users/baileymcwhirter","False","mono","False","18","no","white","no","yes","768","legacy","12","11","/Users/baileymcwhirter/BMsubject-4.csv","legacy","8 9","Melodramatic Milgram","4.0.5","0","n","0","right","right","right","right","NA","568.0","34137","5612","568","NA","2","legacy","2","1024","2","48000","-16","experiment","4","even","5","192010","36758","188768","189798","2454","117494","189801","98703","2529","111881","194013","194582","190804","194013","NA","Sternberg Task","24","21044.0","25","1024"
"96","96","836","836","black","experiment","legacy","legacy","legacy","1","undefined","1","left","25","0","25","25","0","0","25","25","0","0","25","25","25","25","0","Tue Oct 17 16:10:19 2023","The main experiment item","True","SternbergTask.osexp","/Users/baileymcwhirter","False","mono","False","18","no","white","no","yes","768","legacy","13","11","/Users/baileymcwhirter/BMsubject-4.csv","legacy","4 6 5 8","Melodramatic Milgram","4.0.5","1","y","0","left","right","right","left","NA","700.0","34137","5612","700","NA","2","legacy","4","1024","2","48000","-16","experiment","4","even","4","197824","36758","194584","195614","2454","117494","195617","98703","2529","111881","199826","200527","196619","199826","NA","Sternberg Task","25","21744.0","26","1024"
"96","96","837","837","black","experiment","legacy","legacy","legacy","1","undefined","1","right","26","0","26","26","0","0","26","26","0","0","26","26","26","26","0","Tue Oct 17 16:10:19 2023","The main experiment item","True","SternbergTask.osexp","/Users/baileymcwhirter","False","mono","False","18","no","white","no","yes","768","legacy","14","11","/Users/baileymcwhirter/BMsubject-4.csv","legacy","4 2 7 6 1 3","Melodramatic Milgram","4.0.5","0","n","0","right","right","right","right","NA","866.0","34137","5612","866","NA","2","legacy","6","1024","2","48000","-16","experiment","4","even","8","203771","36758","200530","201559","2454","117494","201561","98703","2529","111881","205772","206639","202565","205772","NA","Sternberg Task","26","22610.0","27","1024"
"96","96","834","834","black","experiment","legacy","legacy","legacy","1","undefined","1","left","27","0","27","27","0","0","27","27","0","0","27","27","27","27","0","Tue Oct 17 16:10:19 2023","The main experiment item","True","SternbergTask.osexp","/Users/baileymcwhirter","False","mono","False","18","no","white","no","yes","768","legacy","15","11","/Users/baileymcwhirter/BMsubject-4.csv","legacy","6 7 8 5","Melodramatic Milgram","4.0.5","3","y","0","left","right","right","left","NA","762.0","34137","5612","762","NA","2","legacy","4","1024","2","48000","-16","experiment","4","even","8","209897","36758","206642","207685","2454","117494","207688","98703","2529","111881","211900","212663","208690","211900","NA","Sternberg Task","27","23372.0","28","1024"
"96","96","830","830","black","experiment","legacy","legacy","legacy","1","undefined","1","right","28","0","28","28","0","0","28","28","0","0","28","28","28","28","0","Tue Oct 17 16:10:19 2023","The main experiment item","True","SternbergTask.osexp","/Users/baileymcwhirter","False","mono","False","18","no","white","no","yes","768","legacy","16","11","/Users/baileymcwhirter/BMsubject-4.csv","legacy","7 6 4 8 1 2","Melodramatic Milgram","4.0.5","0","n","0","right","right","right","right","NA","707.0","34137","5612","707","NA","2","legacy","6","1024","2","48000","-16","experiment","4","even","9","215922","36758","212665","213709","2454","117494","213712","98703","2529","111881","217925","218632","214716","217925","NA","Sternberg Task","28","24079.0","29","1024"
"96","96","838","838","black","experiment","legacy","legacy","legacy","1","undefined","1","left","29","0","29","29","0","0","29","29","0","0","29","29","29","29","0","Tue Oct 17 16:10:19 2023","The main experiment item","True","SternbergTask.osexp","/Users/baileymcwhirter","False","mono","False","18","no","white","no","yes","768","legacy","17","11","/Users/baileymcwhirter/BMsubject-4.csv","legacy","5 7 3 6 2","Melodramatic Milgram","4.0.5","5","y","0","left","right","right","left","NA","1088.0","34137","5612","1088","NA","2","legacy","5","1024","2","48000","-16","experiment","4","even","2","221887","36758","218635","219676","2454","117494","219678","98703","2529","111881","223889","224978","220683","223889","NA","Sternberg Task","29","25167.0","30","1024"
"96","96","838","838","black","experiment","legacy","legacy","legacy","1","undefined","1","right","30","0","30","30","0","0","30","30","0","0","30","30","30","30","0","Tue Oct 17 16:10:19 2023","The main experiment item","True","SternbergTask.osexp","/Users/baileymcwhirter","False","mono","False","18","no","white","no","yes","768","legacy","18","11","/Users/baileymcwhirter/BMsubject-4.csv","legacy","4 2 6 9","Melodramatic Milgram","4.0.5","0","n","0","right","right","right","right","NA","818.0","34137","5612","818","NA","2","legacy","4","1024","2","48000","-16","experiment","4","even","7","228236","36758","224980","226025","2454","117494","226027","98703","2529","111881","230238","231056","227030","230238","NA","Sternberg Task","30","25985.0","31","1024"
"96","96","835","835","black","experiment","legacy","legacy","legacy","1","undefined","1","left","31","0","31","31","0","0","31","31","0","0","31","31","31","31","0","Tue Oct 17 16:10:19 2023","The main experiment item","True","SternbergTask.osexp","/Users/baileymcwhirter","False","mono","False","18","no","white","no","yes","768","legacy","19","11","/Users/baileymcwhirter/BMsubject-4.csv","legacy","8 9 6 1","Melodramatic Milgram","4.0.5","2","y","0","left","right","right","left","NA","750.0","34137","5612","750","NA","2","legacy","4","1024","2","48000","-16","experiment","4","even","9","234313","36758","231059","232101","2454","117494","232103","98703","2529","111881","236315","237065","233108","236315","NA","Sternberg Task","31","26735.0","32","1024"
"96","96","835","835","black","experiment","legacy","legacy","legacy","1","undefined","1","left","32","0","32","32","0","0","32","32","0","0","32","32","32","32","0","Tue Oct 17 16:10:19 2023","The main experiment item","True","SternbergTask.osexp","/Users/baileymcwhirter","False","mono","False","18","no","white","no","yes","768","legacy","20","11","/Users/baileymcwhirter/BMsubject-4.csv","legacy","7 8 4 6 9 5","Melodramatic Milgram","4.0.5","4","y","0","left","right","right","left","NA","835.0","34137","5612","835","NA","2","legacy","6","1024","2","48000","-16","experiment","4","even","6","240321","36758","237068","238111","2454","117494","238113","98703","2529","111881","242323","243159","239116","242323","NA","Sternberg Task","32","27570.0","33","1024"
"97","97","831","831","black","experiment","legacy","legacy","legacy","1","undefined","1","left","33","0","33","33","0","0","33","33","0","0","33","33","33","33","0","Tue Oct 17 16:10:19 2023","The main experiment item","True","SternbergTask.osexp","/Users/baileymcwhirter","False","mono","False","18","no","white","no","yes","768","legacy","21","11","/Users/baileymcwhirter/BMsubject-4.csv","legacy","2 4 6 9","Melodramatic Milgram","4.0.5","3","y","0","left","right","right","left","NA","714.0","34137","5612","714","NA","2","legacy","4","1024","2","48000","-16","experiment","4","even","6","246411","36758","243161","244200","2454","117494","244202","98703","2529","111881","248414","249128","245205","248414","NA","Sternberg Task","33","28284.0","34","1024"
"97","97","826","826","black","experiment","legacy","legacy","legacy","1","undefined","1","left","34","0","34","34","0","0","34","34","0","0","34","34","34","34","0","Tue Oct 17 16:10:19 2023","The main experiment item","True","SternbergTask.osexp","/Users/baileymcwhirter","False","mono","False","18","no","white","no","yes","768","legacy","22","11","/Users/baileymcwhirter/BMsubject-4.csv","legacy","2 4 8 5 1 3","Melodramatic Milgram","4.0.5","1","y","0","left","right","right","left","NA","650.0","34137","5612","650","NA","2","legacy","6","1024","2","48000","-16","experiment","4","even","2","252370","36758","249131","250161","2454","117494","250164","98703","2529","111881","254372","255023","251166","254372","NA","Sternberg Task","34","28934.0","35","1024"
"97","97","824","824","black","experiment","legacy","legacy","legacy","1","undefined","1","right","35","0","35","35","0","0","35","35","0","0","35","35","35","35","0","Tue Oct 17 16:10:19 2023","The main experiment item","True","SternbergTask.osexp","/Users/baileymcwhirter","False","mono","False","18","no","white","no","yes","768","legacy","23","11","/Users/baileymcwhirter/BMsubject-4.csv","legacy","6 8","Melodramatic Milgram","4.0.5","0","n","0","right","right","right","right","NA","737.0","34137","5612","737","NA","2","legacy","2","1024","2","48000","-16","experiment","4","even","9","258269","36758","255025","256058","2454","117494","256060","98703","2529","111881","260271","261009","257065","260271","NA","Sternberg Task","35","29671.0","36","1024"
"97","97","819","819","black","experiment","legacy","legacy","legacy","1","undefined","1","right","36","0","36","36","0","0","36","36","0","0","36","36","36","36","0","Tue Oct 17 16:10:19 2023","The main experiment item","True","SternbergTask.osexp","/Users/baileymcwhirter","False","mono","False","18","no","white","no","yes","768","legacy","24","11","/Users/baileymcwhirter/BMsubject-4.csv","legacy","7 1","Melodramatic Milgram","4.0.5","0","n","0","right","right","right","right","NA","658.0","34137","5612","658","NA","2","legacy","2","1024","2","48000","-16","experiment","4","even","8","264257","36758","261012","262042","2454","117494","262045","98703","2529","111881","266262","266921","263051","266262","NA","Sternberg Task","36","30329.0","37","1024"
"97","97","816","816","black","experiment","legacy","legacy","legacy","1","undefined","1","right","37","0","37","37","0","0","37","37","0","0","37","37","37","37","0","Tue Oct 17 16:10:19 2023","The main experiment item","True","SternbergTask.osexp","/Users/baileymcwhirter","False","mono","False","18","no","white","no","yes","768","legacy","25","11","/Users/baileymcwhirter/BMsubject-4.csv","legacy","7 9 1 6","Melodramatic Milgram","4.0.5","0","n","0","right","right","right","right","NA","685.0","34137","5612","685","NA","2","legacy","4","1024","2","48000","-16","experiment","4","even","4","270175","36758","266924","267963","2454","117494","267965","98703","2529","111881","272181","272867","268969","272180","NA","Sternberg Task","37","31014.0","38","1024"
"97","97","813","813","black","experiment","legacy","legacy","legacy","1","undefined","1","left","38","0","38","38","0","0","38","38","0","0","38","38","38","38","0","Tue Oct 17 16:10:19 2023","The main experiment item","True","SternbergTask.osexp","/Users/baileymcwhirter","False","mono","False","18","no","white","no","yes","768","legacy","26","11","/Users/baileymcwhirter/BMsubject-4.csv","legacy","2 3","Melodramatic Milgram","4.0.5","1","y","0","left","right","right","left","NA","718.0","34137","5612","718","NA","2","legacy","2","1024","2","48000","-16","experiment","4","even","2","276117","36758","272870","273908","2454","117494","273910","98703","2529","111881","278119","278838","274912","278119","NA","Sternberg Task","38","31732.0","39","1024"
"97","97","815","815","black","experiment","legacy","legacy","legacy","1","undefined","1","right","39","0","39","39","0","0","39","39","0","0","39","39","39","39","0","Tue Oct 17 16:10:19 2023","The main experiment item","True","SternbergTask.osexp","/Users/baileymcwhirter","False","mono","False","18","no","white","no","yes","768","legacy","27","11","/Users/baileymcwhirter/BMsubject-4.csv","legacy","1 8 7","Melodramatic Milgram","4.0.5","0","n","0","right","right","right","right","NA","899.0","34137","5612","899","NA","2","legacy","3","1024","2","48000","-16","experiment","4","even","4","282084","36758","278840","279873","2454","117494","279875","98703","2529","111881","284086","284986","280879","284086","NA","Sternberg Task","39","32631.0","40","1024"
"97","97","823","823","black","experiment","legacy","legacy","legacy","1","undefined","1","left","40","0","40","40","0","0","40","40","0","0","40","40","40","40","0","Tue Oct 17 16:10:19 2023","The main experiment item","True","SternbergTask.osexp","/Users/baileymcwhirter","False","mono","False","18","no","white","no","yes","768","legacy","28","11","/Users/baileymcwhirter/BMsubject-4.csv","legacy","3 5 4 7","Melodramatic Milgram","4.0.5","1","y","0","left","right","right","left","NA","1150.0","34137","5612","1150","NA","2","legacy","4","1024","2","48000","-16","experiment","4","even","3","288229","36758","284988","286018","2454","117494","286020","98703","2529","111881","290231","291382","287024","290231","NA","Sternberg Task","40","33781.0","41","1024"
"97","97","826","826","black","experiment","legacy","legacy","legacy","1","undefined","1","right","41","0","41","41","0","0","41","41","0","0","41","41","41","41","0","Tue Oct 17 16:10:19 2023","The main experiment item","True","SternbergTask.osexp","/Users/baileymcwhirter","False","mono","False","18","no","white","no","yes","768","legacy","29","11","/Users/baileymcwhirter/BMsubject-4.csv","legacy","6 9 4 5 3 2","Melodramatic Milgram","4.0.5","0","n","0","right","right","right","right","NA","934.0","34137","5612","934","NA","2","legacy","6","1024","2","48000","-16","experiment","4","even","8","294627","36758","291384","292417","2454","117494","292419","98703","2529","111881","296629","297564","293422","296629","NA","Sternberg Task","41","34715.0","42","1024"
"97","97","827","827","black","experiment","legacy","legacy","legacy","1","undefined","1","right","42","0","42","42","0","0","42","42","0","0","42","42","42","42","0","Tue Oct 17 16:10:19 2023","The main experiment item","True","SternbergTask.osexp","/Users/baileymcwhirter","False","mono","False","18","no","white","no","yes","768","legacy","30","11","/Users/baileymcwhirter/BMsubject-4.csv","legacy","1 7 8 3 9","Melodramatic Milgram","4.0.5","0","n","0","right","right","right","right","NA","857.0","34137","5612","857","NA","2","legacy","5","1024","2","48000","-16","experiment","4","even","2","300811","36758","297567","298597","2454","117494","298599","98703","2529","111881","302816","303674","299605","302815","NA","Sternberg Task","42","35572.0","43","1024"
"97","97","840","840","black","experiment","legacy","legacy","legacy","1","undefined","1","left","43","0","43","43","0","0","43","43","0","0","43","43","43","43","0","Tue Oct 17 16:10:19 2023","The main experiment item","True","SternbergTask.osexp","/Users/baileymcwhirter","False","mono","False","18","no","white","no","yes","768","legacy","31","11","/Users/baileymcwhirter/BMsubject-4.csv","legacy","6 8 9 3 4 9","Melodramatic Milgram","4.0.5","5","y","0","left","right","right","left","NA","1402.0","34137","5612","1402","NA","2","legacy","6","1024","2","48000","-16","experiment","4","even","4","306920","36758","303677","304708","2454","117494","304710","98703","2529","111881","308922","310325","305715","308922","NA","Sternberg Task","43","36974.0","44","1024"
"97","97","844","844","black","experiment","legacy","legacy","legacy","1","undefined","1","left","44","0","44","44","0","0","44","44","0","0","44","44","44","44","0","Tue Oct 17 16:10:19 2023","The main experiment item","True","SternbergTask.osexp","/Users/baileymcwhirter","False","mono","False","18","no","white","no","yes","768","legacy","32","11","/Users/baileymcwhirter/BMsubject-4.csv","legacy","4 7 6 8 2 3","Melodramatic Milgram","4.0.5","6","y","0","left","right","right","left","NA","1032.0","34137","5612","1032","NA","2","legacy","6","1024","2","48000","-16","experiment","4","even","3","313568","36758","310327","311359","2454","117494","311361","98703","2529","111881","315571","316604","312364","315571","NA","Sternberg Task","44","38006.0","45","1024"
"97","97","841","841","black","experiment","legacy","legacy","legacy","1","undefined","1","left","45","0","45","45","0","0","45","45","0","0","45","45","45","45","0","Tue Oct 17 16:10:19 2023","The main experiment item","True","SternbergTask.osexp","/Users/baileymcwhirter","False","mono","False","18","no","white","no","yes","768","legacy","33","11","/Users/baileymcwhirter/BMsubject-4.csv","legacy","3 9 7 6 4","Melodramatic Milgram","4.0.5","3","y","0","left","right","right","left","NA","690.0","34137","5612","690","NA","2","legacy","5","1024","2","48000","-16","experiment","4","even","7","319858","36758","316606","317646","2454","117494","317648","98703","2529","111881","321860","322550","318652","321860","NA","Sternberg Task","45","38696.0","46","1024"
"97","97","837","837","black","experiment","legacy","legacy","legacy","1","undefined","1","right","46","0","46","46","0","0","46","46","0","0","46","46","46","46","0","Tue Oct 17 16:10:19 2023","The main experiment item","True","SternbergTask.osexp","/Users/baileymcwhirter","False","mono","False","18","no","white","no","yes","768","legacy","34","11","/Users/baileymcwhirter/BMsubject-4.csv","legacy","2 7 5","Melodramatic Milgram","4.0.5","0","n","0","right","right","right","right","NA","661.0","34137","5612","661","NA","2","legacy","3","1024","2","48000","-16","experiment","4","even","8","325802","36758","322554","323591","2454","117494","323593","98703","2529","111881","327804","328466","324597","327804","NA","Sternberg Task","46","39357.0","47","1024"
"97","97","833","833","black","experiment","legacy","legacy","legacy","1","undefined","1","right","47","0","47","47","0","0","47","47","0","0","47","47","47","47","0","Tue Oct 17 16:10:19 2023","The main experiment item","True","SternbergTask.osexp","/Users/baileymcwhirter","False","mono","False","18","no","white","no","yes","768","legacy","35","11","/Users/baileymcwhirter/BMsubject-4.csv","legacy","9","Melodramatic Milgram","4.0.5","0","n","0","right","right","right","right","NA","654.0","34137","5612","654","NA","2","legacy","1","1024","2","48000","-16","experiment","4","even","6","331711","36758","328468","329500","2454","117494","329502","98703","2529","111881","333713","334368","330506","333713","NA","Sternberg Task","47","40011.0","48","1024"
"97","97","829","829","black","experiment","legacy","legacy","legacy","1","undefined","1","left","48","0","48","48","0","0","48","48","0","0","48","48","48","48","0","Tue Oct 17 16:10:19 2023","The main experiment item","True","SternbergTask.osexp","/Users/baileymcwhirter","False","mono","False","18","no","white","no","yes","768","legacy","36","11","/Users/baileymcwhirter/BMsubject-4.csv","legacy","7 1 3","Melodramatic Milgram","4.0.5","2","y","0","left","right","right","left","NA","619.0","34137","5612","619","NA","2","legacy","3","1024","2","48000","-16","experiment","4","even","1","337617","36758","334371","335404","2454","117494","335407","98703","2529","111881","339619","340239","336411","339619","NA","Sternberg Task","48","40630.0","49","1024"
"98","98","827","827","black","experiment","legacy","legacy","legacy","1","undefined","1","left","49","0","49","49","0","0","49","49","0","0","49","49","49","49","0","Tue Oct 17 16:10:19 2023","The main experiment item","True","SternbergTask.osexp","/Users/baileymcwhirter","False","mono","False","18","no","white","no","yes","768","legacy","37","11","/Users/baileymcwhirter/BMsubject-4.csv","legacy","2 5 4 8 7","Melodramatic Milgram","4.0.5","3","y","0","left","right","right","left","NA","724.0","34137","5612","724","NA","2","legacy","5","1024","2","48000","-16","experiment","4","even","4","343491","36758","340242","341280","2454","117494","341282","98703","2529","111881","345493","346218","342287","345493","NA","Sternberg Task","49","41354.0","50","1024"
"98","98","822","822","black","experiment","legacy","legacy","legacy","1","undefined","1","left","50","0","50","50","0","0","50","50","0","0","50","50","50","50","0","Tue Oct 17 16:10:19 2023","The main experiment item","True","SternbergTask.osexp","/Users/baileymcwhirter","False","mono","False","18","no","white","no","yes","768","legacy","38","11","/Users/baileymcwhirter/BMsubject-4.csv","legacy","9 4 2","Melodramatic Milgram","4.0.5","1","y","0","left","right","right","left","NA","597.0","34137","5612","597","NA","2","legacy","3","1024","2","48000","-16","experiment","4","even","9","349460","36758","346220","347250","2454","117494","347252","98703","2529","111881","351463","352061","348256","351463","NA","Sternberg Task","50","41951.0","51","1024"
"98","98","822","822","black","experiment","legacy","legacy","legacy","1","undefined","1","left","51","0","51","51","0","0","51","51","0","0","51","51","51","51","0","Tue Oct 17 16:10:19 2023","The main experiment item","True","SternbergTask.osexp","/Users/baileymcwhirter","False","mono","False","18","no","white","no","yes","768","legacy","39","11","/Users/baileymcwhirter/BMsubject-4.csv","legacy","5 2 9 6 1 7","Melodramatic Milgram","4.0.5","3","y","0","left","right","right","left","NA","817.0","34137","5612","817","NA","2","legacy","6","1024","2","48000","-16","experiment","4","even","9","355306","36758","352064","353094","2454","117494","353096","98703","2529","111881","357309","358127","354102","357309","NA","Sternberg Task","51","42768.0","52","1024"
"98","98","822","822","black","experiment","legacy","legacy","legacy","1","undefined","1","left","52","0","52","52","0","0","52","52","0","0","52","52","52","52","0","Tue Oct 17 16:10:19 2023","The main experiment item","True","SternbergTask.osexp","/Users/baileymcwhirter","False","mono","False","18","no","white","no","yes","768","legacy","40","11","/Users/baileymcwhirter/BMsubject-4.csv","legacy","7 1 8 5 6 2","Melodramatic Milgram","4.0.5","2","y","0","left","right","right","left","NA","829.0","34137","5612","829","NA","2","legacy","6","1024","2","48000","-16","experiment","4","even","1","361374","36758","358130","359163","2454","117494","359165","98703","2529","111881","363376","364206","360170","363376","NA","Sternberg Task","52","43597.0","53","1024"
"98","98","821","821","black","experiment","legacy","legacy","legacy","1","undefined","1","right","53","0","53","53","0","0","53","53","0","0","53","53","53","53","0","Tue Oct 17 16:10:19 2023","The main experiment item","True","SternbergTask.osexp","/Users/baileymcwhirter","False","mono","False","18","no","white","no","yes","768","legacy","41","11","/Users/baileymcwhirter/BMsubject-4.csv","legacy","1 6 4","Melodramatic Milgram","4.0.5","0","n","0","right","right","right","right","NA","741.0","34137","5612","741","NA","2","legacy","3","1024","2","48000","-16","experiment","4","even","7","367453","36758","364208","365240","2454","117494","365242","98703","2529","111881","369455","370197","366246","369455","NA","Sternberg Task","53","44338.0","54","1024"
"98","98","823","823","black","experiment","legacy","legacy","legacy","1","undefined","1","left","54","0","54","54","0","0","54","54","0","0","54","54","54","54","0","Tue Oct 17 16:10:19 2023","The main experiment item","True","SternbergTask.osexp","/Users/baileymcwhirter","False","mono","False","18","no","white","no","yes","768","legacy","42","11","/Users/baileymcwhirter/BMsubject-4.csv","legacy","9 3 1 2 5","Melodramatic Milgram","4.0.5","4","y","0","left","right","right","left","NA","937.0","34137","5612","937","NA","2","legacy","5","1024","2","48000","-16","experiment","4","even","2","373445","36758","370199","371232","2454","117494","371235","98703","2529","111881","375447","376385","372240","375447","NA","Sternberg Task","54","45275.0","55","1024"
"98","98","820","820","black","experiment","legacy","legacy","legacy","1","undefined","1","left","55","0","55","55","0","0","55","55","0","0","55","55","55","55","0","Tue Oct 17 16:10:19 2023","The main experiment item","True","SternbergTask.osexp","/Users/baileymcwhirter","False","mono","False","18","no","white","no","yes","768","legacy","43","11","/Users/baileymcwhirter/BMsubject-4.csv","legacy","4 3 2 5 8","Melodramatic Milgram","4.0.5","2","y","0","left","right","right","left","NA","691.0","34137","5612","691","NA","2","legacy","5","1024","2","48000","-16","experiment","4","even","3","379636","36758","376388","377423","2454","117494","377425","98703","2529","111881","381638","382330","378431","381638","NA","Sternberg Task","55","45966.0","56","1024"
"98","98","819","819","black","experiment","legacy","legacy","legacy","1","undefined","1","left","56","0","56","56","0","0","56","56","0","0","56","56","56","56","0","Tue Oct 17 16:10:19 2023","The main experiment item","True","SternbergTask.osexp","/Users/baileymcwhirter","False","mono","False","18","no","white","no","yes","768","legacy","44","11","/Users/baileymcwhirter/BMsubject-4.csv","legacy","4 6 2 5 1","Melodramatic Milgram","4.0.5","5","y","0","left","right","right","left","NA","718.0","34137","5612","718","NA","2","legacy","5","1024","2","48000","-16","experiment","4","even","1","385577","36758","382333","383365","2454","117494","383367","98703","2529","111881","387580","388299","384372","387580","NA","Sternberg Task","56","46684.0","57","1024"
"98","98","816","816","black","experiment","legacy","legacy","legacy","1","undefined","1","left","57","0","57","57","0","0","57","57","0","0","57","57","57","57","0","Tue Oct 17 16:10:19 2023","The main experiment item","True","SternbergTask.osexp","/Users/baileymcwhirter","False","mono","False","18","no","white","no","yes","768","legacy","45","11","/Users/baileymcwhirter/BMsubject-4.csv","legacy","5 2 6","Melodramatic Milgram","4.0.5","2","y","0","left","right","right","left","NA","663.0","34137","5612","663","NA","2","legacy","3","1024","2","48000","-16","experiment","4","even","2","391549","36758","388301","389339","2454","117494","389341","98703","2529","111881","393551","394215","390344","393551","NA","Sternberg Task","57","47347.0","58","1024"
"98","98","812","812","black","experiment","legacy","legacy","legacy","1","undefined","1","left","58","0","58","58","0","0","58","58","0","0","58","58","58","58","0","Tue Oct 17 16:10:19 2023","The main experiment item","True","SternbergTask.osexp","/Users/baileymcwhirter","False","mono","False","18","no","white","no","yes","768","legacy","46","11","/Users/baileymcwhirter/BMsubject-4.csv","legacy","7 2 3","Melodramatic Milgram","4.0.5","3","y","0","left","right","right","left","NA","618.0","34137","5612","618","NA","2","legacy","3","1024","2","48000","-16","experiment","4","even","3","397458","36758","394217","395247","2454","117494","395249","98703","2529","111881","399463","400082","396253","399462","NA","Sternberg Task","58","47965.0","59","1024"
"98","98","814","814","black","experiment","legacy","legacy","legacy","1","undefined","1","right","59","0","59","59","0","0","59","59","0","0","59","59","59","59","0","Tue Oct 17 16:10:19 2023","The main experiment item","True","SternbergTask.osexp","/Users/baileymcwhirter","False","mono","False","18","no","white","no","yes","768","legacy","47","11","/Users/baileymcwhirter/BMsubject-4.csv","legacy","2 8 7 9 5 3","Melodramatic Milgram","4.0.5","0","n","0","right","right","right","right","NA","897.0","34137","5612","897","NA","2","legacy","6","1024","2","48000","-16","experiment","4","even","6","403326","36758","400084","401113","2454","117494","401116","98703","2529","111881","405328","406226","402121","405328","NA","Sternberg Task","59","48862.0","60","1024"
"98","98","814","814","black","experiment","legacy","legacy","legacy","1","undefined","1","left","60","0","60","60","0","0","60","60","0","0","60","60","60","60","0","Tue Oct 17 16:10:19 2023","The main experiment item","True","SternbergTask.osexp","/Users/baileymcwhirter","False","mono","False","18","no","white","no","yes","768","legacy","48","11","/Users/baileymcwhirter/BMsubject-4.csv","legacy","6 1 2","Melodramatic Milgram","4.0.5","3","y","0","left","right","right","left","NA","832.0","34137","5612","832","NA","2","legacy","3","1024","2","48000","-16","experiment","4","even","2","409473","36758","406229","407263","2454","117494","407265","98703","2529","111881","411475","412308","408268","411475","NA","Sternberg Task","60","49694.0","61","1024"
"98","98","813","813","black","experiment","legacy","legacy","legacy","1","undefined","1","right","61","0","61","61","0","0","61","61","0","0","61","61","61","61","0","Tue Oct 17 16:10:19 2023","The main experiment item","True","SternbergTask.osexp","/Users/baileymcwhirter","False","mono","False","18","no","white","no","yes","768","legacy","49","11","/Users/baileymcwhirter/BMsubject-4.csv","legacy","5 3 8 7 2 4","Melodramatic Milgram","4.0.5","0","n","0","right","right","right","right","NA","723.0","34137","5612","723","NA","2","legacy","6","1024","2","48000","-16","experiment","4","even","9","415551","36758","412311","413341","2454","117494","413343","98703","2529","111881","417554","418278","414346","417554","NA","Sternberg Task","61","50417.0","62","1024"
"98","98","818","818","black","experiment","legacy","legacy","legacy","1","undefined","1","left","62","0","62","62","0","0","62","62","0","0","62","62","62","62","0","Tue Oct 17 16:10:19 2023","The main experiment item","True","SternbergTask.osexp","/Users/baileymcwhirter","False","mono","False","18","no","white","no","yes","768","legacy","50","11","/Users/baileymcwhirter/BMsubject-4.csv","legacy","8 9 5 7 1 6","Melodramatic Milgram","4.0.5","4","y","0","left","right","right","left","NA","1167.0","34137","5612","1167","NA","2","legacy","6","1024","2","48000","-16","experiment","4","even","7","421524","36758","418280","419311","2454","117494","419313","98703","2529","111881","423527","424695","420318","423527","NA","Sternberg Task","62","51584.0","63","1024"
"98","98","820","820","black","experiment","legacy","legacy","legacy","1","undefined","1","right","63","0","63","63","0","0","63","63","0","0","63","63","63","63","0","Tue Oct 17 16:10:19 2023","The main experiment item","True","SternbergTask.osexp","/Users/baileymcwhirter","False","mono","False","18","no","white","no","yes","768","legacy","51","11","/Users/baileymcwhirter/BMsubject-4.csv","legacy","7 1 5 6 3","Melodramatic Milgram","4.0.5","0","n","0","right","right","right","right","NA","910.0","34137","5612","910","NA","2","legacy","5","1024","2","48000","-16","experiment","4","even","8","427946","36758","424698","425731","2454","117494","425734","98703","2529","111881","429948","430859","426741","429948","NA","Sternberg Task","63","52494.0","64","1024"
"98","98","819","819","black","experiment","legacy","legacy","legacy","1","undefined","1","right","64","0","64","64","0","0","64","64","0","0","64","64","64","64","0","Tue Oct 17 16:10:19 2023","The main experiment item","True","SternbergTask.osexp","/Users/baileymcwhirter","False","mono","False","18","no","white","no","yes","768","legacy","52","11","/Users/baileymcwhirter/BMsubject-4.csv","legacy","8 5 4 2 9 6","Melodramatic Milgram","4.0.5","0","n","0","right","right","right","right","NA","776.0","34137","5612","776","NA","2","legacy","6","1024","2","48000","-16","experiment","4","even","3","434106","36758","430861","431894","2454","117494","431896","98703","2529","111881","436110","436886","432900","436110","NA","Sternberg Task","64","53270.0","65","1024"
"98","98","817","817","black","experiment","legacy","legacy","legacy","1","undefined","1","right","65","0","65","65","0","0","65","65","0","0","65","65","65","65","0","Tue Oct 17 16:10:19 2023","The main experiment item","True","SternbergTask.osexp","/Users/baileymcwhirter","False","mono","False","18","no","white","no","yes","768","legacy","53","11","/Users/baileymcwhirter/BMsubject-4.csv","legacy","2 3 8 5 6 7","Melodramatic Milgram","4.0.5","0","n","0","right","right","right","right","NA","711.0","34137","5612","711","NA","2","legacy","6","1024","2","48000","-16","experiment","4","even","1","440131","36758","436889","437922","2454","117494","437924","98703","2529","111881","442133","442845","438926","442133","NA","Sternberg Task","65","53981.0","66","1024"
"98","98","819","819","black","experiment","legacy","legacy","legacy","1","undefined","1","left","66","0","66","66","0","0","66","66","0","0","66","66","66","66","0","Tue Oct 17 16:10:19 2023","The main experiment item","True","SternbergTask.osexp","/Users/baileymcwhirter","False","mono","False","18","no","white","no","yes","768","legacy","54","11","/Users/baileymcwhirter/BMsubject-4.csv","legacy","6 5","Melodramatic Milgram","4.0.5","2","y","0","left","right","right","left","NA","955.0","34137","5612","955","NA","2","legacy","2","1024","2","48000","-16","experiment","4","even","5","446089","36758","442847","443880","2454","117494","443882","98703","2529","111881","448091","449047","444884","448091","NA","Sternberg Task","66","54936.0","67","1024"
"98","98","816","816","black","experiment","legacy","legacy","legacy","1","undefined","1","left","67","0","67","67","0","0","67","67","0","0","67","67","67","67","0","Tue Oct 17 16:10:19 2023","The main experiment item","True","SternbergTask.osexp","/Users/baileymcwhirter","False","mono","False","18","no","white","no","yes","768","legacy","55","11","/Users/baileymcwhirter/BMsubject-4.csv","legacy","3 4","Melodramatic Milgram","4.0.5","1","y","0","left","right","right","left","NA","586.0","34137","5612","586","NA","2","legacy","2","1024","2","48000","-16","experiment","4","even","3","452298","36758","449049","450086","2454","117494","450089","98703","2529","111881","454300","454887","451091","454300","NA","Sternberg Task","67","55522.0","68","1024"
"98","98","813","813","black","experiment","legacy","legacy","legacy","1","undefined","1","left","68","0","68","68","0","0","68","68","0","0","68","68","68","68","0","Tue Oct 17 16:10:19 2023","The main experiment item","True","SternbergTask.osexp","/Users/baileymcwhirter","False","mono","False","18","no","white","no","yes","768","legacy","56","11","/Users/baileymcwhirter/BMsubject-4.csv","legacy","8","Melodramatic Milgram","4.0.5","1","y","0","left","right","right","left","NA","587.0","34137","5612","587","NA","2","legacy","1","1024","2","48000","-16","experiment","4","even","8","458136","36758","454890","455923","2454","117494","455925","98703","2529","111881","460138","460726","456930","460138","NA","Sternberg Task","68","56109.0","69","1024"
"98","98","810","810","black","experiment","legacy","legacy","legacy","1","undefined","1","right","69","0","69","69","0","0","69","69","0","0","69","69","69","69","0","Tue Oct 17 16:10:19 2023","The main experiment item","True","SternbergTask.osexp","/Users/baileymcwhirter","False","mono","False","18","no","white","no","yes","768","legacy","57","11","/Users/baileymcwhirter/BMsubject-4.csv","legacy","8 4 3 5","Melodramatic Milgram","4.0.5","0","n","0","right","right","right","right","NA","603.0","34137","5612","603","NA","2","legacy","4","1024","2","48000","-16","experiment","4","even","6","463972","36758","460729","461760","2454","117494","461762","98703","2529","111881","465974","466578","462767","465974","NA","Sternberg Task","69","56712.0","70","1024"
"98","98","808","808","black","experiment","legacy","legacy","legacy","1","undefined","1","left","70","0","70","70","0","0","70","70","0","0","70","70","70","70","0","Tue Oct 17 16:10:19 2023","The main experiment item","True","SternbergTask.osexp","/Users/baileymcwhirter","False","mono","False","18","no","white","no","yes","768","legacy","58","11","/Users/baileymcwhirter/BMsubject-4.csv","legacy","9 1 7 2","Melodramatic Milgram","4.0.5","2","y","0","left","right","right","left","NA","679.0","34137","5612","679","NA","2","legacy","4","1024","2","48000","-16","experiment","4","even","1","469827","36758","466580","467615","2454","117494","467617","98703","2529","111881","471830","472510","468622","471830","NA","Sternberg Task","70","57391.0","71","1024"
"98","98","807","807","black","experiment","legacy","legacy","legacy","1","undefined","1","left","71","0","71","71","0","0","71","71","0","0","71","71","71","71","0","Tue Oct 17 16:10:19 2023","The main experiment item","True","SternbergTask.osexp","/Users/baileymcwhirter","False","mono","False","18","no","white","no","yes","768","legacy","59","11","/Users/baileymcwhirter/BMsubject-4.csv","legacy","3 5 7 1","Melodramatic Milgram","4.0.5","3","y","0","left","right","right","left","NA","755.0","34137","5612","755","NA","2","legacy","4","1024","2","48000","-16","experiment","4","even","7","475758","36758","472512","473547","2454","117494","473549","98703","2529","111881","477760","478515","474553","477760","NA","Sternberg Task","71","58146.0","72","1024"
"98","98","806","806","black","experiment","legacy","legacy","legacy","1","undefined","1","left","72","0","72","72","0","0","72","72","0","0","72","72","72","72","0","Tue Oct 17 16:10:19 2023","The main experiment item","True","SternbergTask.osexp","/Users/baileymcwhirter","False","mono","False","18","no","white","no","yes","768","legacy","60","11","/Users/baileymcwhirter/BMsubject-4.csv","legacy","1 4 9 3 2 5","Melodramatic Milgram","4.0.5","3","y","0","left","right","right","left","NA","723.0","34137","5612","723","NA","2","legacy","6","1024","2","48000","-16","experiment","4","even","9","481760","36758","478518","479548","2454","117494","479550","98703","2529","111881","483764","484488","480554","483764","NA","Sternberg Task","72","58869.0","73","1024"
"98","98","804","804","black","experiment","legacy","legacy","legacy","1","undefined","1","left","73","0","73","73","0","0","73","73","0","0","73","73","73","73","0","Tue Oct 17 16:10:19 2023","The main experiment item","True","SternbergTask.osexp","/Users/baileymcwhirter","False","mono","False","18","no","white","no","yes","768","legacy","61","11","/Users/baileymcwhirter/BMsubject-4.csv","legacy","9 6 2 4 1","Melodramatic Milgram","4.0.5","4","y","0","left","right","right","left","NA","633.0","34137","5612","633","NA","2","legacy","5","1024","2","48000","-16","experiment","4","even","4","487733","36758","484490","485521","2454","117494","485523","98703","2529","111881","489735","490369","486527","489735","NA","Sternberg Task","73","59502.0","74","1024"
"98","98","802","802","black","experiment","legacy","legacy","legacy","1","undefined","1","right","74","0","74","74","0","0","74","74","0","0","74","74","74","74","0","Tue Oct 17 16:10:19 2023","The main experiment item","True","SternbergTask.osexp","/Users/baileymcwhirter","False","mono","False","18","no","white","no","yes","768","legacy","62","11","/Users/baileymcwhirter/BMsubject-4.csv","legacy","1 4 3 6 5","Melodramatic Milgram","4.0.5","0","n","0","right","right","right","right","NA","716.0","34137","5612","716","NA","2","legacy","5","1024","2","48000","-16","experiment","4","even","8","493620","36758","490372","491411","2454","117494","491413","98703","2529","111881","495622","496339","492416","495622","NA","Sternberg Task","74","60218.0","75","1024"
"97","97","800","800","black","experiment","legacy","legacy","legacy","0","undefined","0","left","75","0","75","75","0","0","75","75","0","0","75","75","75","75","0","Tue Oct 17 16:10:19 2023","The main experiment item","True","SternbergTask.osexp","/Users/baileymcwhirter","False","mono","False","18","no","white","no","yes","768","legacy","63","11","/Users/baileymcwhirter/BMsubject-4.csv","legacy","8 1 6","Melodramatic Milgram","4.0.5","3","y","0","right","right","right","right","NA","626.0","34137","5612","626","NA","2","legacy","3","1024","2","48000","-16","experiment","4","even","6","499589","36758","496344","497378","2454","117494","497380","98703","2529","111881","501594","502221","498383","501594","NA","Sternberg Task","74","60844.0","76","1024"
"97","97","799","799","black","experiment","legacy","legacy","legacy","1","undefined","1","right","76","0","76","76","0","0","76","76","0","0","76","76","76","76","0","Tue Oct 17 16:10:19 2023","The main experiment item","True","SternbergTask.osexp","/Users/baileymcwhirter","False","mono","False","18","no","white","no","yes","768","legacy","64","11","/Users/baileymcwhirter/BMsubject-4.csv","legacy","1","Melodramatic Milgram","4.0.5","0","n","0","right","right","right","right","NA","738.0","34137","5612","738","NA","2","legacy","1","1024","2","48000","-16","experiment","4","even","7","505464","36758","496344","503253","2454","117494","503256","502224","2529","111881","507469","508207","504258","507469","NA","Sternberg Task","75","61582.0","77","1024"
"97","97","802","802","black","experiment","legacy","legacy","legacy","1","undefined","1","left","77","0","77","77","0","0","77","77","0","0","77","77","77","77","0","Tue Oct 17 16:10:19 2023","The main experiment item","True","SternbergTask.osexp","/Users/baileymcwhirter","False","mono","False","18","no","white","no","yes","768","legacy","65","11","/Users/baileymcwhirter/BMsubject-4.csv","legacy","4 1 5","Melodramatic Milgram","4.0.5","2","y","0","left","right","right","left","NA","1034.0","34137","5612","1034","NA","2","legacy","3","1024","2","48000","-16","experiment","4","even","1","511460","36758","508210","509249","2454","117494","509251","502224","2529","111881","513462","514497","510255","513462","NA","Sternberg Task","76","62616.0","78","1024"
"97","97","805","805","black","experiment","legacy","legacy","legacy","1","undefined","1","right","78","0","78","78","0","0","78","78","0","0","78","78","78","78","0","Tue Oct 17 16:10:19 2023","The main experiment item","True","SternbergTask.osexp","/Users/baileymcwhirter","False","mono","False","18","no","white","no","yes","768","legacy","66","11","/Users/baileymcwhirter/BMsubject-4.csv","legacy","6 9 5","Melodramatic Milgram","4.0.5","0","n","0","right","right","right","right","NA","1014.0","34137","5612","1014","NA","2","legacy","3","1024","2","48000","-16","experiment","4","even","8","517747","36758","514500","515538","2454","117494","515540","502224","2529","111881","519749","520764","516542","519749","NA","Sternberg Task","77","63630.0","79","1024"
"97","97","805","805","black","experiment","legacy","legacy","legacy","1","undefined","1","right","79","0","79","79","0","0","79","79","0","0","79","79","79","79","0","Tue Oct 17 16:10:19 2023","The main experiment item","True","SternbergTask.osexp","/Users/baileymcwhirter","False","mono","False","18","no","white","no","yes","768","legacy","67","11","/Users/baileymcwhirter/BMsubject-4.csv","legacy","2 6 4 3 9","Melodramatic Milgram","4.0.5","0","n","0","right","right","right","right","NA","772.0","34137","5612","772","NA","2","legacy","5","1024","2","48000","-16","experiment","4","even","1","524020","36758","520766","521811","2454","117494","521814","502224","2529","111881","526023","526796","522816","526023","NA","Sternberg Task","78","64402.0","80","1024"
"97","97","801","801","black","experiment","legacy","legacy","legacy","1","undefined","1","left","80","0","80","80","0","0","80","80","0","0","80","80","80","80","0","Tue Oct 17 16:10:19 2023","The main experiment item","True","SternbergTask.osexp","/Users/baileymcwhirter","False","mono","False","18","no","white","no","yes","768","legacy","68","11","/Users/baileymcwhirter/BMsubject-4.csv","legacy","8 7 3","Melodramatic Milgram","4.0.5","1","y","0","left","right","right","left","NA","554.0","34137","5612","554","NA","2","legacy","3","1024","2","48000","-16","experiment","4","even","8","530050","36758","526800","527839","2454","117494","527842","502224","2529","111881","532055","532610","528845","532055","NA","Sternberg Task","79","64956.0","81","1024"
"97","97","803","803","black","experiment","legacy","legacy","legacy","1","undefined","1","left","81","0","81","81","0","0","81","81","0","0","81","81","81","81","0","Tue Oct 17 16:10:19 2023","The main experiment item","True","SternbergTask.osexp","/Users/baileymcwhirter","False","mono","False","18","no","white","no","yes","768","legacy","69","11","/Users/baileymcwhirter/BMsubject-4.csv","legacy","8 5 3 7 4 6","Melodramatic Milgram","4.0.5","6","y","0","left","right","right","left","NA","962.0","34137","5612","962","NA","2","legacy","6","1024","2","48000","-16","experiment","4","even","6","535857","36758","532612","533644","2454","117494","533646","502224","2529","111881","537859","538822","534651","537859","NA","Sternberg Task","80","65918.0","82","1024"
"97","97","803","803","black","experiment","legacy","legacy","legacy","1","undefined","1","right","82","0","82","82","0","0","82","82","0","0","82","82","82","82","0","Tue Oct 17 16:10:19 2023","The main experiment item","True","SternbergTask.osexp","/Users/baileymcwhirter","False","mono","False","18","no","white","no","yes","768","legacy","70","11","/Users/baileymcwhirter/BMsubject-4.csv","legacy","8 2 1 4 5 9","Melodramatic Milgram","4.0.5","0","n","0","right","right","right","right","NA","771.0","34137","5612","771","NA","2","legacy","6","1024","2","48000","-16","experiment","4","even","7","542068","36758","538825","539857","2454","117494","539860","502224","2529","111881","544070","544842","540863","544070","NA","Sternberg Task","81","66689.0","83","1024"
"97","97","801","801","black","experiment","legacy","legacy","legacy","1","undefined","1","left","83","0","83","83","0","0","83","83","0","0","83","83","83","83","0","Tue Oct 17 16:10:19 2023","The main experiment item","True","SternbergTask.osexp","/Users/baileymcwhirter","False","mono","False","18","no","white","no","yes","768","legacy","71","11","/Users/baileymcwhirter/BMsubject-4.csv","legacy","9 8 4","Melodramatic Milgram","4.0.5","1","y","0","left","right","right","left","NA","655.0","34137","5612","655","NA","2","legacy","3","1024","2","48000","-16","experiment","4","even","9","548090","36758","544845","545878","2454","117494","545880","502224","2529","111881","550092","550748","546884","550091","NA","Sternberg Task","82","67344.0","84","1024"
"96","96","802","802","black","experiment","legacy","legacy","legacy","0","undefined","0","left","84","0","84","84","0","0","84","84","0","0","84","84","84","84","0","Tue Oct 17 16:10:19 2023","The main experiment item","True","SternbergTask.osexp","/Users/baileymcwhirter","False","mono","False","18","no","white","no","yes","768","legacy","72","11","/Users/baileymcwhirter/BMsubject-4.csv","legacy","7 4 2 6 3 5","Melodramatic Milgram","4.0.5","6","y","0","right","right","right","right","NA","874.0","34137","5612","874","NA","2","legacy","6","1024","2","48000","-16","experiment","4","even","5","553993","36758","550750","551783","2454","117494","551785","502224","2529","111881","555996","556871","552788","555996","NA","Sternberg Task","82","68218.0","85","1024"
"96","96","804","804","black","experiment","legacy","legacy","legacy","1","undefined","1","right","85","0","85","85","0","0","85","85","0","0","85","85","85","85","0","Tue Oct 17 16:10:19 2023","The main experiment item","True","SternbergTask.osexp","/Users/baileymcwhirter","False","mono","False","18","no","white","no","yes","768","legacy","73","11","/Users/baileymcwhirter/BMsubject-4.csv","legacy","7 1 8 4 9 3","Melodramatic Milgram","4.0.5","0","n","0","right","right","right","right","NA","986.0","34137","5612","986","NA","2","legacy","6","1024","2","48000","-16","experiment","4","even","6","560116","36758","550750","557905","2454","117494","557907","556874","2529","111881","562118","563105","558911","562118","NA","Sternberg Task","83","69204.0","86","1024"
"96","96","810","810","black","experiment","legacy","legacy","legacy","1","undefined","1","right","86","0","86","86","0","0","86","86","0","0","86","86","86","86","0","Tue Oct 17 16:10:19 2023","The main experiment item","True","SternbergTask.osexp","/Users/baileymcwhirter","False","mono","False","18","no","white","no","yes","768","legacy","74","11","/Users/baileymcwhirter/BMsubject-4.csv","legacy","8 5 7 3 6","Melodramatic Milgram","4.0.5","0","n","0","right","right","right","right","NA","1302.0","34137","5612","1302","NA","2","legacy","5","1024","2","48000","-16","experiment","4","even","9","566356","36758","563107","564145","2454","117494","564148","556874","2529","111881","568358","569661","565151","568358","NA","Sternberg Task","84","70506.0","87","1024"
"96","96","812","812","black","experiment","legacy","legacy","legacy","1","undefined","1","right","87","0","87","87","0","0","87","87","0","0","87","87","87","87","0","Tue Oct 17 16:10:19 2023","The main experiment item","True","SternbergTask.osexp","/Users/baileymcwhirter","False","mono","False","18","no","white","no","yes","768","legacy","75","11","/Users/baileymcwhirter/BMsubject-4.csv","legacy","5 3 2 6 9 8","Melodramatic Milgram","4.0.5","0","n","0","right","right","right","right","NA","981.0","34137","5612","981","NA","2","legacy","6","1024","2","48000","-16","experiment","4","even","4","572906","36758","569663","570693","2454","117494","570696","556874","2529","111881","574911","575893","571700","574911","NA","Sternberg Task","85","71487.0","88","1024"
"96","96","811","811","black","experiment","legacy","legacy","legacy","1","undefined","1","left","88","0","88","88","0","0","88","88","0","0","88","88","88","88","0","Tue Oct 17 16:10:19 2023","The main experiment item","True","SternbergTask.osexp","/Users/baileymcwhirter","False","mono","False","18","no","white","no","yes","768","legacy","76","11","/Users/baileymcwhirter/BMsubject-4.csv","legacy","8 9 5 6 7","Melodramatic Milgram","4.0.5","1","y","0","left","right","right","left","NA","770.0","34137","5612","770","NA","2","legacy","5","1024","2","48000","-16","experiment","4","even","8","579138","36758","575896","576928","2454","117494","576930","556874","2529","111881","581141","581912","577933","581141","NA","Sternberg Task","86","72257.0","89","1024"
"96","96","817","817","black","experiment","legacy","legacy","legacy","1","undefined","1","left","89","0","89","89","0","0","89","89","0","0","89","89","89","89","0","Tue Oct 17 16:10:19 2023","The main experiment item","True","SternbergTask.osexp","/Users/baileymcwhirter","False","mono","False","18","no","white","no","yes","768","legacy","77","11","/Users/baileymcwhirter/BMsubject-4.csv","legacy","8 5 1 3 9","Melodramatic Milgram","4.0.5","4","y","0","left","right","right","left","NA","1349.0","34137","5612","1349","NA","2","legacy","5","1024","2","48000","-16","experiment","4","even","3","585158","36758","581914","582945","2454","117494","582947","556874","2529","111881","587160","588510","583951","587160","NA","Sternberg Task","87","73606.0","90","1024"
"96","96","818","818","black","experiment","legacy","legacy","legacy","1","undefined","1","left","90","0","90","90","0","0","90","90","0","0","90","90","90","90","0","Tue Oct 17 16:10:19 2023","The main experiment item","True","SternbergTask.osexp","/Users/baileymcwhirter","False","mono","False","18","no","white","no","yes","768","legacy","78","11","/Users/baileymcwhirter/BMsubject-4.csv","legacy","5 7 8 2 3 8","Melodramatic Milgram","4.0.5","5","y","0","left","right","right","left","NA","876.0","34137","5612","876","NA","2","legacy","6","1024","2","48000","-16","experiment","4","even","3","591753","36758","588513","589544","2454","117494","589546","556874","2529","111881","593756","594633","590549","593756","NA","Sternberg Task","88","74482.0","91","1024"
"96","96","817","817","black","experiment","legacy","legacy","legacy","1","undefined","1","right","91","0","91","91","0","0","91","91","0","0","91","91","91","91","0","Tue Oct 17 16:10:19 2023","The main experiment item","True","SternbergTask.osexp","/Users/baileymcwhirter","False","mono","False","18","no","white","no","yes","768","legacy","79","11","/Users/baileymcwhirter/BMsubject-4.csv","legacy","5 7 3","Melodramatic Milgram","4.0.5","0","n","0","right","right","right","right","NA","735.0","34137","5612","735","NA","2","legacy","3","1024","2","48000","-16","experiment","4","even","9","597881","36758","594636","595670","2454","117494","595672","556874","2529","111881","599882","600618","596676","599882","NA","Sternberg Task","89","75217.0","92","1024"
"96","96","819","819","black","experiment","legacy","legacy","legacy","1","undefined","1","right","92","0","92","92","0","0","92","92","0","0","92","92","92","92","0","Tue Oct 17 16:10:19 2023","The main experiment item","True","SternbergTask.osexp","/Users/baileymcwhirter","False","mono","False","18","no","white","no","yes","768","legacy","80","11","/Users/baileymcwhirter/BMsubject-4.csv","legacy","6 2 9 3 8 4","Melodramatic Milgram","4.0.5","0","n","0","right","right","right","right","NA","1019.0","34137","5612","1019","NA","2","legacy","6","1024","2","48000","-16","experiment","4","even","1","603867","36758","600621","601656","2454","117494","601658","556874","2529","111881","605870","606890","602661","605870","NA","Sternberg Task","90","76236.0","93","1024"
"96","96","821","821","black","experiment","legacy","legacy","legacy","1","undefined","1","left","93","0","93","93","0","0","93","93","0","0","93","93","93","93","0","Tue Oct 17 16:10:19 2023","The main experiment item","True","SternbergTask.osexp","/Users/baileymcwhirter","False","mono","False","18","no","white","no","yes","768","legacy","81","11","/Users/baileymcwhirter/BMsubject-4.csv","legacy","6 9 7 4 5 1","Melodramatic Milgram","4.0.5","2","y","0","left","right","right","left","NA","966.0","34137","5612","966","NA","2","legacy","6","1024","2","48000","-16","experiment","4","even","9","610143","36758","606893","607934","2454","117494","607936","556874","2529","111881","612145","613112","608938","612145","NA","Sternberg Task","91","77202.0","94","1024"
"96","96","820","820","black","experiment","legacy","legacy","legacy","1","undefined","1","left","94","0","94","94","0","0","94","94","0","0","94","94","94","94","0","Tue Oct 17 16:10:19 2023","The main experiment item","True","SternbergTask.osexp","/Users/baileymcwhirter","False","mono","False","18","no","white","no","yes","768","legacy","82","11","/Users/baileymcwhirter/BMsubject-4.csv","legacy","7","Melodramatic Milgram","4.0.5","1","y","0","left","right","right","left","NA","706.0","34137","5612","706","NA","2","legacy","1","1024","2","48000","-16","experiment","4","even","7","616365","36758","613115","614150","2454","117494","614153","556874","2529","111881","618368","619076","615159","618368","NA","Sternberg Task","92","77908.0","95","1024"
"96","96","824","824","black","experiment","legacy","legacy","legacy","1","undefined","1","right","95","0","95","95","0","0","95","95","0","0","95","95","95","95","0","Tue Oct 17 16:10:19 2023","The main experiment item","True","SternbergTask.osexp","/Users/baileymcwhirter","False","mono","False","18","no","white","no","yes","768","legacy","83","11","/Users/baileymcwhirter/BMsubject-4.csv","legacy","2 8 6 3 1","Melodramatic Milgram","4.0.5","0","n","0","right","right","right","right","NA","1230.0","34137","5612","1230","NA","2","legacy","5","1024","2","48000","-16","experiment","4","even","7","622332","36758","619079","620117","2454","117494","620120","556874","2529","111881","624334","625565","621126","624334","NA","Sternberg Task","93","79138.0","96","1024"
"96","96","822","822","black","experiment","legacy","legacy","legacy","1","undefined","1","left","96","0","96","96","0","0","96","96","0","0","96","96","96","96","0","Tue Oct 17 16:10:19 2023","The main experiment item","True","SternbergTask.osexp","/Users/baileymcwhirter","False","mono","False","18","no","white","no","yes","768","legacy","84","11","/Users/baileymcwhirter/BMsubject-4.csv","legacy","6 9 3 1","Melodramatic Milgram","4.0.5","4","y","0","left","right","right","left","NA","692.0","34137","5612","692","NA","2","legacy","4","1024","2","48000","-16","experiment","4","even","1","628808","36758","625567","626597","2454","117494","626599","556874","2529","111881","630811","631504","627604","630811","NA","Sternberg Task","94","79830.0","97","1024"
"96","96","827","827","black","experiment","legacy","legacy","legacy","1","undefined","1","right","97","0","97","97","0","0","97","97","0","0","97","97","97","97","0","Tue Oct 17 16:10:19 2023","The main experiment item","True","SternbergTask.osexp","/Users/baileymcwhirter","False","mono","False","18","no","white","no","yes","768","legacy","85","11","/Users/baileymcwhirter/BMsubject-4.csv","legacy","4 8 1 2","Melodramatic Milgram","4.0.5","0","n","0","right","right","right","right","NA","1240.0","34137","5612","1240","NA","2","legacy","4","1024","2","48000","-16","experiment","4","even","7","634755","36758","631507","632543","2454","117494","632546","556874","2529","111881","636756","637997","633550","636756","NA","Sternberg Task","95","81070.0","98","1024"
"96","96","829","829","black","experiment","legacy","legacy","legacy","1","undefined","1","right","98","0","98","98","0","0","98","98","0","0","98","98","98","98","0","Tue Oct 17 16:10:19 2023","The main experiment item","True","SternbergTask.osexp","/Users/baileymcwhirter","False","mono","False","18","no","white","no","yes","768","legacy","86","11","/Users/baileymcwhirter/BMsubject-4.csv","legacy","1 4 9 3","Melodramatic Milgram","4.0.5","0","n","0","right","right","right","right","NA","1047.0","34137","5612","1047","NA","2","legacy","4","1024","2","48000","-16","experiment","4","even","5","641253","36758","637999","639043","2454","117494","639045","556874","2529","111881","643255","644303","640047","643255","NA","Sternberg Task","96","82117.0","99","1024"
"97","97","828","828","black","experiment","legacy","legacy","legacy","1","undefined","1","left","99","0","99","99","0","0","99","99","0","0","99","99","99","99","0","Tue Oct 17 16:10:19 2023","The main experiment item","True","SternbergTask.osexp","/Users/baileymcwhirter","False","mono","False","18","no","white","no","yes","768","legacy","87","11","/Users/baileymcwhirter/BMsubject-4.csv","legacy","6 2","Melodramatic Milgram","4.0.5","1","y","0","left","right","right","left","NA","712.0","34137","5612","712","NA","2","legacy","2","1024","2","48000","-16","experiment","4","even","6","647550","36758","644305","645341","2454","117494","645344","556874","2529","111881","649553","650266","646346","649553","NA","Sternberg Task","97","82829.0","100","1024"
"97","97","829","829","black","experiment","legacy","legacy","legacy","1","undefined","1","right","100","0","100","100","0","0","100","100","0","0","100","100","100","100","0","Tue Oct 17 16:10:19 2023","The main experiment item","True","SternbergTask.osexp","/Users/baileymcwhirter","False","mono","False","18","no","white","no","yes","768","legacy","88","11","/Users/baileymcwhirter/BMsubject-4.csv","legacy","7 3 2 8","Melodramatic Milgram","4.0.5","0","n","0","right","right","right","right","NA","926.0","34137","5612","926","NA","2","legacy","4","1024","2","48000","-16","experiment","4","even","4","653517","36758","650269","651304","2454","117494","651307","556874","2529","111881","655519","656446","652311","655519","NA","Sternberg Task","98","83755.0","101","1024"
"96","96","840","840","black","experiment","legacy","legacy","legacy","0","undefined","0","right","101","0","101","101","0","0","101","101","0","0","101","101","101","101","0","Tue Oct 17 16:10:19 2023","The main experiment item","True","SternbergTask.osexp","/Users/baileymcwhirter","False","mono","False","18","no","white","no","yes","768","legacy","89","11","/Users/baileymcwhirter/BMsubject-4.csv","legacy","4 1","Melodramatic Milgram","4.0.5","0","n","0","None","right","right","None","NA","2000.0","34137","5612","2000","NA","2","legacy","2","1024","2","48000","-16","experiment","4","even","6","659688","36758","656449","657479","2454","117494","657481","556874","2529","111881","661690","663690","658483","661690","NA","Sternberg Task","98","85755.0","102","1024"
"96","96","839","839","black","experiment","legacy","legacy","legacy","1","undefined","1","left","102","0","102","102","0","0","102","102","0","0","102","102","102","102","0","Tue Oct 17 16:10:19 2023","The main experiment item","True","SternbergTask.osexp","/Users/baileymcwhirter","False","mono","False","18","no","white","no","yes","768","legacy","90","11","/Users/baileymcwhirter/BMsubject-4.csv","legacy","2 3 7 4","Melodramatic Milgram","4.0.5","1","y","0","left","right","right","left","NA","754.0","34137","5612","754","NA","2","legacy","4","1024","2","48000","-16","experiment","4","even","2","666941","36758","656449","664726","2454","117494","664729","663693","2529","111881","668947","669703","665734","668947","NA","Sternberg Task","99","86509.0","103","1024"
"96","96","840","840","black","experiment","legacy","legacy","legacy","1","undefined","1","left","103","0","103","103","0","0","103","103","0","0","103","103","103","103","0","Tue Oct 17 16:10:19 2023","The main experiment item","True","SternbergTask.osexp","/Users/baileymcwhirter","False","mono","False","18","no","white","no","yes","768","legacy","91","11","/Users/baileymcwhirter/BMsubject-4.csv","legacy","4","Melodramatic Milgram","4.0.5","1","y","0","left","right","right","left","NA","922.0","34137","5612","922","NA","2","legacy","1","1024","2","48000","-16","experiment","4","even","4","672957","36758","669706","670743","2454","117494","670746","663693","2529","111881","674960","675884","671751","674960","NA","Sternberg Task","100","87431.0","104","1024"
"96","96","838","838","black","experiment","legacy","legacy","legacy","1","undefined","1","right","104","0","104","104","0","0","104","104","0","0","104","104","104","104","0","Tue Oct 17 16:10:19 2023","The main experiment item","True","SternbergTask.osexp","/Users/baileymcwhirter","False","mono","False","18","no","white","no","yes","768","legacy","92","11","/Users/baileymcwhirter/BMsubject-4.csv","legacy","6 8 4","Melodramatic Milgram","4.0.5","0","n","0","right","right","right","right","NA","625.0","34137","5612","625","NA","2","legacy","3","1024","2","48000","-16","experiment","4","even","1","679131","36758","675887","676920","2454","117494","676923","663693","2529","111881","681133","681759","677926","681133","NA","Sternberg Task","101","88056.0","105","1024"
"96","96","841","841","black","experiment","legacy","legacy","legacy","1","undefined","1","left","105","0","105","105","0","0","105","105","0","0","105","105","105","105","0","Tue Oct 17 16:10:19 2023","The main experiment item","True","SternbergTask.osexp","/Users/baileymcwhirter","False","mono","False","18","no","white","no","yes","768","legacy","93","11","/Users/baileymcwhirter/BMsubject-4.csv","legacy","3 9 6 2","Melodramatic Milgram","4.0.5","4","y","0","left","right","right","left","NA","1131.0","34137","5612","1131","NA","2","legacy","4","1024","2","48000","-16","experiment","4","even","2","685006","36758","681762","682794","2454","117494","682796","663693","2529","111881","687008","688140","683801","687008","NA","Sternberg Task","102","89187.0","106","1024"
"96","96","842","842","black","experiment","legacy","legacy","legacy","1","undefined","1","right","106","0","106","106","0","0","106","106","0","0","106","106","106","106","0","Tue Oct 17 16:10:19 2023","The main experiment item","True","SternbergTask.osexp","/Users/baileymcwhirter","False","mono","False","18","no","white","no","yes","768","legacy","94","11","/Users/baileymcwhirter/BMsubject-4.csv","legacy","2 8 9","Melodramatic Milgram","4.0.5","0","n","0","right","right","right","right","NA","937.0","34137","5612","937","NA","2","legacy","3","1024","2","48000","-16","experiment","4","even","6","691387","36758","688143","689174","2454","117494","689176","663693","2529","111881","693389","694327","690181","693389","NA","Sternberg Task","103","90124.0","107","1024"
"96","96","840","840","black","experiment","legacy","legacy","legacy","1","undefined","1","right","107","0","107","107","0","0","107","107","0","0","107","107","107","107","0","Tue Oct 17 16:10:19 2023","The main experiment item","True","SternbergTask.osexp","/Users/baileymcwhirter","False","mono","False","18","no","white","no","yes","768","legacy","95","11","/Users/baileymcwhirter/BMsubject-4.csv","legacy","7 9","Melodramatic Milgram","4.0.5","0","n","0","right","right","right","right","NA","702.0","34137","5612","702","NA","2","legacy","2","1024","2","48000","-16","experiment","4","even","1","697568","36758","694330","695359","2454","117494","695361","663693","2529","111881","699569","700272","696363","699569","NA","Sternberg Task","104","90826.0","108","1024"
"96","96","842","842","black","experiment","legacy","legacy","legacy","1","undefined","1","right","108","0","108","108","0","0","108","108","0","0","108","108","108","108","0","Tue Oct 17 16:10:19 2023","The main experiment item","True","SternbergTask.osexp","/Users/baileymcwhirter","False","mono","False","18","no","white","no","yes","768","legacy","96","11","/Users/baileymcwhirter/BMsubject-4.csv","legacy","5 2","Melodramatic Milgram","4.0.5","0","n","0","right","right","right","right","NA","969.0","34137","5612","969","NA","2","legacy","2","1024","2","48000","-16","experiment","4","even","7","703522","36758","700275","701312","2454","117494","701314","663693","2529","111881","705525","706495","702317","705525","NA","Sternberg Task","105","91795.0","109","1024"
"96","96","843","843","black","experiment","legacy","legacy","legacy","1","undefined","1","left","109","0","109","109","0","0","109","109","0","0","109","109","109","109","0","Tue Oct 17 16:10:19 2023","The main experiment item","True","SternbergTask.osexp","/Users/baileymcwhirter","False","mono","False","18","no","white","no","yes","768","legacy","97","11","/Users/baileymcwhirter/BMsubject-4.csv","legacy","9 1 6 7 8","Melodramatic Milgram","4.0.5","1","y","0","left","right","right","left","NA","969.0","34137","5612","969","NA","2","legacy","5","1024","2","48000","-16","experiment","4","even","9","709743","36758","706498","707531","2454","117494","707533","663693","2529","111881","711745","712715","708538","711745","NA","Sternberg Task","106","92764.0","110","1024"
"96","96","845","845","black","experiment","legacy","legacy","legacy","1","undefined","1","right","110","0","110","110","0","0","110","110","0","0","110","110","110","110","0","Tue Oct 17 16:10:19 2023","The main experiment item","True","SternbergTask.osexp","/Users/baileymcwhirter","False","mono","False","18","no","white","no","yes","768","legacy","98","11","/Users/baileymcwhirter/BMsubject-4.csv","legacy","1 3 2 6 9","Melodramatic Milgram","4.0.5","0","n","0","right","right","right","right","NA","1114.0","34137","5612","1114","NA","2","legacy","5","1024","2","48000","-16","experiment","4","even","5","715960","36758","712718","713749","2454","117494","713751","663693","2529","111881","717965","719080","714755","717964","NA","Sternberg Task","107","93878.0","111","1024"
"96","96","845","845","black","experiment","legacy","legacy","legacy","1","undefined","1","left","111","0","111","111","0","0","111","111","0","0","111","111","111","111","0","Tue Oct 17 16:10:19 2023","The main experiment item","True","SternbergTask.osexp","/Users/baileymcwhirter","False","mono","False","18","no","white","no","yes","768","legacy","99","11","/Users/baileymcwhirter/BMsubject-4.csv","legacy","7 8 6 3 1","Melodramatic Milgram","4.0.5","5","y","0","left","right","right","left","NA","774.0","34137","5612","774","NA","2","legacy","5","1024","2","48000","-16","experiment","4","even","1","722325","36758","719082","720113","2454","117494","720115","663693","2529","111881","724327","725103","721119","724326","NA","Sternberg Task","108","94652.0","112","1024"
"96","96","844","844","black","experiment","legacy","legacy","legacy","1","undefined","1","right","112","0","112","112","0","0","112","112","0","0","112","112","112","112","0","Tue Oct 17 16:10:19 2023","The main experiment item","True","SternbergTask.osexp","/Users/baileymcwhirter","False","mono","False","18","no","white","no","yes","768","legacy","100","11","/Users/baileymcwhirter/BMsubject-4.csv","legacy","9 8 2 7 4","Melodramatic Milgram","4.0.5","0","n","0","right","right","right","right","NA","822.0","34137","5612","822","NA","2","legacy","5","1024","2","48000","-16","experiment","4","even","5","728352","36758","725105","726140","2454","117494","726142","663693","2529","111881","730353","731176","727147","730353","NA","Sternberg Task","109","95474.0","113","1024"
"96","96","849","849","black","experiment","legacy","legacy","legacy","1","undefined","1","left","113","0","113","113","0","0","113","113","0","0","113","113","113","113","0","Tue Oct 17 16:10:19 2023","The main experiment item","True","SternbergTask.osexp","/Users/baileymcwhirter","False","mono","False","18","no","white","no","yes","768","legacy","101","11","/Users/baileymcwhirter/BMsubject-4.csv","legacy","8 5 4 7 3 1","Melodramatic Milgram","4.0.5","2","y","0","left","right","right","left","NA","1330.0","34137","5612","1330","NA","2","legacy","6","1024","2","48000","-16","experiment","4","even","5","734424","36758","731179","732214","2454","117494","732217","663693","2529","111881","736426","737758","733219","736426","NA","Sternberg Task","110","96804.0","114","1024"
"96","96","849","849","black","experiment","legacy","legacy","legacy","1","undefined","1","right","114","0","114","114","0","0","114","114","0","0","114","114","114","114","0","Tue Oct 17 16:10:19 2023","The main experiment item","True","SternbergTask.osexp","/Users/baileymcwhirter","False","mono","False","18","no","white","no","yes","768","legacy","102","11","/Users/baileymcwhirter/BMsubject-4.csv","legacy","8 6 3 4 7","Melodramatic Milgram","4.0.5","0","n","0","right","right","right","right","NA","924.0","34137","5612","924","NA","2","legacy","5","1024","2","48000","-16","experiment","4","even","1","741002","36758","737760","738790","2454","117494","738793","663693","2529","111881","743004","743929","739797","743004","NA","Sternberg Task","111","97728.0","115","1024"
"96","96","848","848","black","experiment","legacy","legacy","legacy","1","undefined","1","right","115","0","115","115","0","0","115","115","0","0","115","115","115","115","0","Tue Oct 17 16:10:19 2023","The main experiment item","True","SternbergTask.osexp","/Users/baileymcwhirter","False","mono","False","18","no","white","no","yes","768","legacy","103","11","/Users/baileymcwhirter/BMsubject-4.csv","legacy","3 9 1","Melodramatic Milgram","4.0.5","0","n","0","right","right","right","right","NA","683.0","34137","5612","683","NA","2","legacy","3","1024","2","48000","-16","experiment","4","even","7","747181","36758","743932","744972","2454","117494","744974","663693","2529","111881","749183","749868","745976","749183","NA","Sternberg Task","112","98411.0","116","1024"
"96","96","847","847","black","experiment","legacy","legacy","legacy","1","undefined","1","right","116","0","116","116","0","0","116","116","0","0","116","116","116","116","0","Tue Oct 17 16:10:19 2023","The main experiment item","True","SternbergTask.osexp","/Users/baileymcwhirter","False","mono","False","18","no","white","no","yes","768","legacy","104","11","/Users/baileymcwhirter/BMsubject-4.csv","legacy","3 4 9 6 7 8","Melodramatic Milgram","4.0.5","0","n","0","right","right","right","right","NA","746.0","34137","5612","746","NA","2","legacy","6","1024","2","48000","-16","experiment","4","even","2","753110","36758","749870","750900","2454","117494","750903","663693","2529","111881","755112","755859","751905","755112","NA","Sternberg Task","113","99157.0","117","1024"
"96","96","847","847","black","experiment","legacy","legacy","legacy","1","undefined","1","right","117","0","117","117","0","0","117","117","0","0","117","117","117","117","0","Tue Oct 17 16:10:19 2023","The main experiment item","True","SternbergTask.osexp","/Users/baileymcwhirter","False","mono","False","18","no","white","no","yes","768","legacy","105","11","/Users/baileymcwhirter/BMsubject-4.csv","legacy","1 7 5 2 9","Melodramatic Milgram","4.0.5","0","n","0","right","right","right","right","NA","790.0","34137","5612","790","NA","2","legacy","5","1024","2","48000","-16","experiment","4","even","3","759111","36758","755862","756900","2454","117494","756902","663693","2529","111881","761113","761904","757906","761113","NA","Sternberg Task","114","99947.0","118","1024"
"96","96","845","845","black","experiment","legacy","legacy","legacy","1","undefined","1","left","118","0","118","118","0","0","118","118","0","0","118","118","118","118","0","Tue Oct 17 16:10:19 2023","The main experiment item","True","SternbergTask.osexp","/Users/baileymcwhirter","False","mono","False","18","no","white","no","yes","768","legacy","106","11","/Users/baileymcwhirter/BMsubject-4.csv","legacy","2 8 5 1","Melodramatic Milgram","4.0.5","4","y","0","left","right","right","left","NA","675.0","34137","5612","675","NA","2","legacy","4","1024","2","48000","-16","experiment","4","even","1","765147","36758","761907","762937","2454","117494","762939","663693","2529","111881","767149","767825","763942","767149","NA","Sternberg Task","115","100622.0","119","1024"
"96","96","850","850","black","experiment","legacy","legacy","legacy","1","undefined","1","right","119","0","119","119","0","0","119","119","0","0","119","119","119","119","0","Tue Oct 17 16:10:19 2023","The main experiment item","True","SternbergTask.osexp","/Users/baileymcwhirter","False","mono","False","18","no","white","no","yes","768","legacy","107","11","/Users/baileymcwhirter/BMsubject-4.csv","legacy","6 9 4 5 2","Melodramatic Milgram","4.0.5","0","n","0","right","right","right","right","NA","1384.0","34137","5612","1384","NA","2","legacy","5","1024","2","48000","-16","experiment","4","even","1","771070","36758","767828","768859","2454","117494","768861","663693","2529","111881","773072","774457","769865","773072","NA","Sternberg Task","116","102006.0","120","1024"
"96","96","850","850","black","experiment","legacy","legacy","legacy","1","undefined","1","right","120","0","120","120","0","0","120","120","0","0","120","120","120","120","0","Tue Oct 17 16:10:19 2023","The main experiment item","True","SternbergTask.osexp","/Users/baileymcwhirter","False","mono","False","18","no","white","no","yes","768","legacy","108","11","/Users/baileymcwhirter/BMsubject-4.csv","legacy","5 9 2 3","Melodramatic Milgram","4.0.5","0","n","0","right","right","right","right","NA","944.0","34137","5612","944","NA","2","legacy","4","1024","2","48000","-16","experiment","4","even","8","777702","36758","774459","775490","2454","117494","775492","663693","2529","111881","779706","780652","776496","779705","NA","Sternberg Task","117","102950.0","121","1024"
"96","96","852","852","black","experiment","legacy","legacy","legacy","1","undefined","1","right","121","0","121","121","0","0","121","121","0","0","121","121","121","121","0","Tue Oct 17 16:10:19 2023","The main experiment item","True","SternbergTask.osexp","/Users/baileymcwhirter","False","mono","False","18","no","white","no","yes","768","legacy","109","11","/Users/baileymcwhirter/BMsubject-4.csv","legacy","1 6 4 3 9 7","Melodramatic Milgram","4.0.5","0","n","0","right","right","right","right","NA","1016.0","34137","5612","1016","NA","2","legacy","6","1024","2","48000","-16","experiment","4","even","8","783896","36758","780655","781685","2454","117494","781687","663693","2529","111881","785899","786916","782691","785899","NA","Sternberg Task","118","103966.0","122","1024"
"96","96","850","850","black","experiment","legacy","legacy","legacy","1","undefined","1","right","122","0","122","122","0","0","122","122","0","0","122","122","122","122","0","Tue Oct 17 16:10:19 2023","The main experiment item","True","SternbergTask.osexp","/Users/baileymcwhirter","False","mono","False","18","no","white","no","yes","768","legacy","110","11","/Users/baileymcwhirter/BMsubject-4.csv","legacy","7 8 6 1","Melodramatic Milgram","4.0.5","0","n","0","right","right","right","right","NA","701.0","34137","5612","701","NA","2","legacy","4","1024","2","48000","-16","experiment","4","even","3","790168","36758","786919","787956","2454","117494","787958","663693","2529","111881","792170","792872","788963","792170","NA","Sternberg Task","119","104667.0","123","1024"
"96","96","851","851","black","experiment","legacy","legacy","legacy","1","undefined","1","right","123","0","123","123","0","0","123","123","0","0","123","123","123","123","0","Tue Oct 17 16:10:19 2023","The main experiment item","True","SternbergTask.osexp","/Users/baileymcwhirter","False","mono","False","18","no","white","no","yes","768","legacy","111","11","/Users/baileymcwhirter/BMsubject-4.csv","legacy","8 4 3 9","Melodramatic Milgram","4.0.5","0","n","0","right","right","right","right","NA","931.0","34137","5612","931","NA","2","legacy","4","1024","2","48000","-16","experiment","4","even","5","796117","36758","792875","793908","2454","117494","793910","663693","2529","111881","798119","799051","794912","798119","NA","Sternberg Task","120","105598.0","124","1024"
"96","96","849","849","black","experiment","legacy","legacy","legacy","1","undefined","1","left","124","0","124","124","0","0","124","124","0","0","124","124","124","124","0","Tue Oct 17 16:10:19 2023","The main experiment item","True","SternbergTask.osexp","/Users/baileymcwhirter","False","mono","False","18","no","white","no","yes","768","legacy","112","11","/Users/baileymcwhirter/BMsubject-4.csv","legacy","3 2 1 4 7","Melodramatic Milgram","4.0.5","2","y","0","left","right","right","left","NA","546.0","34137","5612","546","NA","2","legacy","5","1024","2","48000","-16","experiment","4","even","2","802297","36758","799053","800084","2454","117494","800086","663693","2529","111881","804301","804848","801091","804301","NA","Sternberg Task","121","106144.0","125","1024"
"96","96","848","848","black","experiment","legacy","legacy","legacy","1","undefined","1","right","125","0","125","125","0","0","125","125","0","0","125","125","125","125","0","Tue Oct 17 16:10:19 2023","The main experiment item","True","SternbergTask.osexp","/Users/baileymcwhirter","False","mono","False","18","no","white","no","yes","768","legacy","113","11","/Users/baileymcwhirter/BMsubject-4.csv","legacy","9 5 3 2 8 6","Melodramatic Milgram","4.0.5","0","n","0","right","right","right","right","NA","819.0","34137","5612","819","NA","2","legacy","6","1024","2","48000","-16","experiment","4","even","7","808093","36758","804851","805880","2454","117494","805883","663693","2529","111881","810095","810915","806888","810095","NA","Sternberg Task","122","106963.0","126","1024"
"96","96","845","845","black","experiment","legacy","legacy","legacy","1","undefined","1","right","126","0","126","126","0","0","126","126","0","0","126","126","126","126","0","Tue Oct 17 16:10:19 2023","The main experiment item","True","SternbergTask.osexp","/Users/baileymcwhirter","False","mono","False","18","no","white","no","yes","768","legacy","114","11","/Users/baileymcwhirter/BMsubject-4.csv","legacy","5","Melodramatic Milgram","4.0.5","0","n","0","right","right","right","right","NA","477.0","34137","5612","477","NA","2","legacy","1","1024","2","48000","-16","experiment","4","even","8","814164","36758","810918","811954","2454","117494","811956","663693","2529","111881","816166","816645","812958","816166","NA","Sternberg Task","123","107440.0","127","1024"
"96","96","848","848","black","experiment","legacy","legacy","legacy","1","undefined","1","right","127","0","127","127","0","0","127","127","0","0","127","127","127","127","0","Tue Oct 17 16:10:19 2023","The main experiment item","True","SternbergTask.osexp","/Users/baileymcwhirter","False","mono","False","18","no","white","no","yes","768","legacy","115","11","/Users/baileymcwhirter/BMsubject-4.csv","legacy","1 4 9 2 5","Melodramatic Milgram","4.0.5","0","n","0","right","right","right","right","NA","1129.0","34137","5612","1129","NA","2","legacy","5","1024","2","48000","-16","experiment","4","even","7","819889","36758","816647","817678","2454","117494","817680","663693","2529","111881","821893","823023","818684","821893","NA","Sternberg Task","124","108569.0","128","1024"
