"acc","accuracy","average_response_time","avg_rt","background","block","canvas_backend","clock_backend","color_backend","compensation","coordinates","correct","correct_instruction1","correct_keyboard_response_1","correct_response","count_ISI_1","count_PracticeLoop","count_correctFeedback_1","count_expSequence_1","count_experiment","count_experimentLoop","count_fixation_1","count_incorrectFeedback_1","count_instruction1","count_instruction2","count_keyboard_response_1","count_logger_1","count_memorySet_1","count_probe_1","count_thankYou","datetime","description","disable_garbage_collection","experiment_file","experiment_path","font_bold","font_family","font_italic","font_size","font_underline","foreground","form_clicks","fullscreen","height","keyboard_backend","live_row","live_row_PracticeLoop","logfile","mouse_backend","numberSet","opensesame_codename","opensesame_version","posInSet","present","psychopy_waitblanking","repeat_cycle","response","response_instruction1","response_instruction2","response_keyboard_response_1","response_thankYou","response_time","response_time_instruction1","response_time_instruction2","response_time_keyboard_response_1","response_time_thankYou","round_decimals","sampler_backend","setSize","sound_buf_size","sound_channels","sound_freq","sound_sample_size","start","subject_nr","subject_parity","target","time_ISI_1","time_PracticeLoop","time_correctFeedback_1","time_expSequence_1","time_experiment","time_experimentLoop","time_fixation_1","time_incorrectFeedback_1","time_instruction1","time_instruction2","time_keyboard_response_1","time_logger_1","time_memorySet_1","time_probe_1","time_thankYou","title","total_correct","total_response_time","total_responses","uniform_coordinates","width"
"100","100","1482","1482","black","practice","legacy","legacy","legacy","0","uniform","1","undefined","1","left","0","0","0","0","0","0","0","0","0","0","0","0","0","0","0","Sun Oct 16 13:33:09 2022","The main experiment item","yes","SternbergTask.osexp","C:/Users/lil_p/OneDrive/Documents/School/Advanced Quantitative Analysis/Lab 3.1","no","mono","no","18","no","white","no","yes","768","legacy","0","0","C:/Users/lil_p/OneDrive/Documents/School/Advanced Quantitative Analysis/Lab 3.1/wp-subject-2.csv","legacy","1 7 9 8 5","Lentiform Loewenfeld","3.3.12","4","y","yes","0","left","rightleftdown","NA","left","NA","1482","25352","NA","1482","NA","2","legacy","5","1024","2","48000","-16","experiment","2","even","8","36761","33441","NA","34555","3361","NA","34557","NA","3371","NA","38763","40246","35558","38762","NA","Sternberg Task","1","1482","1","yes","1024"
"50","50","1741","1741","black","practice","legacy","legacy","legacy","0","uniform","0","undefined","0","right","1","0","1","1","0","0","1","1","0","0","1","1","1","1","0","Sun Oct 16 13:33:09 2022","The main experiment item","yes","SternbergTask.osexp","C:/Users/lil_p/OneDrive/Documents/School/Advanced Quantitative Analysis/Lab 3.1","no","mono","no","18","no","white","no","yes","768","legacy","1","1","C:/Users/lil_p/OneDrive/Documents/School/Advanced Quantitative Analysis/Lab 3.1/wp-subject-2.csv","legacy","5","Lentiform Loewenfeld","3.3.12","0","n","yes","0","None","rightleftdown","NA","None","NA","2000","25352","NA","2000","NA","2","legacy","1","1024","2","48000","-16","experiment","2","even","3","43652","33441","40325","41447","3361","NA","41450","NA","3371","NA","45653","47653","42451","45653","NA","Sternberg Task","1","3482","2","yes","1024"
"33.333333333333336","33.333333333333336","1827.3333333333333","1827.3333333333333","black","practice","legacy","legacy","legacy","0","uniform","0","undefined","0","left","2","0","2","2","0","0","2","2","0","0","2","2","2","2","0","Sun Oct 16 13:33:09 2022","The main experiment item","yes","SternbergTask.osexp","C:/Users/lil_p/OneDrive/Documents/School/Advanced Quantitative Analysis/Lab 3.1","no","mono","no","18","no","white","no","yes","768","legacy","2","2","C:/Users/lil_p/OneDrive/Documents/School/Advanced Quantitative Analysis/Lab 3.1/wp-subject-2.csv","legacy","4 8","Lentiform Loewenfeld","3.3.12","1","y","yes","0","None","rightleftdown","NA","None","NA","2000","25352","NA","2000","NA","2","legacy","2","1024","2","48000","-16","experiment","2","even","4","50985","33441","40325","48781","3361","NA","48783","47659","3371","NA","52986","54986","49784","52986","NA","Sternberg Task","1","5482","3","yes","1024"
"50","50","1600.5","1600.5","black","practice","legacy","legacy","legacy","0","uniform","1","undefined","1","left","3","0","3","3","0","0","3","3","0","0","3","3","3","3","0","Sun Oct 16 13:33:09 2022","The main experiment item","yes","SternbergTask.osexp","C:/Users/lil_p/OneDrive/Documents/School/Advanced Quantitative Analysis/Lab 3.1","no","mono","no","18","no","white","no","yes","768","legacy","3","3","C:/Users/lil_p/OneDrive/Documents/School/Advanced Quantitative Analysis/Lab 3.1/wp-subject-2.csv","legacy","4 3 1 7 9 8","Lentiform Loewenfeld","3.3.12","1","y","yes","0","left","rightleftdown","NA","left","NA","920","25352","NA","920","NA","2","legacy","6","1024","2","48000","-16","experiment","2","even","4","58307","33441","40325","56103","3361","NA","56105","54992","3371","NA","60308","61229","57106","60308","NA","Sternberg Task","2","6402","4","yes","1024"
"60","60","1481","1481","black","practice","legacy","legacy","legacy","0","uniform","1","undefined","1","right","4","0","4","4","0","0","4","4","0","0","4","4","4","4","0","Sun Oct 16 13:33:09 2022","The main experiment item","yes","SternbergTask.osexp","C:/Users/lil_p/OneDrive/Documents/School/Advanced Quantitative Analysis/Lab 3.1","no","mono","no","18","no","white","no","yes","768","legacy","4","4","C:/Users/lil_p/OneDrive/Documents/School/Advanced Quantitative Analysis/Lab 3.1/wp-subject-2.csv","legacy","9 6 7 4 5","Lentiform Loewenfeld","3.3.12","0","n","yes","0","right","rightleftdown","NA","right","NA","1003","25352","NA","1003","NA","2","legacy","5","1024","2","48000","-16","experiment","2","even","3","64563","33441","61235","62359","3361","NA","62361","54992","3371","NA","66564","67568","63362","66564","NA","Sternberg Task","3","7405","5","yes","1024"
"66.66666666666667","66.66666666666667","1446.6666666666667","1446.6666666666667","black","practice","legacy","legacy","legacy","0","uniform","1","undefined","1","left","5","0","5","5","0","0","5","5","0","0","5","5","5","5","0","Sun Oct 16 13:33:09 2022","The main experiment item","yes","SternbergTask.osexp","C:/Users/lil_p/OneDrive/Documents/School/Advanced Quantitative Analysis/Lab 3.1","no","mono","no","18","no","white","no","yes","768","legacy","5","5","C:/Users/lil_p/OneDrive/Documents/School/Advanced Quantitative Analysis/Lab 3.1/wp-subject-2.csv","legacy","2 9 4","Lentiform Loewenfeld","3.3.12","3","y","yes","0","left","rightleftdown","NA","left","NA","1275","25352","NA","1275","NA","2","legacy","3","1024","2","48000","-16","experiment","2","even","4","70896","33441","67572","68691","3361","NA","68693","54992","3371","NA","72897","74173","69694","72897","NA","Sternberg Task","4","8680","6","yes","1024"
"71.42857142857143","71.42857142857143","1262","1262","black","practice","legacy","legacy","legacy","0","uniform","1","undefined","1","left","6","0","6","6","0","0","6","6","0","0","6","6","6","6","0","Sun Oct 16 13:33:09 2022","The main experiment item","yes","SternbergTask.osexp","C:/Users/lil_p/OneDrive/Documents/School/Advanced Quantitative Analysis/Lab 3.1","no","mono","no","18","no","white","no","yes","768","legacy","6","6","C:/Users/lil_p/OneDrive/Documents/School/Advanced Quantitative Analysis/Lab 3.1/wp-subject-2.csv","legacy","6","Lentiform Loewenfeld","3.3.12","1","y","yes","0","left","rightleftdown","NA","left","NA","154","25352","NA","154","NA","2","legacy","1","1024","2","48000","-16","experiment","2","even","6","77498","33441","74177","75294","3361","NA","75296","54992","3371","NA","79500","79654","76297","79499","NA","Sternberg Task","5","8834","7","yes","1024"
"75","75","1198","1198","black","practice","legacy","legacy","legacy","0","uniform","1","undefined","1","right","7","0","7","7","0","0","7","7","0","0","7","7","7","7","0","Sun Oct 16 13:33:09 2022","The main experiment item","yes","SternbergTask.osexp","C:/Users/lil_p/OneDrive/Documents/School/Advanced Quantitative Analysis/Lab 3.1","no","mono","no","18","no","white","no","yes","768","legacy","7","7","C:/Users/lil_p/OneDrive/Documents/School/Advanced Quantitative Analysis/Lab 3.1/wp-subject-2.csv","legacy","2 1","Lentiform Loewenfeld","3.3.12","0","n","yes","0","right","rightleftdown","NA","right","NA","750","25352","NA","750","NA","2","legacy","2","1024","2","48000","-16","experiment","2","even","5","82985","33441","79660","80780","3361","NA","80783","54992","3371","NA","84986","85736","81784","84986","NA","Sternberg Task","6","9584","8","yes","1024"
"77.77777777777777","77.77777777777777","1142","1142","black","practice","legacy","legacy","legacy","0","uniform","1","undefined","1","right","8","0","8","8","0","0","8","8","0","0","8","8","8","8","0","Sun Oct 16 13:33:09 2022","The main experiment item","yes","SternbergTask.osexp","C:/Users/lil_p/OneDrive/Documents/School/Advanced Quantitative Analysis/Lab 3.1","no","mono","no","18","no","white","no","yes","768","legacy","8","8","C:/Users/lil_p/OneDrive/Documents/School/Advanced Quantitative Analysis/Lab 3.1/wp-subject-2.csv","legacy","3 1 9 4","Lentiform Loewenfeld","3.3.12","0","n","yes","0","right","rightleftdown","NA","right","NA","694","25352","NA","694","NA","2","legacy","4","1024","2","48000","-16","experiment","2","even","6","89056","33441","85741","86852","3361","NA","86854","54992","3371","NA","91057","91752","87855","91057","NA","Sternberg Task","7","10278","9","yes","1024"
"80","80","1137.4","1137.4","black","practice","legacy","legacy","legacy","0","uniform","1","undefined","1","left","9","0","9","9","0","0","9","9","0","0","9","9","9","9","0","Sun Oct 16 13:33:09 2022","The main experiment item","yes","SternbergTask.osexp","C:/Users/lil_p/OneDrive/Documents/School/Advanced Quantitative Analysis/Lab 3.1","no","mono","no","18","no","white","no","yes","768","legacy","9","9","C:/Users/lil_p/OneDrive/Documents/School/Advanced Quantitative Analysis/Lab 3.1/wp-subject-2.csv","legacy","1 5 2 9","Lentiform Loewenfeld","3.3.12","2","y","yes","0","left","rightleftdown","NA","left","NA","1096","25352","NA","1096","NA","2","legacy","4","1024","2","48000","-16","experiment","2","even","5","95077","33441","91758","92871","3361","NA","92873","54992","3371","NA","97078","98174","93875","97078","NA","Sternberg Task","8","11374","10","yes","1024"
"81.81818181818181","81.81818181818181","1118.909090909091","1118.909090909091","black","practice","legacy","legacy","legacy","0","uniform","1","undefined","1","right","10","0","10","10","0","0","10","10","0","0","10","10","10","10","0","Sun Oct 16 13:33:09 2022","The main experiment item","yes","SternbergTask.osexp","C:/Users/lil_p/OneDrive/Documents/School/Advanced Quantitative Analysis/Lab 3.1","no","mono","no","18","no","white","no","yes","768","legacy","10","10","C:/Users/lil_p/OneDrive/Documents/School/Advanced Quantitative Analysis/Lab 3.1/wp-subject-2.csv","legacy","4 1 5","Lentiform Loewenfeld","3.3.12","0","n","yes","0","right","rightleftdown","NA","right","NA","934","25352","NA","934","NA","2","legacy","3","1024","2","48000","-16","experiment","2","even","2","101497","33441","98181","99292","3361","NA","99294","54992","3371","NA","103498","104433","100296","103498","NA","Sternberg Task","9","12308","11","yes","1024"
"83.33333333333333","83.33333333333333","1099.5833333333333","1099.5833333333333","black","practice","legacy","legacy","legacy","0","uniform","1","undefined","1","right","11","0","11","11","0","0","11","11","0","0","11","11","11","11","0","Sun Oct 16 13:33:09 2022","The main experiment item","yes","SternbergTask.osexp","C:/Users/lil_p/OneDrive/Documents/School/Advanced Quantitative Analysis/Lab 3.1","no","mono","no","18","no","white","no","yes","768","legacy","11","11","C:/Users/lil_p/OneDrive/Documents/School/Advanced Quantitative Analysis/Lab 3.1/wp-subject-2.csv","legacy","5 7 8 4 1 2","Lentiform Loewenfeld","3.3.12","0","n","yes","0","right","rightleftdown","NA","right","NA","887","25352","NA","887","NA","2","legacy","6","1024","2","48000","-16","experiment","2","even","6","107773","33441","104438","105569","3361","NA","105571","54992","3371","NA","109774","110662","106572","109774","NA","Sternberg Task","10","13195","12","yes","1024"
"84.61538461538461","84.61538461538461","1090.6153846153845","1090.6153846153845","black","experiment","legacy","legacy","legacy","0","uniform","1","undefined","1","left","12","0","12","12","0","0","12","12","0","0","12","12","12","12","0","Sun Oct 16 13:33:09 2022","The main experiment item","yes","SternbergTask.osexp","C:/Users/lil_p/OneDrive/Documents/School/Advanced Quantitative Analysis/Lab 3.1","no","mono","no","18","no","white","no","yes","768","legacy","0","11","C:/Users/lil_p/OneDrive/Documents/School/Advanced Quantitative Analysis/Lab 3.1/wp-subject-2.csv","legacy","9 6 2 4 1","Lentiform Loewenfeld","3.3.12","4","y","yes","0","left","rightleftdown","right","left","NA","983","25352","5564","983","NA","2","legacy","5","1024","2","48000","-16","experiment","2","even","4","119599","33441","110668","117395","3361","117270","117397","54992","3371","111705","121601","122585","118398","121600","NA","Sternberg Task","11","14178","13","yes","1024"
"85.71428571428571","85.71428571428571","1058.357142857143","1058.357142857143","black","experiment","legacy","legacy","legacy","0","uniform","1","undefined","1","right","13","0","13","13","0","0","13","13","0","0","13","13","13","13","0","Sun Oct 16 13:33:09 2022","The main experiment item","yes","SternbergTask.osexp","C:/Users/lil_p/OneDrive/Documents/School/Advanced Quantitative Analysis/Lab 3.1","no","mono","no","18","no","white","no","yes","768","legacy","1","11","C:/Users/lil_p/OneDrive/Documents/School/Advanced Quantitative Analysis/Lab 3.1/wp-subject-2.csv","legacy","8 4 3 9","Lentiform Loewenfeld","3.3.12","0","n","yes","0","right","rightleftdown","right","right","NA","639","25352","5564","639","NA","2","legacy","4","1024","2","48000","-16","experiment","2","even","5","125907","33441","122591","123702","3361","117270","123705","54992","3371","111705","127908","128548","124706","127908","NA","Sternberg Task","12","14817","14","yes","1024"
"80","80","1028.7333333333333","1028.7333333333333","black","experiment","legacy","legacy","legacy","0","uniform","0","undefined","0","right","14","0","14","14","0","0","14","14","0","0","14","14","14","14","0","Sun Oct 16 13:33:09 2022","The main experiment item","yes","SternbergTask.osexp","C:/Users/lil_p/OneDrive/Documents/School/Advanced Quantitative Analysis/Lab 3.1","no","mono","no","18","no","white","no","yes","768","legacy","2","11","C:/Users/lil_p/OneDrive/Documents/School/Advanced Quantitative Analysis/Lab 3.1/wp-subject-2.csv","legacy","9 7 4 5 8","Lentiform Loewenfeld","3.3.12","0","n","yes","0","left","rightleftdown","right","left","NA","614","25352","5564","614","NA","2","legacy","5","1024","2","48000","-16","experiment","2","even","6","131885","33441","128554","129681","3361","117270","129683","54992","3371","111705","133886","134501","130684","133886","NA","Sternberg Task","12","15431","15","yes","1024"
"81.25","81.25","1053.8125","1053.8125","black","experiment","legacy","legacy","legacy","0","uniform","1","undefined","1","right","15","0","15","15","0","0","15","15","0","0","15","15","15","15","0","Sun Oct 16 13:33:09 2022","The main experiment item","yes","SternbergTask.osexp","C:/Users/lil_p/OneDrive/Documents/School/Advanced Quantitative Analysis/Lab 3.1","no","mono","no","18","no","white","no","yes","768","legacy","3","11","C:/Users/lil_p/OneDrive/Documents/School/Advanced Quantitative Analysis/Lab 3.1/wp-subject-2.csv","legacy","1 7 5 2 9","Lentiform Loewenfeld","3.3.12","0","n","yes","0","right","rightleftdown","right","right","NA","1430","25352","5564","1430","NA","2","legacy","5","1024","2","48000","-16","experiment","2","even","3","137837","33441","128554","135633","3361","117270","135635","134507","3371","111705","139838","141269","136636","139838","NA","Sternberg Task","13","16861","16","yes","1024"
"76.47058823529412","76.47058823529412","1077","1077","black","experiment","legacy","legacy","legacy","0","uniform","0","undefined","0","left","16","0","16","16","0","0","16","16","0","0","16","16","16","16","0","Sun Oct 16 13:33:09 2022","The main experiment item","yes","SternbergTask.osexp","C:/Users/lil_p/OneDrive/Documents/School/Advanced Quantitative Analysis/Lab 3.1","no","mono","no","18","no","white","no","yes","768","legacy","4","11","C:/Users/lil_p/OneDrive/Documents/School/Advanced Quantitative Analysis/Lab 3.1/wp-subject-2.csv","legacy","3 4 9 6 2 9","Lentiform Loewenfeld","3.3.12","5","y","yes","0","right","rightleftdown","right","right","NA","1448","25352","5564","1448","NA","2","legacy","6","1024","2","48000","-16","experiment","2","even","2","144617","33441","141274","142412","3361","117270","142415","134507","3371","111705","146618","148067","143416","146618","NA","Sternberg Task","13","18309","17","yes","1024"
"77.77777777777777","77.77777777777777","1073.8333333333333","1073.8333333333333","black","experiment","legacy","legacy","legacy","0","uniform","1","undefined","1","right","17","0","17","17","0","0","17","17","0","0","17","17","17","17","0","Sun Oct 16 13:33:09 2022","The main experiment item","yes","SternbergTask.osexp","C:/Users/lil_p/OneDrive/Documents/School/Advanced Quantitative Analysis/Lab 3.1","no","mono","no","18","no","white","no","yes","768","legacy","5","11","C:/Users/lil_p/OneDrive/Documents/School/Advanced Quantitative Analysis/Lab 3.1/wp-subject-2.csv","legacy","9","Lentiform Loewenfeld","3.3.12","0","n","yes","0","right","rightleftdown","right","right","NA","1020","25352","5564","1020","NA","2","legacy","1","1024","2","48000","-16","experiment","2","even","6","151422","33441","141274","149217","3361","117270","149220","148071","3371","111705","153423","154444","150221","153423","NA","Sternberg Task","14","19329","18","yes","1024"
"78.94736842105263","78.94736842105263","1076.5263157894738","1076.5263157894738","black","experiment","legacy","legacy","legacy","0","uniform","1","undefined","1","left","18","0","18","18","0","0","18","18","0","0","18","18","18","18","0","Sun Oct 16 13:33:09 2022","The main experiment item","yes","SternbergTask.osexp","C:/Users/lil_p/OneDrive/Documents/School/Advanced Quantitative Analysis/Lab 3.1","no","mono","no","18","no","white","no","yes","768","legacy","6","11","C:/Users/lil_p/OneDrive/Documents/School/Advanced Quantitative Analysis/Lab 3.1/wp-subject-2.csv","legacy","3 5 9 6 2 4","Lentiform Loewenfeld","3.3.12","1","y","yes","0","left","rightleftdown","right","left","NA","1125","25352","5564","1125","NA","2","legacy","6","1024","2","48000","-16","experiment","2","even","3","157781","33441","154450","155577","3361","117270","155579","148071","3371","111705","159783","160909","156580","159783","NA","Sternberg Task","15","20454","19","yes","1024"
"80","80","1066.85","1066.85","black","experiment","legacy","legacy","legacy","0","uniform","1","undefined","1","right","19","0","19","19","0","0","19","19","0","0","19","19","19","19","0","Sun Oct 16 13:33:09 2022","The main experiment item","yes","SternbergTask.osexp","C:/Users/lil_p/OneDrive/Documents/School/Advanced Quantitative Analysis/Lab 3.1","no","mono","no","18","no","white","no","yes","768","legacy","7","11","C:/Users/lil_p/OneDrive/Documents/School/Advanced Quantitative Analysis/Lab 3.1/wp-subject-2.csv","legacy","1 7 8 3 9","Lentiform Loewenfeld","3.3.12","0","n","yes","0","right","rightleftdown","right","right","NA","883","25352","5564","883","NA","2","legacy","5","1024","2","48000","-16","experiment","2","even","2","164246","33441","160914","162041","3361","117270","162043","148071","3371","111705","166247","167131","163044","166247","NA","Sternberg Task","16","21337","20","yes","1024"
"80.95238095238095","80.95238095238095","1042","1042","black","experiment","legacy","legacy","legacy","0","uniform","1","undefined","1","right","20","0","20","20","0","0","20","20","0","0","20","20","20","20","0","Sun Oct 16 13:33:09 2022","The main experiment item","yes","SternbergTask.osexp","C:/Users/lil_p/OneDrive/Documents/School/Advanced Quantitative Analysis/Lab 3.1","no","mono","no","18","no","white","no","yes","768","legacy","8","11","C:/Users/lil_p/OneDrive/Documents/School/Advanced Quantitative Analysis/Lab 3.1/wp-subject-2.csv","legacy","7 9","Lentiform Loewenfeld","3.3.12","0","n","yes","0","right","rightleftdown","right","right","NA","545","25352","5564","545","NA","2","legacy","2","1024","2","48000","-16","experiment","2","even","1","170469","33441","167136","168262","3361","117270","168265","148071","3371","111705","172470","173016","169266","172470","NA","Sternberg Task","17","21882","21","yes","1024"
"77.27272727272727","77.27272727272727","1067.409090909091","1067.409090909091","black","experiment","legacy","legacy","legacy","0","uniform","0","undefined","0","right","21","0","21","21","0","0","21","21","0","0","21","21","21","21","0","Sun Oct 16 13:33:09 2022","The main experiment item","yes","SternbergTask.osexp","C:/Users/lil_p/OneDrive/Documents/School/Advanced Quantitative Analysis/Lab 3.1","no","mono","no","18","no","white","no","yes","768","legacy","9","11","C:/Users/lil_p/OneDrive/Documents/School/Advanced Quantitative Analysis/Lab 3.1/wp-subject-2.csv","legacy","7 6 4 8 1 2","Lentiform Loewenfeld","3.3.12","0","n","yes","0","left","rightleftdown","right","left","NA","1601","25352","5564","1601","NA","2","legacy","6","1024","2","48000","-16","experiment","2","even","9","176340","33441","173022","174134","3361","117270","174136","148071","3371","111705","178342","179944","175138","178341","NA","Sternberg Task","17","23483","22","yes","1024"
"78.26086956521739","78.26086956521739","1092.1739130434783","1092.1739130434783","black","experiment","legacy","legacy","legacy","0","uniform","1","undefined","1","right","22","0","22","22","0","0","22","22","0","0","22","22","22","22","0","Sun Oct 16 13:33:09 2022","The main experiment item","yes","SternbergTask.osexp","C:/Users/lil_p/OneDrive/Documents/School/Advanced Quantitative Analysis/Lab 3.1","no","mono","no","18","no","white","no","yes","768","legacy","10","11","C:/Users/lil_p/OneDrive/Documents/School/Advanced Quantitative Analysis/Lab 3.1/wp-subject-2.csv","legacy","7 3 2 8","Lentiform Loewenfeld","3.3.12","0","n","yes","0","right","rightleftdown","right","right","NA","1637","25352","5564","1637","NA","2","legacy","4","1024","2","48000","-16","experiment","2","even","4","183272","33441","173022","181065","3361","117270","181068","179948","3371","111705","185273","186911","182070","185273","NA","Sternberg Task","18","25120","23","yes","1024"
"79.16666666666667","79.16666666666667","1128.5","1128.5","black","experiment","legacy","legacy","legacy","0","uniform","1","undefined","1","right","23","0","23","23","0","0","23","23","0","0","23","23","23","23","0","Sun Oct 16 13:33:09 2022","The main experiment item","yes","SternbergTask.osexp","C:/Users/lil_p/OneDrive/Documents/School/Advanced Quantitative Analysis/Lab 3.1","no","mono","no","18","no","white","no","yes","768","legacy","11","11","C:/Users/lil_p/OneDrive/Documents/School/Advanced Quantitative Analysis/Lab 3.1/wp-subject-2.csv","legacy","4 8 1 2","Lentiform Loewenfeld","3.3.12","0","n","yes","0","right","rightleftdown","right","right","NA","1964","25352","5564","1964","NA","2","legacy","4","1024","2","48000","-16","experiment","2","even","7","190249","33441","186917","188043","3361","117270","188046","179948","3371","111705","192250","194215","189048","192250","NA","Sternberg Task","19","27084","24","yes","1024"
"80","80","1129.16","1129.16","black","experiment","legacy","legacy","legacy","0","uniform","1","undefined","1","left","24","0","24","24","0","0","24","24","0","0","24","24","24","24","0","Sun Oct 16 13:33:09 2022","The main experiment item","yes","SternbergTask.osexp","C:/Users/lil_p/OneDrive/Documents/School/Advanced Quantitative Analysis/Lab 3.1","no","mono","no","18","no","white","no","yes","768","legacy","12","11","C:/Users/lil_p/OneDrive/Documents/School/Advanced Quantitative Analysis/Lab 3.1/wp-subject-2.csv","legacy","9 3 1 2 5","Lentiform Loewenfeld","3.3.12","4","y","yes","0","left","rightleftdown","right","left","NA","1145","25352","5564","1145","NA","2","legacy","5","1024","2","48000","-16","experiment","2","even","2","197550","33441","194222","195344","3361","117270","195347","179948","3371","111705","199551","200697","196348","199551","NA","Sternberg Task","20","28229","25","yes","1024"
"76.92307692307692","76.92307692307692","1162.6538461538462","1162.6538461538462","black","experiment","legacy","legacy","legacy","0","uniform","0","undefined","0","right","25","0","25","25","0","0","25","25","0","0","25","25","25","25","0","Sun Oct 16 13:33:09 2022","The main experiment item","yes","SternbergTask.osexp","C:/Users/lil_p/OneDrive/Documents/School/Advanced Quantitative Analysis/Lab 3.1","no","mono","no","18","no","white","no","yes","768","legacy","13","11","C:/Users/lil_p/OneDrive/Documents/School/Advanced Quantitative Analysis/Lab 3.1/wp-subject-2.csv","legacy","4 2 7 6 1 3","Lentiform Loewenfeld","3.3.12","0","n","yes","0","None","rightleftdown","right","None","NA","2000","25352","5564","2000","NA","2","legacy","6","1024","2","48000","-16","experiment","2","even","8","204582","33441","200702","201829","3361","117270","202380","179948","3371","111705","206584","208584","203381","206583","NA","Sternberg Task","20","30229","26","yes","1024"
"74.07407407407408","74.07407407407408","1193.6666666666667","1193.6666666666667","black","experiment","legacy","legacy","legacy","0","uniform","0","undefined","0","left","26","0","26","26","0","0","26","26","0","0","26","26","26","26","0","Sun Oct 16 13:33:09 2022","The main experiment item","yes","SternbergTask.osexp","C:/Users/lil_p/OneDrive/Documents/School/Advanced Quantitative Analysis/Lab 3.1","no","mono","no","18","no","white","no","yes","768","legacy","14","11","C:/Users/lil_p/OneDrive/Documents/School/Advanced Quantitative Analysis/Lab 3.1/wp-subject-2.csv","legacy","6 1 2","Lentiform Loewenfeld","3.3.12","3","y","yes","0","None","rightleftdown","right","None","NA","2000","25352","5564","2000","NA","2","legacy","3","1024","2","48000","-16","experiment","2","even","2","211926","33441","200702","209723","3361","117270","209724","208595","3371","111705","213928","215928","210725","213928","NA","Sternberg Task","20","32229","27","yes","1024"
"71.42857142857143","71.42857142857143","1222.4642857142858","1222.4642857142858","black","experiment","legacy","legacy","legacy","0","uniform","0","undefined","0","right","27","0","27","27","0","0","27","27","0","0","27","27","27","27","0","Sun Oct 16 13:33:09 2022","The main experiment item","yes","SternbergTask.osexp","C:/Users/lil_p/OneDrive/Documents/School/Advanced Quantitative Analysis/Lab 3.1","no","mono","no","18","no","white","no","yes","768","legacy","15","11","C:/Users/lil_p/OneDrive/Documents/School/Advanced Quantitative Analysis/Lab 3.1/wp-subject-2.csv","legacy","2 8 9","Lentiform Loewenfeld","3.3.12","0","n","yes","0","None","rightleftdown","right","None","NA","2000","25352","5564","2000","NA","2","legacy","3","1024","2","48000","-16","experiment","2","even","6","219262","33441","200702","217059","3361","117270","217060","215933","3371","111705","221263","223263","218061","221263","NA","Sternberg Task","20","34229","28","yes","1024"
"68.96551724137932","68.96551724137932","1249.2758620689656","1249.2758620689656","black","experiment","legacy","legacy","legacy","0","uniform","0","undefined","0","right","28","0","28","28","0","0","28","28","0","0","28","28","28","28","0","Sun Oct 16 13:33:09 2022","The main experiment item","yes","SternbergTask.osexp","C:/Users/lil_p/OneDrive/Documents/School/Advanced Quantitative Analysis/Lab 3.1","no","mono","no","18","no","white","no","yes","768","legacy","16","11","C:/Users/lil_p/OneDrive/Documents/School/Advanced Quantitative Analysis/Lab 3.1/wp-subject-2.csv","legacy","2 3 8 5 6 7","Lentiform Loewenfeld","3.3.12","0","n","yes","0","None","rightleftdown","right","None","NA","2000","25352","5564","2000","NA","2","legacy","6","1024","2","48000","-16","experiment","2","even","1","226594","33441","200702","224391","3361","117270","224392","223269","3371","111705","228595","230595","225393","228595","NA","Sternberg Task","20","36229","29","yes","1024"
"66.66666666666667","66.66666666666667","1274.3","1274.3","black","experiment","legacy","legacy","legacy","0","uniform","0","undefined","0","left","29","0","29","29","0","0","29","29","0","0","29","29","29","29","0","Sun Oct 16 13:33:09 2022","The main experiment item","yes","SternbergTask.osexp","C:/Users/lil_p/OneDrive/Documents/School/Advanced Quantitative Analysis/Lab 3.1","no","mono","no","18","no","white","no","yes","768","legacy","17","11","C:/Users/lil_p/OneDrive/Documents/School/Advanced Quantitative Analysis/Lab 3.1/wp-subject-2.csv","legacy","2 4 6 9","Lentiform Loewenfeld","3.3.12","3","y","yes","0","None","rightleftdown","right","None","NA","2000","25352","5564","2000","NA","2","legacy","4","1024","2","48000","-16","experiment","2","even","6","233951","33441","200702","231748","3361","117270","231749","230600","3371","111705","235952","237952","232750","235952","NA","Sternberg Task","20","38229","30","yes","1024"
"64.51612903225806","64.51612903225806","1297.7096774193549","1297.7096774193549","black","experiment","legacy","legacy","legacy","0","uniform","0","undefined","0","left","30","0","30","30","0","0","30","30","0","0","30","30","30","30","0","Sun Oct 16 13:33:09 2022","The main experiment item","yes","SternbergTask.osexp","C:/Users/lil_p/OneDrive/Documents/School/Advanced Quantitative Analysis/Lab 3.1","no","mono","no","18","no","white","no","yes","768","legacy","18","11","C:/Users/lil_p/OneDrive/Documents/School/Advanced Quantitative Analysis/Lab 3.1/wp-subject-2.csv","legacy","7","Lentiform Loewenfeld","3.3.12","1","y","yes","0","None","rightleftdown","right","None","NA","2000","25352","5564","2000","NA","2","legacy","1","1024","2","48000","-16","experiment","2","even","7","241291","33441","200702","239088","3361","117270","239089","237956","3371","111705","243292","245292","240090","243292","NA","Sternberg Task","20","40229","31","yes","1024"
"62.5","62.5","1319.65625","1319.65625","black","experiment","legacy","legacy","legacy","0","uniform","0","undefined","0","left","31","0","31","31","0","0","31","31","0","0","31","31","31","31","0","Sun Oct 16 13:33:09 2022","The main experiment item","yes","SternbergTask.osexp","C:/Users/lil_p/OneDrive/Documents/School/Advanced Quantitative Analysis/Lab 3.1","no","mono","no","18","no","white","no","yes","768","legacy","19","11","C:/Users/lil_p/OneDrive/Documents/School/Advanced Quantitative Analysis/Lab 3.1/wp-subject-2.csv","legacy","4 6 2 5 1","Lentiform Loewenfeld","3.3.12","5","y","yes","0","None","rightleftdown","right","None","NA","2000","25352","5564","2000","NA","2","legacy","5","1024","2","48000","-16","experiment","2","even","1","248628","33441","200702","246423","3361","117270","246426","245298","3371","111705","250629","252629","247427","250629","NA","Sternberg Task","20","42229","32","yes","1024"
"60.60606060606061","60.60606060606061","1340.2727272727273","1340.2727272727273","black","experiment","legacy","legacy","legacy","0","uniform","0","undefined","0","right","32","0","32","32","0","0","32","32","0","0","32","32","32","32","0","Sun Oct 16 13:33:09 2022","The main experiment item","yes","SternbergTask.osexp","C:/Users/lil_p/OneDrive/Documents/School/Advanced Quantitative Analysis/Lab 3.1","no","mono","no","18","no","white","no","yes","768","legacy","20","11","C:/Users/lil_p/OneDrive/Documents/School/Advanced Quantitative Analysis/Lab 3.1/wp-subject-2.csv","legacy","4 2 6 9","Lentiform Loewenfeld","3.3.12","0","n","yes","0","None","rightleftdown","right","None","NA","2000","25352","5564","2000","NA","2","legacy","4","1024","2","48000","-16","experiment","2","even","7","255951","33441","200702","253748","3361","117270","253749","252634","3371","111705","257952","259952","254750","257952","NA","Sternberg Task","20","44229","33","yes","1024"
"58.8235294117647","58.8235294117647","1359.6764705882354","1359.6764705882354","black","experiment","legacy","legacy","legacy","0","uniform","0","undefined","0","left","33","0","33","33","0","0","33","33","0","0","33","33","33","33","0","Sun Oct 16 13:33:09 2022","The main experiment item","yes","SternbergTask.osexp","C:/Users/lil_p/OneDrive/Documents/School/Advanced Quantitative Analysis/Lab 3.1","no","mono","no","18","no","white","no","yes","768","legacy","21","11","C:/Users/lil_p/OneDrive/Documents/School/Advanced Quantitative Analysis/Lab 3.1/wp-subject-2.csv","legacy","6 2","Lentiform Loewenfeld","3.3.12","1","y","yes","0","None","rightleftdown","right","None","NA","2000","25352","5564","2000","NA","2","legacy","2","1024","2","48000","-16","experiment","2","even","6","263282","33441","200702","261079","3361","117270","261080","259957","3371","111705","265283","267283","262081","265283","NA","Sternberg Task","20","46229","34","yes","1024"
"57.142857142857146","57.142857142857146","1377.9714285714285","1377.9714285714285","black","experiment","legacy","legacy","legacy","0","uniform","0","undefined","0","left","34","0","34","34","0","0","34","34","0","0","34","34","34","34","0","Sun Oct 16 13:33:09 2022","The main experiment item","yes","SternbergTask.osexp","C:/Users/lil_p/OneDrive/Documents/School/Advanced Quantitative Analysis/Lab 3.1","no","mono","no","18","no","white","no","yes","768","legacy","22","11","C:/Users/lil_p/OneDrive/Documents/School/Advanced Quantitative Analysis/Lab 3.1/wp-subject-2.csv","legacy","3 4","Lentiform Loewenfeld","3.3.12","1","y","yes","0","None","rightleftdown","right","None","NA","2000","25352","5564","2000","NA","2","legacy","2","1024","2","48000","-16","experiment","2","even","3","270611","33441","200702","268408","3361","117270","268409","267289","3371","111705","272612","274612","269410","272612","NA","Sternberg Task","20","48229","35","yes","1024"
"55.55555555555556","55.55555555555556","1395.25","1395.25","black","experiment","legacy","legacy","legacy","0","uniform","0","undefined","0","left","35","0","35","35","0","0","35","35","0","0","35","35","35","35","0","Sun Oct 16 13:33:09 2022","The main experiment item","yes","SternbergTask.osexp","C:/Users/lil_p/OneDrive/Documents/School/Advanced Quantitative Analysis/Lab 3.1","no","mono","no","18","no","white","no","yes","768","legacy","23","11","C:/Users/lil_p/OneDrive/Documents/School/Advanced Quantitative Analysis/Lab 3.1/wp-subject-2.csv","legacy","8 1 6","Lentiform Loewenfeld","3.3.12","3","y","yes","0","None","rightleftdown","right","None","NA","2000","25352","5564","2000","NA","2","legacy","3","1024","2","48000","-16","experiment","2","even","6","277948","33441","200702","275744","3361","117270","275746","274617","3371","111705","279949","281949","276747","279949","NA","Sternberg Task","20","50229","36","yes","1024"
"54.054054054054056","54.054054054054056","1411.5945945945946","1411.5945945945946","black","experiment","legacy","legacy","legacy","0","uniform","0","undefined","0","left","36","0","36","36","0","0","36","36","0","0","36","36","36","36","0","Sun Oct 16 13:33:09 2022","The main experiment item","yes","SternbergTask.osexp","C:/Users/lil_p/OneDrive/Documents/School/Advanced Quantitative Analysis/Lab 3.1","no","mono","no","18","no","white","no","yes","768","legacy","24","11","C:/Users/lil_p/OneDrive/Documents/School/Advanced Quantitative Analysis/Lab 3.1/wp-subject-2.csv","legacy","2 3 7 4","Lentiform Loewenfeld","3.3.12","1","y","yes","0","None","rightleftdown","right","None","NA","2000","25352","5564","2000","NA","2","legacy","4","1024","2","48000","-16","experiment","2","even","2","285285","33441","200702","283081","3361","117270","283083","281954","3371","111705","287286","289286","284084","287286","NA","Sternberg Task","20","52229","37","yes","1024"
"52.63157894736842","52.63157894736842","1427.078947368421","1427.078947368421","black","experiment","legacy","legacy","legacy","0","uniform","0","undefined","0","left","37","0","37","37","0","0","37","37","0","0","37","37","37","37","0","Sun Oct 16 13:33:09 2022","The main experiment item","yes","SternbergTask.osexp","C:/Users/lil_p/OneDrive/Documents/School/Advanced Quantitative Analysis/Lab 3.1","no","mono","no","18","no","white","no","yes","768","legacy","25","11","C:/Users/lil_p/OneDrive/Documents/School/Advanced Quantitative Analysis/Lab 3.1/wp-subject-2.csv","legacy","6 5","Lentiform Loewenfeld","3.3.12","2","y","yes","0","None","rightleftdown","right","None","NA","2000","25352","5564","2000","NA","2","legacy","2","1024","2","48000","-16","experiment","2","even","5","292618","33441","200702","290414","3361","117270","290415","289292","3371","111705","294619","296619","291417","294619","NA","Sternberg Task","20","54229","38","yes","1024"
"51.282051282051285","51.282051282051285","1441.7692307692307","1441.7692307692307","black","experiment","legacy","legacy","legacy","0","uniform","0","undefined","0","right","38","0","38","38","0","0","38","38","0","0","38","38","38","38","0","Sun Oct 16 13:33:09 2022","The main experiment item","yes","SternbergTask.osexp","C:/Users/lil_p/OneDrive/Documents/School/Advanced Quantitative Analysis/Lab 3.1","no","mono","no","18","no","white","no","yes","768","legacy","26","11","C:/Users/lil_p/OneDrive/Documents/School/Advanced Quantitative Analysis/Lab 3.1/wp-subject-2.csv","legacy","1","Lentiform Loewenfeld","3.3.12","0","n","yes","0","None","rightleftdown","right","None","NA","2000","25352","5564","2000","NA","2","legacy","1","1024","2","48000","-16","experiment","2","even","7","299955","33441","200702","297752","3361","117270","297753","296624","3371","111705","301956","303956","298754","301956","NA","Sternberg Task","20","56229","39","yes","1024"
"50","50","1455.725","1455.725","black","experiment","legacy","legacy","legacy","0","uniform","0","undefined","0","left","39","0","39","39","0","0","39","39","0","0","39","39","39","39","0","Sun Oct 16 13:33:09 2022","The main experiment item","yes","SternbergTask.osexp","C:/Users/lil_p/OneDrive/Documents/School/Advanced Quantitative Analysis/Lab 3.1","no","mono","no","18","no","white","no","yes","768","legacy","27","11","C:/Users/lil_p/OneDrive/Documents/School/Advanced Quantitative Analysis/Lab 3.1/wp-subject-2.csv","legacy","4 3 2 5 8","Lentiform Loewenfeld","3.3.12","2","y","yes","0","None","rightleftdown","right","None","NA","2000","25352","5564","2000","NA","2","legacy","5","1024","2","48000","-16","experiment","2","even","3","307301","33441","200702","305098","3361","117270","305099","303962","3371","111705","309302","311302","306100","309302","NA","Sternberg Task","20","58229","40","yes","1024"
"48.78048780487805","48.78048780487805","1469","1469","black","experiment","legacy","legacy","legacy","0","uniform","0","undefined","0","left","40","0","40","40","0","0","40","40","0","0","40","40","40","40","0","Sun Oct 16 13:33:09 2022","The main experiment item","yes","SternbergTask.osexp","C:/Users/lil_p/OneDrive/Documents/School/Advanced Quantitative Analysis/Lab 3.1","no","mono","no","18","no","white","no","yes","768","legacy","28","11","C:/Users/lil_p/OneDrive/Documents/School/Advanced Quantitative Analysis/Lab 3.1/wp-subject-2.csv","legacy","4 1 5","Lentiform Loewenfeld","3.3.12","2","y","yes","0","None","rightleftdown","right","None","NA","2000","25352","5564","2000","NA","2","legacy","3","1024","2","48000","-16","experiment","2","even","1","314622","33441","200702","312418","3361","117270","312419","311306","3371","111705","316623","318623","313420","316623","NA","Sternberg Task","20","60229","41","yes","1024"
"47.61904761904762","47.61904761904762","1481.642857142857","1481.642857142857","black","experiment","legacy","legacy","legacy","0","uniform","0","undefined","0","right","41","0","41","41","0","0","41","41","0","0","41","41","41","41","0","Sun Oct 16 13:33:09 2022","The main experiment item","yes","SternbergTask.osexp","C:/Users/lil_p/OneDrive/Documents/School/Advanced Quantitative Analysis/Lab 3.1","no","mono","no","18","no","white","no","yes","768","legacy","29","11","C:/Users/lil_p/OneDrive/Documents/School/Advanced Quantitative Analysis/Lab 3.1/wp-subject-2.csv","legacy","3 9 8 1 6 4","Lentiform Loewenfeld","3.3.12","0","n","yes","0","None","rightleftdown","right","None","NA","2000","25352","5564","2000","NA","2","legacy","6","1024","2","48000","-16","experiment","2","even","7","321969","33441","200702","319765","3361","117270","319766","318629","3371","111705","323970","325970","320767","323970","NA","Sternberg Task","20","62229","42","yes","1024"
"46.51162790697674","46.51162790697674","1493.6976744186047","1493.6976744186047","black","experiment","legacy","legacy","legacy","0","uniform","0","undefined","0","left","42","0","42","42","0","0","42","42","0","0","42","42","42","42","0","Sun Oct 16 13:33:09 2022","The main experiment item","yes","SternbergTask.osexp","C:/Users/lil_p/OneDrive/Documents/School/Advanced Quantitative Analysis/Lab 3.1","no","mono","no","18","no","white","no","yes","768","legacy","30","11","C:/Users/lil_p/OneDrive/Documents/School/Advanced Quantitative Analysis/Lab 3.1/wp-subject-2.csv","legacy","2 3","Lentiform Loewenfeld","3.3.12","1","y","yes","0","None","rightleftdown","right","None","NA","2000","25352","5564","2000","NA","2","legacy","2","1024","2","48000","-16","experiment","2","even","2","329322","33441","200702","327118","3361","117270","327120","325975","3371","111705","331325","333325","328121","331324","NA","Sternberg Task","20","64229","43","yes","1024"
"45.45454545454545","45.45454545454545","1505.2045454545455","1505.2045454545455","black","experiment","legacy","legacy","legacy","0","uniform","0","undefined","0","left","43","0","43","43","0","0","43","43","0","0","43","43","43","43","0","Sun Oct 16 13:33:09 2022","The main experiment item","yes","SternbergTask.osexp","C:/Users/lil_p/OneDrive/Documents/School/Advanced Quantitative Analysis/Lab 3.1","no","mono","no","18","no","white","no","yes","768","legacy","31","11","C:/Users/lil_p/OneDrive/Documents/School/Advanced Quantitative Analysis/Lab 3.1/wp-subject-2.csv","legacy","3 2 1 4 7","Lentiform Loewenfeld","3.3.12","2","y","yes","0","None","rightleftdown","right","None","NA","2000","25352","5564","2000","NA","2","legacy","5","1024","2","48000","-16","experiment","2","even","2","336684","33441","200702","334480","3361","117270","334482","333337","3371","111705","338685","340685","335483","338685","NA","Sternberg Task","20","66229","44","yes","1024"
"44.44444444444444","44.44444444444444","1516.2","1516.2","black","experiment","legacy","legacy","legacy","0","uniform","0","undefined","0","right","44","0","44","44","0","0","44","44","0","0","44","44","44","44","0","Sun Oct 16 13:33:09 2022","The main experiment item","yes","SternbergTask.osexp","C:/Users/lil_p/OneDrive/Documents/School/Advanced Quantitative Analysis/Lab 3.1","no","mono","no","18","no","white","no","yes","768","legacy","32","11","C:/Users/lil_p/OneDrive/Documents/School/Advanced Quantitative Analysis/Lab 3.1/wp-subject-2.csv","legacy","9 8 2 7 4","Lentiform Loewenfeld","3.3.12","0","n","yes","0","None","rightleftdown","right","None","NA","2000","25352","5564","2000","NA","2","legacy","5","1024","2","48000","-16","experiment","2","even","5","344007","33441","200702","341805","3361","117270","341805","340692","3371","111705","346008","348008","342806","346008","NA","Sternberg Task","20","68229","45","yes","1024"
"43.47826086956522","43.47826086956522","1526.7173913043478","1526.7173913043478","black","experiment","legacy","legacy","legacy","0","uniform","0","undefined","0","right","45","0","45","45","0","0","45","45","0","0","45","45","45","45","0","Sun Oct 16 13:33:09 2022","The main experiment item","yes","SternbergTask.osexp","C:/Users/lil_p/OneDrive/Documents/School/Advanced Quantitative Analysis/Lab 3.1","no","mono","no","18","no","white","no","yes","768","legacy","33","11","C:/Users/lil_p/OneDrive/Documents/School/Advanced Quantitative Analysis/Lab 3.1/wp-subject-2.csv","legacy","6 9 4 5 3 2","Lentiform Loewenfeld","3.3.12","0","n","yes","0","None","rightleftdown","right","None","NA","2000","25352","5564","2000","NA","2","legacy","6","1024","2","48000","-16","experiment","2","even","8","351343","33441","200702","349139","3361","117270","349140","348012","3371","111705","353344","355344","350142","353344","NA","Sternberg Task","20","70229","46","yes","1024"
"42.5531914893617","42.5531914893617","1536.787234042553","1536.787234042553","black","experiment","legacy","legacy","legacy","0","uniform","0","undefined","0","left","46","0","46","46","0","0","46","46","0","0","46","46","46","46","0","Sun Oct 16 13:33:09 2022","The main experiment item","yes","SternbergTask.osexp","C:/Users/lil_p/OneDrive/Documents/School/Advanced Quantitative Analysis/Lab 3.1","no","mono","no","18","no","white","no","yes","768","legacy","34","11","C:/Users/lil_p/OneDrive/Documents/School/Advanced Quantitative Analysis/Lab 3.1/wp-subject-2.csv","legacy","9 8 4","Lentiform Loewenfeld","3.3.12","1","y","yes","0","None","rightleftdown","right","None","NA","2000","25352","5564","2000","NA","2","legacy","3","1024","2","48000","-16","experiment","2","even","9","358667","33441","200702","356463","3361","117270","356464","355350","3371","111705","360668","362668","357465","360668","NA","Sternberg Task","20","72229","47","yes","1024"
"41.666666666666664","41.666666666666664","1546.4375","1546.4375","black","experiment","legacy","legacy","legacy","0","uniform","0","undefined","0","right","47","0","47","47","0","0","47","47","0","0","47","47","47","47","0","Sun Oct 16 13:33:09 2022","The main experiment item","yes","SternbergTask.osexp","C:/Users/lil_p/OneDrive/Documents/School/Advanced Quantitative Analysis/Lab 3.1","no","mono","no","18","no","white","no","yes","768","legacy","35","11","C:/Users/lil_p/OneDrive/Documents/School/Advanced Quantitative Analysis/Lab 3.1/wp-subject-2.csv","legacy","7 9 1 6","Lentiform Loewenfeld","3.3.12","0","n","yes","0","None","rightleftdown","right","None","NA","2000","25352","5564","2000","NA","2","legacy","4","1024","2","48000","-16","experiment","2","even","4","366001","33441","200702","363797","3361","117270","363799","362672","3371","111705","368003","370003","364800","368003","NA","Sternberg Task","20","74229","48","yes","1024"
"40.816326530612244","40.816326530612244","1555.6938775510205","1555.6938775510205","black","experiment","legacy","legacy","legacy","0","uniform","0","undefined","0","left","48","0","48","48","0","0","48","48","0","0","48","48","48","48","0","Sun Oct 16 13:33:09 2022","The main experiment item","yes","SternbergTask.osexp","C:/Users/lil_p/OneDrive/Documents/School/Advanced Quantitative Analysis/Lab 3.1","no","mono","no","18","no","white","no","yes","768","legacy","36","11","C:/Users/lil_p/OneDrive/Documents/School/Advanced Quantitative Analysis/Lab 3.1/wp-subject-2.csv","legacy","8 9 5 7 1 6","Lentiform Loewenfeld","3.3.12","4","y","yes","0","None","rightleftdown","right","None","NA","2000","25352","5564","2000","NA","2","legacy","6","1024","2","48000","-16","experiment","2","even","7","373345","33441","200702","371141","3361","117270","371143","370010","3371","111705","375346","377346","372144","375346","NA","Sternberg Task","20","76229","49","yes","1024"
"40","40","1564.58","1564.58","black","experiment","legacy","legacy","legacy","0","uniform","0","undefined","0","left","49","0","49","49","0","0","49","49","0","0","49","49","49","49","0","Sun Oct 16 13:33:09 2022","The main experiment item","yes","SternbergTask.osexp","C:/Users/lil_p/OneDrive/Documents/School/Advanced Quantitative Analysis/Lab 3.1","no","mono","no","18","no","white","no","yes","768","legacy","37","11","C:/Users/lil_p/OneDrive/Documents/School/Advanced Quantitative Analysis/Lab 3.1/wp-subject-2.csv","legacy","7 1 8 5 6 2","Lentiform Loewenfeld","3.3.12","2","y","yes","0","None","rightleftdown","right","None","NA","2000","25352","5564","2000","NA","2","legacy","6","1024","2","48000","-16","experiment","2","even","1","380687","33441","200702","378483","3361","117270","378485","377351","3371","111705","382688","384688","379486","382688","NA","Sternberg Task","20","78229","50","yes","1024"
"39.21568627450981","39.21568627450981","1573.1176470588234","1573.1176470588234","black","experiment","legacy","legacy","legacy","0","uniform","0","undefined","0","right","50","0","50","50","0","0","50","50","0","0","50","50","50","50","0","Sun Oct 16 13:33:09 2022","The main experiment item","yes","SternbergTask.osexp","C:/Users/lil_p/OneDrive/Documents/School/Advanced Quantitative Analysis/Lab 3.1","no","mono","no","18","no","white","no","yes","768","legacy","38","11","C:/Users/lil_p/OneDrive/Documents/School/Advanced Quantitative Analysis/Lab 3.1/wp-subject-2.csv","legacy","8 4 3 5","Lentiform Loewenfeld","3.3.12","0","n","yes","0","None","rightleftdown","right","None","NA","2000","25352","5564","2000","NA","2","legacy","4","1024","2","48000","-16","experiment","2","even","6","388030","33441","200702","385827","3361","117270","385828","384692","3371","111705","390031","392031","386829","390031","NA","Sternberg Task","20","80229","51","yes","1024"
"38.46153846153846","38.46153846153846","1581.326923076923","1581.326923076923","black","experiment","legacy","legacy","legacy","0","uniform","0","undefined","0","right","51","0","51","51","0","0","51","51","0","0","51","51","51","51","0","Sun Oct 16 13:33:09 2022","The main experiment item","yes","SternbergTask.osexp","C:/Users/lil_p/OneDrive/Documents/School/Advanced Quantitative Analysis/Lab 3.1","no","mono","no","18","no","white","no","yes","768","legacy","39","11","C:/Users/lil_p/OneDrive/Documents/School/Advanced Quantitative Analysis/Lab 3.1/wp-subject-2.csv","legacy","9 5 3 2 8 6","Lentiform Loewenfeld","3.3.12","0","n","yes","0","None","rightleftdown","right","None","NA","2000","25352","5564","2000","NA","2","legacy","6","1024","2","48000","-16","experiment","2","even","7","395375","33441","200702","393172","3361","117270","393173","392036","3371","111705","397377","399377","394174","397377","NA","Sternberg Task","20","82229","52","yes","1024"
"37.735849056603776","37.735849056603776","1589.2264150943397","1589.2264150943397","black","experiment","legacy","legacy","legacy","0","uniform","0","undefined","0","left","52","0","52","52","0","0","52","52","0","0","52","52","52","52","0","Sun Oct 16 13:33:09 2022","The main experiment item","yes","SternbergTask.osexp","C:/Users/lil_p/OneDrive/Documents/School/Advanced Quantitative Analysis/Lab 3.1","no","mono","no","18","no","white","no","yes","768","legacy","40","11","C:/Users/lil_p/OneDrive/Documents/School/Advanced Quantitative Analysis/Lab 3.1/wp-subject-2.csv","legacy","9 5 8 1","Lentiform Loewenfeld","3.3.12","2","y","yes","0","None","rightleftdown","right","None","NA","2000","25352","5564","2000","NA","2","legacy","4","1024","2","48000","-16","experiment","2","even","5","402757","33441","200702","400553","3361","117270","400555","399382","3371","111705","404758","406758","401556","404758","NA","Sternberg Task","20","84229","53","yes","1024"
"37.03703703703704","37.03703703703704","1596.8333333333333","1596.8333333333333","black","experiment","legacy","legacy","legacy","0","uniform","0","undefined","0","right","53","0","53","53","0","0","53","53","0","0","53","53","53","53","0","Sun Oct 16 13:33:09 2022","The main experiment item","yes","SternbergTask.osexp","C:/Users/lil_p/OneDrive/Documents/School/Advanced Quantitative Analysis/Lab 3.1","no","mono","no","18","no","white","no","yes","768","legacy","41","11","C:/Users/lil_p/OneDrive/Documents/School/Advanced Quantitative Analysis/Lab 3.1/wp-subject-2.csv","legacy","5 3 8 7 2 4","Lentiform Loewenfeld","3.3.12","0","n","yes","0","None","rightleftdown","right","None","NA","2000","25352","5564","2000","NA","2","legacy","6","1024","2","48000","-16","experiment","2","even","9","410109","33441","200702","407903","3361","117270","407904","406763","3371","111705","412110","414111","408906","412110","NA","Sternberg Task","20","86229","54","yes","1024"
"36.36363636363637","36.36363636363637","1604.1636363636364","1604.1636363636364","black","experiment","legacy","legacy","legacy","0","uniform","0","undefined","0","left","54","0","54","54","0","0","54","54","0","0","54","54","54","54","0","Sun Oct 16 13:33:09 2022","The main experiment item","yes","SternbergTask.osexp","C:/Users/lil_p/OneDrive/Documents/School/Advanced Quantitative Analysis/Lab 3.1","no","mono","no","18","no","white","no","yes","768","legacy","42","11","C:/Users/lil_p/OneDrive/Documents/School/Advanced Quantitative Analysis/Lab 3.1/wp-subject-2.csv","legacy","9 5 3 8 4","Lentiform Loewenfeld","3.3.12","1","y","yes","0","None","rightleftdown","right","None","NA","2000","25352","5564","2000","NA","2","legacy","5","1024","2","48000","-16","experiment","2","even","9","417453","33441","200702","415249","3361","117270","415251","414115","3371","111705","419454","421455","416252","419454","NA","Sternberg Task","20","88229","55","yes","1024"
"35.714285714285715","35.714285714285715","1611.232142857143","1611.232142857143","black","experiment","legacy","legacy","legacy","0","uniform","0","undefined","0","right","55","0","55","55","0","0","55","55","0","0","55","55","55","55","0","Sun Oct 16 13:33:09 2022","The main experiment item","yes","SternbergTask.osexp","C:/Users/lil_p/OneDrive/Documents/School/Advanced Quantitative Analysis/Lab 3.1","no","mono","no","18","no","white","no","yes","768","legacy","43","11","C:/Users/lil_p/OneDrive/Documents/School/Advanced Quantitative Analysis/Lab 3.1/wp-subject-2.csv","legacy","8 5 7 3 6","Lentiform Loewenfeld","3.3.12","0","n","yes","0","None","rightleftdown","right","None","NA","2000","25352","5564","2000","NA","2","legacy","5","1024","2","48000","-16","experiment","2","even","9","424795","33441","200702","422591","3361","117270","422593","421461","3371","111705","426796","428796","423594","426796","NA","Sternberg Task","20","90229","56","yes","1024"
"35.08771929824562","35.08771929824562","1618.0526315789473","1618.0526315789473","black","experiment","legacy","legacy","legacy","0","uniform","0","undefined","0","left","56","0","56","56","0","0","56","56","0","0","56","56","56","56","0","Sun Oct 16 13:33:09 2022","The main experiment item","yes","SternbergTask.osexp","C:/Users/lil_p/OneDrive/Documents/School/Advanced Quantitative Analysis/Lab 3.1","no","mono","no","18","no","white","no","yes","768","legacy","44","11","C:/Users/lil_p/OneDrive/Documents/School/Advanced Quantitative Analysis/Lab 3.1/wp-subject-2.csv","legacy","9 1 7 2","Lentiform Loewenfeld","3.3.12","2","y","yes","0","None","rightleftdown","right","None","NA","2000","25352","5564","2000","NA","2","legacy","4","1024","2","48000","-16","experiment","2","even","1","432143","33441","200702","429938","3361","117270","429940","428802","3371","111705","434144","436144","430941","434144","NA","Sternberg Task","20","92229","57","yes","1024"
"34.48275862068966","34.48275862068966","1624.6379310344828","1624.6379310344828","black","experiment","legacy","legacy","legacy","0","uniform","0","undefined","0","left","57","0","57","57","0","0","57","57","0","0","57","57","57","57","0","Sun Oct 16 13:33:09 2022","The main experiment item","yes","SternbergTask.osexp","C:/Users/lil_p/OneDrive/Documents/School/Advanced Quantitative Analysis/Lab 3.1","no","mono","no","18","no","white","no","yes","768","legacy","45","11","C:/Users/lil_p/OneDrive/Documents/School/Advanced Quantitative Analysis/Lab 3.1/wp-subject-2.csv","legacy","6 8 9 3 4 9","Lentiform Loewenfeld","3.3.12","5","y","yes","0","None","rightleftdown","right","None","NA","2000","25352","5564","2000","NA","2","legacy","6","1024","2","48000","-16","experiment","2","even","4","439475","33441","200702","437271","3361","117270","437273","436149","3371","111705","441476","443476","438274","441476","NA","Sternberg Task","20","94229","58","yes","1024"
"33.898305084745765","33.898305084745765","1631","1631","black","experiment","legacy","legacy","legacy","0","uniform","0","undefined","0","right","58","0","58","58","0","0","58","58","0","0","58","58","58","58","0","Sun Oct 16 13:33:09 2022","The main experiment item","yes","SternbergTask.osexp","C:/Users/lil_p/OneDrive/Documents/School/Advanced Quantitative Analysis/Lab 3.1","no","mono","no","18","no","white","no","yes","768","legacy","46","11","C:/Users/lil_p/OneDrive/Documents/School/Advanced Quantitative Analysis/Lab 3.1/wp-subject-2.csv","legacy","6 2 9 3 8 4","Lentiform Loewenfeld","3.3.12","0","n","yes","0","None","rightleftdown","right","None","NA","2000","25352","5564","2000","NA","2","legacy","6","1024","2","48000","-16","experiment","2","even","1","446822","33441","200702","444619","3361","117270","444620","443482","3371","111705","448823","450823","445621","448823","NA","Sternberg Task","20","96229","59","yes","1024"
"33.333333333333336","33.333333333333336","1637.1666666666667","1637.1666666666667","black","experiment","legacy","legacy","legacy","0","uniform","0","undefined","0","right","59","0","59","59","0","0","59","59","0","0","59","59","59","59","0","Sun Oct 16 13:33:09 2022","The main experiment item","yes","SternbergTask.osexp","C:/Users/lil_p/OneDrive/Documents/School/Advanced Quantitative Analysis/Lab 3.1","no","mono","no","18","no","white","no","yes","768","legacy","47","11","C:/Users/lil_p/OneDrive/Documents/School/Advanced Quantitative Analysis/Lab 3.1/wp-subject-2.csv","legacy","5 7 3","Lentiform Loewenfeld","3.3.12","0","n","yes","0","None","rightleftdown","right","None","NA","2001","25352","5564","2001","NA","2","legacy","3","1024","2","48000","-16","experiment","2","even","9","454152","33441","200702","451949","3361","117270","451950","450829","3371","111705","456153","458155","452951","456153","NA","Sternberg Task","20","98230","60","yes","1024"
"32.78688524590164","32.78688524590164","1643.1147540983607","1643.1147540983607","black","experiment","legacy","legacy","legacy","0","uniform","0","undefined","0","left","60","0","60","60","0","0","60","60","0","0","60","60","60","60","0","Sun Oct 16 13:33:09 2022","The main experiment item","yes","SternbergTask.osexp","C:/Users/lil_p/OneDrive/Documents/School/Advanced Quantitative Analysis/Lab 3.1","no","mono","no","18","no","white","no","yes","768","legacy","48","11","C:/Users/lil_p/OneDrive/Documents/School/Advanced Quantitative Analysis/Lab 3.1/wp-subject-2.csv","legacy","7 6","Lentiform Loewenfeld","3.3.12","2","y","yes","0","None","rightleftdown","right","None","NA","2000","25352","5564","2000","NA","2","legacy","2","1024","2","48000","-16","experiment","2","even","6","461498","33441","200702","459295","3361","117270","459296","458162","3371","111705","463499","465499","460297","463499","NA","Sternberg Task","20","100230","61","yes","1024"
"32.25806451612903","32.25806451612903","1648.8709677419354","1648.8709677419354","black","experiment","legacy","legacy","legacy","0","uniform","0","undefined","0","right","61","0","61","61","0","0","61","61","0","0","61","61","61","61","0","Sun Oct 16 13:33:09 2022","The main experiment item","yes","SternbergTask.osexp","C:/Users/lil_p/OneDrive/Documents/School/Advanced Quantitative Analysis/Lab 3.1","no","mono","no","18","no","white","no","yes","768","legacy","49","11","C:/Users/lil_p/OneDrive/Documents/School/Advanced Quantitative Analysis/Lab 3.1/wp-subject-2.csv","legacy","6 7 5 9","Lentiform Loewenfeld","3.3.12","0","n","yes","0","None","rightleftdown","right","None","NA","2000","25352","5564","2000","NA","2","legacy","4","1024","2","48000","-16","experiment","2","even","2","468863","33441","200702","466658","3361","117270","466660","465506","3371","111705","470864","472865","467661","470864","NA","Sternberg Task","20","102230","62","yes","1024"
"31.746031746031747","31.746031746031747","1654.4444444444443","1654.4444444444443","black","experiment","legacy","legacy","legacy","0","uniform","0","undefined","0","right","62","0","62","62","0","0","62","62","0","0","62","62","62","62","0","Sun Oct 16 13:33:09 2022","The main experiment item","yes","SternbergTask.osexp","C:/Users/lil_p/OneDrive/Documents/School/Advanced Quantitative Analysis/Lab 3.1","no","mono","no","18","no","white","no","yes","768","legacy","50","11","C:/Users/lil_p/OneDrive/Documents/School/Advanced Quantitative Analysis/Lab 3.1/wp-subject-2.csv","legacy","8 9","Lentiform Loewenfeld","3.3.12","0","n","yes","0","None","rightleftdown","right","None","NA","2000","25352","5564","2000","NA","2","legacy","2","1024","2","48000","-16","experiment","2","even","5","476209","33441","200702","474004","3361","117270","474006","472872","3371","111705","478210","480210","475007","478210","NA","Sternberg Task","20","104230","63","yes","1024"
"31.25","31.25","1659.84375","1659.84375","black","experiment","legacy","legacy","legacy","0","uniform","0","undefined","0","right","63","0","63","63","0","0","63","63","0","0","63","63","63","63","0","Sun Oct 16 13:33:09 2022","The main experiment item","yes","SternbergTask.osexp","C:/Users/lil_p/OneDrive/Documents/School/Advanced Quantitative Analysis/Lab 3.1","no","mono","no","18","no","white","no","yes","768","legacy","51","11","C:/Users/lil_p/OneDrive/Documents/School/Advanced Quantitative Analysis/Lab 3.1/wp-subject-2.csv","legacy","2 7 5","Lentiform Loewenfeld","3.3.12","0","n","yes","0","None","rightleftdown","right","None","NA","2000","25352","5564","2000","NA","2","legacy","3","1024","2","48000","-16","experiment","2","even","8","483562","33441","200702","481359","3361","117270","481360","480214","3371","111705","485563","487563","482361","485563","NA","Sternberg Task","20","106230","64","yes","1024"
"30.76923076923077","30.76923076923077","1665.076923076923","1665.076923076923","black","experiment","legacy","legacy","legacy","0","uniform","0","undefined","0","left","64","0","64","64","0","0","64","64","0","0","64","64","64","64","0","Sun Oct 16 13:33:09 2022","The main experiment item","yes","SternbergTask.osexp","C:/Users/lil_p/OneDrive/Documents/School/Advanced Quantitative Analysis/Lab 3.1","no","mono","no","18","no","white","no","yes","768","legacy","52","11","C:/Users/lil_p/OneDrive/Documents/School/Advanced Quantitative Analysis/Lab 3.1/wp-subject-2.csv","legacy","3 5 4 7","Lentiform Loewenfeld","3.3.12","1","y","yes","0","None","rightleftdown","right","None","NA","2000","25352","5564","2000","NA","2","legacy","4","1024","2","48000","-16","experiment","2","even","3","490906","33441","200702","488702","3361","117270","488703","487568","3371","111705","492908","494909","489705","492908","NA","Sternberg Task","20","108230","65","yes","1024"
"30.303030303030305","30.303030303030305","1670.1515151515152","1670.1515151515152","black","experiment","legacy","legacy","legacy","0","uniform","0","undefined","0","left","65","0","65","65","0","0","65","65","0","0","65","65","65","65","0","Sun Oct 16 13:33:09 2022","The main experiment item","yes","SternbergTask.osexp","C:/Users/lil_p/OneDrive/Documents/School/Advanced Quantitative Analysis/Lab 3.1","no","mono","no","18","no","white","no","yes","768","legacy","53","11","C:/Users/lil_p/OneDrive/Documents/School/Advanced Quantitative Analysis/Lab 3.1/wp-subject-2.csv","legacy","4 7 6 8 2 3","Lentiform Loewenfeld","3.3.12","6","y","yes","0","None","rightleftdown","right","None","NA","2000","25352","5564","2000","NA","2","legacy","6","1024","2","48000","-16","experiment","2","even","3","498249","33441","200702","496044","3361","117270","496045","494913","3371","111705","500251","502251","497047","500250","NA","Sternberg Task","20","110230","66","yes","1024"
"29.850746268656717","29.850746268656717","1675.0746268656717","1675.0746268656717","black","experiment","legacy","legacy","legacy","0","uniform","0","undefined","0","right","66","0","66","66","0","0","66","66","0","0","66","66","66","66","0","Sun Oct 16 13:33:09 2022","The main experiment item","yes","SternbergTask.osexp","C:/Users/lil_p/OneDrive/Documents/School/Advanced Quantitative Analysis/Lab 3.1","no","mono","no","18","no","white","no","yes","768","legacy","54","11","C:/Users/lil_p/OneDrive/Documents/School/Advanced Quantitative Analysis/Lab 3.1/wp-subject-2.csv","legacy","5 9 2 3","Lentiform Loewenfeld","3.3.12","0","n","yes","0","None","rightleftdown","right","None","NA","2000","25352","5564","2000","NA","2","legacy","4","1024","2","48000","-16","experiment","2","even","8","505602","33441","200702","503398","3361","117270","503400","502255","3371","111705","507604","509604","504401","507603","NA","Sternberg Task","20","112230","67","yes","1024"
"29.41176470588235","29.41176470588235","1679.8529411764705","1679.8529411764705","black","experiment","legacy","legacy","legacy","0","uniform","0","undefined","0","right","67","0","67","67","0","0","67","67","0","0","67","67","67","67","0","Sun Oct 16 13:33:09 2022","The main experiment item","yes","SternbergTask.osexp","C:/Users/lil_p/OneDrive/Documents/School/Advanced Quantitative Analysis/Lab 3.1","no","mono","no","18","no","white","no","yes","768","legacy","55","11","C:/Users/lil_p/OneDrive/Documents/School/Advanced Quantitative Analysis/Lab 3.1/wp-subject-2.csv","legacy","2 8 9 4 1","Lentiform Loewenfeld","3.3.12","0","n","yes","0","None","rightleftdown","right","None","NA","2000","25352","5564","2000","NA","2","legacy","5","1024","2","48000","-16","experiment","2","even","5","512949","33441","200702","510744","3361","117270","510746","509610","3371","111705","514950","516950","511747","514950","NA","Sternberg Task","20","114230","68","yes","1024"
"28.985507246376812","28.985507246376812","1684.4927536231885","1684.4927536231885","black","experiment","legacy","legacy","legacy","0","uniform","0","undefined","0","right","68","0","68","68","0","0","68","68","0","0","68","68","68","68","0","Sun Oct 16 13:33:09 2022","The main experiment item","yes","SternbergTask.osexp","C:/Users/lil_p/OneDrive/Documents/School/Advanced Quantitative Analysis/Lab 3.1","no","mono","no","18","no","white","no","yes","768","legacy","56","11","C:/Users/lil_p/OneDrive/Documents/School/Advanced Quantitative Analysis/Lab 3.1/wp-subject-2.csv","legacy","1 4 3 6 5","Lentiform Loewenfeld","3.3.12","0","n","yes","0","None","rightleftdown","right","None","NA","2000","25352","5564","2000","NA","2","legacy","5","1024","2","48000","-16","experiment","2","even","8","520309","33441","200702","518106","3361","117270","518107","516956","3371","111705","522310","524310","519108","522310","NA","Sternberg Task","20","116230","69","yes","1024"
"28.571428571428573","28.571428571428573","1689","1689","black","experiment","legacy","legacy","legacy","0","uniform","0","undefined","0","left","69","0","69","69","0","0","69","69","0","0","69","69","69","69","0","Sun Oct 16 13:33:09 2022","The main experiment item","yes","SternbergTask.osexp","C:/Users/lil_p/OneDrive/Documents/School/Advanced Quantitative Analysis/Lab 3.1","no","mono","no","18","no","white","no","yes","768","legacy","57","11","C:/Users/lil_p/OneDrive/Documents/School/Advanced Quantitative Analysis/Lab 3.1/wp-subject-2.csv","legacy","9 3 8 2 1 4","Lentiform Loewenfeld","3.3.12","3","y","yes","0","None","rightleftdown","right","None","NA","2000","25352","5564","2000","NA","2","legacy","6","1024","2","48000","-16","experiment","2","even","8","527664","33441","200702","525460","3361","117270","525461","524317","3371","111705","529665","531666","526462","529665","NA","Sternberg Task","20","118230","70","yes","1024"
"28.169014084507044","28.169014084507044","1693.380281690141","1693.380281690141","black","experiment","legacy","legacy","legacy","0","uniform","0","undefined","0","left","70","0","70","70","0","0","70","70","0","0","70","70","70","70","0","Sun Oct 16 13:33:09 2022","The main experiment item","yes","SternbergTask.osexp","C:/Users/lil_p/OneDrive/Documents/School/Advanced Quantitative Analysis/Lab 3.1","no","mono","no","18","no","white","no","yes","768","legacy","58","11","C:/Users/lil_p/OneDrive/Documents/School/Advanced Quantitative Analysis/Lab 3.1/wp-subject-2.csv","legacy","3 9 6 2","Lentiform Loewenfeld","3.3.12","4","y","yes","0","None","rightleftdown","right","None","NA","2000","25352","5564","2000","NA","2","legacy","4","1024","2","48000","-16","experiment","2","even","2","535002","33441","200702","532799","3361","117270","532800","531671","3371","111705","537004","539004","533801","537004","NA","Sternberg Task","20","120230","71","yes","1024"
"27.77777777777778","27.77777777777778","1697.638888888889","1697.638888888889","black","experiment","legacy","legacy","legacy","0","uniform","0","undefined","0","right","71","0","71","71","0","0","71","71","0","0","71","71","71","71","0","Sun Oct 16 13:33:09 2022","The main experiment item","yes","SternbergTask.osexp","C:/Users/lil_p/OneDrive/Documents/School/Advanced Quantitative Analysis/Lab 3.1","no","mono","no","18","no","white","no","yes","768","legacy","59","11","C:/Users/lil_p/OneDrive/Documents/School/Advanced Quantitative Analysis/Lab 3.1/wp-subject-2.csv","legacy","1 4 9 2 5","Lentiform Loewenfeld","3.3.12","0","n","yes","0","None","rightleftdown","right","None","NA","2000","25352","5564","2000","NA","2","legacy","5","1024","2","48000","-16","experiment","2","even","7","542359","33441","200702","540153","3361","117270","540155","539010","3371","111705","544360","546361","541157","544360","NA","Sternberg Task","20","122230","72","yes","1024"
"27.397260273972602","27.397260273972602","1701.7808219178082","1701.7808219178082","black","experiment","legacy","legacy","legacy","0","uniform","0","undefined","0","left","72","0","72","72","0","0","72","72","0","0","72","72","72","72","0","Sun Oct 16 13:33:09 2022","The main experiment item","yes","SternbergTask.osexp","C:/Users/lil_p/OneDrive/Documents/School/Advanced Quantitative Analysis/Lab 3.1","no","mono","no","18","no","white","no","yes","768","legacy","60","11","C:/Users/lil_p/OneDrive/Documents/School/Advanced Quantitative Analysis/Lab 3.1/wp-subject-2.csv","legacy","8 5 3 7 4 6","Lentiform Loewenfeld","3.3.12","6","y","yes","0","None","rightleftdown","right","None","NA","2000","25352","5564","2000","NA","2","legacy","6","1024","2","48000","-16","experiment","2","even","6","549791","33441","200702","547586","3361","117270","547587","546368","3371","111705","551813","553814","548589","551813","NA","Sternberg Task","20","124230","73","yes","1024"
"27.027027027027028","27.027027027027028","1705.8108108108108","1705.8108108108108","black","experiment","legacy","legacy","legacy","0","uniform","0","undefined","0","right","73","0","73","73","0","0","73","73","0","0","73","73","73","73","0","Sun Oct 16 13:33:09 2022","The main experiment item","yes","SternbergTask.osexp","C:/Users/lil_p/OneDrive/Documents/School/Advanced Quantitative Analysis/Lab 3.1","no","mono","no","18","no","white","no","yes","768","legacy","61","11","C:/Users/lil_p/OneDrive/Documents/School/Advanced Quantitative Analysis/Lab 3.1/wp-subject-2.csv","legacy","7 1 8 4 9 3","Lentiform Loewenfeld","3.3.12","0","n","yes","0","None","rightleftdown","right","None","NA","2000","25352","5564","2000","NA","2","legacy","6","1024","2","48000","-16","experiment","2","even","6","557190","33441","200702","554985","3361","117270","554987","553822","3371","111705","559192","561192","555988","559192","NA","Sternberg Task","20","126230","74","yes","1024"
"26.666666666666668","26.666666666666668","1709.7333333333333","1709.7333333333333","black","experiment","legacy","legacy","legacy","0","uniform","0","undefined","0","left","74","0","74","74","0","0","74","74","0","0","74","74","74","74","0","Sun Oct 16 13:33:09 2022","The main experiment item","yes","SternbergTask.osexp","C:/Users/lil_p/OneDrive/Documents/School/Advanced Quantitative Analysis/Lab 3.1","no","mono","no","18","no","white","no","yes","768","legacy","62","11","C:/Users/lil_p/OneDrive/Documents/School/Advanced Quantitative Analysis/Lab 3.1/wp-subject-2.csv","legacy","5 2 6","Lentiform Loewenfeld","3.3.12","2","y","yes","0","None","rightleftdown","right","None","NA","2000","25352","5564","2000","NA","2","legacy","3","1024","2","48000","-16","experiment","2","even","2","564545","33441","200702","562342","3361","117270","562343","561197","3371","111705","566546","568546","563344","566546","NA","Sternberg Task","20","128230","75","yes","1024"
"26.31578947368421","26.31578947368421","1713.5526315789473","1713.5526315789473","black","experiment","legacy","legacy","legacy","0","uniform","0","undefined","0","left","75","0","75","75","0","0","75","75","0","0","75","75","75","75","0","Sun Oct 16 13:33:09 2022","The main experiment item","yes","SternbergTask.osexp","C:/Users/lil_p/OneDrive/Documents/School/Advanced Quantitative Analysis/Lab 3.1","no","mono","no","18","no","white","no","yes","768","legacy","63","11","C:/Users/lil_p/OneDrive/Documents/School/Advanced Quantitative Analysis/Lab 3.1/wp-subject-2.csv","legacy","2 5 4 8 7","Lentiform Loewenfeld","3.3.12","3","y","yes","0","None","rightleftdown","right","None","NA","2000","25352","5564","2000","NA","2","legacy","5","1024","2","48000","-16","experiment","2","even","4","571898","33441","200702","569695","3361","117270","569696","568550","3371","111705","573899","575899","570697","573899","NA","Sternberg Task","20","130230","76","yes","1024"
"25.974025974025974","25.974025974025974","1717.2727272727273","1717.2727272727273","black","experiment","legacy","legacy","legacy","0","uniform","0","undefined","0","right","76","0","76","76","0","0","76","76","0","0","76","76","76","76","0","Sun Oct 16 13:33:09 2022","The main experiment item","yes","SternbergTask.osexp","C:/Users/lil_p/OneDrive/Documents/School/Advanced Quantitative Analysis/Lab 3.1","no","mono","no","18","no","white","no","yes","768","legacy","64","11","C:/Users/lil_p/OneDrive/Documents/School/Advanced Quantitative Analysis/Lab 3.1/wp-subject-2.csv","legacy","6 3 1 7 9 8","Lentiform Loewenfeld","3.3.12","0","n","yes","0","None","rightleftdown","right","None","NA","2000","25352","5564","2000","NA","2","legacy","6","1024","2","48000","-16","experiment","2","even","4","579233","33441","200702","577029","3361","117270","577030","575905","3371","111705","581234","583234","578032","581234","NA","Sternberg Task","20","132230","77","yes","1024"
"25.641025641025642","25.641025641025642","1720.8974358974358","1720.8974358974358","black","experiment","legacy","legacy","legacy","0","uniform","0","undefined","0","left","77","0","77","77","0","0","77","77","0","0","77","77","77","77","0","Sun Oct 16 13:33:09 2022","The main experiment item","yes","SternbergTask.osexp","C:/Users/lil_p/OneDrive/Documents/School/Advanced Quantitative Analysis/Lab 3.1","no","mono","no","18","no","white","no","yes","768","legacy","65","11","C:/Users/lil_p/OneDrive/Documents/School/Advanced Quantitative Analysis/Lab 3.1/wp-subject-2.csv","legacy","2 8 5 1","Lentiform Loewenfeld","3.3.12","4","y","yes","0","None","rightleftdown","right","None","NA","2000","25352","5564","2000","NA","2","legacy","4","1024","2","48000","-16","experiment","2","even","1","586562","33441","200702","584358","3361","117270","584360","583238","3371","111705","588563","590564","585361","588563","NA","Sternberg Task","20","134230","78","yes","1024"
"25.31645569620253","25.31645569620253","1724.4303797468353","1724.4303797468353","black","experiment","legacy","legacy","legacy","0","uniform","0","undefined","0","right","78","0","78","78","0","0","78","78","0","0","78","78","78","78","0","Sun Oct 16 13:33:09 2022","The main experiment item","yes","SternbergTask.osexp","C:/Users/lil_p/OneDrive/Documents/School/Advanced Quantitative Analysis/Lab 3.1","no","mono","no","18","no","white","no","yes","768","legacy","66","11","C:/Users/lil_p/OneDrive/Documents/School/Advanced Quantitative Analysis/Lab 3.1/wp-subject-2.csv","legacy","6 8","Lentiform Loewenfeld","3.3.12","0","n","yes","0","None","rightleftdown","right","None","NA","2000","25352","5564","2000","NA","2","legacy","2","1024","2","48000","-16","experiment","2","even","9","593899","33441","200702","591695","3361","117270","591697","590569","3371","111705","595900","597900","592698","595900","NA","Sternberg Task","20","136230","79","yes","1024"
"25","25","1727.875","1727.875","black","experiment","legacy","legacy","legacy","0","uniform","0","undefined","0","right","79","0","79","79","0","0","79","79","0","0","79","79","79","79","0","Sun Oct 16 13:33:09 2022","The main experiment item","yes","SternbergTask.osexp","C:/Users/lil_p/OneDrive/Documents/School/Advanced Quantitative Analysis/Lab 3.1","no","mono","no","18","no","white","no","yes","768","legacy","67","11","C:/Users/lil_p/OneDrive/Documents/School/Advanced Quantitative Analysis/Lab 3.1/wp-subject-2.csv","legacy","1 3 2 6 9","Lentiform Loewenfeld","3.3.12","0","n","yes","0","None","rightleftdown","right","None","NA","2000","25352","5564","2000","NA","2","legacy","5","1024","2","48000","-16","experiment","2","even","5","601236","33441","200702","599033","3361","117270","599034","597904","3371","111705","603237","605237","600035","603237","NA","Sternberg Task","20","138230","80","yes","1024"
"24.691358024691358","24.691358024691358","1731.2345679012346","1731.2345679012346","black","experiment","legacy","legacy","legacy","0","uniform","0","undefined","0","right","80","0","80","80","0","0","80","80","0","0","80","80","80","80","0","Sun Oct 16 13:33:09 2022","The main experiment item","yes","SternbergTask.osexp","C:/Users/lil_p/OneDrive/Documents/School/Advanced Quantitative Analysis/Lab 3.1","no","mono","no","18","no","white","no","yes","768","legacy","68","11","C:/Users/lil_p/OneDrive/Documents/School/Advanced Quantitative Analysis/Lab 3.1/wp-subject-2.csv","legacy","5 3 2 6 9 8","Lentiform Loewenfeld","3.3.12","0","n","yes","0","None","rightleftdown","right","None","NA","2000","25352","5564","2000","NA","2","legacy","6","1024","2","48000","-16","experiment","2","even","4","608558","33441","200702","606355","3361","117270","606356","605241","3371","111705","610559","612560","607357","610559","NA","Sternberg Task","20","140230","81","yes","1024"
"24.390243902439025","24.390243902439025","1734.5121951219512","1734.5121951219512","black","experiment","legacy","legacy","legacy","0","uniform","0","undefined","0","right","81","0","81","81","0","0","81","81","0","0","81","81","81","81","0","Sun Oct 16 13:33:09 2022","The main experiment item","yes","SternbergTask.osexp","C:/Users/lil_p/OneDrive/Documents/School/Advanced Quantitative Analysis/Lab 3.1","no","mono","no","18","no","white","no","yes","768","legacy","69","11","C:/Users/lil_p/OneDrive/Documents/School/Advanced Quantitative Analysis/Lab 3.1/wp-subject-2.csv","legacy","7 1","Lentiform Loewenfeld","3.3.12","0","n","yes","0","None","rightleftdown","right","None","NA","2000","25352","5564","2000","NA","2","legacy","2","1024","2","48000","-16","experiment","2","even","8","615903","33441","200702","613699","3361","117270","613701","612564","3371","111705","617904","619904","614702","617904","NA","Sternberg Task","20","142230","82","yes","1024"
"24.096385542168676","24.096385542168676","1737.710843373494","1737.710843373494","black","experiment","legacy","legacy","legacy","0","uniform","0","undefined","0","right","82","0","82","82","0","0","82","82","0","0","82","82","82","82","0","Sun Oct 16 13:33:09 2022","The main experiment item","yes","SternbergTask.osexp","C:/Users/lil_p/OneDrive/Documents/School/Advanced Quantitative Analysis/Lab 3.1","no","mono","no","18","no","white","no","yes","768","legacy","70","11","C:/Users/lil_p/OneDrive/Documents/School/Advanced Quantitative Analysis/Lab 3.1/wp-subject-2.csv","legacy","2 8 7 9 5 3","Lentiform Loewenfeld","3.3.12","0","n","yes","0","None","rightleftdown","right","None","NA","2000","25352","5564","2000","NA","2","legacy","6","1024","2","48000","-16","experiment","2","even","6","623240","33441","200702","621036","3361","117270","621037","619908","3371","111705","625241","627242","622039","625241","NA","Sternberg Task","20","144230","83","yes","1024"
"23.80952380952381","23.80952380952381","1740.8333333333333","1740.8333333333333","black","experiment","legacy","legacy","legacy","0","uniform","0","undefined","0","left","83","0","83","83","0","0","83","83","0","0","83","83","83","83","0","Sun Oct 16 13:33:09 2022","The main experiment item","yes","SternbergTask.osexp","C:/Users/lil_p/OneDrive/Documents/School/Advanced Quantitative Analysis/Lab 3.1","no","mono","no","18","no","white","no","yes","768","legacy","71","11","C:/Users/lil_p/OneDrive/Documents/School/Advanced Quantitative Analysis/Lab 3.1/wp-subject-2.csv","legacy","5 7 3 6 2","Lentiform Loewenfeld","3.3.12","5","y","yes","0","None","rightleftdown","right","None","NA","2000","25352","5564","2000","NA","2","legacy","5","1024","2","48000","-16","experiment","2","even","2","630584","33441","200702","628380","3361","117270","628382","627249","3371","111705","632585","634585","629383","632585","NA","Sternberg Task","20","146230","84","yes","1024"
"23.529411764705884","23.529411764705884","1743.8823529411766","1743.8823529411766","black","experiment","legacy","legacy","legacy","0","uniform","0","undefined","0","right","84","0","84","84","0","0","84","84","0","0","84","84","84","84","0","Sun Oct 16 13:33:09 2022","The main experiment item","yes","SternbergTask.osexp","C:/Users/lil_p/OneDrive/Documents/School/Advanced Quantitative Analysis/Lab 3.1","no","mono","no","18","no","white","no","yes","768","legacy","72","11","C:/Users/lil_p/OneDrive/Documents/School/Advanced Quantitative Analysis/Lab 3.1/wp-subject-2.csv","legacy","1 8 7","Lentiform Loewenfeld","3.3.12","0","n","yes","0","None","rightleftdown","right","None","NA","2000","25352","5564","2000","NA","2","legacy","3","1024","2","48000","-16","experiment","2","even","4","637917","33441","200702","635714","3361","117270","635715","634591","3371","111705","639919","641920","636716","639918","NA","Sternberg Task","20","148230","85","yes","1024"
"23.25581395348837","23.25581395348837","1746.860465116279","1746.860465116279","black","experiment","legacy","legacy","legacy","0","uniform","0","undefined","0","left","85","0","85","85","0","0","85","85","0","0","85","85","85","85","0","Sun Oct 16 13:33:09 2022","The main experiment item","yes","SternbergTask.osexp","C:/Users/lil_p/OneDrive/Documents/School/Advanced Quantitative Analysis/Lab 3.1","no","mono","no","18","no","white","no","yes","768","legacy","73","11","C:/Users/lil_p/OneDrive/Documents/School/Advanced Quantitative Analysis/Lab 3.1/wp-subject-2.csv","legacy","4","Lentiform Loewenfeld","3.3.12","1","y","yes","0","None","rightleftdown","right","None","NA","2000","25352","5564","2000","NA","2","legacy","1","1024","2","48000","-16","experiment","2","even","4","645256","33441","200702","643052","3361","117270","643054","641925","3371","111705","647258","649259","644055","647258","NA","Sternberg Task","20","150230","86","yes","1024"
"22.988505747126435","22.988505747126435","1749.7701149425288","1749.7701149425288","black","experiment","legacy","legacy","legacy","0","uniform","0","undefined","0","left","86","0","86","86","0","0","86","86","0","0","86","86","86","86","0","Sun Oct 16 13:33:09 2022","The main experiment item","yes","SternbergTask.osexp","C:/Users/lil_p/OneDrive/Documents/School/Advanced Quantitative Analysis/Lab 3.1","no","mono","no","18","no","white","no","yes","768","legacy","74","11","C:/Users/lil_p/OneDrive/Documents/School/Advanced Quantitative Analysis/Lab 3.1/wp-subject-2.csv","legacy","7 8 6 3 1","Lentiform Loewenfeld","3.3.12","5","y","yes","0","None","rightleftdown","right","None","NA","2000","25352","5564","2000","NA","2","legacy","5","1024","2","48000","-16","experiment","2","even","1","652604","33441","200702","650399","3361","117270","650401","649265","3371","111705","654605","656605","651402","654605","NA","Sternberg Task","20","152230","87","yes","1024"
"22.727272727272727","22.727272727272727","1752.6136363636363","1752.6136363636363","black","experiment","legacy","legacy","legacy","0","uniform","0","undefined","0","left","87","0","87","87","0","0","87","87","0","0","87","87","87","87","0","Sun Oct 16 13:33:09 2022","The main experiment item","yes","SternbergTask.osexp","C:/Users/lil_p/OneDrive/Documents/School/Advanced Quantitative Analysis/Lab 3.1","no","mono","no","18","no","white","no","yes","768","legacy","75","11","C:/Users/lil_p/OneDrive/Documents/School/Advanced Quantitative Analysis/Lab 3.1/wp-subject-2.csv","legacy","7 4 2 6 3 5","Lentiform Loewenfeld","3.3.12","6","y","yes","0","None","rightleftdown","right","None","NA","2000","25352","5564","2000","NA","2","legacy","6","1024","2","48000","-16","experiment","2","even","5","659928","33441","200702","657725","3361","117270","657726","656612","3371","111705","661929","663930","658727","661929","NA","Sternberg Task","20","154230","88","yes","1024"
"22.471910112359552","22.471910112359552","1755.3932584269662","1755.3932584269662","black","experiment","legacy","legacy","legacy","0","uniform","0","undefined","0","left","88","0","88","88","0","0","88","88","0","0","88","88","88","88","0","Sun Oct 16 13:33:09 2022","The main experiment item","yes","SternbergTask.osexp","C:/Users/lil_p/OneDrive/Documents/School/Advanced Quantitative Analysis/Lab 3.1","no","mono","no","18","no","white","no","yes","768","legacy","76","11","C:/Users/lil_p/OneDrive/Documents/School/Advanced Quantitative Analysis/Lab 3.1/wp-subject-2.csv","legacy","5 7 8 2 3 8","Lentiform Loewenfeld","3.3.12","5","y","yes","0","None","rightleftdown","right","None","NA","2000","25352","5564","2000","NA","2","legacy","6","1024","2","48000","-16","experiment","2","even","3","667269","33441","200702","665065","3361","117270","665067","663935","3371","111705","669270","671271","666068","669270","NA","Sternberg Task","20","156230","89","yes","1024"
"22.22222222222222","22.22222222222222","1758.111111111111","1758.111111111111","black","experiment","legacy","legacy","legacy","0","uniform","0","undefined","0","left","89","0","89","89","0","0","89","89","0","0","89","89","89","89","0","Sun Oct 16 13:33:09 2022","The main experiment item","yes","SternbergTask.osexp","C:/Users/lil_p/OneDrive/Documents/School/Advanced Quantitative Analysis/Lab 3.1","no","mono","no","18","no","white","no","yes","768","legacy","77","11","C:/Users/lil_p/OneDrive/Documents/School/Advanced Quantitative Analysis/Lab 3.1/wp-subject-2.csv","legacy","2 4 8 5 1 3","Lentiform Loewenfeld","3.3.12","1","y","yes","0","None","rightleftdown","right","None","NA","2000","25352","5564","2000","NA","2","legacy","6","1024","2","48000","-16","experiment","2","even","2","674598","33441","200702","672394","3361","117270","672396","671276","3371","111705","676599","678600","673397","676599","NA","Sternberg Task","20","158230","90","yes","1024"
"21.978021978021978","21.978021978021978","1760.7692307692307","1760.7692307692307","black","experiment","legacy","legacy","legacy","0","uniform","0","undefined","0","right","90","0","90","90","0","0","90","90","0","0","90","90","90","90","0","Sun Oct 16 13:33:09 2022","The main experiment item","yes","SternbergTask.osexp","C:/Users/lil_p/OneDrive/Documents/School/Advanced Quantitative Analysis/Lab 3.1","no","mono","no","18","no","white","no","yes","768","legacy","78","11","C:/Users/lil_p/OneDrive/Documents/School/Advanced Quantitative Analysis/Lab 3.1/wp-subject-2.csv","legacy","1 4 9 3","Lentiform Loewenfeld","3.3.12","0","n","yes","0","None","rightleftdown","right","None","NA","2000","25352","5564","2000","NA","2","legacy","4","1024","2","48000","-16","experiment","2","even","5","681923","33441","200702","679720","3361","117270","679721","678605","3371","111705","683924","685925","680722","683924","NA","Sternberg Task","20","160230","91","yes","1024"
"21.73913043478261","21.73913043478261","1763.3695652173913","1763.3695652173913","black","experiment","legacy","legacy","legacy","0","uniform","0","undefined","0","right","91","0","91","91","0","0","91","91","0","0","91","91","91","91","0","Sun Oct 16 13:33:09 2022","The main experiment item","yes","SternbergTask.osexp","C:/Users/lil_p/OneDrive/Documents/School/Advanced Quantitative Analysis/Lab 3.1","no","mono","no","18","no","white","no","yes","768","legacy","79","11","C:/Users/lil_p/OneDrive/Documents/School/Advanced Quantitative Analysis/Lab 3.1/wp-subject-2.csv","legacy","1 5 3 2 8","Lentiform Loewenfeld","3.3.12","0","n","yes","0","None","rightleftdown","right","None","NA","2000","25352","5564","2000","NA","2","legacy","5","1024","2","48000","-16","experiment","2","even","4","689274","33441","200702","687070","3361","117270","687072","685928","3371","111705","691275","693276","688073","691275","NA","Sternberg Task","20","162230","92","yes","1024"
"21.50537634408602","21.50537634408602","1765.9139784946237","1765.9139784946237","black","experiment","legacy","legacy","legacy","0","uniform","0","undefined","0","left","92","0","92","92","0","0","92","92","0","0","92","92","92","92","0","Sun Oct 16 13:33:09 2022","The main experiment item","yes","SternbergTask.osexp","C:/Users/lil_p/OneDrive/Documents/School/Advanced Quantitative Analysis/Lab 3.1","no","mono","no","18","no","white","no","yes","768","legacy","80","11","C:/Users/lil_p/OneDrive/Documents/School/Advanced Quantitative Analysis/Lab 3.1/wp-subject-2.csv","legacy","6 7 9 3 1 2","Lentiform Loewenfeld","3.3.12","1","y","yes","0","None","rightleftdown","right","None","NA","2000","25352","5564","2000","NA","2","legacy","6","1024","2","48000","-16","experiment","2","even","6","696613","33441","200702","694409","3361","117270","694411","693281","3371","111705","698614","700615","695412","698614","NA","Sternberg Task","20","164230","93","yes","1024"
"21.27659574468085","21.27659574468085","1768.404255319149","1768.404255319149","black","experiment","legacy","legacy","legacy","0","uniform","0","undefined","0","left","93","0","93","93","0","0","93","93","0","0","93","93","93","93","0","Sun Oct 16 13:33:09 2022","The main experiment item","yes","SternbergTask.osexp","C:/Users/lil_p/OneDrive/Documents/School/Advanced Quantitative Analysis/Lab 3.1","no","mono","no","18","no","white","no","yes","768","legacy","81","11","C:/Users/lil_p/OneDrive/Documents/School/Advanced Quantitative Analysis/Lab 3.1/wp-subject-2.csv","legacy","7 1 3","Lentiform Loewenfeld","3.3.12","2","y","yes","0","None","rightleftdown","right","None","NA","2000","25352","5564","2000","NA","2","legacy","3","1024","2","48000","-16","experiment","2","even","1","703953","33441","200702","701750","3361","117270","701751","700621","3371","111705","705954","707955","702752","705954","NA","Sternberg Task","20","166230","94","yes","1024"
"21.05263157894737","21.05263157894737","1770.842105263158","1770.842105263158","black","experiment","legacy","legacy","legacy","0","uniform","0","undefined","0","left","94","0","94","94","0","0","94","94","0","0","94","94","94","94","0","Sun Oct 16 13:33:09 2022","The main experiment item","yes","SternbergTask.osexp","C:/Users/lil_p/OneDrive/Documents/School/Advanced Quantitative Analysis/Lab 3.1","no","mono","no","18","no","white","no","yes","768","legacy","82","11","C:/Users/lil_p/OneDrive/Documents/School/Advanced Quantitative Analysis/Lab 3.1/wp-subject-2.csv","legacy","7 8 4 6 9 5","Lentiform Loewenfeld","3.3.12","4","y","yes","0","None","rightleftdown","right","None","NA","2000","25352","5564","2000","NA","2","legacy","6","1024","2","48000","-16","experiment","2","even","6","711288","33441","200702","709085","3361","117270","709086","707961","3371","111705","713289","715290","710087","713289","NA","Sternberg Task","20","168230","95","yes","1024"
"20.833333333333332","20.833333333333332","1773.2291666666667","1773.2291666666667","black","experiment","legacy","legacy","legacy","0","uniform","0","undefined","0","right","95","0","95","95","0","0","95","95","0","0","95","95","95","95","0","Sun Oct 16 13:33:09 2022","The main experiment item","yes","SternbergTask.osexp","C:/Users/lil_p/OneDrive/Documents/School/Advanced Quantitative Analysis/Lab 3.1","no","mono","no","18","no","white","no","yes","768","legacy","83","11","C:/Users/lil_p/OneDrive/Documents/School/Advanced Quantitative Analysis/Lab 3.1/wp-subject-2.csv","legacy","8 5 4 2 9 6","Lentiform Loewenfeld","3.3.12","0","n","yes","0","None","rightleftdown","right","None","NA","2000","25352","5564","2000","NA","2","legacy","6","1024","2","48000","-16","experiment","2","even","3","718613","33441","200702","716409","3361","117270","716411","715295","3371","111705","720614","722615","717412","720614","NA","Sternberg Task","20","170230","96","yes","1024"
"20.61855670103093","20.61855670103093","1775.5670103092784","1775.5670103092784","black","experiment","legacy","legacy","legacy","0","uniform","0","undefined","0","left","96","0","96","96","0","0","96","96","0","0","96","96","96","96","0","Sun Oct 16 13:33:09 2022","The main experiment item","yes","SternbergTask.osexp","C:/Users/lil_p/OneDrive/Documents/School/Advanced Quantitative Analysis/Lab 3.1","no","mono","no","18","no","white","no","yes","768","legacy","84","11","C:/Users/lil_p/OneDrive/Documents/School/Advanced Quantitative Analysis/Lab 3.1/wp-subject-2.csv","legacy","3 5 7 1","Lentiform Loewenfeld","3.3.12","3","y","yes","0","None","rightleftdown","right","None","NA","2000","25352","5564","2000","NA","2","legacy","4","1024","2","48000","-16","experiment","2","even","7","725939","33441","200702","723736","3361","117270","723737","722621","3371","111705","727940","729941","724738","727940","NA","Sternberg Task","20","172230","97","yes","1024"
"20.408163265306122","20.408163265306122","1777.857142857143","1777.857142857143","black","experiment","legacy","legacy","legacy","0","uniform","0","undefined","0","right","97","0","97","97","0","0","97","97","0","0","97","97","97","97","0","Sun Oct 16 13:33:09 2022","The main experiment item","yes","SternbergTask.osexp","C:/Users/lil_p/OneDrive/Documents/School/Advanced Quantitative Analysis/Lab 3.1","no","mono","no","18","no","white","no","yes","768","legacy","85","11","C:/Users/lil_p/OneDrive/Documents/School/Advanced Quantitative Analysis/Lab 3.1/wp-subject-2.csv","legacy","1 6 4 3 9 7","Lentiform Loewenfeld","3.3.12","0","n","yes","0","None","rightleftdown","right","None","NA","2000","25352","5564","2000","NA","2","legacy","6","1024","2","48000","-16","experiment","2","even","8","733265","33441","200702","731061","3361","117270","731062","729946","3371","111705","735266","737267","732064","735266","NA","Sternberg Task","20","174230","98","yes","1024"
"20.2020202020202","20.2020202020202","1780.1010101010102","1780.1010101010102","black","experiment","legacy","legacy","legacy","0","uniform","0","undefined","0","right","98","0","98","98","0","0","98","98","0","0","98","98","98","98","0","Sun Oct 16 13:33:09 2022","The main experiment item","yes","SternbergTask.osexp","C:/Users/lil_p/OneDrive/Documents/School/Advanced Quantitative Analysis/Lab 3.1","no","mono","no","18","no","white","no","yes","768","legacy","86","11","C:/Users/lil_p/OneDrive/Documents/School/Advanced Quantitative Analysis/Lab 3.1/wp-subject-2.csv","legacy","2 5 1 4","Lentiform Loewenfeld","3.3.12","0","n","yes","0","None","rightleftdown","right","None","NA","2000","25352","5564","2000","NA","2","legacy","4","1024","2","48000","-16","experiment","2","even","6","740603","33441","200702","738399","3361","117270","738401","737270","3371","111705","742604","744605","739402","742604","NA","Sternberg Task","20","176230","99","yes","1024"
"20","20","1782.3","1782.3","black","experiment","legacy","legacy","legacy","0","uniform","0","undefined","0","right","99","0","99","99","0","0","99","99","0","0","99","99","99","99","0","Sun Oct 16 13:33:09 2022","The main experiment item","yes","SternbergTask.osexp","C:/Users/lil_p/OneDrive/Documents/School/Advanced Quantitative Analysis/Lab 3.1","no","mono","no","18","no","white","no","yes","768","legacy","87","11","C:/Users/lil_p/OneDrive/Documents/School/Advanced Quantitative Analysis/Lab 3.1/wp-subject-2.csv","legacy","6 8 4","Lentiform Loewenfeld","3.3.12","0","n","yes","0","None","rightleftdown","right","None","NA","2000","25352","5564","2000","NA","2","legacy","3","1024","2","48000","-16","experiment","2","even","1","747943","33441","200702","745739","3361","117270","745741","744610","3371","111705","749944","751945","746742","749944","NA","Sternberg Task","20","178230","100","yes","1024"
"19.801980198019802","19.801980198019802","1784.4554455445545","1784.4554455445545","black","experiment","legacy","legacy","legacy","0","uniform","0","undefined","0","left","100","0","100","100","0","0","100","100","0","0","100","100","100","100","0","Sun Oct 16 13:33:09 2022","The main experiment item","yes","SternbergTask.osexp","C:/Users/lil_p/OneDrive/Documents/School/Advanced Quantitative Analysis/Lab 3.1","no","mono","no","18","no","white","no","yes","768","legacy","88","11","C:/Users/lil_p/OneDrive/Documents/School/Advanced Quantitative Analysis/Lab 3.1/wp-subject-2.csv","legacy","9 4 2","Lentiform Loewenfeld","3.3.12","1","y","yes","0","None","rightleftdown","right","None","NA","2000","25352","5564","2000","NA","2","legacy","3","1024","2","48000","-16","experiment","2","even","9","755269","33441","200702","753065","3361","117270","753067","751951","3371","111705","757270","759271","754068","757270","NA","Sternberg Task","20","180230","101","yes","1024"
"19.607843137254903","19.607843137254903","1786.5686274509803","1786.5686274509803","black","experiment","legacy","legacy","legacy","0","uniform","0","undefined","0","left","101","0","101","101","0","0","101","101","0","0","101","101","101","101","0","Sun Oct 16 13:33:09 2022","The main experiment item","yes","SternbergTask.osexp","C:/Users/lil_p/OneDrive/Documents/School/Advanced Quantitative Analysis/Lab 3.1","no","mono","no","18","no","white","no","yes","768","legacy","89","11","C:/Users/lil_p/OneDrive/Documents/School/Advanced Quantitative Analysis/Lab 3.1/wp-subject-2.csv","legacy","4 1 8 7 5","Lentiform Loewenfeld","3.3.12","3","y","yes","0","None","rightleftdown","right","None","NA","2000","25352","5564","2000","NA","2","legacy","5","1024","2","48000","-16","experiment","2","even","8","762605","33441","200702","760401","3361","117270","760403","759276","3371","111705","764606","766607","761404","764606","NA","Sternberg Task","20","182230","102","yes","1024"
"19.41747572815534","19.41747572815534","1788.6407766990292","1788.6407766990292","black","experiment","legacy","legacy","legacy","0","uniform","0","undefined","0","right","102","0","102","102","0","0","102","102","0","0","102","102","102","102","0","Sun Oct 16 13:33:09 2022","The main experiment item","yes","SternbergTask.osexp","C:/Users/lil_p/OneDrive/Documents/School/Advanced Quantitative Analysis/Lab 3.1","no","mono","no","18","no","white","no","yes","768","legacy","90","11","C:/Users/lil_p/OneDrive/Documents/School/Advanced Quantitative Analysis/Lab 3.1/wp-subject-2.csv","legacy","6 9 5","Lentiform Loewenfeld","3.3.12","0","n","yes","0","None","rightleftdown","right","None","NA","2000","25352","5564","2000","NA","2","legacy","3","1024","2","48000","-16","experiment","2","even","8","769944","33441","200702","767741","3361","117270","767742","766613","3371","111705","771945","773946","768743","771945","NA","Sternberg Task","20","184230","103","yes","1024"
