"acc","accuracy","average_response_time","avg_rt","background","block","canvas_backend","clock_backend","color_backend","compensation","coordinates","correct","correct_instruction1","correct_keyboard_response","correct_response","count_ISI","count_correctFeedback","count_expSequence","count_experiment","count_experimentLoop","count_fixation","count_incorrectFeedback","count_instruction1","count_instructions2","count_keyboard_response","count_logger","count_memorySet","count_practiceLoop","count_probe","count_thankYou","datetime","description","disable_garbage_collection","experiment_file","experiment_path","font_bold","font_family","font_italic","font_size","font_underline","foreground","form_clicks","fullscreen","height","keyboard_backend","live_row","live_row_practiceLoop","logfile","mouse_backend","numberSet","opensesame_codename","opensesame_version","posInSet","present","repeat_cycle","response","response_instruction1","response_instructions2","response_keyboard_response","response_thankYou","response_time","response_time_instruction1","response_time_instructions2","response_time_keyboard_response","response_time_thankYou","round_decimals","sampler_backend","setSize","sound_buf_size","sound_channels","sound_freq","sound_sample_size","start","subject_nr","subject_parity","target","time_ISI","time_correctFeedback","time_expSequence","time_experiment","time_experimentLoop","time_fixation","time_incorrectFeedback","time_instruction1","time_instructions2","time_keyboard_response","time_logger","time_memorySet","time_practiceLoop","time_probe","time_thankYou","title","total_correct","total_response_time","total_responses","uniform_coordinates","width"
"100","100","631","631","black","practice","legacy","legacy","legacy","0","uniform","1","undefined","1","left","0","0","0","0","0","0","0","0","0","0","0","0","0","0","0","Sun Oct 24 20:59:29 2021","The main experiment item","yes","Sternbergtask.osexp","C:\Users\19565\Desktop","no","mono","no","18","no","white","no","yes","768","legacy","0","0","C:/Users/19565/Desktop/Lab 3/MR-subject-3.csv","legacy","4 8","Lentiform Loewenfeld","3.3.9","1","y","0","left","left","NA","left","NA","631","14156","NA","631","NA","2","legacy","2","1024","2","48000","-16","experiment","3","odd","4","23408","NA","21199","4348","NA","21201","NA","4351","NA","25412","26044","22205","18509","25411","NA","Sternberg task","1","631","1","yes","1024"
"100","100","715","715","black","practice","legacy","legacy","legacy","0","uniform","1","undefined","1","right","1","1","1","0","0","1","1","0","0","1","1","1","0","1","0","Sun Oct 24 20:59:29 2021","The main experiment item","yes","Sternbergtask.osexp","C:\Users\19565\Desktop","no","mono","no","18","no","white","no","yes","768","legacy","1","1","C:/Users/19565/Desktop/Lab 3/MR-subject-3.csv","legacy","9 6 7 4 5","Lentiform Loewenfeld","3.3.9","0","n","0","right","left","NA","right","NA","799","14156","NA","799","NA","2","legacy","5","1024","2","48000","-16","experiment","3","odd","3","29550","26127","27341","4348","NA","27343","NA","4351","NA","31555","32355","28347","18509","31554","NA","Sternberg task","2","1430","2","yes","1024"
"100","100","790.3333333333334","790.3333333333334","black","practice","legacy","legacy","legacy","0","uniform","1","undefined","1","right","2","2","2","0","0","2","2","0","0","2","2","2","0","2","0","Sun Oct 24 20:59:29 2021","The main experiment item","yes","Sternbergtask.osexp","C:\Users\19565\Desktop","no","mono","no","18","no","white","no","yes","768","legacy","2","2","C:/Users/19565/Desktop/Lab 3/MR-subject-3.csv","legacy","3 1 9 4","Lentiform Loewenfeld","3.3.9","0","n","0","right","left","NA","right","NA","941","14156","NA","941","NA","2","legacy","4","1024","2","48000","-16","experiment","3","odd","6","35725","32359","33515","4348","NA","33517","NA","4351","NA","37728","38669","34521","18509","37728","NA","Sternberg task","3","2371","3","yes","1024"
"100","100","788.75","788.75","black","practice","legacy","legacy","legacy","0","uniform","1","undefined","1","left","3","3","3","0","0","3","3","0","0","3","3","3","0","3","0","Sun Oct 24 20:59:29 2021","The main experiment item","yes","Sternbergtask.osexp","C:\Users\19565\Desktop","no","mono","no","18","no","white","no","yes","768","legacy","3","3","C:/Users/19565/Desktop/Lab 3/MR-subject-3.csv","legacy","6","Lentiform Loewenfeld","3.3.9","1","y","0","left","left","NA","left","NA","784","14156","NA","784","NA","2","legacy","1","1024","2","48000","-16","experiment","3","odd","6","42045","38676","39835","4348","NA","39837","NA","4351","NA","44048","44832","40841","18509","44048","NA","Sternberg task","4","3155","4","yes","1024"
"100","100","867.6","867.6","black","practice","legacy","legacy","legacy","0","uniform","1","undefined","1","right","4","4","4","0","0","4","4","0","0","4","4","4","0","4","0","Sun Oct 24 20:59:29 2021","The main experiment item","yes","Sternbergtask.osexp","C:\Users\19565\Desktop","no","mono","no","18","no","white","no","yes","768","legacy","4","4","C:/Users/19565/Desktop/Lab 3/MR-subject-3.csv","legacy","4 1 5","Lentiform Loewenfeld","3.3.9","0","n","0","right","left","NA","right","NA","1183","14156","NA","1183","NA","2","legacy","3","1024","2","48000","-16","experiment","3","odd","2","48262","44838","46049","4348","NA","46054","NA","4351","NA","50268","51452","47059","18509","50268","NA","Sternberg task","5","4338","5","yes","1024"
"100","100","863","863","black","practice","legacy","legacy","legacy","0","uniform","1","undefined","1","right","5","5","5","0","0","5","5","0","0","5","5","5","0","5","0","Sun Oct 24 20:59:29 2021","The main experiment item","yes","Sternbergtask.osexp","C:\Users\19565\Desktop","no","mono","no","18","no","white","no","yes","768","legacy","5","5","C:/Users/19565/Desktop/Lab 3/MR-subject-3.csv","legacy","5 7 8 4 1 2","Lentiform Loewenfeld","3.3.9","0","n","0","right","left","NA","right","NA","840","14156","NA","840","NA","2","legacy","6","1024","2","48000","-16","experiment","3","odd","6","54827","51462","52615","4348","NA","52618","NA","4351","NA","56832","57673","53623","18509","56832","NA","Sternberg task","6","5178","6","yes","1024"
"85.71428571428571","85.71428571428571","870.4285714285714","870.4285714285714","black","practice","legacy","legacy","legacy","0","uniform","0","undefined","0","right","6","6","6","0","0","6","6","0","0","6","6","6","0","6","0","Sun Oct 24 20:59:29 2021","The main experiment item","yes","Sternbergtask.osexp","C:\Users\19565\Desktop","no","mono","no","18","no","white","no","yes","768","legacy","6","6","C:/Users/19565/Desktop/Lab 3/MR-subject-3.csv","legacy","5","Lentiform Loewenfeld","3.3.9","0","n","0","left","left","NA","left","NA","915","14156","NA","915","NA","2","legacy","1","1024","2","48000","-16","experiment","3","odd","3","61133","57678","58917","4348","NA","58921","NA","4351","NA","63140","64055","59927","18509","63140","NA","Sternberg task","6","6093","7","yes","1024"
"87.5","87.5","898.125","898.125","black","practice","legacy","legacy","legacy","0","uniform","1","undefined","1","left","7","7","7","0","0","7","7","0","0","7","7","7","0","7","0","Sun Oct 24 20:59:29 2021","The main experiment item","yes","Sternbergtask.osexp","C:\Users\19565\Desktop","no","mono","no","18","no","white","no","yes","768","legacy","7","7","C:/Users/19565/Desktop/Lab 3/MR-subject-3.csv","legacy","1 5 2 9","Lentiform Loewenfeld","3.3.9","2","y","0","left","left","NA","left","NA","1092","14156","NA","1092","NA","2","legacy","4","1024","2","48000","-16","experiment","3","odd","5","67424","57678","65212","4348","NA","65214","64060","4351","NA","69430","70523","66218","18509","69429","NA","Sternberg task","7","7185","8","yes","1024"
"88.88888888888889","88.88888888888889","918.6666666666666","918.6666666666666","black","practice","legacy","legacy","legacy","0","uniform","1","undefined","1","right","8","8","8","0","0","8","8","0","0","8","8","8","0","8","0","Sun Oct 24 20:59:29 2021","The main experiment item","yes","Sternbergtask.osexp","C:\Users\19565\Desktop","no","mono","no","18","no","white","no","yes","768","legacy","8","8","C:/Users/19565/Desktop/Lab 3/MR-subject-3.csv","legacy","2 1","Lentiform Loewenfeld","3.3.9","0","n","0","right","left","NA","right","NA","1083","14156","NA","1083","NA","2","legacy","2","1024","2","48000","-16","experiment","3","odd","5","73880","70529","71669","4348","NA","71672","64060","4351","NA","75884","76968","72676","18509","75883","NA","Sternberg task","8","8268","9","yes","1024"
"90","90","916.6","916.6","black","practice","legacy","legacy","legacy","0","uniform","1","undefined","1","left","9","9","9","0","0","9","9","0","0","9","9","9","0","9","0","Sun Oct 24 20:59:29 2021","The main experiment item","yes","Sternbergtask.osexp","C:\Users\19565\Desktop","no","mono","no","18","no","white","no","yes","768","legacy","9","9","C:/Users/19565/Desktop/Lab 3/MR-subject-3.csv","legacy","4 3 1 7 9 8","Lentiform Loewenfeld","3.3.9","1","y","0","left","left","NA","left","NA","898","14156","NA","898","NA","2","legacy","6","1024","2","48000","-16","experiment","3","odd","4","80357","76973","78144","4348","NA","78146","64060","4351","NA","82359","83258","79150","18509","82359","NA","Sternberg task","9","9166","10","yes","1024"
"90.9090909090909","90.9090909090909","938.1818181818181","938.1818181818181","black","practice","legacy","legacy","legacy","0","uniform","1","undefined","1","left","10","10","10","0","0","10","10","0","0","10","10","10","0","10","0","Sun Oct 24 20:59:29 2021","The main experiment item","yes","Sternbergtask.osexp","C:\Users\19565\Desktop","no","mono","no","18","no","white","no","yes","768","legacy","10","10","C:/Users/19565/Desktop/Lab 3/MR-subject-3.csv","legacy","1 7 9 8 5","Lentiform Loewenfeld","3.3.9","4","y","0","left","left","NA","left","NA","1154","14156","NA","1154","NA","2","legacy","5","1024","2","48000","-16","experiment","3","odd","8","86749","83263","84535","4348","NA","84540","64060","4351","NA","88755","89909","85545","18509","88755","NA","Sternberg task","10","10320","11","yes","1024"
"83.33333333333333","83.33333333333333","975.8333333333334","975.8333333333334","black","practice","legacy","legacy","legacy","0","uniform","0","undefined","0","left","11","11","11","0","0","11","11","0","0","11","11","11","0","11","0","Sun Oct 24 20:59:29 2021","The main experiment item","yes","Sternbergtask.osexp","C:\Users\19565\Desktop","no","mono","no","18","no","white","no","yes","768","legacy","11","11","C:/Users/19565/Desktop/Lab 3/MR-subject-3.csv","legacy","2 9 4","Lentiform Loewenfeld","3.3.9","3","y","0","right","left","NA","right","NA","1390","14156","NA","1390","NA","2","legacy","3","1024","2","48000","-16","experiment","3","odd","4","93293","89914","91082","4348","NA","91084","64060","4351","NA","95298","96688","92089","18509","95297","NA","Sternberg task","10","11710","12","yes","1024"
"76.92307692307692","76.92307692307692","1054.6153846153845","1054.6153846153845","black","experiment","legacy","legacy","legacy","0","uniform","0","undefined","0","left","12","12","12","0","0","12","12","0","0","12","12","12","0","12","0","Sun Oct 24 20:59:29 2021","The main experiment item","yes","Sternbergtask.osexp","C:\Users\19565\Desktop","no","mono","no","18","no","white","no","yes","768","legacy","0","11","C:/Users/19565/Desktop/Lab 3/MR-subject-3.csv","legacy","9 1 7 2","Lentiform Loewenfeld","3.3.9","2","y","0","None","left","left","None","NA","2000","14156","15954","2000","NA","2","legacy","4","1024","2","48000","-16","experiment","3","odd","1","116074","89914","113866","4348","113734","113869","96693","4351","97779","118078","120078","114871","18509","118077","NA","Sternberg task","10","13710","13","yes","1024"
"78.57142857142857","78.57142857142857","1051.4285714285713","1051.4285714285713","black","experiment","legacy","legacy","legacy","0","uniform","1","undefined","1","left","13","13","13","0","0","13","13","0","0","13","13","13","0","13","0","Sun Oct 24 20:59:29 2021","The main experiment item","yes","Sternbergtask.osexp","C:\Users\19565\Desktop","no","mono","no","18","no","white","no","yes","768","legacy","1","11","C:/Users/19565/Desktop/Lab 3/MR-subject-3.csv","legacy","3 4 9 6 2 9","Lentiform Loewenfeld","3.3.9","5","y","0","left","left","left","left","NA","1010","14156","15954","1010","NA","2","legacy","6","1024","2","48000","-16","experiment","3","odd","2","123410","89914","121201","4348","113734","121204","120083","4351","97779","125413","126424","122207","18509","125413","NA","Sternberg task","11","14720","14","yes","1024"
"80","80","1030.2666666666667","1030.2666666666667","black","experiment","legacy","legacy","legacy","0","uniform","1","undefined","1","right","14","14","14","0","0","14","14","0","0","14","14","14","0","14","0","Sun Oct 24 20:59:29 2021","The main experiment item","yes","Sternbergtask.osexp","C:\Users\19565\Desktop","no","mono","no","18","no","white","no","yes","768","legacy","2","11","C:/Users/19565/Desktop/Lab 3/MR-subject-3.csv","legacy","9 5 3 2 8 6","Lentiform Loewenfeld","3.3.9","0","n","0","right","left","left","right","NA","734","14156","15954","734","NA","2","legacy","6","1024","2","48000","-16","experiment","3","odd","7","129764","126429","127557","4348","113734","127559","120083","4351","97779","131767","132501","128562","18509","131767","NA","Sternberg task","12","15454","15","yes","1024"
"81.25","81.25","1014.5","1014.5","black","experiment","legacy","legacy","legacy","0","uniform","1","undefined","1","left","15","15","15","0","0","15","15","0","0","15","15","15","0","15","0","Sun Oct 24 20:59:29 2021","The main experiment item","yes","Sternbergtask.osexp","C:\Users\19565\Desktop","no","mono","no","18","no","white","no","yes","768","legacy","3","11","C:/Users/19565/Desktop/Lab 3/MR-subject-3.csv","legacy","9 8 4","Lentiform Loewenfeld","3.3.9","1","y","0","left","left","left","left","NA","778","14156","15954","778","NA","2","legacy","3","1024","2","48000","-16","experiment","3","odd","9","135838","132510","133630","4348","113734","133633","120083","4351","97779","137840","138618","134635","18509","137840","NA","Sternberg task","13","16232","16","yes","1024"
"82.3529411764706","82.3529411764706","1009.2941176470588","1009.2941176470588","black","experiment","legacy","legacy","legacy","0","uniform","1","undefined","1","left","16","16","16","0","0","16","16","0","0","16","16","16","0","16","0","Sun Oct 24 20:59:29 2021","The main experiment item","yes","Sternbergtask.osexp","C:\Users\19565\Desktop","no","mono","no","18","no","white","no","yes","768","legacy","4","11","C:/Users/19565/Desktop/Lab 3/MR-subject-3.csv","legacy","4 1 8 7 5","Lentiform Loewenfeld","3.3.9","3","y","0","left","left","left","left","NA","926","14156","15954","926","NA","2","legacy","5","1024","2","48000","-16","experiment","3","odd","8","141968","138624","139760","4348","113734","139762","120083","4351","97779","143971","144897","140765","18509","143971","NA","Sternberg task","14","17158","17","yes","1024"
"83.33333333333333","83.33333333333333","998.6666666666666","998.6666666666666","black","experiment","legacy","legacy","legacy","0","uniform","1","undefined","1","right","17","17","17","0","0","17","17","0","0","17","17","17","0","17","0","Sun Oct 24 20:59:29 2021","The main experiment item","yes","Sternbergtask.osexp","C:\Users\19565\Desktop","no","mono","no","18","no","white","no","yes","768","legacy","5","11","C:/Users/19565/Desktop/Lab 3/MR-subject-3.csv","legacy","1 6 4","Lentiform Loewenfeld","3.3.9","0","n","0","right","left","left","right","NA","818","14156","15954","818","NA","2","legacy","3","1024","2","48000","-16","experiment","3","odd","7","148253","144904","146045","4348","113734","146047","120083","4351","97779","150256","151074","147049","18509","150256","NA","Sternberg task","15","17976","18","yes","1024"
"84.21052631578948","84.21052631578948","993.3157894736842","993.3157894736842","black","experiment","legacy","legacy","legacy","0","uniform","1","undefined","1","left","18","18","18","0","0","18","18","0","0","18","18","18","0","18","0","Sun Oct 24 20:59:29 2021","The main experiment item","yes","Sternbergtask.osexp","C:\Users\19565\Desktop","no","mono","no","18","no","white","no","yes","768","legacy","6","11","C:/Users/19565/Desktop/Lab 3/MR-subject-3.csv","legacy","9 4 2","Lentiform Loewenfeld","3.3.9","1","y","0","left","left","left","left","NA","897","14156","15954","897","NA","2","legacy","3","1024","2","48000","-16","experiment","3","odd","9","154476","151079","152264","4348","113734","152266","120083","4351","97779","156481","157379","153272","18509","156481","NA","Sternberg task","16","18873","19","yes","1024"
"85","85","983.55","983.55","black","experiment","legacy","legacy","legacy","0","uniform","1","undefined","1","left","19","19","19","0","0","19","19","0","0","19","19","19","0","19","0","Sun Oct 24 20:59:29 2021","The main experiment item","yes","Sternbergtask.osexp","C:\Users\19565\Desktop","no","mono","no","18","no","white","no","yes","768","legacy","7","11","C:/Users/19565/Desktop/Lab 3/MR-subject-3.csv","legacy","6 8 9 3 4 9","Lentiform Loewenfeld","3.3.9","5","y","0","left","left","left","left","NA","798","14156","15954","798","NA","2","legacy","6","1024","2","48000","-16","experiment","3","odd","4","160837","157392","158624","4348","113734","158627","120083","4351","97779","162842","163641","159632","18509","162842","NA","Sternberg task","17","19671","20","yes","1024"
"85.71428571428571","85.71428571428571","975","975","black","experiment","legacy","legacy","legacy","0","uniform","1","undefined","1","left","20","20","20","0","0","20","20","0","0","20","20","20","0","20","0","Sun Oct 24 20:59:29 2021","The main experiment item","yes","Sternbergtask.osexp","C:\Users\19565\Desktop","no","mono","no","18","no","white","no","yes","768","legacy","8","11","C:/Users/19565/Desktop/Lab 3/MR-subject-3.csv","legacy","5 7 8 2 3 8","Lentiform Loewenfeld","3.3.9","5","y","0","left","left","left","left","NA","804","14156","15954","804","NA","2","legacy","6","1024","2","48000","-16","experiment","3","odd","3","167135","163645","164922","4348","113734","164927","120083","4351","97779","169139","169944","165931","18509","169139","NA","Sternberg task","18","20475","21","yes","1024"
"86.36363636363636","86.36363636363636","965.8636363636364","965.8636363636364","black","experiment","legacy","legacy","legacy","0","uniform","1","undefined","1","left","21","21","21","0","0","21","21","0","0","21","21","21","0","21","0","Sun Oct 24 20:59:29 2021","The main experiment item","yes","Sternbergtask.osexp","C:\Users\19565\Desktop","no","mono","no","18","no","white","no","yes","768","legacy","9","11","C:/Users/19565/Desktop/Lab 3/MR-subject-3.csv","legacy","8 5 4 7 3 1","Lentiform Loewenfeld","3.3.9","2","y","0","left","left","left","left","NA","774","14156","15954","774","NA","2","legacy","6","1024","2","48000","-16","experiment","3","odd","5","173277","169950","171067","4348","113734","171069","120083","4351","97779","175281","176056","172073","18509","175281","NA","Sternberg task","19","21249","22","yes","1024"
"86.95652173913044","86.95652173913044","980.4782608695652","980.4782608695652","black","experiment","legacy","legacy","legacy","0","uniform","1","undefined","1","left","22","22","22","0","0","22","22","0","0","22","22","22","0","22","0","Sun Oct 24 20:59:29 2021","The main experiment item","yes","Sternbergtask.osexp","C:\Users\19565\Desktop","no","mono","no","18","no","white","no","yes","768","legacy","10","11","C:/Users/19565/Desktop/Lab 3/MR-subject-3.csv","legacy","8 7 3","Lentiform Loewenfeld","3.3.9","1","y","0","left","left","left","left","NA","1302","14156","15954","1302","NA","2","legacy","3","1024","2","48000","-16","experiment","3","odd","8","179421","176066","177209","4348","113734","177211","120083","4351","97779","181424","182726","178216","18509","181424","NA","Sternberg task","20","22551","23","yes","1024"
"83.33333333333333","83.33333333333333","987.7083333333334","987.7083333333334","black","experiment","legacy","legacy","legacy","0","uniform","0","undefined","0","right","23","23","23","0","0","23","23","0","0","23","23","23","0","23","0","Sun Oct 24 20:59:29 2021","The main experiment item","yes","Sternbergtask.osexp","C:\Users\19565\Desktop","no","mono","no","18","no","white","no","yes","768","legacy","11","11","C:/Users/19565/Desktop/Lab 3/MR-subject-3.csv","legacy","6 9 5","Lentiform Loewenfeld","3.3.9","0","n","0","left","left","left","left","NA","1154","14156","15954","1154","NA","2","legacy","3","1024","2","48000","-16","experiment","3","odd","8","186134","182734","183921","4348","113734","183924","120083","4351","97779","188138","189294","184928","18509","188138","NA","Sternberg task","20","23705","24","yes","1024"
"84","84","948.44","948.44","black","experiment","legacy","legacy","legacy","0","uniform","1","undefined","1","right","24","24","24","0","0","24","24","0","0","24","24","24","0","24","0","Sun Oct 24 20:59:29 2021","The main experiment item","yes","Sternbergtask.osexp","C:\Users\19565\Desktop","no","mono","no","18","no","white","no","yes","768","legacy","12","11","C:/Users/19565/Desktop/Lab 3/MR-subject-3.csv","legacy","7 9 1 6","Lentiform Loewenfeld","3.3.9","0","n","0","right","left","left","right","NA","6","14156","15954","6","NA","2","legacy","4","1024","2","48000","-16","experiment","3","odd","4","192726","182734","190514","4348","113734","190517","189301","4351","97779","194732","194741","191521","18509","194731","NA","Sternberg task","21","23711","25","yes","1024"
"84.61538461538461","84.61538461538461","944.3076923076923","944.3076923076923","black","experiment","legacy","legacy","legacy","0","uniform","1","undefined","1","left","25","25","25","0","0","25","25","0","0","25","25","25","0","25","0","Sun Oct 24 20:59:29 2021","The main experiment item","yes","Sternbergtask.osexp","C:\Users\19565\Desktop","no","mono","no","18","no","white","no","yes","768","legacy","13","11","C:/Users/19565/Desktop/Lab 3/MR-subject-3.csv","legacy","9 5 8 1","Lentiform Loewenfeld","3.3.9","2","y","0","left","left","left","left","NA","841","14156","15954","841","NA","2","legacy","4","1024","2","48000","-16","experiment","3","odd","5","198168","194751","195957","4348","113734","195961","189301","4351","97779","200174","201016","196964","18509","200174","NA","Sternberg task","22","24552","26","yes","1024"
"85.18518518518519","85.18518518518519","940.1481481481482","940.1481481481482","black","experiment","legacy","legacy","legacy","0","uniform","1","undefined","1","right","26","26","26","0","0","26","26","0","0","26","26","26","0","26","0","Sun Oct 24 20:59:29 2021","The main experiment item","yes","Sternbergtask.osexp","C:\Users\19565\Desktop","no","mono","no","18","no","white","no","yes","768","legacy","14","11","C:/Users/19565/Desktop/Lab 3/MR-subject-3.csv","legacy","5 9 2 3","Lentiform Loewenfeld","3.3.9","0","n","0","right","left","left","right","NA","832","14156","15954","832","NA","2","legacy","4","1024","2","48000","-16","experiment","3","odd","8","204379","201025","202169","4348","113734","202171","189301","4351","97779","206384","207216","203175","18509","206384","NA","Sternberg task","23","25384","27","yes","1024"
"82.14285714285714","82.14285714285714","939.9285714285714","939.9285714285714","black","experiment","legacy","legacy","legacy","0","uniform","0","undefined","0","right","27","27","27","0","0","27","27","0","0","27","27","27","0","27","0","Sun Oct 24 20:59:29 2021","The main experiment item","yes","Sternbergtask.osexp","C:\Users\19565\Desktop","no","mono","no","18","no","white","no","yes","768","legacy","15","11","C:/Users/19565/Desktop/Lab 3/MR-subject-3.csv","legacy","7 6 4 8 1 2","Lentiform Loewenfeld","3.3.9","0","n","0","left","left","left","left","NA","934","14156","15954","934","NA","2","legacy","6","1024","2","48000","-16","experiment","3","odd","9","210675","207223","208464","4348","113734","208467","189301","4351","97779","212679","213614","209471","18509","212679","NA","Sternberg task","23","26318","28","yes","1024"
"82.75862068965517","82.75862068965517","936.551724137931","936.551724137931","black","experiment","legacy","legacy","legacy","0","uniform","1","undefined","1","right","28","28","28","0","0","28","28","0","0","28","28","28","0","28","0","Sun Oct 24 20:59:29 2021","The main experiment item","yes","Sternbergtask.osexp","C:\Users\19565\Desktop","no","mono","no","18","no","white","no","yes","768","legacy","16","11","C:/Users/19565/Desktop/Lab 3/MR-subject-3.csv","legacy","6 2 9 3 8 4","Lentiform Loewenfeld","3.3.9","0","n","0","right","left","left","right","NA","842","14156","15954","842","NA","2","legacy","6","1024","2","48000","-16","experiment","3","odd","1","216970","207223","214760","4348","113734","214762","213623","4351","97779","218975","219817","215766","18509","218975","NA","Sternberg task","24","27160","29","yes","1024"
"83.33333333333333","83.33333333333333","928.0333333333333","928.0333333333333","black","experiment","legacy","legacy","legacy","0","uniform","1","undefined","1","left","29","29","29","0","0","29","29","0","0","29","29","29","0","29","0","Sun Oct 24 20:59:29 2021","The main experiment item","yes","Sternbergtask.osexp","C:\Users\19565\Desktop","no","mono","no","18","no","white","no","yes","768","legacy","17","11","C:/Users/19565/Desktop/Lab 3/MR-subject-3.csv","legacy","4 1 5","Lentiform Loewenfeld","3.3.9","2","y","0","left","left","left","left","NA","681","14156","15954","681","NA","2","legacy","3","1024","2","48000","-16","experiment","3","odd","1","223196","219841","220989","4348","113734","220991","213623","4351","97779","225200","225882","221994","18509","225200","NA","Sternberg task","25","27841","30","yes","1024"
"83.87096774193549","83.87096774193549","921.1290322580645","921.1290322580645","black","experiment","legacy","legacy","legacy","0","uniform","1","undefined","1","left","30","30","30","0","0","30","30","0","0","30","30","30","0","30","0","Sun Oct 24 20:59:29 2021","The main experiment item","yes","Sternbergtask.osexp","C:\Users\19565\Desktop","no","mono","no","18","no","white","no","yes","768","legacy","18","11","C:/Users/19565/Desktop/Lab 3/MR-subject-3.csv","legacy","7 8 4 6 9 5","Lentiform Loewenfeld","3.3.9","4","y","0","left","left","left","left","NA","714","14156","15954","714","NA","2","legacy","6","1024","2","48000","-16","experiment","3","odd","6","229278","225891","227066","4348","113734","227070","213623","4351","97779","231283","232000","228074","18509","231283","NA","Sternberg task","26","28555","31","yes","1024"
"84.375","84.375","921.0625","921.0625","black","experiment","legacy","legacy","legacy","0","uniform","1","undefined","1","left","31","31","31","0","0","31","31","0","0","31","31","31","0","31","0","Sun Oct 24 20:59:29 2021","The main experiment item","yes","Sternbergtask.osexp","C:\Users\19565\Desktop","no","mono","no","18","no","white","no","yes","768","legacy","19","11","C:/Users/19565/Desktop/Lab 3/MR-subject-3.csv","legacy","3 5 4 7","Lentiform Loewenfeld","3.3.9","1","y","0","left","left","left","left","NA","919","14156","15954","919","NA","2","legacy","4","1024","2","48000","-16","experiment","3","odd","3","235418","232012","233207","4348","113734","233210","213623","4351","97779","237423","238343","234214","18509","237422","NA","Sternberg task","27","29474","32","yes","1024"
"84.84848484848484","84.84848484848484","919.1515151515151","919.1515151515151","black","experiment","legacy","legacy","legacy","0","uniform","1","undefined","1","left","32","32","32","0","0","32","32","0","0","32","32","32","0","32","0","Sun Oct 24 20:59:29 2021","The main experiment item","yes","Sternbergtask.osexp","C:\Users\19565\Desktop","no","mono","no","18","no","white","no","yes","768","legacy","20","11","C:/Users/19565/Desktop/Lab 3/MR-subject-3.csv","legacy","8 3","Lentiform Loewenfeld","3.3.9","2","y","0","left","left","left","left","NA","858","14156","15954","858","NA","2","legacy","2","1024","2","48000","-16","experiment","3","odd","3","241799","238349","239587","4348","113734","239591","213623","4351","97779","243804","244663","240595","18509","243804","NA","Sternberg task","28","30332","33","yes","1024"
"85.29411764705883","85.29411764705883","925.1176470588235","925.1176470588235","black","experiment","legacy","legacy","legacy","0","uniform","1","undefined","1","left","33","33","33","0","0","33","33","0","0","33","33","33","0","33","0","Sun Oct 24 20:59:29 2021","The main experiment item","yes","Sternbergtask.osexp","C:\Users\19565\Desktop","no","mono","no","18","no","white","no","yes","768","legacy","21","11","C:/Users/19565/Desktop/Lab 3/MR-subject-3.csv","legacy","6 9 7 4 5 1","Lentiform Loewenfeld","3.3.9","2","y","0","left","left","left","left","NA","1122","14156","15954","1122","NA","2","legacy","6","1024","2","48000","-16","experiment","3","odd","9","248127","244684","245912","4348","113734","245916","213623","4351","97779","250131","251254","246922","18509","250131","NA","Sternberg task","29","31454","34","yes","1024"
"85.71428571428571","85.71428571428571","927.5714285714286","927.5714285714286","black","experiment","legacy","legacy","legacy","0","uniform","1","undefined","1","right","34","34","34","0","0","34","34","0","0","34","34","34","0","34","0","Sun Oct 24 20:59:29 2021","The main experiment item","yes","Sternbergtask.osexp","C:\Users\19565\Desktop","no","mono","no","18","no","white","no","yes","768","legacy","22","11","C:/Users/19565/Desktop/Lab 3/MR-subject-3.csv","legacy","1 7 5 2","Lentiform Loewenfeld","3.3.9","0","n","0","right","left","left","right","NA","1011","14156","15954","1011","NA","2","legacy","4","1024","2","48000","-16","experiment","3","odd","3","254651","251261","252438","4348","113734","252442","213623","4351","97779","256656","257668","253447","18509","256656","NA","Sternberg task","30","32465","35","yes","1024"
"83.33333333333333","83.33333333333333","919.4444444444445","919.4444444444445","black","experiment","legacy","legacy","legacy","0","uniform","0","undefined","0","right","35","35","35","0","0","35","35","0","0","35","35","35","0","35","0","Sun Oct 24 20:59:29 2021","The main experiment item","yes","Sternbergtask.osexp","C:\Users\19565\Desktop","no","mono","no","18","no","white","no","yes","768","legacy","23","11","C:/Users/19565/Desktop/Lab 3/MR-subject-3.csv","legacy","7 4 2 8 1 9","Lentiform Loewenfeld","3.3.9","0","n","0","left","left","left","left","NA","635","14156","15954","635","NA","2","legacy","6","1024","2","48000","-16","experiment","3","odd","5","261066","257676","258853","4348","113734","258857","213623","4351","97779","263070","263705","259861","18509","263070","NA","Sternberg task","30","33100","36","yes","1024"
"83.78378378378379","83.78378378378379","922.4054054054054","922.4054054054054","black","experiment","legacy","legacy","legacy","0","uniform","1","undefined","1","right","36","36","36","0","0","36","36","0","0","36","36","36","0","36","0","Sun Oct 24 20:59:29 2021","The main experiment item","yes","Sternbergtask.osexp","C:\Users\19565\Desktop","no","mono","no","18","no","white","no","yes","768","legacy","24","11","C:/Users/19565/Desktop/Lab 3/MR-subject-3.csv","legacy","2 3 8 5 6 7","Lentiform Loewenfeld","3.3.9","0","n","0","right","left","left","right","NA","1029","14156","15954","1029","NA","2","legacy","6","1024","2","48000","-16","experiment","3","odd","1","267068","257676","264859","4348","113734","264861","263711","4351","97779","269072","270101","265864","18509","269072","NA","Sternberg task","31","34129","37","yes","1024"
"84.21052631578948","84.21052631578948","923.6315789473684","923.6315789473684","black","experiment","legacy","legacy","legacy","0","uniform","1","undefined","1","left","37","37","37","0","0","37","37","0","0","37","37","37","0","37","0","Sun Oct 24 20:59:29 2021","The main experiment item","yes","Sternbergtask.osexp","C:\Users\19565\Desktop","no","mono","no","18","no","white","no","yes","768","legacy","25","11","C:/Users/19565/Desktop/Lab 3/MR-subject-3.csv","legacy","3 9 7 6 4","Lentiform Loewenfeld","3.3.9","3","y","0","left","left","left","left","NA","969","14156","15954","969","NA","2","legacy","5","1024","2","48000","-16","experiment","3","odd","7","273558","270123","271345","4348","113734","271347","263711","4351","97779","275563","276533","272353","18509","275563","NA","Sternberg task","32","35098","38","yes","1024"
"84.61538461538461","84.61538461538461","921.8461538461538","921.8461538461538","black","experiment","legacy","legacy","legacy","0","uniform","1","undefined","1","left","38","38","38","0","0","38","38","0","0","38","38","38","0","38","0","Sun Oct 24 20:59:29 2021","The main experiment item","yes","Sternbergtask.osexp","C:\Users\19565\Desktop","no","mono","no","18","no","white","no","yes","768","legacy","26","11","C:/Users/19565/Desktop/Lab 3/MR-subject-3.csv","legacy","4 6 5 8","Lentiform Loewenfeld","3.3.9","1","y","0","left","left","left","left","NA","854","14156","15954","854","NA","2","legacy","4","1024","2","48000","-16","experiment","3","odd","4","279999","276550","277786","4348","113734","277791","263711","4351","97779","282003","282857","278795","18509","282003","NA","Sternberg task","33","35952","39","yes","1024"
"82.5","82.5","917.3","917.3","black","experiment","legacy","legacy","legacy","0","uniform","0","undefined","0","right","39","39","39","0","0","39","39","0","0","39","39","39","0","39","0","Sun Oct 24 20:59:29 2021","The main experiment item","yes","Sternbergtask.osexp","C:\Users\19565\Desktop","no","mono","no","18","no","white","no","yes","768","legacy","27","11","C:/Users/19565/Desktop/Lab 3/MR-subject-3.csv","legacy","5 3 2 6 9 8","Lentiform Loewenfeld","3.3.9","0","n","0","left","left","left","left","NA","740","14156","15954","740","NA","2","legacy","6","1024","2","48000","-16","experiment","3","odd","4","286216","282865","284005","4348","113734","284007","263711","4351","97779","288220","288961","285011","18509","288220","NA","Sternberg task","33","36692","40","yes","1024"
"80.48780487804878","80.48780487804878","923.560975609756","923.560975609756","black","experiment","legacy","legacy","legacy","0","uniform","0","undefined","0","right","40","40","40","0","0","40","40","0","0","40","40","40","0","40","0","Sun Oct 24 20:59:29 2021","The main experiment item","yes","Sternbergtask.osexp","C:\Users\19565\Desktop","no","mono","no","18","no","white","no","yes","768","legacy","28","11","C:/Users/19565/Desktop/Lab 3/MR-subject-3.csv","legacy","6 7 5 9","Lentiform Loewenfeld","3.3.9","0","n","0","left","left","left","left","NA","1174","14156","15954","1174","NA","2","legacy","4","1024","2","48000","-16","experiment","3","odd","2","292307","282865","290100","4348","113734","290102","288971","4351","97779","294312","295486","291103","18509","294312","NA","Sternberg task","33","37866","41","yes","1024"
"80.95238095238095","80.95238095238095","921.1428571428571","921.1428571428571","black","experiment","legacy","legacy","legacy","0","uniform","1","undefined","1","left","41","41","41","0","0","41","41","0","0","41","41","41","0","41","0","Sun Oct 24 20:59:29 2021","The main experiment item","yes","Sternbergtask.osexp","C:\Users\19565\Desktop","no","mono","no","18","no","white","no","yes","768","legacy","29","11","C:/Users/19565/Desktop/Lab 3/MR-subject-3.csv","legacy","7 1 3","Lentiform Loewenfeld","3.3.9","2","y","0","left","left","left","left","NA","822","14156","15954","822","NA","2","legacy","3","1024","2","48000","-16","experiment","3","odd","1","298922","282865","296711","4348","113734","296714","295493","4351","97779","300926","301748","297718","18509","300926","NA","Sternberg task","34","38688","42","yes","1024"
"81.3953488372093","81.3953488372093","922.046511627907","922.046511627907","black","experiment","legacy","legacy","legacy","0","uniform","1","undefined","1","right","42","42","42","0","0","42","42","0","0","42","42","42","0","42","0","Sun Oct 24 20:59:29 2021","The main experiment item","yes","Sternbergtask.osexp","C:\Users\19565\Desktop","no","mono","no","18","no","white","no","yes","768","legacy","30","11","C:/Users/19565/Desktop/Lab 3/MR-subject-3.csv","legacy","8 5 4 2 9 6","Lentiform Loewenfeld","3.3.9","0","n","0","right","left","left","right","NA","960","14156","15954","960","NA","2","legacy","6","1024","2","48000","-16","experiment","3","odd","3","305153","301754","302943","4348","113734","302946","295493","4351","97779","307157","308118","303949","18509","307157","NA","Sternberg task","35","39648","43","yes","1024"
"81.81818181818181","81.81818181818181","934.25","934.25","black","experiment","legacy","legacy","legacy","0","uniform","1","undefined","1","left","43","43","43","0","0","43","43","0","0","43","43","43","0","43","0","Sun Oct 24 20:59:29 2021","The main experiment item","yes","Sternbergtask.osexp","C:\Users\19565\Desktop","no","mono","no","18","no","white","no","yes","768","legacy","31","11","C:/Users/19565/Desktop/Lab 3/MR-subject-3.csv","legacy","7 6","Lentiform Loewenfeld","3.3.9","2","y","0","left","left","left","left","NA","1459","14156","15954","1459","NA","2","legacy","2","1024","2","48000","-16","experiment","3","odd","6","311478","308127","309268","4348","113734","309270","295493","4351","97779","313483","314943","310274","18509","313483","NA","Sternberg task","36","41107","44","yes","1024"
"82.22222222222223","82.22222222222223","929.9777777777778","929.9777777777778","black","experiment","legacy","legacy","legacy","0","uniform","1","undefined","1","left","44","44","44","0","0","44","44","0","0","44","44","44","0","44","0","Sun Oct 24 20:59:29 2021","The main experiment item","yes","Sternbergtask.osexp","C:\Users\19565\Desktop","no","mono","no","18","no","white","no","yes","768","legacy","32","11","C:/Users/19565/Desktop/Lab 3/MR-subject-3.csv","legacy","7 2 3","Lentiform Loewenfeld","3.3.9","3","y","0","left","left","left","left","NA","742","14156","15954","742","NA","2","legacy","3","1024","2","48000","-16","experiment","3","odd","3","318291","314949","316081","4348","113734","316083","295493","4351","97779","320295","321038","317087","18509","320295","NA","Sternberg task","37","41849","45","yes","1024"
"82.6086956521739","82.6086956521739","939.2173913043479","939.2173913043479","black","experiment","legacy","legacy","legacy","0","uniform","1","undefined","1","right","45","45","45","0","0","45","45","0","0","45","45","45","0","45","0","Sun Oct 24 20:59:29 2021","The main experiment item","yes","Sternbergtask.osexp","C:\Users\19565\Desktop","no","mono","no","18","no","white","no","yes","768","legacy","33","11","C:/Users/19565/Desktop/Lab 3/MR-subject-3.csv","legacy","1 8 7","Lentiform Loewenfeld","3.3.9","0","n","0","right","left","left","right","NA","1355","14156","15954","1355","NA","2","legacy","3","1024","2","48000","-16","experiment","3","odd","4","324412","321047","322200","4348","113734","322203","295493","4351","97779","326415","327771","323207","18509","326415","NA","Sternberg task","38","43204","46","yes","1024"
"82.97872340425532","82.97872340425532","934.2765957446809","934.2765957446809","black","experiment","legacy","legacy","legacy","0","uniform","1","undefined","1","left","46","46","46","0","0","46","46","0","0","46","46","46","0","46","0","Sun Oct 24 20:59:29 2021","The main experiment item","yes","Sternbergtask.osexp","C:\Users\19565\Desktop","no","mono","no","18","no","white","no","yes","768","legacy","34","11","C:/Users/19565/Desktop/Lab 3/MR-subject-3.csv","legacy","4 6 2 5 1","Lentiform Loewenfeld","3.3.9","5","y","0","left","left","left","left","NA","707","14156","15954","707","NA","2","legacy","5","1024","2","48000","-16","experiment","3","odd","1","331195","327780","328984","4348","113734","328988","295493","4351","97779","333200","333908","329991","18509","333200","NA","Sternberg task","39","43911","47","yes","1024"
"83.33333333333333","83.33333333333333","929.4791666666666","929.4791666666666","black","experiment","legacy","legacy","legacy","0","uniform","1","undefined","1","right","47","47","47","0","0","47","47","0","0","47","47","47","0","47","0","Sun Oct 24 20:59:29 2021","The main experiment item","yes","Sternbergtask.osexp","C:\Users\19565\Desktop","no","mono","no","18","no","white","no","yes","768","legacy","35","11","C:/Users/19565/Desktop/Lab 3/MR-subject-3.csv","legacy","1 7 5 2 9","Lentiform Loewenfeld","3.3.9","0","n","0","right","left","left","right","NA","704","14156","15954","704","NA","2","legacy","5","1024","2","48000","-16","experiment","3","odd","3","337307","333915","335095","4348","113734","335098","295493","4351","97779","339311","340016","336103","18509","339311","NA","Sternberg task","40","44615","48","yes","1024"
"83.6734693877551","83.6734693877551","927.6530612244898","927.6530612244898","black","experiment","legacy","legacy","legacy","0","uniform","1","undefined","1","right","48","48","48","0","0","48","48","0","0","48","48","48","0","48","0","Sun Oct 24 20:59:29 2021","The main experiment item","yes","Sternbergtask.osexp","C:\Users\19565\Desktop","no","mono","no","18","no","white","no","yes","768","legacy","36","11","C:/Users/19565/Desktop/Lab 3/MR-subject-3.csv","legacy","2 8 9 4 1","Lentiform Loewenfeld","3.3.9","0","n","0","right","left","left","right","NA","840","14156","15954","840","NA","2","legacy","5","1024","2","48000","-16","experiment","3","odd","5","343391","340023","341181","4348","113734","341183","295493","4351","97779","345395","346236","342187","18509","345395","NA","Sternberg task","41","45455","49","yes","1024"
"84","84","936.32","936.32","black","experiment","legacy","legacy","legacy","0","uniform","1","undefined","1","right","49","49","49","0","0","49","49","0","0","49","49","49","0","49","0","Sun Oct 24 20:59:29 2021","The main experiment item","yes","Sternbergtask.osexp","C:\Users\19565\Desktop","no","mono","no","18","no","white","no","yes","768","legacy","37","11","C:/Users/19565/Desktop/Lab 3/MR-subject-3.csv","legacy","1 4 9 3","Lentiform Loewenfeld","3.3.9","0","n","0","right","left","left","right","NA","1361","14156","15954","1361","NA","2","legacy","4","1024","2","48000","-16","experiment","3","odd","5","349662","346242","347451","4348","113734","347453","295493","4351","97779","351666","353028","348457","18509","351666","NA","Sternberg task","42","46816","50","yes","1024"
"84.31372549019608","84.31372549019608","936.1372549019608","936.1372549019608","black","experiment","legacy","legacy","legacy","0","uniform","1","undefined","1","right","50","50","50","0","0","50","50","0","0","50","50","50","0","50","0","Sun Oct 24 20:59:29 2021","The main experiment item","yes","Sternbergtask.osexp","C:\Users\19565\Desktop","no","mono","no","18","no","white","no","yes","768","legacy","38","11","C:/Users/19565/Desktop/Lab 3/MR-subject-3.csv","legacy","8 2 1 4 5 9","Lentiform Loewenfeld","3.3.9","0","n","0","right","left","left","right","NA","927","14156","15954","927","NA","2","legacy","6","1024","2","48000","-16","experiment","3","odd","7","356453","353034","354242","4348","113734","354245","295493","4351","97779","358458","359387","355248","18509","358458","NA","Sternberg task","43","47743","51","yes","1024"
"84.61538461538461","84.61538461538461","932.5769230769231","932.5769230769231","black","experiment","legacy","legacy","legacy","0","uniform","1","undefined","1","right","51","51","51","0","0","51","51","0","0","51","51","51","0","51","0","Sun Oct 24 20:59:29 2021","The main experiment item","yes","Sternbergtask.osexp","C:\Users\19565\Desktop","no","mono","no","18","no","white","no","yes","768","legacy","39","11","C:/Users/19565/Desktop/Lab 3/MR-subject-3.csv","legacy","3 9 8 1 6 4","Lentiform Loewenfeld","3.3.9","0","n","0","right","left","left","right","NA","751","14156","15954","751","NA","2","legacy","6","1024","2","48000","-16","experiment","3","odd","7","362807","359395","360597","4348","113734","360600","295493","4351","97779","364814","365566","361603","18509","364813","NA","Sternberg task","44","48494","52","yes","1024"
"83.01886792452831","83.01886792452831","931.6792452830189","931.6792452830189","black","experiment","legacy","legacy","legacy","0","uniform","0","undefined","0","left","52","52","52","0","0","52","52","0","0","52","52","52","0","52","0","Sun Oct 24 20:59:29 2021","The main experiment item","yes","Sternbergtask.osexp","C:\Users\19565\Desktop","no","mono","no","18","no","white","no","yes","768","legacy","40","11","C:/Users/19565/Desktop/Lab 3/MR-subject-3.csv","legacy","7 4 2 6 3 5","Lentiform Loewenfeld","3.3.9","6","y","0","right","left","left","right","NA","885","14156","15954","885","NA","2","legacy","6","1024","2","48000","-16","experiment","3","odd","5","368998","365572","366785","4348","113734","366789","295493","4351","97779","371003","371889","367793","18509","371003","NA","Sternberg task","44","49379","53","yes","1024"
"83.33333333333333","83.33333333333333","932.7962962962963","932.7962962962963","black","experiment","legacy","legacy","legacy","0","uniform","1","undefined","1","right","53","53","53","0","0","53","53","0","0","53","53","53","0","53","0","Sun Oct 24 20:59:29 2021","The main experiment item","yes","Sternbergtask.osexp","C:\Users\19565\Desktop","no","mono","no","18","no","white","no","yes","768","legacy","41","11","C:/Users/19565/Desktop/Lab 3/MR-subject-3.csv","legacy","7 8 6 1","Lentiform Loewenfeld","3.3.9","0","n","0","right","left","left","right","NA","992","14156","15954","992","NA","2","legacy","4","1024","2","48000","-16","experiment","3","odd","3","375336","365572","373123","4348","113734","373127","371899","4351","97779","377340","378334","374131","18509","377340","NA","Sternberg task","45","50371","54","yes","1024"
"83.63636363636364","83.63636363636364","931.8909090909091","931.8909090909091","black","experiment","legacy","legacy","legacy","0","uniform","1","undefined","1","right","54","54","54","0","0","54","54","0","0","54","54","54","0","54","0","Sun Oct 24 20:59:29 2021","The main experiment item","yes","Sternbergtask.osexp","C:\Users\19565\Desktop","no","mono","no","18","no","white","no","yes","768","legacy","42","11","C:/Users/19565/Desktop/Lab 3/MR-subject-3.csv","legacy","3 4 9 6 7 8","Lentiform Loewenfeld","3.3.9","0","n","0","right","left","left","right","NA","883","14156","15954","883","NA","2","legacy","6","1024","2","48000","-16","experiment","3","odd","2","381690","378343","379479","4348","113734","379481","371899","4351","97779","383696","384580","380485","18509","383696","NA","Sternberg task","46","51254","55","yes","1024"
"83.92857142857143","83.92857142857143","935.6785714285714","935.6785714285714","black","experiment","legacy","legacy","legacy","0","uniform","1","undefined","1","left","55","55","55","0","0","55","55","0","0","55","55","55","0","55","0","Sun Oct 24 20:59:29 2021","The main experiment item","yes","Sternbergtask.osexp","C:\Users\19565\Desktop","no","mono","no","18","no","white","no","yes","768","legacy","43","11","C:/Users/19565/Desktop/Lab 3/MR-subject-3.csv","legacy","3 2 1 4 7","Lentiform Loewenfeld","3.3.9","2","y","0","left","left","left","left","NA","1144","14156","15954","1144","NA","2","legacy","5","1024","2","48000","-16","experiment","3","odd","2","388020","384588","385810","4348","113734","385813","371899","4351","97779","390027","391171","386816","18509","390026","NA","Sternberg task","47","52398","56","yes","1024"
"84.21052631578948","84.21052631578948","935.5438596491229","935.5438596491229","black","experiment","legacy","legacy","legacy","0","uniform","1","undefined","1","right","56","56","56","0","0","56","56","0","0","56","56","56","0","56","0","Sun Oct 24 20:59:29 2021","The main experiment item","yes","Sternbergtask.osexp","C:\Users\19565\Desktop","no","mono","no","18","no","white","no","yes","768","legacy","44","11","C:/Users/19565/Desktop/Lab 3/MR-subject-3.csv","legacy","4 2 7 6 1 3","Lentiform Loewenfeld","3.3.9","0","n","0","right","left","left","right","NA","928","14156","15954","928","NA","2","legacy","6","1024","2","48000","-16","experiment","3","odd","8","394552","391178","392341","4348","113734","392344","371899","4351","97779","396556","397485","393348","18509","396556","NA","Sternberg task","48","53326","57","yes","1024"
"84.48275862068965","84.48275862068965","933.2586206896551","933.2586206896551","black","experiment","legacy","legacy","legacy","0","uniform","1","undefined","1","right","57","57","57","0","0","57","57","0","0","57","57","57","0","57","0","Sun Oct 24 20:59:29 2021","The main experiment item","yes","Sternbergtask.osexp","C:\Users\19565\Desktop","no","mono","no","18","no","white","no","yes","768","legacy","45","11","C:/Users/19565/Desktop/Lab 3/MR-subject-3.csv","legacy","6 9 4 5 3 2","Lentiform Loewenfeld","3.3.9","0","n","0","right","left","left","right","NA","803","14156","15954","803","NA","2","legacy","6","1024","2","48000","-16","experiment","3","odd","8","400943","397495","398731","4348","113734","398735","371899","4351","97779","402947","403751","399739","18509","402947","NA","Sternberg task","49","54129","58","yes","1024"
"84.7457627118644","84.7457627118644","932.5593220338983","932.5593220338983","black","experiment","legacy","legacy","legacy","0","uniform","1","undefined","1","left","58","58","58","0","0","58","58","0","0","58","58","58","0","58","0","Sun Oct 24 20:59:29 2021","The main experiment item","yes","Sternbergtask.osexp","C:\Users\19565\Desktop","no","mono","no","18","no","white","no","yes","768","legacy","46","11","C:/Users/19565/Desktop/Lab 3/MR-subject-3.csv","legacy","4 3 2 5 8","Lentiform Loewenfeld","3.3.9","2","y","0","left","left","left","left","NA","892","14156","15954","892","NA","2","legacy","5","1024","2","48000","-16","experiment","3","odd","3","407212","403760","405000","4348","113734","405004","371899","4351","97779","409217","410109","406008","18509","409217","NA","Sternberg task","50","55021","59","yes","1024"
"85","85","928.2166666666667","928.2166666666667","black","experiment","legacy","legacy","legacy","0","uniform","1","undefined","1","left","59","59","59","0","0","59","59","0","0","59","59","59","0","59","0","Sun Oct 24 20:59:29 2021","The main experiment item","yes","Sternbergtask.osexp","C:\Users\19565\Desktop","no","mono","no","18","no","white","no","yes","768","legacy","47","11","C:/Users/19565/Desktop/Lab 3/MR-subject-3.csv","legacy","8","Lentiform Loewenfeld","3.3.9","1","y","0","left","left","left","left","NA","672","14156","15954","672","NA","2","legacy","1","1024","2","48000","-16","experiment","3","odd","8","413551","410116","411341","4348","113734","411343","371899","4351","97779","415555","416228","412347","18509","415554","NA","Sternberg task","51","55693","60","yes","1024"
"85.24590163934427","85.24590163934427","937.311475409836","937.311475409836","black","experiment","legacy","legacy","legacy","0","uniform","1","undefined","1","right","60","60","60","0","0","60","60","0","0","60","60","60","0","60","0","Sun Oct 24 20:59:29 2021","The main experiment item","yes","Sternbergtask.osexp","C:\Users\19565\Desktop","no","mono","no","18","no","white","no","yes","768","legacy","48","11","C:/Users/19565/Desktop/Lab 3/MR-subject-3.csv","legacy","7 1 8 4 9 3","Lentiform Loewenfeld","3.3.9","0","n","0","right","left","left","right","NA","1483","14156","15954","1483","NA","2","legacy","6","1024","2","48000","-16","experiment","3","odd","6","419647","416235","417435","4348","113734","417438","371899","4351","97779","421651","423134","418442","18509","421651","NA","Sternberg task","52","57176","61","yes","1024"
"85.48387096774194","85.48387096774194","937.0322580645161","937.0322580645161","black","experiment","legacy","legacy","legacy","0","uniform","1","undefined","1","left","61","61","61","0","0","61","61","0","0","61","61","61","0","61","0","Sun Oct 24 20:59:29 2021","The main experiment item","yes","Sternbergtask.osexp","C:\Users\19565\Desktop","no","mono","no","18","no","white","no","yes","768","legacy","49","11","C:/Users/19565/Desktop/Lab 3/MR-subject-3.csv","legacy","2 8 5 1","Lentiform Loewenfeld","3.3.9","4","y","0","left","left","left","left","NA","920","14156","15954","920","NA","2","legacy","4","1024","2","48000","-16","experiment","3","odd","1","426551","423141","424338","4348","113734","424342","371899","4351","97779","428554","429476","425346","18509","428554","NA","Sternberg task","53","58096","62","yes","1024"
"85.71428571428571","85.71428571428571","934.5555555555555","934.5555555555555","black","experiment","legacy","legacy","legacy","0","uniform","1","undefined","1","right","62","62","62","0","0","62","62","0","0","62","62","62","0","62","0","Sun Oct 24 20:59:29 2021","The main experiment item","yes","Sternbergtask.osexp","C:\Users\19565\Desktop","no","mono","no","18","no","white","no","yes","768","legacy","50","11","C:/Users/19565/Desktop/Lab 3/MR-subject-3.csv","legacy","1 3 2 6 9","Lentiform Loewenfeld","3.3.9","0","n","0","right","left","left","right","NA","781","14156","15954","781","NA","2","legacy","5","1024","2","48000","-16","experiment","3","odd","5","432950","429498","430737","4348","113734","430742","371899","4351","97779","434954","435736","431746","18509","434954","NA","Sternberg task","54","58877","63","yes","1024"
"85.9375","85.9375","940.984375","940.984375","black","experiment","legacy","legacy","legacy","0","uniform","1","undefined","1","left","63","63","63","0","0","63","63","0","0","63","63","63","0","63","0","Sun Oct 24 20:59:29 2021","The main experiment item","yes","Sternbergtask.osexp","C:\Users\19565\Desktop","no","mono","no","18","no","white","no","yes","768","legacy","51","11","C:/Users/19565/Desktop/Lab 3/MR-subject-3.csv","legacy","5 7 3 6 2","Lentiform Loewenfeld","3.3.9","5","y","0","left","left","left","left","NA","1346","14156","15954","1346","NA","2","legacy","5","1024","2","48000","-16","experiment","3","odd","2","439165","435742","436954","4348","113734","436956","371899","4351","97779","441169","442516","437960","18509","441169","NA","Sternberg task","55","60223","64","yes","1024"
"86.15384615384616","86.15384615384616","936.9230769230769","936.9230769230769","black","experiment","legacy","legacy","legacy","0","uniform","1","undefined","1","right","64","64","64","0","0","64","64","0","0","64","64","64","0","64","0","Sun Oct 24 20:59:29 2021","The main experiment item","yes","Sternbergtask.osexp","C:\Users\19565\Desktop","no","mono","no","18","no","white","no","yes","768","legacy","52","11","C:/Users/19565/Desktop/Lab 3/MR-subject-3.csv","legacy","7 1 5 6 3","Lentiform Loewenfeld","3.3.9","0","n","0","right","left","left","right","NA","677","14156","15954","677","NA","2","legacy","5","1024","2","48000","-16","experiment","3","odd","8","445892","442521","443682","4348","113734","443684","371899","4351","97779","447897","448574","444687","18509","447897","NA","Sternberg task","56","60900","65","yes","1024"
"84.84848484848484","84.84848484848484","944.7878787878788","944.7878787878788","black","experiment","legacy","legacy","legacy","0","uniform","0","undefined","0","right","65","65","65","0","0","65","65","0","0","65","65","65","0","65","0","Sun Oct 24 20:59:29 2021","The main experiment item","yes","Sternbergtask.osexp","C:\Users\19565\Desktop","no","mono","no","18","no","white","no","yes","768","legacy","53","11","C:/Users/19565/Desktop/Lab 3/MR-subject-3.csv","legacy","1","Lentiform Loewenfeld","3.3.9","0","n","0","left","left","left","left","NA","1456","14156","15954","1456","NA","2","legacy","1","1024","2","48000","-16","experiment","3","odd","7","451938","448580","449726","4348","113734","449729","371899","4351","97779","453943","455400","450733","18509","453942","NA","Sternberg task","56","62356","66","yes","1024"
"85.07462686567165","85.07462686567165","958.044776119403","958.044776119403","black","experiment","legacy","legacy","legacy","0","uniform","1","undefined","1","right","66","66","66","0","0","66","66","0","0","66","66","66","0","66","0","Sun Oct 24 20:59:29 2021","The main experiment item","yes","Sternbergtask.osexp","C:\Users\19565\Desktop","no","mono","no","18","no","white","no","yes","768","legacy","54","11","C:/Users/19565/Desktop/Lab 3/MR-subject-3.csv","legacy","8 6 3 4 7","Lentiform Loewenfeld","3.3.9","0","n","0","right","left","left","right","NA","1833","14156","15954","1833","NA","2","legacy","5","1024","2","48000","-16","experiment","3","odd","1","458779","448580","456569","4348","113734","456571","455406","4351","97779","460783","462617","457575","18509","460783","NA","Sternberg task","57","64189","67","yes","1024"
"85.29411764705883","85.29411764705883","972.1029411764706","972.1029411764706","black","experiment","legacy","legacy","legacy","0","uniform","1","undefined","1","right","67","67","67","0","0","67","67","0","0","67","67","67","0","67","0","Sun Oct 24 20:59:29 2021","The main experiment item","yes","Sternbergtask.osexp","C:\Users\19565\Desktop","no","mono","no","18","no","white","no","yes","768","legacy","55","11","C:/Users/19565/Desktop/Lab 3/MR-subject-3.csv","legacy","5 2","Lentiform Loewenfeld","3.3.9","0","n","0","right","left","left","right","NA","1914","14156","15954","1914","NA","2","legacy","2","1024","2","48000","-16","experiment","3","odd","7","466006","462623","463795","4348","113734","463797","455406","4351","97779","468010","469925","464801","18509","468010","NA","Sternberg task","58","66103","68","yes","1024"
"85.5072463768116","85.5072463768116","973.1014492753624","973.1014492753624","black","experiment","legacy","legacy","legacy","0","uniform","1","undefined","1","right","68","68","68","0","0","68","68","0","0","68","68","68","0","68","0","Sun Oct 24 20:59:29 2021","The main experiment item","yes","Sternbergtask.osexp","C:\Users\19565\Desktop","no","mono","no","18","no","white","no","yes","768","legacy","56","11","C:/Users/19565/Desktop/Lab 3/MR-subject-3.csv","legacy","2 8 7 9 5 3","Lentiform Loewenfeld","3.3.9","0","n","0","right","left","left","right","NA","1041","14156","15954","1041","NA","2","legacy","6","1024","2","48000","-16","experiment","3","odd","6","473360","469932","471147","4348","113734","471151","455406","4351","97779","475364","476407","472155","18509","475364","NA","Sternberg task","59","67144","69","yes","1024"
"85.71428571428571","85.71428571428571","975.6571428571428","975.6571428571428","black","experiment","legacy","legacy","legacy","0","uniform","1","undefined","1","left","69","69","69","0","0","69","69","0","0","69","69","69","0","69","0","Sun Oct 24 20:59:29 2021","The main experiment item","yes","Sternbergtask.osexp","C:\Users\19565\Desktop","no","mono","no","18","no","white","no","yes","768","legacy","57","11","C:/Users/19565/Desktop/Lab 3/MR-subject-3.csv","legacy","9 3 8 2 1 4","Lentiform Loewenfeld","3.3.9","3","y","0","left","left","left","left","NA","1152","14156","15954","1152","NA","2","legacy","6","1024","2","48000","-16","experiment","3","odd","8","479874","476416","477660","4348","113734","477664","455406","4351","97779","481879","483033","478669","18509","481879","NA","Sternberg task","60","68296","70","yes","1024"
"85.91549295774648","85.91549295774648","974.9014084507043","974.9014084507043","black","experiment","legacy","legacy","legacy","0","uniform","1","undefined","1","right","70","70","70","0","0","70","70","0","0","70","70","70","0","70","0","Sun Oct 24 20:59:29 2021","The main experiment item","yes","Sternbergtask.osexp","C:\Users\19565\Desktop","no","mono","no","18","no","white","no","yes","768","legacy","58","11","C:/Users/19565/Desktop/Lab 3/MR-subject-3.csv","legacy","7 1","Lentiform Loewenfeld","3.3.9","0","n","0","right","left","left","right","NA","922","14156","15954","922","NA","2","legacy","2","1024","2","48000","-16","experiment","3","odd","8","486463","483043","484252","4348","113734","484255","455406","4351","97779","488468","489390","485259","18509","488467","NA","Sternberg task","61","69218","71","yes","1024"
"86.11111111111111","86.11111111111111","974.3888888888889","974.3888888888889","black","experiment","legacy","legacy","legacy","0","uniform","1","undefined","1","left","71","71","71","0","0","71","71","0","0","71","71","71","0","71","0","Sun Oct 24 20:59:29 2021","The main experiment item","yes","Sternbergtask.osexp","C:\Users\19565\Desktop","no","mono","no","18","no","white","no","yes","768","legacy","59","11","C:/Users/19565/Desktop/Lab 3/MR-subject-3.csv","legacy","2 5 4 8 7","Lentiform Loewenfeld","3.3.9","3","y","0","left","left","left","left","NA","938","14156","15954","938","NA","2","legacy","5","1024","2","48000","-16","experiment","3","odd","4","492846","489396","490632","4348","113734","490636","455406","4351","97779","494850","495790","491640","18509","494850","NA","Sternberg task","62","70156","72","yes","1024"
"86.3013698630137","86.3013698630137","976.7397260273973","976.7397260273973","black","experiment","legacy","legacy","legacy","0","uniform","1","undefined","1","right","72","72","72","0","0","72","72","0","0","72","72","72","0","72","0","Sun Oct 24 20:59:29 2021","The main experiment item","yes","Sternbergtask.osexp","C:\Users\19565\Desktop","no","mono","no","18","no","white","no","yes","768","legacy","60","11","C:/Users/19565/Desktop/Lab 3/MR-subject-3.csv","legacy","8 4 3 5","Lentiform Loewenfeld","3.3.9","0","n","0","right","left","left","right","NA","1146","14156","15954","1146","NA","2","legacy","4","1024","2","48000","-16","experiment","3","odd","6","499166","495800","496954","4348","113734","496956","455406","4351","97779","501172","502320","497961","18509","501172","NA","Sternberg task","63","71302","73","yes","1024"
"85.13513513513513","85.13513513513513","985.1081081081081","985.1081081081081","black","experiment","legacy","legacy","legacy","0","uniform","0","undefined","0","right","73","73","73","0","0","73","73","0","0","73","73","73","0","73","0","Sun Oct 24 20:59:29 2021","The main experiment item","yes","Sternbergtask.osexp","C:\Users\19565\Desktop","no","mono","no","18","no","white","no","yes","768","legacy","61","11","C:/Users/19565/Desktop/Lab 3/MR-subject-3.csv","legacy","9 7 4 5 8","Lentiform Loewenfeld","3.3.9","0","n","0","left","left","left","left","NA","1596","14156","15954","1596","NA","2","legacy","5","1024","2","48000","-16","experiment","3","odd","6","505794","502329","503580","4348","113734","503585","455406","4351","97779","507799","509396","504589","18509","507799","NA","Sternberg task","63","72898","74","yes","1024"
"84","84","987.7733333333333","987.7733333333333","black","experiment","legacy","legacy","legacy","0","uniform","0","undefined","0","left","74","74","74","0","0","74","74","0","0","74","74","74","0","74","0","Sun Oct 24 20:59:29 2021","The main experiment item","yes","Sternbergtask.osexp","C:\Users\19565\Desktop","no","mono","no","18","no","white","no","yes","768","legacy","62","11","C:/Users/19565/Desktop/Lab 3/MR-subject-3.csv","legacy","6 1 2","Lentiform Loewenfeld","3.3.9","3","y","0","right","left","left","right","NA","1185","14156","15954","1185","NA","2","legacy","3","1024","2","48000","-16","experiment","3","odd","2","512745","502329","510537","4348","113734","510539","509401","4351","97779","514749","515936","511542","18509","514749","NA","Sternberg task","63","74083","75","yes","1024"
"84.21052631578948","84.21052631578948","987.1184210526316","987.1184210526316","black","experiment","legacy","legacy","legacy","0","uniform","1","undefined","1","right","75","75","75","0","0","75","75","0","0","75","75","75","0","75","0","Sun Oct 24 20:59:29 2021","The main experiment item","yes","Sternbergtask.osexp","C:\Users\19565\Desktop","no","mono","no","18","no","white","no","yes","768","legacy","63","11","C:/Users/19565/Desktop/Lab 3/MR-subject-3.csv","legacy","4 2 6 9","Lentiform Loewenfeld","3.3.9","0","n","0","right","left","left","right","NA","938","14156","15954","938","NA","2","legacy","4","1024","2","48000","-16","experiment","3","odd","7","519400","502329","517187","4348","113734","517191","515944","4351","97779","521405","522346","518195","18509","521405","NA","Sternberg task","64","75021","76","yes","1024"
"84.41558441558442","84.41558441558442","984.8441558441558","984.8441558441558","black","experiment","legacy","legacy","legacy","0","uniform","1","undefined","1","right","76","76","76","0","0","76","76","0","0","76","76","76","0","76","0","Sun Oct 24 20:59:29 2021","The main experiment item","yes","Sternbergtask.osexp","C:\Users\19565\Desktop","no","mono","no","18","no","white","no","yes","768","legacy","64","11","C:/Users/19565/Desktop/Lab 3/MR-subject-3.csv","legacy","1 5 3 2 8","Lentiform Loewenfeld","3.3.9","0","n","0","right","left","left","right","NA","812","14156","15954","812","NA","2","legacy","5","1024","2","48000","-16","experiment","3","odd","4","525781","522355","523571","4348","113734","523573","515944","4351","97779","527787","528601","524577","18509","527786","NA","Sternberg task","65","75833","77","yes","1024"
"84.61538461538461","84.61538461538461","990.2179487179487","990.2179487179487","black","experiment","legacy","legacy","legacy","0","uniform","1","undefined","1","right","77","77","77","0","0","77","77","0","0","77","77","77","0","77","0","Sun Oct 24 20:59:29 2021","The main experiment item","yes","Sternbergtask.osexp","C:\Users\19565\Desktop","no","mono","no","18","no","white","no","yes","768","legacy","65","11","C:/Users/19565/Desktop/Lab 3/MR-subject-3.csv","legacy","7 3 2 8","Lentiform Loewenfeld","3.3.9","0","n","0","right","left","left","right","NA","1404","14156","15954","1404","NA","2","legacy","4","1024","2","48000","-16","experiment","3","odd","4","532036","528611","529823","4348","113734","529827","515944","4351","97779","534041","535446","530831","18509","534041","NA","Sternberg task","66","77237","78","yes","1024"
"84.81012658227849","84.81012658227849","997.7721518987341","997.7721518987341","black","experiment","legacy","legacy","legacy","0","uniform","1","undefined","1","left","78","78","78","0","0","78","78","0","0","78","78","78","0","78","0","Sun Oct 24 20:59:29 2021","The main experiment item","yes","Sternbergtask.osexp","C:\Users\19565\Desktop","no","mono","no","18","no","white","no","yes","768","legacy","66","11","C:/Users/19565/Desktop/Lab 3/MR-subject-3.csv","legacy","3 5 7 1","Lentiform Loewenfeld","3.3.9","3","y","0","left","left","left","left","NA","1587","14156","15954","1587","NA","2","legacy","4","1024","2","48000","-16","experiment","3","odd","7","538846","535455","536635","4348","113734","536638","515944","4351","97779","540851","542440","537642","18509","540851","NA","Sternberg task","67","78824","79","yes","1024"
"85","85","995.0625","995.0625","black","experiment","legacy","legacy","legacy","0","uniform","1","undefined","1","right","79","79","79","0","0","79","79","0","0","79","79","79","0","79","0","Sun Oct 24 20:59:29 2021","The main experiment item","yes","Sternbergtask.osexp","C:\Users\19565\Desktop","no","mono","no","18","no","white","no","yes","768","legacy","67","11","C:/Users/19565/Desktop/Lab 3/MR-subject-3.csv","legacy","7 9","Lentiform Loewenfeld","3.3.9","0","n","0","right","left","left","right","NA","781","14156","15954","781","NA","2","legacy","2","1024","2","48000","-16","experiment","3","odd","1","545878","542445","543668","4348","113734","543671","515944","4351","97779","547883","548666","544674","18509","547882","NA","Sternberg task","68","79605","80","yes","1024"
"85.18518518518519","85.18518518518519","998.604938271605","998.604938271605","black","experiment","legacy","legacy","legacy","0","uniform","1","undefined","1","right","80","80","80","0","0","80","80","0","0","80","80","80","0","80","0","Sun Oct 24 20:59:29 2021","The main experiment item","yes","Sternbergtask.osexp","C:\Users\19565\Desktop","no","mono","no","18","no","white","no","yes","768","legacy","68","11","C:/Users/19565/Desktop/Lab 3/MR-subject-3.csv","legacy","6 3 1 7 9 8","Lentiform Loewenfeld","3.3.9","0","n","0","right","left","left","right","NA","1282","14156","15954","1282","NA","2","legacy","6","1024","2","48000","-16","experiment","3","odd","4","552132","548675","549920","4348","113734","549924","515944","4351","97779","554137","555422","550928","18509","554137","NA","Sternberg task","69","80887","81","yes","1024"
"85.36585365853658","85.36585365853658","998.1951219512196","998.1951219512196","black","experiment","legacy","legacy","legacy","0","uniform","1","undefined","1","right","81","81","81","0","0","81","81","0","0","81","81","81","0","81","0","Sun Oct 24 20:59:29 2021","The main experiment item","yes","Sternbergtask.osexp","C:\Users\19565\Desktop","no","mono","no","18","no","white","no","yes","768","legacy","69","11","C:/Users/19565/Desktop/Lab 3/MR-subject-3.csv","legacy","8 4 3 9","Lentiform Loewenfeld","3.3.9","0","n","0","right","left","left","right","NA","965","14156","15954","965","NA","2","legacy","4","1024","2","48000","-16","experiment","3","odd","5","558791","555431","556580","4348","113734","556583","515944","4351","97779","560796","561762","557587","18509","560796","NA","Sternberg task","70","81852","82","yes","1024"
"85.5421686746988","85.5421686746988","997.2409638554217","997.2409638554217","black","experiment","legacy","legacy","legacy","0","uniform","1","undefined","1","right","82","82","82","0","0","82","82","0","0","82","82","82","0","82","0","Sun Oct 24 20:59:29 2021","The main experiment item","yes","Sternbergtask.osexp","C:\Users\19565\Desktop","no","mono","no","18","no","white","no","yes","768","legacy","70","11","C:/Users/19565/Desktop/Lab 3/MR-subject-3.csv","legacy","8 5 7 3 6","Lentiform Loewenfeld","3.3.9","0","n","0","right","left","left","right","NA","919","14156","15954","919","NA","2","legacy","5","1024","2","48000","-16","experiment","3","odd","9","565183","561771","562971","4348","113734","562974","515944","4351","97779","567188","568108","563978","18509","567188","NA","Sternberg task","71","82771","83","yes","1024"
"85.71428571428571","85.71428571428571","1005.6666666666666","1005.6666666666666","black","experiment","legacy","legacy","legacy","0","uniform","1","undefined","1","right","83","83","83","0","0","83","83","0","0","83","83","83","0","83","0","Sun Oct 24 20:59:29 2021","The main experiment item","yes","Sternbergtask.osexp","C:\Users\19565\Desktop","no","mono","no","18","no","white","no","yes","768","legacy","71","11","C:/Users/19565/Desktop/Lab 3/MR-subject-3.csv","legacy","1 7 8 3 9","Lentiform Loewenfeld","3.3.9","0","n","0","right","left","left","right","NA","1705","14156","15954","1705","NA","2","legacy","5","1024","2","48000","-16","experiment","3","odd","2","571471","568114","569259","4348","113734","569261","515944","4351","97779","573476","575183","570266","18509","573475","NA","Sternberg task","72","84476","84","yes","1024"
"85.88235294117646","85.88235294117646","1002.7176470588236","1002.7176470588236","black","experiment","legacy","legacy","legacy","0","uniform","1","undefined","1","right","84","84","84","0","0","84","84","0","0","84","84","84","0","84","0","Sun Oct 24 20:59:29 2021","The main experiment item","yes","Sternbergtask.osexp","C:\Users\19565\Desktop","no","mono","no","18","no","white","no","yes","768","legacy","72","11","C:/Users/19565/Desktop/Lab 3/MR-subject-3.csv","legacy","9 8 2 7 4","Lentiform Loewenfeld","3.3.9","0","n","0","right","left","left","right","NA","755","14156","15954","755","NA","2","legacy","5","1024","2","48000","-16","experiment","3","odd","5","578590","575191","576379","4348","113734","576382","515944","4351","97779","580594","581350","577386","18509","580594","NA","Sternberg task","73","85231","85","yes","1024"
"86.04651162790698","86.04651162790698","1001.0930232558139","1001.0930232558139","black","experiment","legacy","legacy","legacy","0","uniform","1","undefined","1","left","85","85","85","0","0","85","85","0","0","85","85","85","0","85","0","Sun Oct 24 20:59:29 2021","The main experiment item","yes","Sternbergtask.osexp","C:\Users\19565\Desktop","no","mono","no","18","no","white","no","yes","768","legacy","73","11","C:/Users/19565/Desktop/Lab 3/MR-subject-3.csv","legacy","6 2","Lentiform Loewenfeld","3.3.9","1","y","0","left","left","left","left","NA","863","14156","15954","863","NA","2","legacy","2","1024","2","48000","-16","experiment","3","odd","6","584777","581374","582567","4348","113734","582569","515944","4351","97779","586781","587645","583573","18509","586781","NA","Sternberg task","74","86094","86","yes","1024"
"86.20689655172414","86.20689655172414","1004.2068965517242","1004.2068965517242","black","experiment","legacy","legacy","legacy","0","uniform","1","undefined","1","left","86","86","86","0","0","86","86","0","0","86","86","86","0","86","0","Sun Oct 24 20:59:29 2021","The main experiment item","yes","Sternbergtask.osexp","C:\Users\19565\Desktop","no","mono","no","18","no","white","no","yes","768","legacy","74","11","C:/Users/19565/Desktop/Lab 3/MR-subject-3.csv","legacy","5 2 6","Lentiform Loewenfeld","3.3.9","2","y","0","left","left","left","left","NA","1272","14156","15954","1272","NA","2","legacy","3","1024","2","48000","-16","experiment","3","odd","2","591011","587653","588799","4348","113734","588802","515944","4351","97779","593016","594289","589807","18509","593016","NA","Sternberg task","75","87366","87","yes","1024"
"86.36363636363636","86.36363636363636","1004.125","1004.125","black","experiment","legacy","legacy","legacy","0","uniform","1","undefined","1","left","87","87","87","0","0","87","87","0","0","87","87","87","0","87","0","Sun Oct 24 20:59:29 2021","The main experiment item","yes","Sternbergtask.osexp","C:\Users\19565\Desktop","no","mono","no","18","no","white","no","yes","768","legacy","75","11","C:/Users/19565/Desktop/Lab 3/MR-subject-3.csv","legacy","3 5 9 6 2 4","Lentiform Loewenfeld","3.3.9","1","y","0","left","left","left","left","NA","997","14156","15954","997","NA","2","legacy","6","1024","2","48000","-16","experiment","3","odd","3","597645","594295","595434","4348","113734","595437","515944","4351","97779","599650","600648","596441","18509","599650","NA","Sternberg task","76","88363","88","yes","1024"
"86.51685393258427","86.51685393258427","1001.8314606741573","1001.8314606741573","black","experiment","legacy","legacy","legacy","0","uniform","1","undefined","1","left","88","88","88","0","0","88","88","0","0","88","88","88","0","88","0","Sun Oct 24 20:59:29 2021","The main experiment item","yes","Sternbergtask.osexp","C:\Users\19565\Desktop","no","mono","no","18","no","white","no","yes","768","legacy","76","11","C:/Users/19565/Desktop/Lab 3/MR-subject-3.csv","legacy","2 4 6 9","Lentiform Loewenfeld","3.3.9","3","y","0","left","left","left","left","NA","800","14156","15954","800","NA","2","legacy","4","1024","2","48000","-16","experiment","3","odd","6","604091","600657","601877","4348","113734","601881","515944","4351","97779","606096","606899","602885","18509","606096","NA","Sternberg task","77","89163","89","yes","1024"
"86.66666666666667","86.66666666666667","999.6111111111111","999.6111111111111","black","experiment","legacy","legacy","legacy","0","uniform","1","undefined","1","left","89","89","89","0","0","89","89","0","0","89","89","89","0","89","0","Sun Oct 24 20:59:29 2021","The main experiment item","yes","Sternbergtask.osexp","C:\Users\19565\Desktop","no","mono","no","18","no","white","no","yes","768","legacy","77","11","C:/Users/19565/Desktop/Lab 3/MR-subject-3.csv","legacy","8 9 5 6 7","Lentiform Loewenfeld","3.3.9","1","y","0","left","left","left","left","NA","802","14156","15954","802","NA","2","legacy","5","1024","2","48000","-16","experiment","3","odd","8","610383","606922","608171","4348","113734","608175","515944","4351","97779","612388","613191","609179","18509","612388","NA","Sternberg task","78","89965","90","yes","1024"
"86.81318681318682","86.81318681318682","996.8021978021978","996.8021978021978","black","experiment","legacy","legacy","legacy","0","uniform","1","undefined","1","right","90","90","90","0","0","90","90","0","0","90","90","90","0","90","0","Sun Oct 24 20:59:29 2021","The main experiment item","yes","Sternbergtask.osexp","C:\Users\19565\Desktop","no","mono","no","18","no","white","no","yes","768","legacy","78","11","C:/Users/19565/Desktop/Lab 3/MR-subject-3.csv","legacy","6 8","Lentiform Loewenfeld","3.3.9","0","n","0","right","left","left","right","NA","744","14156","15954","744","NA","2","legacy","2","1024","2","48000","-16","experiment","3","odd","9","616632","613197","614422","4348","113734","614424","515944","4351","97779","618636","619382","615428","18509","618636","NA","Sternberg task","79","90709","91","yes","1024"
"85.8695652173913","85.8695652173913","1007.7065217391304","1007.7065217391304","black","experiment","legacy","legacy","legacy","0","uniform","0","undefined","0","right","91","91","91","0","0","91","91","0","0","91","91","91","0","91","0","Sun Oct 24 20:59:29 2021","The main experiment item","yes","Sternbergtask.osexp","C:\Users\19565\Desktop","no","mono","no","18","no","white","no","yes","768","legacy","79","11","C:/Users/19565/Desktop/Lab 3/MR-subject-3.csv","legacy","2 5 1 4","Lentiform Loewenfeld","3.3.9","0","n","0","None","left","left","None","NA","2000","14156","15954","2000","NA","2","legacy","4","1024","2","48000","-16","experiment","3","odd","6","622841","619389","620629","4348","113734","620633","515944","4351","97779","624846","626846","621637","18509","624846","NA","Sternberg task","79","92709","92","yes","1024"
"86.02150537634408","86.02150537634408","1003.1505376344086","1003.1505376344086","black","experiment","legacy","legacy","legacy","0","uniform","1","undefined","1","right","92","92","92","0","0","92","92","0","0","92","92","92","0","92","0","Sun Oct 24 20:59:29 2021","The main experiment item","yes","Sternbergtask.osexp","C:\Users\19565\Desktop","no","mono","no","18","no","white","no","yes","768","legacy","80","11","C:/Users/19565/Desktop/Lab 3/MR-subject-3.csv","legacy","4 8 1 2","Lentiform Loewenfeld","3.3.9","0","n","0","right","left","left","right","NA","584","14156","15954","584","NA","2","legacy","4","1024","2","48000","-16","experiment","3","odd","7","630196","619389","627985","4348","113734","627988","626852","4351","97779","632200","632787","628992","18509","632200","NA","Sternberg task","80","93293","93","yes","1024"
"86.17021276595744","86.17021276595744","1001.4042553191489","1001.4042553191489","black","experiment","legacy","legacy","legacy","0","uniform","1","undefined","1","right","93","93","93","0","0","93","93","0","0","93","93","93","0","93","0","Sun Oct 24 20:59:29 2021","The main experiment item","yes","Sternbergtask.osexp","C:\Users\19565\Desktop","no","mono","no","18","no","white","no","yes","768","legacy","81","11","C:/Users/19565/Desktop/Lab 3/MR-subject-3.csv","legacy","2 6 4 3 9","Lentiform Loewenfeld","3.3.9","0","n","0","right","left","left","right","NA","839","14156","15954","839","NA","2","legacy","5","1024","2","48000","-16","experiment","3","odd","1","636228","632796","634017","4348","113734","634020","626852","4351","97779","638232","639073","635024","18509","638232","NA","Sternberg task","81","94132","94","yes","1024"
"86.3157894736842","86.3157894736842","1002.9894736842106","1002.9894736842106","black","experiment","legacy","legacy","legacy","0","uniform","1","undefined","1","left","94","94","94","0","0","94","94","0","0","94","94","94","0","94","0","Sun Oct 24 20:59:29 2021","The main experiment item","yes","Sternbergtask.osexp","C:\Users\19565\Desktop","no","mono","no","18","no","white","no","yes","768","legacy","82","11","C:/Users/19565/Desktop/Lab 3/MR-subject-3.csv","legacy","6 5","Lentiform Loewenfeld","3.3.9","2","y","0","left","left","left","left","NA","1152","14156","15954","1152","NA","2","legacy","2","1024","2","48000","-16","experiment","3","odd","5","642517","639082","640306","4348","113734","640309","626852","4351","97779","644522","645677","641313","18509","644522","NA","Sternberg task","82","95284","95","yes","1024"
"86.45833333333333","86.45833333333333","1002.78125","1002.78125","black","experiment","legacy","legacy","legacy","0","uniform","1","undefined","1","right","95","95","95","0","0","95","95","0","0","95","95","95","0","95","0","Sun Oct 24 20:59:29 2021","The main experiment item","yes","Sternbergtask.osexp","C:\Users\19565\Desktop","no","mono","no","18","no","white","no","yes","768","legacy","83","11","C:/Users/19565/Desktop/Lab 3/MR-subject-3.csv","legacy","2 8 9","Lentiform Loewenfeld","3.3.9","0","n","0","right","left","left","right","NA","983","14156","15954","983","NA","2","legacy","3","1024","2","48000","-16","experiment","3","odd","6","649090","645683","646877","4348","113734","646880","626852","4351","97779","651094","652079","647885","18509","651094","NA","Sternberg task","83","96267","96","yes","1024"
"86.5979381443299","86.5979381443299","1000.5670103092783","1000.5670103092783","black","experiment","legacy","legacy","legacy","0","uniform","1","undefined","1","left","96","96","96","0","0","96","96","0","0","96","96","96","0","96","0","Sun Oct 24 20:59:29 2021","The main experiment item","yes","Sternbergtask.osexp","C:\Users\19565\Desktop","no","mono","no","18","no","white","no","yes","768","legacy","84","11","C:/Users/19565/Desktop/Lab 3/MR-subject-3.csv","legacy","7","Lentiform Loewenfeld","3.3.9","1","y","0","left","left","left","left","NA","788","14156","15954","788","NA","2","legacy","1","1024","2","48000","-16","experiment","3","odd","7","655485","652086","653274","4348","113734","653276","626852","4351","97779","657490","658280","654280","18509","657489","NA","Sternberg task","84","97055","97","yes","1024"
"86.73469387755102","86.73469387755102","1002.8061224489796","1002.8061224489796","black","experiment","legacy","legacy","legacy","0","uniform","1","undefined","1","left","97","97","97","0","0","97","97","0","0","97","97","97","0","97","0","Sun Oct 24 20:59:29 2021","The main experiment item","yes","Sternbergtask.osexp","C:\Users\19565\Desktop","no","mono","no","18","no","white","no","yes","768","legacy","85","11","C:/Users/19565/Desktop/Lab 3/MR-subject-3.csv","legacy","9 6 2 4 1","Lentiform Loewenfeld","3.3.9","4","y","0","left","left","left","left","NA","1220","14156","15954","1220","NA","2","legacy","5","1024","2","48000","-16","experiment","3","odd","4","661697","658288","659484","4348","113734","659488","626852","4351","97779","663701","664923","660492","18509","663701","NA","Sternberg task","85","98275","98","yes","1024"
"86.86868686868686","86.86868686868686","1001.6060606060606","1001.6060606060606","black","experiment","legacy","legacy","legacy","0","uniform","1","undefined","1","left","98","98","98","0","0","98","98","0","0","98","98","98","0","98","0","Sun Oct 24 20:59:29 2021","The main experiment item","yes","Sternbergtask.osexp","C:\Users\19565\Desktop","no","mono","no","18","no","white","no","yes","768","legacy","86","11","C:/Users/19565/Desktop/Lab 3/MR-subject-3.csv","legacy","8 9 5 7 1 6","Lentiform Loewenfeld","3.3.9","4","y","0","left","left","left","left","NA","884","14156","15954","884","NA","2","legacy","6","1024","2","48000","-16","experiment","3","odd","7","668326","664929","666115","4348","113734","666117","626852","4351","97779","670330","671216","667121","18509","670330","NA","Sternberg task","86","99159","99","yes","1024"
"87","87","1000.99","1000.99","black","experiment","legacy","legacy","legacy","0","uniform","1","undefined","1","left","99","99","99","0","0","99","99","0","0","99","99","99","0","99","0","Sun Oct 24 20:59:29 2021","The main experiment item","yes","Sternbergtask.osexp","C:\Users\19565\Desktop","no","mono","no","18","no","white","no","yes","768","legacy","87","11","C:/Users/19565/Desktop/Lab 3/MR-subject-3.csv","legacy","4 7 6 8 2 3","Lentiform Loewenfeld","3.3.9","6","y","0","left","left","left","left","NA","940","14156","15954","940","NA","2","legacy","6","1024","2","48000","-16","experiment","3","odd","3","674648","671238","672437","4348","113734","672439","626852","4351","97779","676652","677595","673443","18509","676652","NA","Sternberg task","87","100099","100","yes","1024"
"87.12871287128714","87.12871287128714","999.4059405940594","999.4059405940594","black","experiment","legacy","legacy","legacy","0","uniform","1","undefined","1","right","100","100","100","0","0","100","100","0","0","100","100","100","0","100","0","Sun Oct 24 20:59:29 2021","The main experiment item","yes","Sternbergtask.osexp","C:\Users\19565\Desktop","no","mono","no","18","no","white","no","yes","768","legacy","88","11","C:/Users/19565/Desktop/Lab 3/MR-subject-3.csv","legacy","6 9 4 5 2","Lentiform Loewenfeld","3.3.9","0","n","0","right","left","left","right","NA","841","14156","15954","841","NA","2","legacy","5","1024","2","48000","-16","experiment","3","odd","1","681004","677602","678791","4348","113734","678795","626852","4351","97779","683009","683853","679799","18509","683008","NA","Sternberg task","88","100940","101","yes","1024"
"87.25490196078431","87.25490196078431","999.0588235294117","999.0588235294117","black","experiment","legacy","legacy","legacy","0","uniform","1","undefined","1","left","101","101","101","0","0","101","101","0","0","101","101","101","0","101","0","Sun Oct 24 20:59:29 2021","The main experiment item","yes","Sternbergtask.osexp","C:\Users\19565\Desktop","no","mono","no","18","no","white","no","yes","768","legacy","89","11","C:/Users/19565/Desktop/Lab 3/MR-subject-3.csv","legacy","8 5 3 7 4 6","Lentiform Loewenfeld","3.3.9","6","y","0","left","left","left","left","NA","964","14156","15954","964","NA","2","legacy","6","1024","2","48000","-16","experiment","3","odd","6","687242","683863","685031","4348","113734","685034","626852","4351","97779","689248","690213","686038","18509","689247","NA","Sternberg task","89","101904","102","yes","1024"
"87.37864077669903","87.37864077669903","997.6019417475728","997.6019417475728","black","experiment","legacy","legacy","legacy","0","uniform","1","undefined","1","right","102","102","102","0","0","102","102","0","0","102","102","102","0","102","0","Sun Oct 24 20:59:29 2021","The main experiment item","yes","Sternbergtask.osexp","C:\Users\19565\Desktop","no","mono","no","18","no","white","no","yes","768","legacy","90","11","C:/Users/19565/Desktop/Lab 3/MR-subject-3.csv","legacy","5 7 3","Lentiform Loewenfeld","3.3.9","0","n","0","right","left","left","right","NA","849","14156","15954","849","NA","2","legacy","3","1024","2","48000","-16","experiment","3","odd","9","693590","690219","691377","4348","113734","691380","626852","4351","97779","695595","696446","692385","18509","695594","NA","Sternberg task","90","102753","103","yes","1024"
"87.5","87.5","995.5096153846154","995.5096153846154","black","experiment","legacy","legacy","legacy","0","uniform","1","undefined","1","left","103","103","103","0","0","103","103","0","0","103","103","103","0","103","0","Sun Oct 24 20:59:29 2021","The main experiment item","yes","Sternbergtask.osexp","C:\Users\19565\Desktop","no","mono","no","18","no","white","no","yes","768","legacy","91","11","C:/Users/19565/Desktop/Lab 3/MR-subject-3.csv","legacy","6 7 9 3 1 2","Lentiform Loewenfeld","3.3.9","1","y","0","left","left","left","left","NA","780","14156","15954","780","NA","2","legacy","6","1024","2","48000","-16","experiment","3","odd","6","699907","696468","697695","4348","113734","697698","626852","4351","97779","701913","702695","698703","18509","701912","NA","Sternberg task","91","103533","104","yes","1024"
"87.61904761904762","87.61904761904762","994.8380952380952","994.8380952380952","black","experiment","legacy","legacy","legacy","0","uniform","1","undefined","1","right","104","104","104","0","0","104","104","0","0","104","104","104","0","104","0","Sun Oct 24 20:59:29 2021","The main experiment item","yes","Sternbergtask.osexp","C:\Users\19565\Desktop","no","mono","no","18","no","white","no","yes","768","legacy","92","11","C:/Users/19565/Desktop/Lab 3/MR-subject-3.csv","legacy","2 8 6 3 1","Lentiform Loewenfeld","3.3.9","0","n","0","right","left","left","right","NA","925","14156","15954","925","NA","2","legacy","5","1024","2","48000","-16","experiment","3","odd","7","706042","702704","703830","4348","113734","703832","626852","4351","97779","708047","708975","704837","18509","708047","NA","Sternberg task","92","104458","105","yes","1024"
"87.73584905660377","87.73584905660377","995.2735849056604","995.2735849056604","black","experiment","legacy","legacy","legacy","0","uniform","1","undefined","1","left","105","105","105","0","0","105","105","0","0","105","105","105","0","105","0","Sun Oct 24 20:59:29 2021","The main experiment item","yes","Sternbergtask.osexp","C:\Users\19565\Desktop","no","mono","no","18","no","white","no","yes","768","legacy","93","11","C:/Users/19565/Desktop/Lab 3/MR-subject-3.csv","legacy","8 1 6","Lentiform Loewenfeld","3.3.9","3","y","0","left","left","left","left","NA","1041","14156","15954","1041","NA","2","legacy","3","1024","2","48000","-16","experiment","3","odd","6","712395","708983","710182","4348","113734","710184","626852","4351","97779","714400","715444","711190","18509","714400","NA","Sternberg task","93","105499","106","yes","1024"
"87.85046728971963","87.85046728971963","992.2336448598131","992.2336448598131","black","experiment","legacy","legacy","legacy","0","uniform","1","undefined","1","right","106","106","106","0","0","106","106","0","0","106","106","106","0","106","0","Sun Oct 24 20:59:29 2021","The main experiment item","yes","Sternbergtask.osexp","C:\Users\19565\Desktop","no","mono","no","18","no","white","no","yes","768","legacy","94","11","C:/Users/19565/Desktop/Lab 3/MR-subject-3.csv","legacy","9","Lentiform Loewenfeld","3.3.9","0","n","0","right","left","left","right","NA","670","14156","15954","670","NA","2","legacy","1","1024","2","48000","-16","experiment","3","odd","6","718871","715454","716658","4348","113734","716662","626852","4351","97779","720875","721546","717666","18509","720875","NA","Sternberg task","94","106169","107","yes","1024"
"87.96296296296296","87.96296296296296","997.0185185185185","997.0185185185185","black","experiment","legacy","legacy","legacy","0","uniform","1","undefined","1","right","107","107","107","0","0","107","107","0","0","107","107","107","0","107","0","Sun Oct 24 20:59:29 2021","The main experiment item","yes","Sternbergtask.osexp","C:\Users\19565\Desktop","no","mono","no","18","no","white","no","yes","768","legacy","95","11","C:/Users/19565/Desktop/Lab 3/MR-subject-3.csv","legacy","1 4 3 6 5","Lentiform Loewenfeld","3.3.9","0","n","0","right","left","left","right","NA","1509","14156","15954","1509","NA","2","legacy","5","1024","2","48000","-16","experiment","3","odd","8","724930","721568","722719","4348","113734","722721","626852","4351","97779","726935","728446","723725","18509","726935","NA","Sternberg task","95","107678","108","yes","1024"
"88.07339449541284","88.07339449541284","996.1009174311927","996.1009174311927","black","experiment","legacy","legacy","legacy","0","uniform","1","undefined","1","left","108","108","108","0","0","108","108","0","0","108","108","108","0","108","0","Sun Oct 24 20:59:29 2021","The main experiment item","yes","Sternbergtask.osexp","C:\Users\19565\Desktop","no","mono","no","18","no","white","no","yes","768","legacy","96","11","C:/Users/19565/Desktop/Lab 3/MR-subject-3.csv","legacy","2 3 7 4","Lentiform Loewenfeld","3.3.9","1","y","0","left","left","left","left","NA","897","14156","15954","897","NA","2","legacy","4","1024","2","48000","-16","experiment","3","odd","2","731905","728452","729692","4348","113734","729695","626852","4351","97779","733909","734809","730700","18509","733909","NA","Sternberg task","96","108575","109","yes","1024"
"88.18181818181819","88.18181818181819","997.2363636363636","997.2363636363636","black","experiment","legacy","legacy","legacy","0","uniform","1","undefined","1","right","109","109","109","0","0","109","109","0","0","109","109","109","0","109","0","Sun Oct 24 20:59:29 2021","The main experiment item","yes","Sternbergtask.osexp","C:\Users\19565\Desktop","no","mono","no","18","no","white","no","yes","768","legacy","97","11","C:/Users/19565/Desktop/Lab 3/MR-subject-3.csv","legacy","2 7 5","Lentiform Loewenfeld","3.3.9","0","n","0","right","left","left","right","NA","1121","14156","15954","1121","NA","2","legacy","3","1024","2","48000","-16","experiment","3","odd","8","738240","734815","736026","4348","113734","736031","626852","4351","97779","740244","741367","737035","18509","740244","NA","Sternberg task","97","109696","110","yes","1024"
"88.28828828828829","88.28828828828829","1001.1441441441441","1001.1441441441441","black","experiment","legacy","legacy","legacy","0","uniform","1","undefined","1","left","110","110","110","0","0","110","110","0","0","110","110","110","0","110","0","Sun Oct 24 20:59:29 2021","The main experiment item","yes","Sternbergtask.osexp","C:\Users\19565\Desktop","no","mono","no","18","no","white","no","yes","768","legacy","98","11","C:/Users/19565/Desktop/Lab 3/MR-subject-3.csv","legacy","9 3 1 2 5","Lentiform Loewenfeld","3.3.9","4","y","0","left","left","left","left","NA","1431","14156","15954","1431","NA","2","legacy","5","1024","2","48000","-16","experiment","3","odd","2","744812","741376","742597","4348","113734","742601","626852","4351","97779","746817","748251","743606","18509","746816","NA","Sternberg task","98","111127","111","yes","1024"
"88.39285714285714","88.39285714285714","999.1339285714286","999.1339285714286","black","experiment","legacy","legacy","legacy","0","uniform","1","undefined","1","right","111","111","111","0","0","111","111","0","0","111","111","111","0","111","0","Sun Oct 24 20:59:29 2021","The main experiment item","yes","Sternbergtask.osexp","C:\Users\19565\Desktop","no","mono","no","18","no","white","no","yes","768","legacy","99","11","C:/Users/19565/Desktop/Lab 3/MR-subject-3.csv","legacy","8 9","Lentiform Loewenfeld","3.3.9","0","n","0","right","left","left","right","NA","776","14156","15954","776","NA","2","legacy","2","1024","2","48000","-16","experiment","3","odd","5","751691","748258","749479","4348","113734","749482","626852","4351","97779","753694","754473","750487","18509","753694","NA","Sternberg task","99","111903","112","yes","1024"
"88.49557522123894","88.49557522123894","997.3539823008849","997.3539823008849","black","experiment","legacy","legacy","legacy","0","uniform","1","undefined","1","left","112","112","112","0","0","112","112","0","0","112","112","112","0","112","0","Sun Oct 24 20:59:29 2021","The main experiment item","yes","Sternbergtask.osexp","C:\Users\19565\Desktop","no","mono","no","18","no","white","no","yes","768","legacy","100","11","C:/Users/19565/Desktop/Lab 3/MR-subject-3.csv","legacy","1 4 9 3 2 5","Lentiform Loewenfeld","3.3.9","3","y","0","left","left","left","left","NA","798","14156","15954","798","NA","2","legacy","6","1024","2","48000","-16","experiment","3","odd","9","757857","754478","755645","4348","113734","755648","626852","4351","97779","759862","760662","756652","18509","759861","NA","Sternberg task","100","112701","113","yes","1024"
"88.59649122807018","88.59649122807018","995.4561403508771","995.4561403508771","black","experiment","legacy","legacy","legacy","0","uniform","1","undefined","1","left","113","113","113","0","0","113","113","0","0","113","113","113","0","113","0","Sun Oct 24 20:59:29 2021","The main experiment item","yes","Sternbergtask.osexp","C:\Users\19565\Desktop","no","mono","no","18","no","white","no","yes","768","legacy","101","11","C:/Users/19565/Desktop/Lab 3/MR-subject-3.csv","legacy","9 5 3 8 4","Lentiform Loewenfeld","3.3.9","1","y","0","left","left","left","left","NA","781","14156","15954","781","NA","2","legacy","5","1024","2","48000","-16","experiment","3","odd","9","764043","760669","761831","4348","113734","761834","626852","4351","97779","766047","766830","762838","18509","766047","NA","Sternberg task","101","113482","114","yes","1024"
"88.69565217391305","88.69565217391305","996.8782608695652","996.8782608695652","black","experiment","legacy","legacy","legacy","0","uniform","1","undefined","1","right","114","114","114","0","0","114","114","0","0","114","114","114","0","114","0","Sun Oct 24 20:59:29 2021","The main experiment item","yes","Sternbergtask.osexp","C:\Users\19565\Desktop","no","mono","no","18","no","white","no","yes","768","legacy","102","11","C:/Users/19565/Desktop/Lab 3/MR-subject-3.csv","legacy","6 9 7 3 8 2","Lentiform Loewenfeld","3.3.9","0","n","0","right","left","left","right","NA","1159","14156","15954","1159","NA","2","legacy","6","1024","2","48000","-16","experiment","3","odd","5","770287","766838","768075","4348","113734","768078","626852","4351","97779","772293","773454","769082","18509","772293","NA","Sternberg task","102","114641","115","yes","1024"
"87.93103448275862","87.93103448275862","996.1896551724138","996.1896551724138","black","experiment","legacy","legacy","legacy","0","uniform","0","undefined","0","left","115","115","115","0","0","115","115","0","0","115","115","115","0","115","0","Sun Oct 24 20:59:29 2021","The main experiment item","yes","Sternbergtask.osexp","C:\Users\19565\Desktop","no","mono","no","18","no","white","no","yes","768","legacy","103","11","C:/Users/19565/Desktop/Lab 3/MR-subject-3.csv","legacy","7 8 6 3 1","Lentiform Loewenfeld","3.3.9","5","y","0","right","left","left","right","NA","917","14156","15954","917","NA","2","legacy","5","1024","2","48000","-16","experiment","3","odd","1","776879","773462","774668","4348","113734","774672","626852","4351","97779","778885","779803","775676","18509","778885","NA","Sternberg task","102","115558","116","yes","1024"
"88.03418803418803","88.03418803418803","994.7179487179487","994.7179487179487","black","experiment","legacy","legacy","legacy","0","uniform","1","undefined","1","left","116","116","116","0","0","116","116","0","0","116","116","116","0","116","0","Sun Oct 24 20:59:29 2021","The main experiment item","yes","Sternbergtask.osexp","C:\Users\19565\Desktop","no","mono","no","18","no","white","no","yes","768","legacy","104","11","C:/Users/19565/Desktop/Lab 3/MR-subject-3.csv","legacy","4 9 7 8 5 3","Lentiform Loewenfeld","3.3.9","4","y","0","left","left","left","left","NA","824","14156","15954","824","NA","2","legacy","6","1024","2","48000","-16","experiment","3","odd","8","783236","773462","781026","4348","113734","781028","779810","4351","97779","785241","786068","782032","18509","785241","NA","Sternberg task","103","116382","117","yes","1024"
"88.13559322033899","88.13559322033899","990.8474576271186","990.8474576271186","black","experiment","legacy","legacy","legacy","0","uniform","1","undefined","1","left","117","117","117","0","0","117","117","0","0","117","117","117","0","117","0","Sun Oct 24 20:59:29 2021","The main experiment item","yes","Sternbergtask.osexp","C:\Users\19565\Desktop","no","mono","no","18","no","white","no","yes","768","legacy","105","11","C:/Users/19565/Desktop/Lab 3/MR-subject-3.csv","legacy","4","Lentiform Loewenfeld","3.3.9","1","y","0","left","left","left","left","NA","538","14156","15954","538","NA","2","legacy","1","1024","2","48000","-16","experiment","3","odd","4","789439","786092","787228","4348","113734","787230","779810","4351","97779","791443","791983","788235","18509","791443","NA","Sternberg task","104","116920","118","yes","1024"
