acc,accuracy,average_response_time,avg_rt,background,block,canvas_backend,clock_backend,color_backend,compensation,coordinates,correct,correct_instruction1,correct_keyboard_response,correct_response,count_ISI,count_correctFeedback,count_expSequence,count_experiment,count_experimentLoop,count_fixation,count_incorrectFeedback,count_instruction1,count_instructions2,count_keyboard_response,count_logger,count_memorySet,count_practiceLoop,count_probe,count_thankYou,datetime,description,disable_garbage_collection,experiment_file,experiment_path,font_bold,font_family,font_italic,font_size,font_underline,foreground,form_clicks,fullscreen,height,keyboard_backend,live_row,live_row_practiceLoop,logfile,mouse_backend,numberSet,opensesame_codename,opensesame_version,posInSet,present,repeat_cycle,response,response_instruction1,response_instructions2,response_keyboard_response,response_thankYou,response_time,response_time_instruction1,response_time_instructions2,response_time_keyboard_response,response_time_thankYou,round_decimals,sampler_backend,setSize,sound_buf_size,sound_channels,sound_freq,sound_sample_size,start,subject_nr,subject_parity,target,time_ISI,time_correctFeedback,time_expSequence,time_experiment,time_experimentLoop,time_fixation,time_incorrectFeedback,time_instruction1,time_instructions2,time_keyboard_response,time_logger,time_memorySet,time_practiceLoop,time_probe,time_thankYou,title,total_correct,total_response_time,total_responses,uniform_coordinates,width
100,100,1102,1102,black,practice,legacy,legacy,legacy,0,uniform,1,undefined,1,left,0,0,0,0,0,0,0,0,0,0,0,0,0,0,0,10/25/19 19:13,The main experiment item,yes,Sternbergtask.osexp,C:\Users\Edgar\Documents\Edgar School\Fall 2019\Lab 3-1,no,mono,no,18,no,white,no,yes,768,legacy,0,0,C:/Users/Edgar/Documents/Edgar School/Fall 2019/Lab 3-1/OJ-subject-4.csv,legacy,4 8,Kafkaesque Koffka,3.2.8,1,y,0,left,space,NA,left,NA,1102,61235,NA,1102,NA,2,legacy,2,1024,2,48000,-16,experiment,4,even,4,72429,NA,70202,5984,NA,70215,NA,6003,NA,74437,75540,71222,67242,74435,NA,Sternberg task,1,1102,1,yes,1024
100,100,952,952,black,practice,legacy,legacy,legacy,0,uniform,1,undefined,1,left,1,1,1,0,0,1,1,0,0,1,1,1,0,1,0,10/25/19 19:13,The main experiment item,yes,Sternbergtask.osexp,C:\Users\Edgar\Documents\Edgar School\Fall 2019\Lab 3-1,no,mono,no,18,no,white,no,yes,768,legacy,1,1,C:/Users/Edgar/Documents/Edgar School/Fall 2019/Lab 3-1/OJ-subject-4.csv,legacy,4 3 1 7 9 8,Kafkaesque Koffka,3.2.8,1,y,0,left,space,NA,left,NA,802,61235,NA,802,NA,2,legacy,6,1024,2,48000,-16,experiment,4,even,4,79515,75928,77294,5984,NA,77302,NA,6003,NA,81524,82328,78308,67242,81523,NA,Sternberg task,2,1904,2,yes,1024
100,100,919,919,black,practice,legacy,legacy,legacy,0,uniform,1,undefined,1,left,2,2,2,0,0,2,2,0,0,2,2,2,0,2,0,10/25/19 19:13,The main experiment item,yes,Sternbergtask.osexp,C:\Users\Edgar\Documents\Edgar School\Fall 2019\Lab 3-1,no,mono,no,18,no,white,no,yes,768,legacy,2,2,C:/Users/Edgar/Documents/Edgar School/Fall 2019/Lab 3-1/OJ-subject-4.csv,legacy,2 9 4,Kafkaesque Koffka,3.2.8,3,y,0,left,space,NA,left,NA,853,61235,NA,853,NA,2,legacy,3,1024,2,48000,-16,experiment,4,even,4,85975,82363,83753,5984,NA,83762,NA,6003,NA,87982,88836,84768,67242,87982,NA,Sternberg task,3,2757,3,yes,1024
100,100,926.25,926.25,black,practice,legacy,legacy,legacy,0,uniform,1,undefined,1,right,3,3,3,0,0,3,3,0,0,3,3,3,0,3,0,10/25/19 19:13,The main experiment item,yes,Sternbergtask.osexp,C:\Users\Edgar\Documents\Edgar School\Fall 2019\Lab 3-1,no,mono,no,18,no,white,no,yes,768,legacy,3,3,C:/Users/Edgar/Documents/Edgar School/Fall 2019/Lab 3-1/OJ-subject-4.csv,legacy,5 7 8 4 1 2,Kafkaesque Koffka,3.2.8,0,n,0,right,space,NA,right,NA,948,61235,NA,948,NA,2,legacy,6,1024,2,48000,-16,experiment,4,even,6,92467,88899,90247,5984,NA,90254,NA,6003,NA,94473,95423,91261,67242,94472,NA,Sternberg task,4,3705,4,yes,1024
100,100,964.4,964.4,black,practice,legacy,legacy,legacy,0,uniform,1,undefined,1,right,4,4,4,0,0,4,4,0,0,4,4,4,0,4,0,10/25/19 19:13,The main experiment item,yes,Sternbergtask.osexp,C:\Users\Edgar\Documents\Edgar School\Fall 2019\Lab 3-1,no,mono,no,18,no,white,no,yes,768,legacy,4,4,C:/Users/Edgar/Documents/Edgar School/Fall 2019/Lab 3-1/OJ-subject-4.csv,legacy,3 1 9 4,Kafkaesque Koffka,3.2.8,0,n,0,right,space,NA,right,NA,1117,61235,NA,1117,NA,2,legacy,4,1024,2,48000,-16,experiment,4,even,6,99089,95488,96865,5984,NA,96875,NA,6003,NA,101097,102215,97883,67242,101097,NA,Sternberg task,5,4822,5,yes,1024
100,100,920.5,920.5,black,practice,legacy,legacy,legacy,0,uniform,1,undefined,1,left,5,5,5,0,0,5,5,0,0,5,5,5,0,5,0,10/25/19 19:13,The main experiment item,yes,Sternbergtask.osexp,C:\Users\Edgar\Documents\Edgar School\Fall 2019\Lab 3-1,no,mono,no,18,no,white,no,yes,768,legacy,5,5,C:/Users/Edgar/Documents/Edgar School/Fall 2019/Lab 3-1/OJ-subject-4.csv,legacy,1 7 9 8 5,Kafkaesque Koffka,3.2.8,4,y,0,left,space,NA,left,NA,701,61235,NA,701,NA,2,legacy,5,1024,2,48000,-16,experiment,4,even,8,105854,102256,103631,5984,NA,103640,NA,6003,NA,107862,108565,104647,67242,107862,NA,Sternberg task,6,5523,6,yes,1024
100,100,882.1428571,882.1428571,black,practice,legacy,legacy,legacy,0,uniform,1,undefined,1,right,6,6,6,0,0,6,6,0,0,6,6,6,0,6,0,10/25/19 19:13,The main experiment item,yes,Sternbergtask.osexp,C:\Users\Edgar\Documents\Edgar School\Fall 2019\Lab 3-1,no,mono,no,18,no,white,no,yes,768,legacy,6,6,C:/Users/Edgar/Documents/Edgar School/Fall 2019/Lab 3-1/OJ-subject-4.csv,legacy,4 1 5,Kafkaesque Koffka,3.2.8,0,n,0,right,space,NA,right,NA,652,61235,NA,652,NA,2,legacy,3,1024,2,48000,-16,experiment,4,even,2,112206,108627,109987,5984,NA,109995,NA,6003,NA,114213,114867,111001,67242,114213,NA,Sternberg task,7,6175,7,yes,1024
87.5,87.5,1021.875,1021.875,black,practice,legacy,legacy,legacy,0,uniform,0,undefined,0,left,7,7,7,0,0,7,7,0,0,7,7,7,0,7,0,10/25/19 19:13,The main experiment item,yes,Sternbergtask.osexp,C:\Users\Edgar\Documents\Edgar School\Fall 2019\Lab 3-1,no,mono,no,18,no,white,no,yes,768,legacy,7,7,C:/Users/Edgar/Documents/Edgar School/Fall 2019/Lab 3-1/OJ-subject-4.csv,legacy,6,Kafkaesque Koffka,3.2.8,1,y,0,None,space,NA,None,NA,2000,61235,NA,2000,NA,2,legacy,1,1024,2,48000,-16,experiment,4,even,6,118514,114939,116295,5984,NA,116302,NA,6003,NA,120523,122524,117308,67242,120523,NA,Sternberg task,7,8175,8,yes,1024
88.88888889,88.88888889,991.6666667,991.6666667,black,practice,legacy,legacy,legacy,0,uniform,1,undefined,1,right,8,8,8,0,0,8,8,0,0,8,8,8,0,8,0,10/25/19 19:13,The main experiment item,yes,Sternbergtask.osexp,C:\Users\Edgar\Documents\Edgar School\Fall 2019\Lab 3-1,no,mono,no,18,no,white,no,yes,768,legacy,8,8,C:/Users/Edgar/Documents/Edgar School/Fall 2019/Lab 3-1/OJ-subject-4.csv,legacy,2 1,Kafkaesque Koffka,3.2.8,0,n,0,right,space,NA,right,NA,750,61235,NA,750,NA,2,legacy,2,1024,2,48000,-16,experiment,4,even,5,126164,114939,123946,5984,NA,123953,122572,6003,NA,128171,128924,124958,67242,128171,NA,Sternberg task,8,8925,9,yes,1024
90,90,962.3,962.3,black,practice,legacy,legacy,legacy,0,uniform,1,undefined,1,left,9,9,9,0,0,9,9,0,0,9,9,9,0,9,0,10/25/19 19:13,The main experiment item,yes,Sternbergtask.osexp,C:\Users\Edgar\Documents\Edgar School\Fall 2019\Lab 3-1,no,mono,no,18,no,white,no,yes,768,legacy,9,9,C:/Users/Edgar/Documents/Edgar School/Fall 2019/Lab 3-1/OJ-subject-4.csv,legacy,1 5 2 9,Kafkaesque Koffka,3.2.8,2,y,0,left,space,NA,left,NA,698,61235,NA,698,NA,2,legacy,4,1024,2,48000,-16,experiment,4,even,5,132530,128967,130311,5984,NA,130319,122572,6003,NA,134538,135239,131325,67242,134538,NA,Sternberg task,9,9623,10,yes,1024
90.90909091,90.90909091,942.8181818,942.8181818,black,practice,legacy,legacy,legacy,0,uniform,1,undefined,1,right,10,10,10,0,0,10,10,0,0,10,10,10,0,10,0,10/25/19 19:13,The main experiment item,yes,Sternbergtask.osexp,C:\Users\Edgar\Documents\Edgar School\Fall 2019\Lab 3-1,no,mono,no,18,no,white,no,yes,768,legacy,10,10,C:/Users/Edgar/Documents/Edgar School/Fall 2019/Lab 3-1/OJ-subject-4.csv,legacy,9 6 7 4 5,Kafkaesque Koffka,3.2.8,0,n,0,right,space,NA,right,NA,748,61235,NA,748,NA,2,legacy,5,1024,2,48000,-16,experiment,4,even,3,138885,135292,136662,5984,NA,136669,122572,6003,NA,140892,141642,137678,67242,140892,NA,Sternberg task,10,10371,11,yes,1024
91.66666667,91.66666667,932.6666667,932.6666667,black,practice,legacy,legacy,legacy,0,uniform,1,undefined,1,right,11,11,11,0,0,11,11,0,0,11,11,11,0,11,0,10/25/19 19:13,The main experiment item,yes,Sternbergtask.osexp,C:\Users\Edgar\Documents\Edgar School\Fall 2019\Lab 3-1,no,mono,no,18,no,white,no,yes,768,legacy,11,11,C:/Users/Edgar/Documents/Edgar School/Fall 2019/Lab 3-1/OJ-subject-4.csv,legacy,5,Kafkaesque Koffka,3.2.8,0,n,0,right,space,NA,right,NA,821,61235,NA,821,NA,2,legacy,1,1024,2,48000,-16,experiment,4,even,3,145267,141698,143046,5984,NA,143052,122572,6003,NA,147277,148100,144059,67242,147275,NA,Sternberg task,11,11192,12,yes,1024
92.30769231,92.30769231,904.3076923,904.3076923,black,experiment,legacy,legacy,legacy,0,uniform,1,undefined,1,right,12,12,12,0,0,12,12,0,0,12,12,12,0,12,0,10/25/19 19:13,The main experiment item,yes,Sternbergtask.osexp,C:\Users\Edgar\Documents\Edgar School\Fall 2019\Lab 3-1,no,mono,no,18,no,white,no,yes,768,legacy,0,11,C:/Users/Edgar/Documents/Edgar School/Fall 2019/Lab 3-1/OJ-subject-4.csv,legacy,2 7 5,Kafkaesque Koffka,3.2.8,0,n,0,right,space,space,right,NA,564,61235,68899,564,NA,2,legacy,3,1024,2,48000,-16,experiment,4,even,8,221022,148166,218800,5984,218140,218809,122572,6003,149237,223029,223596,219816,67242,223028,NA,Sternberg task,12,11756,13,yes,1024
92.85714286,92.85714286,920.6428571,920.6428571,black,experiment,legacy,legacy,legacy,0,uniform,1,undefined,1,left,13,13,13,0,0,13,13,0,0,13,13,13,0,13,0,10/25/19 19:13,The main experiment item,yes,Sternbergtask.osexp,C:\Users\Edgar\Documents\Edgar School\Fall 2019\Lab 3-1,no,mono,no,18,no,white,no,yes,768,legacy,1,11,C:/Users/Edgar/Documents/Edgar School/Fall 2019/Lab 3-1/OJ-subject-4.csv,legacy,9 1 7 2,Kafkaesque Koffka,3.2.8,2,y,0,left,space,space,left,NA,1133,61235,68899,1133,NA,2,legacy,4,1024,2,48000,-16,experiment,4,even,1,227209,223637,224988,5984,218140,224996,122572,6003,149237,229215,230350,226003,67242,229214,NA,Sternberg task,13,12889,14,yes,1024
93.33333333,93.33333333,892.8,892.8,black,experiment,legacy,legacy,legacy,0,uniform,1,undefined,1,right,14,14,14,0,0,14,14,0,0,14,14,14,0,14,0,10/25/19 19:13,The main experiment item,yes,Sternbergtask.osexp,C:\Users\Edgar\Documents\Edgar School\Fall 2019\Lab 3-1,no,mono,no,18,no,white,no,yes,768,legacy,2,11,C:/Users/Edgar/Documents/Edgar School/Fall 2019/Lab 3-1/OJ-subject-4.csv,legacy,8 4 3 9,Kafkaesque Koffka,3.2.8,0,n,0,right,space,space,right,NA,503,61235,68899,503,NA,2,legacy,4,1024,2,48000,-16,experiment,4,even,5,233975,230404,231753,5984,218140,231763,122572,6003,149237,235982,236487,232769,67242,235982,NA,Sternberg task,14,13392,15,yes,1024
93.75,93.75,874.625,874.625,black,experiment,legacy,legacy,legacy,0,uniform,1,undefined,1,right,15,15,15,0,0,15,15,0,0,15,15,15,0,15,0,10/25/19 19:13,The main experiment item,yes,Sternbergtask.osexp,C:\Users\Edgar\Documents\Edgar School\Fall 2019\Lab 3-1,no,mono,no,18,no,white,no,yes,768,legacy,3,11,C:/Users/Edgar/Documents/Edgar School/Fall 2019/Lab 3-1/OJ-subject-4.csv,legacy,2 8 9,Kafkaesque Koffka,3.2.8,0,n,0,right,space,space,right,NA,602,61235,68899,602,NA,2,legacy,3,1024,2,48000,-16,experiment,4,even,6,240143,236533,237923,5984,218140,237930,122572,6003,149237,242150,242754,238935,67242,242150,NA,Sternberg task,15,13994,16,yes,1024
94.11764706,94.11764706,851.2352941,851.2352941,black,experiment,legacy,legacy,legacy,0,uniform,1,undefined,1,right,16,16,16,0,0,16,16,0,0,16,16,16,0,16,0,10/25/19 19:13,The main experiment item,yes,Sternbergtask.osexp,C:\Users\Edgar\Documents\Edgar School\Fall 2019\Lab 3-1,no,mono,no,18,no,white,no,yes,768,legacy,4,11,C:/Users/Edgar/Documents/Edgar School/Fall 2019/Lab 3-1/OJ-subject-4.csv,legacy,7 1,Kafkaesque Koffka,3.2.8,0,n,0,right,space,space,right,NA,477,61235,68899,477,NA,2,legacy,2,1024,2,48000,-16,experiment,4,even,8,246376,242801,244155,5984,218140,244164,122572,6003,149237,248385,248864,245169,67242,248385,NA,Sternberg task,16,14471,17,yes,1024
94.44444444,94.44444444,836.7777778,836.7777778,black,experiment,legacy,legacy,legacy,0,uniform,1,undefined,1,right,17,17,17,0,0,17,17,0,0,17,17,17,0,17,0,10/25/19 19:13,The main experiment item,yes,Sternbergtask.osexp,C:\Users\Edgar\Documents\Edgar School\Fall 2019\Lab 3-1,no,mono,no,18,no,white,no,yes,768,legacy,5,11,C:/Users/Edgar/Documents/Edgar School/Fall 2019/Lab 3-1/OJ-subject-4.csv,legacy,9 5 3 2 8 6,Kafkaesque Koffka,3.2.8,0,n,0,right,space,space,right,NA,591,61235,68899,591,NA,2,legacy,6,1024,2,48000,-16,experiment,4,even,7,252489,248916,250267,5984,218140,250274,122572,6003,149237,254496,255090,251281,67242,254495,NA,Sternberg task,17,15062,18,yes,1024
94.73684211,94.73684211,830.9473684,830.9473684,black,experiment,legacy,legacy,legacy,0,uniform,1,undefined,1,left,18,18,18,0,0,18,18,0,0,18,18,18,0,18,0,10/25/19 19:13,The main experiment item,yes,Sternbergtask.osexp,C:\Users\Edgar\Documents\Edgar School\Fall 2019\Lab 3-1,no,mono,no,18,no,white,no,yes,768,legacy,6,11,C:/Users/Edgar/Documents/Edgar School/Fall 2019/Lab 3-1/OJ-subject-4.csv,legacy,5 7 3 6 2,Kafkaesque Koffka,3.2.8,5,y,0,left,space,space,left,NA,726,61235,68899,726,NA,2,legacy,5,1024,2,48000,-16,experiment,4,even,2,258713,255130,256494,5984,218140,256501,122572,6003,149237,260719,261447,257507,67242,260719,NA,Sternberg task,18,15788,19,yes,1024
95,95,816.15,816.15,black,experiment,legacy,legacy,legacy,0,uniform,1,undefined,1,right,19,19,19,0,0,19,19,0,0,19,19,19,0,19,0,10/25/19 19:13,The main experiment item,yes,Sternbergtask.osexp,C:\Users\Edgar\Documents\Edgar School\Fall 2019\Lab 3-1,no,mono,no,18,no,white,no,yes,768,legacy,7,11,C:/Users/Edgar/Documents/Edgar School/Fall 2019/Lab 3-1/OJ-subject-4.csv,legacy,7 8 6 1,Kafkaesque Koffka,3.2.8,0,n,0,right,space,space,right,NA,535,61235,68899,535,NA,2,legacy,4,1024,2,48000,-16,experiment,4,even,3,265090,261491,262870,5984,218140,262878,122572,6003,149237,267097,267634,263884,67242,267097,NA,Sternberg task,19,16323,20,yes,1024
95.23809524,95.23809524,806.6666667,806.6666667,black,experiment,legacy,legacy,legacy,0,uniform,1,undefined,1,left,20,20,20,0,0,20,20,0,0,20,20,20,0,20,0,10/25/19 19:13,The main experiment item,yes,Sternbergtask.osexp,C:\Users\Edgar\Documents\Edgar School\Fall 2019\Lab 3-1,no,mono,no,18,no,white,no,yes,768,legacy,8,11,C:/Users/Edgar/Documents/Edgar School/Fall 2019/Lab 3-1/OJ-subject-4.csv,legacy,2 3,Kafkaesque Koffka,3.2.8,1,y,0,left,space,space,left,NA,617,61235,68899,617,NA,2,legacy,2,1024,2,48000,-16,experiment,4,even,2,271264,267683,269044,5984,218140,269051,122572,6003,149237,273271,273890,270058,67242,273271,NA,Sternberg task,20,16940,21,yes,1024
90.90909091,90.90909091,802.9545455,802.9545455,black,experiment,legacy,legacy,legacy,0,uniform,0,undefined,0,left,21,21,21,0,0,21,21,0,0,21,21,21,0,21,0,10/25/19 19:13,The main experiment item,yes,Sternbergtask.osexp,C:\Users\Edgar\Documents\Edgar School\Fall 2019\Lab 3-1,no,mono,no,18,no,white,no,yes,768,legacy,9,11,C:/Users/Edgar/Documents/Edgar School/Fall 2019/Lab 3-1/OJ-subject-4.csv,legacy,2 4 6 9,Kafkaesque Koffka,3.2.8,3,y,0,right,space,space,right,NA,725,61235,68899,725,NA,2,legacy,4,1024,2,48000,-16,experiment,4,even,6,277553,273965,275333,5984,218140,275340,122572,6003,149237,279560,280287,276346,67242,279560,NA,Sternberg task,20,17665,22,yes,1024
91.30434783,91.30434783,793.3913043,793.3913043,black,experiment,legacy,legacy,legacy,0,uniform,1,undefined,1,right,22,22,22,0,0,22,22,0,0,22,22,22,0,22,0,10/25/19 19:13,The main experiment item,yes,Sternbergtask.osexp,C:\Users\Edgar\Documents\Edgar School\Fall 2019\Lab 3-1,no,mono,no,18,no,white,no,yes,768,legacy,10,11,C:/Users/Edgar/Documents/Edgar School/Fall 2019/Lab 3-1/OJ-subject-4.csv,legacy,5 7 3,Kafkaesque Koffka,3.2.8,0,n,0,right,space,space,right,NA,583,61235,68899,583,NA,2,legacy,3,1024,2,48000,-16,experiment,4,even,9,283939,273965,281719,5984,218140,281727,280334,6003,149237,285947,286532,282733,67242,285946,NA,Sternberg task,21,18248,23,yes,1024
91.66666667,91.66666667,784.5416667,784.5416667,black,experiment,legacy,legacy,legacy,0,uniform,1,undefined,1,left,23,23,23,0,0,23,23,0,0,23,23,23,0,23,0,10/25/19 19:13,The main experiment item,yes,Sternbergtask.osexp,C:\Users\Edgar\Documents\Edgar School\Fall 2019\Lab 3-1,no,mono,no,18,no,white,no,yes,768,legacy,11,11,C:/Users/Edgar/Documents/Edgar School/Fall 2019/Lab 3-1/OJ-subject-4.csv,legacy,9 6 2 4 1,Kafkaesque Koffka,3.2.8,4,y,0,left,space,space,left,NA,581,61235,68899,581,NA,2,legacy,5,1024,2,48000,-16,experiment,4,even,4,290156,286569,287936,5984,218140,287944,280334,6003,149237,292164,292748,288951,67242,292164,NA,Sternberg task,22,18829,24,yes,1024
92,92,778.48,778.48,black,experiment,legacy,legacy,legacy,0,uniform,1,undefined,1,right,24,24,24,0,0,24,24,0,0,24,24,24,0,24,0,10/25/19 19:13,The main experiment item,yes,Sternbergtask.osexp,C:\Users\Edgar\Documents\Edgar School\Fall 2019\Lab 3-1,no,mono,no,18,no,white,no,yes,768,legacy,12,11,C:/Users/Edgar/Documents/Edgar School/Fall 2019/Lab 3-1/OJ-subject-4.csv,legacy,1 7 5 2 9,Kafkaesque Koffka,3.2.8,0,n,0,right,space,space,right,NA,633,61235,68899,633,NA,2,legacy,5,1024,2,48000,-16,experiment,4,even,3,296387,292794,294166,5984,218140,294175,280334,6003,149237,298394,299031,295181,67242,298394,NA,Sternberg task,23,19462,25,yes,1024
92.30769231,92.30769231,771.6153846,771.6153846,black,experiment,legacy,legacy,legacy,0,uniform,1,undefined,1,right,25,25,25,0,0,25,25,0,0,25,25,25,0,25,0,10/25/19 19:13,The main experiment item,yes,Sternbergtask.osexp,C:\Users\Edgar\Documents\Edgar School\Fall 2019\Lab 3-1,no,mono,no,18,no,white,no,yes,768,legacy,13,11,C:/Users/Edgar/Documents/Edgar School/Fall 2019/Lab 3-1/OJ-subject-4.csv,legacy,7 1 5 6 3,Kafkaesque Koffka,3.2.8,0,n,0,right,space,space,right,NA,600,61235,68899,600,NA,2,legacy,5,1024,2,48000,-16,experiment,4,even,8,302641,299061,300422,5984,218140,300429,280334,6003,149237,304647,305251,301435,67242,304647,NA,Sternberg task,24,20062,26,yes,1024
92.59259259,92.59259259,763.1481481,763.1481481,black,experiment,legacy,legacy,legacy,0,uniform,1,undefined,1,right,26,26,26,0,0,26,26,0,0,26,26,26,0,26,0,10/25/19 19:13,The main experiment item,yes,Sternbergtask.osexp,C:\Users\Edgar\Documents\Edgar School\Fall 2019\Lab 3-1,no,mono,no,18,no,white,no,yes,768,legacy,14,11,C:/Users/Edgar/Documents/Edgar School/Fall 2019/Lab 3-1/OJ-subject-4.csv,legacy,8 9,Kafkaesque Koffka,3.2.8,0,n,0,right,space,space,right,NA,543,61235,68899,543,NA,2,legacy,2,1024,2,48000,-16,experiment,4,even,5,308941,305314,306721,5984,218140,306728,280334,6003,149237,310948,311494,307734,67242,310947,NA,Sternberg task,25,20605,27,yes,1024
92.85714286,92.85714286,753.7142857,753.7142857,black,experiment,legacy,legacy,legacy,0,uniform,1,undefined,1,right,27,27,27,0,0,27,27,0,0,27,27,27,0,27,0,10/25/19 19:13,The main experiment item,yes,Sternbergtask.osexp,C:\Users\Edgar\Documents\Edgar School\Fall 2019\Lab 3-1,no,mono,no,18,no,white,no,yes,768,legacy,15,11,C:/Users/Edgar/Documents/Edgar School/Fall 2019/Lab 3-1/OJ-subject-4.csv,legacy,4 1,Kafkaesque Koffka,3.2.8,0,n,0,right,space,space,right,NA,499,61235,68899,499,NA,2,legacy,2,1024,2,48000,-16,experiment,4,even,6,315123,311554,312903,5984,218140,312911,280334,6003,149237,317132,317638,313917,67242,317132,NA,Sternberg task,26,21104,28,yes,1024
93.10344828,93.10344828,748.7241379,748.7241379,black,experiment,legacy,legacy,legacy,0,uniform,1,undefined,1,right,28,28,28,0,0,28,28,0,0,28,28,28,0,28,0,10/25/19 19:13,The main experiment item,yes,Sternbergtask.osexp,C:\Users\Edgar\Documents\Edgar School\Fall 2019\Lab 3-1,no,mono,no,18,no,white,no,yes,768,legacy,16,11,C:/Users/Edgar/Documents/Edgar School/Fall 2019/Lab 3-1/OJ-subject-4.csv,legacy,8 5 7 3 6,Kafkaesque Koffka,3.2.8,0,n,0,right,space,space,right,NA,609,61235,68899,609,NA,2,legacy,5,1024,2,48000,-16,experiment,4,even,9,321298,317695,319080,5984,218140,319087,280334,6003,149237,323305,323916,320093,67242,323305,NA,Sternberg task,27,21713,29,yes,1024
93.33333333,93.33333333,753.1,753.1,black,experiment,legacy,legacy,legacy,0,uniform,1,undefined,1,left,29,29,29,0,0,29,29,0,0,29,29,29,0,29,0,10/25/19 19:13,The main experiment item,yes,Sternbergtask.osexp,C:\Users\Edgar\Documents\Edgar School\Fall 2019\Lab 3-1,no,mono,no,18,no,white,no,yes,768,legacy,17,11,C:/Users/Edgar/Documents/Edgar School/Fall 2019/Lab 3-1/OJ-subject-4.csv,legacy,7 8 6 3 1,Kafkaesque Koffka,3.2.8,5,y,0,left,space,space,left,NA,880,61235,68899,880,NA,2,legacy,5,1024,2,48000,-16,experiment,4,even,1,327554,323981,325334,5984,218140,325341,280334,6003,149237,329561,330443,326347,67242,329561,NA,Sternberg task,28,22593,30,yes,1024
93.5483871,93.5483871,748.516129,748.516129,black,experiment,legacy,legacy,legacy,0,uniform,1,undefined,1,right,30,30,30,0,0,30,30,0,0,30,30,30,0,30,0,10/25/19 19:13,The main experiment item,yes,Sternbergtask.osexp,C:\Users\Edgar\Documents\Edgar School\Fall 2019\Lab 3-1,no,mono,no,18,no,white,no,yes,768,legacy,18,11,C:/Users/Edgar/Documents/Edgar School/Fall 2019/Lab 3-1/OJ-subject-4.csv,legacy,1 4 9 2 5,Kafkaesque Koffka,3.2.8,0,n,0,right,space,space,right,NA,611,61235,68899,611,NA,2,legacy,5,1024,2,48000,-16,experiment,4,even,7,334107,330497,331886,5984,218140,331893,280334,6003,149237,336116,336730,332900,67242,336115,NA,Sternberg task,29,23204,31,yes,1024
93.75,93.75,745.28125,745.28125,black,experiment,legacy,legacy,legacy,0,uniform,1,undefined,1,right,31,31,31,0,0,31,31,0,0,31,31,31,0,31,0,10/25/19 19:13,The main experiment item,yes,Sternbergtask.osexp,C:\Users\Edgar\Documents\Edgar School\Fall 2019\Lab 3-1,no,mono,no,18,no,white,no,yes,768,legacy,19,11,C:/Users/Edgar/Documents/Edgar School/Fall 2019/Lab 3-1/OJ-subject-4.csv,legacy,1 7 5 2,Kafkaesque Koffka,3.2.8,0,n,0,right,space,space,right,NA,645,61235,68899,645,NA,2,legacy,4,1024,2,48000,-16,experiment,4,even,3,340357,336790,338137,5984,218140,338144,280334,6003,149237,342366,343014,339150,67242,342365,NA,Sternberg task,30,23849,32,yes,1024
93.93939394,93.93939394,737.030303,737.030303,black,experiment,legacy,legacy,legacy,0,uniform,1,undefined,1,left,32,32,32,0,0,32,32,0,0,32,32,32,0,32,0,10/25/19 19:13,The main experiment item,yes,Sternbergtask.osexp,C:\Users\Edgar\Documents\Edgar School\Fall 2019\Lab 3-1,no,mono,no,18,no,white,no,yes,768,legacy,20,11,C:/Users/Edgar/Documents/Edgar School/Fall 2019/Lab 3-1/OJ-subject-4.csv,legacy,7 6,Kafkaesque Koffka,3.2.8,2,y,0,left,space,space,left,NA,473,61235,68899,473,NA,2,legacy,2,1024,2,48000,-16,experiment,4,even,6,346643,343063,344418,5984,218140,344428,280334,6003,149237,348651,349126,345436,67242,348651,NA,Sternberg task,31,24322,33,yes,1024
94.11764706,94.11764706,729.9705882,729.9705882,black,experiment,legacy,legacy,legacy,0,uniform,1,undefined,1,left,33,33,33,0,0,33,33,0,0,33,33,33,0,33,0,10/25/19 19:13,The main experiment item,yes,Sternbergtask.osexp,C:\Users\Edgar\Documents\Edgar School\Fall 2019\Lab 3-1,no,mono,no,18,no,white,no,yes,768,legacy,21,11,C:/Users/Edgar/Documents/Edgar School/Fall 2019/Lab 3-1/OJ-subject-4.csv,legacy,7,Kafkaesque Koffka,3.2.8,1,y,0,left,space,space,left,NA,497,61235,68899,497,NA,2,legacy,1,1024,2,48000,-16,experiment,4,even,7,352765,349180,350542,5984,218140,350548,280334,6003,149237,354772,355273,351556,67242,354771,NA,Sternberg task,32,24819,34,yes,1024
94.28571429,94.28571429,727.2,727.2,black,experiment,legacy,legacy,legacy,0,uniform,1,undefined,1,left,34,34,34,0,0,34,34,0,0,34,34,34,0,34,0,10/25/19 19:13,The main experiment item,yes,Sternbergtask.osexp,C:\Users\Edgar\Documents\Edgar School\Fall 2019\Lab 3-1,no,mono,no,18,no,white,no,yes,768,legacy,22,11,C:/Users/Edgar/Documents/Edgar School/Fall 2019/Lab 3-1/OJ-subject-4.csv,legacy,7 4 2 6 3 5,Kafkaesque Koffka,3.2.8,6,y,0,left,space,space,left,NA,633,61235,68899,633,NA,2,legacy,6,1024,2,48000,-16,experiment,4,even,5,358892,355323,356671,5984,218140,356679,280334,6003,149237,360898,361533,357685,67242,360898,NA,Sternberg task,33,25452,35,yes,1024
91.66666667,91.66666667,727.3888889,727.3888889,black,experiment,legacy,legacy,legacy,0,uniform,0,undefined,0,right,35,35,35,0,0,35,35,0,0,35,35,35,0,35,0,10/25/19 19:13,The main experiment item,yes,Sternbergtask.osexp,C:\Users\Edgar\Documents\Edgar School\Fall 2019\Lab 3-1,no,mono,no,18,no,white,no,yes,768,legacy,23,11,C:/Users/Edgar/Documents/Edgar School/Fall 2019/Lab 3-1/OJ-subject-4.csv,legacy,1 7 8 3 9,Kafkaesque Koffka,3.2.8,0,n,0,left,space,space,left,NA,734,61235,68899,734,NA,2,legacy,5,1024,2,48000,-16,experiment,4,even,2,365164,361578,362944,5984,218140,362951,280334,6003,149237,367171,367907,363959,67242,367170,NA,Sternberg task,33,26186,36,yes,1024
91.89189189,91.89189189,720.7837838,720.7837838,black,experiment,legacy,legacy,legacy,0,uniform,1,undefined,1,right,36,36,36,0,0,36,36,0,0,36,36,36,0,36,0,10/25/19 19:13,The main experiment item,yes,Sternbergtask.osexp,C:\Users\Edgar\Documents\Edgar School\Fall 2019\Lab 3-1,no,mono,no,18,no,white,no,yes,768,legacy,24,11,C:/Users/Edgar/Documents/Edgar School/Fall 2019/Lab 3-1/OJ-subject-4.csv,legacy,6 8 4,Kafkaesque Koffka,3.2.8,0,n,0,right,space,space,right,NA,483,61235,68899,483,NA,2,legacy,3,1024,2,48000,-16,experiment,4,even,1,371527,361578,369306,5984,218140,369313,367954,6003,149237,373534,374021,370320,67242,373534,NA,Sternberg task,34,26669,37,yes,1024
92.10526316,92.10526316,714.6842105,714.6842105,black,experiment,legacy,legacy,legacy,0,uniform,1,undefined,1,left,37,37,37,0,0,37,37,0,0,37,37,37,0,37,0,10/25/19 19:13,The main experiment item,yes,Sternbergtask.osexp,C:\Users\Edgar\Documents\Edgar School\Fall 2019\Lab 3-1,no,mono,no,18,no,white,no,yes,768,legacy,25,11,C:/Users/Edgar/Documents/Edgar School/Fall 2019/Lab 3-1/OJ-subject-4.csv,legacy,2 3 7 4,Kafkaesque Koffka,3.2.8,1,y,0,left,space,space,left,NA,489,61235,68899,489,NA,2,legacy,4,1024,2,48000,-16,experiment,4,even,2,377648,374066,375428,5984,218140,375435,367954,6003,149237,379656,380148,376441,67242,379655,NA,Sternberg task,35,27158,38,yes,1024
92.30769231,92.30769231,707.5641026,707.5641026,black,experiment,legacy,legacy,legacy,0,uniform,1,undefined,1,left,38,38,38,0,0,38,38,0,0,38,38,38,0,38,0,10/25/19 19:13,The main experiment item,yes,Sternbergtask.osexp,C:\Users\Edgar\Documents\Edgar School\Fall 2019\Lab 3-1,no,mono,no,18,no,white,no,yes,768,legacy,26,11,C:/Users/Edgar/Documents/Edgar School/Fall 2019/Lab 3-1/OJ-subject-4.csv,legacy,5 2 6,Kafkaesque Koffka,3.2.8,2,y,0,left,space,space,left,NA,437,61235,68899,437,NA,2,legacy,3,1024,2,48000,-16,experiment,4,even,2,383803,380205,381578,5984,218140,381586,367954,6003,149237,385809,386251,382594,67242,385808,NA,Sternberg task,36,27595,39,yes,1024
92.5,92.5,703.6,703.6,black,experiment,legacy,legacy,legacy,0,uniform,1,undefined,1,right,39,39,39,0,0,39,39,0,0,39,39,39,0,39,0,10/25/19 19:13,The main experiment item,yes,Sternbergtask.osexp,C:\Users\Edgar\Documents\Edgar School\Fall 2019\Lab 3-1,no,mono,no,18,no,white,no,yes,768,legacy,27,11,C:/Users/Edgar/Documents/Edgar School/Fall 2019/Lab 3-1/OJ-subject-4.csv,legacy,8 5 4 2 9 6,Kafkaesque Koffka,3.2.8,0,n,0,right,space,space,right,NA,549,61235,68899,549,NA,2,legacy,6,1024,2,48000,-16,experiment,4,even,3,389909,386306,387690,5984,218140,387696,367954,6003,149237,391916,392469,388702,67242,391916,NA,Sternberg task,37,28144,40,yes,1024
92.68292683,92.68292683,698.097561,698.097561,black,experiment,legacy,legacy,legacy,0,uniform,1,undefined,1,left,40,40,40,0,0,40,40,0,0,40,40,40,0,40,0,10/25/19 19:13,The main experiment item,yes,Sternbergtask.osexp,C:\Users\Edgar\Documents\Edgar School\Fall 2019\Lab 3-1,no,mono,no,18,no,white,no,yes,768,legacy,28,11,C:/Users/Edgar/Documents/Edgar School/Fall 2019/Lab 3-1/OJ-subject-4.csv,legacy,7 1 3,Kafkaesque Koffka,3.2.8,2,y,0,left,space,space,left,NA,478,61235,68899,478,NA,2,legacy,3,1024,2,48000,-16,experiment,4,even,1,396124,392527,393901,5984,218140,393909,367954,6003,149237,398131,398612,394917,67242,398131,NA,Sternberg task,38,28622,41,yes,1024
92.85714286,92.85714286,693,693,black,experiment,legacy,legacy,legacy,0,uniform,1,undefined,1,left,41,41,41,0,0,41,41,0,0,41,41,41,0,41,0,10/25/19 19:13,The main experiment item,yes,Sternbergtask.osexp,C:\Users\Edgar\Documents\Edgar School\Fall 2019\Lab 3-1,no,mono,no,18,no,white,no,yes,768,legacy,29,11,C:/Users/Edgar/Documents/Edgar School/Fall 2019/Lab 3-1/OJ-subject-4.csv,legacy,9 5 3 8 4,Kafkaesque Koffka,3.2.8,1,y,0,left,space,space,left,NA,484,61235,68899,484,NA,2,legacy,5,1024,2,48000,-16,experiment,4,even,9,402267,398672,400045,5984,218140,400053,367954,6003,149237,404275,404762,401058,67242,404274,NA,Sternberg task,39,29106,42,yes,1024
93.02325581,93.02325581,688.1395349,688.1395349,black,experiment,legacy,legacy,legacy,0,uniform,1,undefined,1,right,42,42,42,0,0,42,42,0,0,42,42,42,0,42,0,10/25/19 19:13,The main experiment item,yes,Sternbergtask.osexp,C:\Users\Edgar\Documents\Edgar School\Fall 2019\Lab 3-1,no,mono,no,18,no,white,no,yes,768,legacy,30,11,C:/Users/Edgar/Documents/Edgar School/Fall 2019/Lab 3-1/OJ-subject-4.csv,legacy,2 6 4 3 9,Kafkaesque Koffka,3.2.8,0,n,0,right,space,space,right,NA,484,61235,68899,484,NA,2,legacy,5,1024,2,48000,-16,experiment,4,even,1,408417,404830,406196,5984,218140,406204,367954,6003,149237,410425,410912,407210,67242,410425,NA,Sternberg task,40,29590,43,yes,1024
93.18181818,93.18181818,683.9318182,683.9318182,black,experiment,legacy,legacy,legacy,0,uniform,1,undefined,1,left,43,43,43,0,0,43,43,0,0,43,43,43,0,43,0,10/25/19 19:13,The main experiment item,yes,Sternbergtask.osexp,C:\Users\Edgar\Documents\Edgar School\Fall 2019\Lab 3-1,no,mono,no,18,no,white,no,yes,768,legacy,31,11,C:/Users/Edgar/Documents/Edgar School/Fall 2019/Lab 3-1/OJ-subject-4.csv,legacy,4 6 5 8,Kafkaesque Koffka,3.2.8,1,y,0,left,space,space,left,NA,503,61235,68899,503,NA,2,legacy,4,1024,2,48000,-16,experiment,4,even,4,414543,410954,412323,5984,218140,412330,367954,6003,149237,416550,417057,413336,67242,416550,NA,Sternberg task,41,30093,44,yes,1024
91.11111111,91.11111111,681.0222222,681.0222222,black,experiment,legacy,legacy,legacy,0,uniform,0,undefined,0,left,44,44,44,0,0,44,44,0,0,44,44,44,0,44,0,10/25/19 19:13,The main experiment item,yes,Sternbergtask.osexp,C:\Users\Edgar\Documents\Edgar School\Fall 2019\Lab 3-1,no,mono,no,18,no,white,no,yes,768,legacy,32,11,C:/Users/Edgar/Documents/Edgar School/Fall 2019/Lab 3-1/OJ-subject-4.csv,legacy,6 7 9 3 1 2,Kafkaesque Koffka,3.2.8,1,y,0,right,space,space,right,NA,553,61235,68899,553,NA,2,legacy,6,1024,2,48000,-16,experiment,4,even,6,420688,417116,418468,5984,218140,418476,367954,6003,149237,422695,423252,419482,67242,422694,NA,Sternberg task,41,30646,45,yes,1024
91.30434783,91.30434783,680.9782609,680.9782609,black,experiment,legacy,legacy,legacy,0,uniform,1,undefined,1,left,45,45,45,0,0,45,45,0,0,45,45,45,0,45,0,10/25/19 19:13,The main experiment item,yes,Sternbergtask.osexp,C:\Users\Edgar\Documents\Edgar School\Fall 2019\Lab 3-1,no,mono,no,18,no,white,no,yes,768,legacy,33,11,C:/Users/Edgar/Documents/Edgar School/Fall 2019/Lab 3-1/OJ-subject-4.csv,legacy,8 9 5 6 7,Kafkaesque Koffka,3.2.8,1,y,0,left,space,space,left,NA,679,61235,68899,679,NA,2,legacy,5,1024,2,48000,-16,experiment,4,even,8,426914,417116,424692,5984,218140,424700,423317,6003,149237,428921,429604,425706,67242,428921,NA,Sternberg task,42,31325,46,yes,1024
89.36170213,89.36170213,679.7021277,679.7021277,black,experiment,legacy,legacy,legacy,0,uniform,0,undefined,0,left,46,46,46,0,0,46,46,0,0,46,46,46,0,46,0,10/25/19 19:13,The main experiment item,yes,Sternbergtask.osexp,C:\Users\Edgar\Documents\Edgar School\Fall 2019\Lab 3-1,no,mono,no,18,no,white,no,yes,768,legacy,34,11,C:/Users/Edgar/Documents/Edgar School/Fall 2019/Lab 3-1/OJ-subject-4.csv,legacy,4 7 6 8 2 3,Kafkaesque Koffka,3.2.8,6,y,0,right,space,space,right,NA,621,61235,68899,621,NA,2,legacy,6,1024,2,48000,-16,experiment,4,even,3,433247,429659,431028,5984,218140,431035,423317,6003,149237,435255,435881,432041,67242,435254,NA,Sternberg task,42,31946,47,yes,1024
89.58333333,89.58333333,678.2291667,678.2291667,black,experiment,legacy,legacy,legacy,0,uniform,1,undefined,1,right,47,47,47,0,0,47,47,0,0,47,47,47,0,47,0,10/25/19 19:13,The main experiment item,yes,Sternbergtask.osexp,C:\Users\Edgar\Documents\Edgar School\Fall 2019\Lab 3-1,no,mono,no,18,no,white,no,yes,768,legacy,35,11,C:/Users/Edgar/Documents/Edgar School/Fall 2019/Lab 3-1/OJ-subject-4.csv,legacy,4 2 7 6 1 3,Kafkaesque Koffka,3.2.8,0,n,0,right,space,space,right,NA,609,61235,68899,609,NA,2,legacy,6,1024,2,48000,-16,experiment,4,even,8,439539,429659,437299,5984,218140,437308,435943,6003,149237,441546,442158,438315,67242,441546,NA,Sternberg task,43,32555,48,yes,1024
89.79591837,89.79591837,682.3061224,682.3061224,black,experiment,legacy,legacy,legacy,0,uniform,1,undefined,1,right,48,48,48,0,0,48,48,0,0,48,48,48,0,48,0,10/25/19 19:13,The main experiment item,yes,Sternbergtask.osexp,C:\Users\Edgar\Documents\Edgar School\Fall 2019\Lab 3-1,no,mono,no,18,no,white,no,yes,768,legacy,36,11,C:/Users/Edgar/Documents/Edgar School/Fall 2019/Lab 3-1/OJ-subject-4.csv,legacy,2 5 1 4,Kafkaesque Koffka,3.2.8,0,n,0,right,space,space,right,NA,878,61235,68899,878,NA,2,legacy,4,1024,2,48000,-16,experiment,4,even,6,445794,442223,443574,5984,218140,443582,435943,6003,149237,447802,448684,444589,67242,447801,NA,Sternberg task,44,33433,49,yes,1024
90,90,682.08,682.08,black,experiment,legacy,legacy,legacy,0,uniform,1,undefined,1,left,49,49,49,0,0,49,49,0,0,49,49,49,0,49,0,10/25/19 19:13,The main experiment item,yes,Sternbergtask.osexp,C:\Users\Edgar\Documents\Edgar School\Fall 2019\Lab 3-1,no,mono,no,18,no,white,no,yes,768,legacy,37,11,C:/Users/Edgar/Documents/Edgar School/Fall 2019/Lab 3-1/OJ-subject-4.csv,legacy,6 5,Kafkaesque Koffka,3.2.8,2,y,0,left,space,space,left,NA,671,61235,68899,671,NA,2,legacy,2,1024,2,48000,-16,experiment,4,even,5,452327,448730,450106,5984,218140,450113,435943,6003,149237,454334,455009,451121,67242,454334,NA,Sternberg task,45,34104,50,yes,1024
90.19607843,90.19607843,679.627451,679.627451,black,experiment,legacy,legacy,legacy,0,uniform,1,undefined,1,left,50,50,50,0,0,50,50,0,0,50,50,50,0,50,0,10/25/19 19:13,The main experiment item,yes,Sternbergtask.osexp,C:\Users\Edgar\Documents\Edgar School\Fall 2019\Lab 3-1,no,mono,no,18,no,white,no,yes,768,legacy,38,11,C:/Users/Edgar/Documents/Edgar School/Fall 2019/Lab 3-1/OJ-subject-4.csv,legacy,2 5 4 8 7,Kafkaesque Koffka,3.2.8,3,y,0,left,space,space,left,NA,557,61235,68899,557,NA,2,legacy,5,1024,2,48000,-16,experiment,4,even,4,458640,455071,456419,5984,218140,456426,435943,6003,149237,460647,461207,457433,67242,460646,NA,Sternberg task,46,34661,51,yes,1024
88.46153846,88.46153846,679.8461538,679.8461538,black,experiment,legacy,legacy,legacy,0,uniform,0,undefined,0,right,51,51,51,0,0,51,51,0,0,51,51,51,0,51,0,10/25/19 19:13,The main experiment item,yes,Sternbergtask.osexp,C:\Users\Edgar\Documents\Edgar School\Fall 2019\Lab 3-1,no,mono,no,18,no,white,no,yes,768,legacy,39,11,C:/Users/Edgar/Documents/Edgar School/Fall 2019/Lab 3-1/OJ-subject-4.csv,legacy,1 4 3 6 5,Kafkaesque Koffka,3.2.8,0,n,0,left,space,space,left,NA,691,61235,68899,691,NA,2,legacy,5,1024,2,48000,-16,experiment,4,even,8,465594,461984,463372,5984,218140,463381,435943,6003,149237,467601,468296,464387,67242,467600,NA,Sternberg task,46,35352,52,yes,1024
88.67924528,88.67924528,678.490566,678.490566,black,experiment,legacy,legacy,legacy,0,uniform,1,undefined,1,left,52,52,52,0,0,52,52,0,0,52,52,52,0,52,0,10/25/19 19:13,The main experiment item,yes,Sternbergtask.osexp,C:\Users\Edgar\Documents\Edgar School\Fall 2019\Lab 3-1,no,mono,no,18,no,white,no,yes,768,legacy,40,11,C:/Users/Edgar/Documents/Edgar School/Fall 2019/Lab 3-1/OJ-subject-4.csv,legacy,3 5 9 6 2 4,Kafkaesque Koffka,3.2.8,1,y,0,left,space,space,left,NA,608,61235,68899,608,NA,2,legacy,6,1024,2,48000,-16,experiment,4,even,3,471933,461984,469710,5984,218140,469717,468351,6003,149237,473940,474553,470725,67242,473940,NA,Sternberg task,47,35960,53,yes,1024
88.88888889,88.88888889,680.6851852,680.6851852,black,experiment,legacy,legacy,legacy,0,uniform,1,undefined,1,left,53,53,53,0,0,53,53,0,0,53,53,53,0,53,0,10/25/19 19:13,The main experiment item,yes,Sternbergtask.osexp,C:\Users\Edgar\Documents\Edgar School\Fall 2019\Lab 3-1,no,mono,no,18,no,white,no,yes,768,legacy,41,11,C:/Users/Edgar/Documents/Edgar School/Fall 2019/Lab 3-1/OJ-subject-4.csv,legacy,6 9 7 4 5 1,Kafkaesque Koffka,3.2.8,2,y,0,left,space,space,left,NA,797,61235,68899,797,NA,2,legacy,6,1024,2,48000,-16,experiment,4,even,9,478214,474617,475984,5984,218140,475997,468351,6003,149237,480222,481028,477005,67242,480221,NA,Sternberg task,48,36757,54,yes,1024
89.09090909,89.09090909,678.7454545,678.7454545,black,experiment,legacy,legacy,legacy,0,uniform,1,undefined,1,left,54,54,54,0,0,54,54,0,0,54,54,54,0,54,0,10/25/19 19:13,The main experiment item,yes,Sternbergtask.osexp,C:\Users\Edgar\Documents\Edgar School\Fall 2019\Lab 3-1,no,mono,no,18,no,white,no,yes,768,legacy,42,11,C:/Users/Edgar/Documents/Edgar School/Fall 2019/Lab 3-1/OJ-subject-4.csv,legacy,7 2 3,Kafkaesque Koffka,3.2.8,3,y,0,left,space,space,left,NA,574,61235,68899,574,NA,2,legacy,3,1024,2,48000,-16,experiment,4,even,3,484744,481076,482523,5984,218140,482532,468351,6003,149237,486763,487343,483538,67242,486763,NA,Sternberg task,49,37331,55,yes,1024
89.28571429,89.28571429,679.6607143,679.6607143,black,experiment,legacy,legacy,legacy,0,uniform,1,undefined,1,left,55,55,55,0,0,55,55,0,0,55,55,55,0,55,0,10/25/19 19:13,The main experiment item,yes,Sternbergtask.osexp,C:\Users\Edgar\Documents\Edgar School\Fall 2019\Lab 3-1,no,mono,no,18,no,white,no,yes,768,legacy,43,11,C:/Users/Edgar/Documents/Edgar School/Fall 2019/Lab 3-1/OJ-subject-4.csv,legacy,9 4 2,Kafkaesque Koffka,3.2.8,1,y,0,left,space,space,left,NA,730,61235,68899,730,NA,2,legacy,3,1024,2,48000,-16,experiment,4,even,9,491069,487400,488846,5984,218140,488854,468351,6003,149237,493076,493811,489860,67242,493076,NA,Sternberg task,50,38061,56,yes,1024
89.47368421,89.47368421,679.2105263,679.2105263,black,experiment,legacy,legacy,legacy,0,uniform,1,undefined,1,right,56,56,56,0,0,56,56,0,0,56,56,56,0,56,0,10/25/19 19:13,The main experiment item,yes,Sternbergtask.osexp,C:\Users\Edgar\Documents\Edgar School\Fall 2019\Lab 3-1,no,mono,no,18,no,white,no,yes,768,legacy,44,11,C:/Users/Edgar/Documents/Edgar School/Fall 2019/Lab 3-1/OJ-subject-4.csv,legacy,4 8 1 2,Kafkaesque Koffka,3.2.8,0,n,0,right,space,space,right,NA,654,61235,68899,654,NA,2,legacy,4,1024,2,48000,-16,experiment,4,even,7,497517,493842,495294,5984,218140,495301,468351,6003,149237,499524,500183,496309,67242,499523,NA,Sternberg task,51,38715,57,yes,1024
89.65517241,89.65517241,676.6206897,676.6206897,black,experiment,legacy,legacy,legacy,0,uniform,1,undefined,1,left,57,57,57,0,0,57,57,0,0,57,57,57,0,57,0,10/25/19 19:13,The main experiment item,yes,Sternbergtask.osexp,C:\Users\Edgar\Documents\Edgar School\Fall 2019\Lab 3-1,no,mono,no,18,no,white,no,yes,768,legacy,45,11,C:/Users/Edgar/Documents/Edgar School/Fall 2019/Lab 3-1/OJ-subject-4.csv,legacy,5 7 8 2 3 8,Kafkaesque Koffka,3.2.8,5,y,0,left,space,space,left,NA,529,61235,68899,529,NA,2,legacy,6,1024,2,48000,-16,experiment,4,even,3,503920,500294,501697,5984,218140,501705,468351,6003,149237,505926,506460,502713,67242,505925,NA,Sternberg task,52,39244,58,yes,1024
89.83050847,89.83050847,674.0847458,674.0847458,black,experiment,legacy,legacy,legacy,0,uniform,1,undefined,1,left,58,58,58,0,0,58,58,0,0,58,58,58,0,58,0,10/25/19 19:13,The main experiment item,yes,Sternbergtask.osexp,C:\Users\Edgar\Documents\Edgar School\Fall 2019\Lab 3-1,no,mono,no,18,no,white,no,yes,768,legacy,46,11,C:/Users/Edgar/Documents/Edgar School/Fall 2019/Lab 3-1/OJ-subject-4.csv,legacy,8 5 3 7 4 6,Kafkaesque Koffka,3.2.8,6,y,0,left,space,space,left,NA,527,61235,68899,527,NA,2,legacy,6,1024,2,48000,-16,experiment,4,even,6,510101,506493,507880,5984,218140,507887,468351,6003,149237,512108,512640,508895,67242,512108,NA,Sternberg task,53,39771,59,yes,1024
90,90,673.9333333,673.9333333,black,experiment,legacy,legacy,legacy,0,uniform,1,undefined,1,left,59,59,59,0,0,59,59,0,0,59,59,59,0,59,0,10/25/19 19:13,The main experiment item,yes,Sternbergtask.osexp,C:\Users\Edgar\Documents\Edgar School\Fall 2019\Lab 3-1,no,mono,no,18,no,white,no,yes,768,legacy,47,11,C:/Users/Edgar/Documents/Edgar School/Fall 2019/Lab 3-1/OJ-subject-4.csv,legacy,8 1 6,Kafkaesque Koffka,3.2.8,3,y,0,left,space,space,left,NA,665,61235,68899,665,NA,2,legacy,3,1024,2,48000,-16,experiment,4,even,6,516292,512682,514068,5984,218140,514078,468351,6003,149237,518297,518967,515084,67242,518297,NA,Sternberg task,54,40436,60,yes,1024
90.16393443,90.16393443,671.9508197,671.9508197,black,experiment,legacy,legacy,legacy,0,uniform,1,undefined,1,left,60,60,60,0,0,60,60,0,0,60,60,60,0,60,0,10/25/19 19:13,The main experiment item,yes,Sternbergtask.osexp,C:\Users\Edgar\Documents\Edgar School\Fall 2019\Lab 3-1,no,mono,no,18,no,white,no,yes,768,legacy,48,11,C:/Users/Edgar/Documents/Edgar School/Fall 2019/Lab 3-1/OJ-subject-4.csv,legacy,6 8 9 3 4 9,Kafkaesque Koffka,3.2.8,5,y,0,left,space,space,left,NA,553,61235,68899,553,NA,2,legacy,6,1024,2,48000,-16,experiment,4,even,4,522601,519007,520381,5984,218140,520388,468351,6003,149237,524608,525165,521394,67242,524607,NA,Sternberg task,55,40989,61,yes,1024
90.32258065,90.32258065,672.6451613,672.6451613,black,experiment,legacy,legacy,legacy,0,uniform,1,undefined,1,right,61,61,61,0,0,61,61,0,0,61,61,61,0,61,0,10/25/19 19:13,The main experiment item,yes,Sternbergtask.osexp,C:\Users\Edgar\Documents\Edgar School\Fall 2019\Lab 3-1,no,mono,no,18,no,white,no,yes,768,legacy,49,11,C:/Users/Edgar/Documents/Edgar School/Fall 2019/Lab 3-1/OJ-subject-4.csv,legacy,5 9 2 3,Kafkaesque Koffka,3.2.8,0,n,0,right,space,space,right,NA,715,61235,68899,715,NA,2,legacy,4,1024,2,48000,-16,experiment,4,even,8,528808,525232,526588,5984,218140,526595,468351,6003,149237,530815,531534,527601,67242,530815,NA,Sternberg task,56,41704,62,yes,1024
90.47619048,90.47619048,673.7460317,673.7460317,black,experiment,legacy,legacy,legacy,0,uniform,1,undefined,1,right,62,62,62,0,0,62,62,0,0,62,62,62,0,62,0,10/25/19 19:13,The main experiment item,yes,Sternbergtask.osexp,C:\Users\Edgar\Documents\Edgar School\Fall 2019\Lab 3-1,no,mono,no,18,no,white,no,yes,768,legacy,50,11,C:/Users/Edgar/Documents/Edgar School/Fall 2019/Lab 3-1/OJ-subject-4.csv,legacy,6 7 5 9,Kafkaesque Koffka,3.2.8,0,n,0,right,space,space,right,NA,742,61235,68899,742,NA,2,legacy,4,1024,2,48000,-16,experiment,4,even,2,535156,531574,532936,5984,218140,532943,468351,6003,149237,537163,537911,533949,67242,537162,NA,Sternberg task,57,42446,63,yes,1024
90.625,90.625,671.640625,671.640625,black,experiment,legacy,legacy,legacy,0,uniform,1,undefined,1,left,63,63,63,0,0,63,63,0,0,63,63,63,0,63,0,10/25/19 19:13,The main experiment item,yes,Sternbergtask.osexp,C:\Users\Edgar\Documents\Edgar School\Fall 2019\Lab 3-1,no,mono,no,18,no,white,no,yes,768,legacy,51,11,C:/Users/Edgar/Documents/Edgar School/Fall 2019/Lab 3-1/OJ-subject-4.csv,legacy,3 9 6 2,Kafkaesque Koffka,3.2.8,4,y,0,left,space,space,left,NA,539,61235,68899,539,NA,2,legacy,4,1024,2,48000,-16,experiment,4,even,2,541566,537941,539344,5984,218140,539352,468351,6003,149237,543573,544117,540358,67242,543573,NA,Sternberg task,58,42985,64,yes,1024
89.23076923,89.23076923,668.5230769,668.5230769,black,experiment,legacy,legacy,legacy,0,uniform,0,undefined,0,right,64,64,64,0,0,64,64,0,0,64,64,64,0,64,0,10/25/19 19:13,The main experiment item,yes,Sternbergtask.osexp,C:\Users\Edgar\Documents\Edgar School\Fall 2019\Lab 3-1,no,mono,no,18,no,white,no,yes,768,legacy,52,11,C:/Users/Edgar/Documents/Edgar School/Fall 2019/Lab 3-1/OJ-subject-4.csv,legacy,3 4 9 6 7 8,Kafkaesque Koffka,3.2.8,0,n,0,left,space,space,left,NA,469,61235,68899,469,NA,2,legacy,6,1024,2,48000,-16,experiment,4,even,2,547819,544168,545595,5984,218140,545603,468351,6003,149237,549827,550302,546612,67242,549827,NA,Sternberg task,58,43454,65,yes,1024
89.39393939,89.39393939,670.1212121,670.1212121,black,experiment,legacy,legacy,legacy,0,uniform,1,undefined,1,right,65,65,65,0,0,65,65,0,0,65,65,65,0,65,0,10/25/19 19:13,The main experiment item,yes,Sternbergtask.osexp,C:\Users\Edgar\Documents\Edgar School\Fall 2019\Lab 3-1,no,mono,no,18,no,white,no,yes,768,legacy,53,11,C:/Users/Edgar/Documents/Edgar School/Fall 2019/Lab 3-1/OJ-subject-4.csv,legacy,2 8 9 4 1,Kafkaesque Koffka,3.2.8,0,n,0,right,space,space,right,NA,774,61235,68899,774,NA,2,legacy,5,1024,2,48000,-16,experiment,4,even,5,554009,544168,551785,5984,218140,551793,550361,6003,149237,556015,556794,552801,67242,556015,NA,Sternberg task,59,44228,66,yes,1024
89.55223881,89.55223881,668.7164179,668.7164179,black,experiment,legacy,legacy,legacy,0,uniform,1,undefined,1,right,66,66,66,0,0,66,66,0,0,66,66,66,0,66,0,10/25/19 19:13,The main experiment item,yes,Sternbergtask.osexp,C:\Users\Edgar\Documents\Edgar School\Fall 2019\Lab 3-1,no,mono,no,18,no,white,no,yes,768,legacy,54,11,C:/Users/Edgar/Documents/Edgar School/Fall 2019/Lab 3-1/OJ-subject-4.csv,legacy,1 6 4,Kafkaesque Koffka,3.2.8,0,n,0,right,space,space,right,NA,576,61235,68899,576,NA,2,legacy,3,1024,2,48000,-16,experiment,4,even,7,560511,556886,558289,5984,218140,558297,550361,6003,149237,562520,563102,559304,67242,562519,NA,Sternberg task,60,44804,67,yes,1024
89.70588235,89.70588235,670.0588235,670.0588235,black,experiment,legacy,legacy,legacy,0,uniform,1,undefined,1,right,67,67,67,0,0,67,67,0,0,67,67,67,0,67,0,10/25/19 19:13,The main experiment item,yes,Sternbergtask.osexp,C:\Users\Edgar\Documents\Edgar School\Fall 2019\Lab 3-1,no,mono,no,18,no,white,no,yes,768,legacy,55,11,C:/Users/Edgar/Documents/Edgar School/Fall 2019/Lab 3-1/OJ-subject-4.csv,legacy,7 9 1 6,Kafkaesque Koffka,3.2.8,0,n,0,right,space,space,right,NA,760,61235,68899,760,NA,2,legacy,4,1024,2,48000,-16,experiment,4,even,4,566829,563171,564605,5984,218140,564613,550361,6003,149237,568838,569604,565620,67242,568837,NA,Sternberg task,61,45564,68,yes,1024
89.85507246,89.85507246,668.7536232,668.7536232,black,experiment,legacy,legacy,legacy,0,uniform,1,undefined,1,right,68,68,68,0,0,68,68,0,0,68,68,68,0,68,0,10/25/19 19:13,The main experiment item,yes,Sternbergtask.osexp,C:\Users\Edgar\Documents\Edgar School\Fall 2019\Lab 3-1,no,mono,no,18,no,white,no,yes,768,legacy,56,11,C:/Users/Edgar/Documents/Edgar School/Fall 2019/Lab 3-1/OJ-subject-4.csv,legacy,1 4 9 3,Kafkaesque Koffka,3.2.8,0,n,0,right,space,space,right,NA,580,61235,68899,580,NA,2,legacy,4,1024,2,48000,-16,experiment,4,even,5,573293,569638,571072,5984,218140,571079,550361,6003,149237,575301,575887,572086,67242,575301,NA,Sternberg task,62,46144,69,yes,1024
90,90,667.2142857,667.2142857,black,experiment,legacy,legacy,legacy,0,uniform,1,undefined,1,right,69,69,69,0,0,69,69,0,0,69,69,69,0,69,0,10/25/19 19:13,The main experiment item,yes,Sternbergtask.osexp,C:\Users\Edgar\Documents\Edgar School\Fall 2019\Lab 3-1,no,mono,no,18,no,white,no,yes,768,legacy,57,11,C:/Users/Edgar/Documents/Edgar School/Fall 2019/Lab 3-1/OJ-subject-4.csv,legacy,1 6 4 3 9 7,Kafkaesque Koffka,3.2.8,0,n,0,right,space,space,right,NA,561,61235,68899,561,NA,2,legacy,6,1024,2,48000,-16,experiment,4,even,8,579531,575917,577308,5984,218140,577317,550361,6003,149237,581538,582104,578324,67242,581538,NA,Sternberg task,63,46705,70,yes,1024
90.14084507,90.14084507,671.9577465,671.9577465,black,experiment,legacy,legacy,legacy,0,uniform,1,undefined,1,left,70,70,70,0,0,70,70,0,0,70,70,70,0,70,0,10/25/19 19:13,The main experiment item,yes,Sternbergtask.osexp,C:\Users\Edgar\Documents\Edgar School\Fall 2019\Lab 3-1,no,mono,no,18,no,white,no,yes,768,legacy,58,11,C:/Users/Edgar/Documents/Edgar School/Fall 2019/Lab 3-1/OJ-subject-4.csv,legacy,8,Kafkaesque Koffka,3.2.8,1,y,0,left,space,space,left,NA,1004,61235,68899,1004,NA,2,legacy,1,1024,2,48000,-16,experiment,4,even,8,585781,582155,583559,5984,218140,583566,550361,6003,149237,587790,588800,584574,67242,587790,NA,Sternberg task,64,47709,71,yes,1024
90.27777778,90.27777778,670.3333333,670.3333333,black,experiment,legacy,legacy,legacy,0,uniform,1,undefined,1,right,71,71,71,0,0,71,71,0,0,71,71,71,0,71,0,10/25/19 19:13,The main experiment item,yes,Sternbergtask.osexp,C:\Users\Edgar\Documents\Edgar School\Fall 2019\Lab 3-1,no,mono,no,18,no,white,no,yes,768,legacy,59,11,C:/Users/Edgar/Documents/Edgar School/Fall 2019/Lab 3-1/OJ-subject-4.csv,legacy,9 8 2 7 4,Kafkaesque Koffka,3.2.8,0,n,0,right,space,space,right,NA,555,61235,68899,555,NA,2,legacy,5,1024,2,48000,-16,experiment,4,even,5,592863,589228,590637,5984,218140,590647,550361,6003,149237,594869,595429,591655,67242,594869,NA,Sternberg task,65,48264,72,yes,1024
89.04109589,89.04109589,670.9726027,670.9726027,black,experiment,legacy,legacy,legacy,0,uniform,0,undefined,0,right,72,72,72,0,0,72,72,0,0,72,72,72,0,72,0,10/25/19 19:13,The main experiment item,yes,Sternbergtask.osexp,C:\Users\Edgar\Documents\Edgar School\Fall 2019\Lab 3-1,no,mono,no,18,no,white,no,yes,768,legacy,60,11,C:/Users/Edgar/Documents/Edgar School/Fall 2019/Lab 3-1/OJ-subject-4.csv,legacy,9 7 4 5 8,Kafkaesque Koffka,3.2.8,0,n,0,left,space,space,left,NA,717,61235,68899,717,NA,2,legacy,5,1024,2,48000,-16,experiment,4,even,6,599098,595481,596877,5984,218140,596885,550361,6003,149237,601104,601824,597891,67242,601104,NA,Sternberg task,65,48981,73,yes,1024
89.18918919,89.18918919,668.2702703,668.2702703,black,experiment,legacy,legacy,legacy,0,uniform,1,undefined,1,right,73,73,73,0,0,73,73,0,0,73,73,73,0,73,0,10/25/19 19:13,The main experiment item,yes,Sternbergtask.osexp,C:\Users\Edgar\Documents\Edgar School\Fall 2019\Lab 3-1,no,mono,no,18,no,white,no,yes,768,legacy,61,11,C:/Users/Edgar/Documents/Edgar School/Fall 2019/Lab 3-1/OJ-subject-4.csv,legacy,1,Kafkaesque Koffka,3.2.8,0,n,0,right,space,space,right,NA,471,61235,68899,471,NA,2,legacy,1,1024,2,48000,-16,experiment,4,even,7,605513,595481,603291,5984,218140,603300,601881,6003,149237,607523,608000,604307,67242,607522,NA,Sternberg task,66,49452,74,yes,1024
89.33333333,89.33333333,666.4533333,666.4533333,black,experiment,legacy,legacy,legacy,0,uniform,1,undefined,1,left,74,74,74,0,0,74,74,0,0,74,74,74,0,74,0,10/25/19 19:13,The main experiment item,yes,Sternbergtask.osexp,C:\Users\Edgar\Documents\Edgar School\Fall 2019\Lab 3-1,no,mono,no,18,no,white,no,yes,768,legacy,62,11,C:/Users/Edgar/Documents/Edgar School/Fall 2019/Lab 3-1/OJ-subject-4.csv,legacy,8 9 5 7 1 6,Kafkaesque Koffka,3.2.8,4,y,0,left,space,space,left,NA,532,61235,68899,532,NA,2,legacy,6,1024,2,48000,-16,experiment,4,even,7,611728,608073,609505,5984,218140,609513,601881,6003,149237,613734,614272,610521,67242,613734,NA,Sternberg task,67,49984,75,yes,1024
89.47368421,89.47368421,664.2368421,664.2368421,black,experiment,legacy,legacy,legacy,0,uniform,1,undefined,1,right,75,75,75,0,0,75,75,0,0,75,75,75,0,75,0,10/25/19 19:13,The main experiment item,yes,Sternbergtask.osexp,C:\Users\Edgar\Documents\Edgar School\Fall 2019\Lab 3-1,no,mono,no,18,no,white,no,yes,768,legacy,63,11,C:/Users/Edgar/Documents/Edgar School/Fall 2019/Lab 3-1/OJ-subject-4.csv,legacy,6 9 7 3 8 2,Kafkaesque Koffka,3.2.8,0,n,0,right,space,space,right,NA,498,61235,68899,498,NA,2,legacy,6,1024,2,48000,-16,experiment,4,even,5,617954,614308,615729,5984,218140,615738,601881,6003,149237,619963,620467,616746,67242,619962,NA,Sternberg task,68,50482,76,yes,1024
88.31168831,88.31168831,665.3636364,665.3636364,black,experiment,legacy,legacy,legacy,0,uniform,0,undefined,0,right,76,76,76,0,0,76,76,0,0,76,76,76,0,76,0,10/25/19 19:13,The main experiment item,yes,Sternbergtask.osexp,C:\Users\Edgar\Documents\Edgar School\Fall 2019\Lab 3-1,no,mono,no,18,no,white,no,yes,768,legacy,64,11,C:/Users/Edgar/Documents/Edgar School/Fall 2019/Lab 3-1/OJ-subject-4.csv,legacy,7 1 8 4 9 3,Kafkaesque Koffka,3.2.8,0,n,0,left,space,space,left,NA,751,61235,68899,751,NA,2,legacy,6,1024,2,48000,-16,experiment,4,even,6,624112,620520,621888,5984,218140,621897,601881,6003,149237,626118,626875,622905,67242,626118,NA,Sternberg task,68,51233,77,yes,1024
88.46153846,88.46153846,665.0128205,665.0128205,black,experiment,legacy,legacy,legacy,0,uniform,1,undefined,1,left,77,77,77,0,0,77,77,0,0,77,77,77,0,77,0,10/25/19 19:13,The main experiment item,yes,Sternbergtask.osexp,C:\Users\Edgar\Documents\Edgar School\Fall 2019\Lab 3-1,no,mono,no,18,no,white,no,yes,768,legacy,65,11,C:/Users/Edgar/Documents/Edgar School/Fall 2019/Lab 3-1/OJ-subject-4.csv,legacy,3 9 7 6 4,Kafkaesque Koffka,3.2.8,3,y,0,left,space,space,left,NA,638,61235,68899,638,NA,2,legacy,5,1024,2,48000,-16,experiment,4,even,7,630626,620520,628404,5984,218140,628412,627001,6003,149237,632633,633276,629418,67242,632633,NA,Sternberg task,69,51871,78,yes,1024
87.34177215,87.34177215,664.2278481,664.2278481,black,experiment,legacy,legacy,legacy,0,uniform,0,undefined,0,right,78,78,78,0,0,78,78,0,0,78,78,78,0,78,0,10/25/19 19:13,The main experiment item,yes,Sternbergtask.osexp,C:\Users\Edgar\Documents\Edgar School\Fall 2019\Lab 3-1,no,mono,no,18,no,white,no,yes,768,legacy,66,11,C:/Users/Edgar/Documents/Edgar School/Fall 2019/Lab 3-1/OJ-subject-4.csv,legacy,5 3 8 7 2 4,Kafkaesque Koffka,3.2.8,0,n,0,left,space,space,left,NA,603,61235,68899,603,NA,2,legacy,6,1024,2,48000,-16,experiment,4,even,9,636993,633357,634770,5984,218140,634778,627001,6003,149237,639003,639612,635786,67242,639002,NA,Sternberg task,69,52474,79,yes,1024
87.5,87.5,661.6375,661.6375,black,experiment,legacy,legacy,legacy,0,uniform,1,undefined,1,left,79,79,79,0,0,79,79,0,0,79,79,79,0,79,0,10/25/19 19:13,The main experiment item,yes,Sternbergtask.osexp,C:\Users\Edgar\Documents\Edgar School\Fall 2019\Lab 3-1,no,mono,no,18,no,white,no,yes,768,legacy,67,11,C:/Users/Edgar/Documents/Edgar School/Fall 2019/Lab 3-1/OJ-subject-4.csv,legacy,3 5 7 1,Kafkaesque Koffka,3.2.8,3,y,0,left,space,space,left,NA,457,61235,68899,457,NA,2,legacy,4,1024,2,48000,-16,experiment,4,even,7,643255,633357,641033,5984,218140,641039,639664,6003,149237,645264,645727,642047,67242,645264,NA,Sternberg task,70,52931,80,yes,1024
86.41975309,86.41975309,660.9135802,660.9135802,black,experiment,legacy,legacy,legacy,0,uniform,0,undefined,0,right,80,80,80,0,0,80,80,0,0,80,80,80,0,80,0,10/25/19 19:13,The main experiment item,yes,Sternbergtask.osexp,C:\Users\Edgar\Documents\Edgar School\Fall 2019\Lab 3-1,no,mono,no,18,no,white,no,yes,768,legacy,68,11,C:/Users/Edgar/Documents/Edgar School/Fall 2019/Lab 3-1/OJ-subject-4.csv,legacy,7 3 2 8,Kafkaesque Koffka,3.2.8,0,n,0,left,space,space,left,NA,603,61235,68899,603,NA,2,legacy,4,1024,2,48000,-16,experiment,4,even,4,649584,645970,647364,5984,218140,647371,639664,6003,149237,651592,652200,648377,67242,651592,NA,Sternberg task,70,53534,81,yes,1024
86.58536585,86.58536585,659.8780488,659.8780488,black,experiment,legacy,legacy,legacy,0,uniform,1,undefined,1,left,81,81,81,0,0,81,81,0,0,81,81,81,0,81,0,10/25/19 19:13,The main experiment item,yes,Sternbergtask.osexp,C:\Users\Edgar\Documents\Edgar School\Fall 2019\Lab 3-1,no,mono,no,18,no,white,no,yes,768,legacy,69,11,C:/Users/Edgar/Documents/Edgar School/Fall 2019/Lab 3-1/OJ-subject-4.csv,legacy,1 4 9 3 2 5,Kafkaesque Koffka,3.2.8,3,y,0,left,space,space,left,NA,576,61235,68899,576,NA,2,legacy,6,1024,2,48000,-16,experiment,4,even,9,655845,645970,653624,5984,218140,653631,652254,6003,149237,657852,658435,654637,67242,657852,NA,Sternberg task,71,54110,82,yes,1024
86.74698795,86.74698795,660.4096386,660.4096386,black,experiment,legacy,legacy,legacy,0,uniform,1,undefined,1,left,82,82,82,0,0,82,82,0,0,82,82,82,0,82,0,10/25/19 19:13,The main experiment item,yes,Sternbergtask.osexp,C:\Users\Edgar\Documents\Edgar School\Fall 2019\Lab 3-1,no,mono,no,18,no,white,no,yes,768,legacy,70,11,C:/Users/Edgar/Documents/Edgar School/Fall 2019/Lab 3-1/OJ-subject-4.csv,legacy,8 9 6 1,Kafkaesque Koffka,3.2.8,2,y,0,left,space,space,left,NA,704,61235,68899,704,NA,2,legacy,4,1024,2,48000,-16,experiment,4,even,9,662606,658980,660386,5984,218140,660394,652254,6003,149237,664612,665323,661400,67242,664612,NA,Sternberg task,72,54814,83,yes,1024
86.9047619,86.9047619,662.8571429,662.8571429,black,experiment,legacy,legacy,legacy,0,uniform,1,undefined,1,left,83,83,83,0,0,83,83,0,0,83,83,83,0,83,0,10/25/19 19:13,The main experiment item,yes,Sternbergtask.osexp,C:\Users\Edgar\Documents\Edgar School\Fall 2019\Lab 3-1,no,mono,no,18,no,white,no,yes,768,legacy,71,11,C:/Users/Edgar/Documents/Edgar School/Fall 2019/Lab 3-1/OJ-subject-4.csv,legacy,6 1 2,Kafkaesque Koffka,3.2.8,3,y,0,left,space,space,left,NA,866,61235,68899,866,NA,2,legacy,3,1024,2,48000,-16,experiment,4,even,2,671074,667493,668852,5984,218140,668860,652254,6003,149237,673082,673953,669868,67242,673082,NA,Sternberg task,73,55680,84,yes,1024
85.88235294,85.88235294,678.5882353,678.5882353,black,experiment,legacy,legacy,legacy,0,uniform,0,undefined,0,right,84,84,84,0,0,84,84,0,0,84,84,84,0,84,0,10/25/19 19:13,The main experiment item,yes,Sternbergtask.osexp,C:\Users\Edgar\Documents\Edgar School\Fall 2019\Lab 3-1,no,mono,no,18,no,white,no,yes,768,legacy,72,11,C:/Users/Edgar/Documents/Edgar School/Fall 2019/Lab 3-1/OJ-subject-4.csv,legacy,6 2 9 3 8 4,Kafkaesque Koffka,3.2.8,0,n,0,None,space,space,None,NA,2000,61235,68899,2000,NA,2,legacy,6,1024,2,48000,-16,experiment,4,even,1,677673,674008,675451,5984,218140,675460,652254,6003,149237,679681,681688,676466,67242,679680,NA,Sternberg task,73,57680,85,yes,1024
86.04651163,86.04651163,677.4069767,677.4069767,black,experiment,legacy,legacy,legacy,0,uniform,1,undefined,1,left,85,85,85,0,0,85,85,0,0,85,85,85,0,85,0,10/25/19 19:13,The main experiment item,yes,Sternbergtask.osexp,C:\Users\Edgar\Documents\Edgar School\Fall 2019\Lab 3-1,no,mono,no,18,no,white,no,yes,768,legacy,73,11,C:/Users/Edgar/Documents/Edgar School/Fall 2019/Lab 3-1/OJ-subject-4.csv,legacy,2 8 5 1,Kafkaesque Koffka,3.2.8,4,y,0,left,space,space,left,NA,577,61235,68899,577,NA,2,legacy,4,1024,2,48000,-16,experiment,4,even,1,685544,674008,683322,5984,218140,683330,681868,6003,149237,687551,688136,684337,67242,687551,NA,Sternberg task,74,58257,86,yes,1024
86.20689655,86.20689655,677.0804598,677.0804598,black,experiment,legacy,legacy,legacy,0,uniform,1,undefined,1,left,86,86,86,0,0,86,86,0,0,86,86,86,0,86,0,10/25/19 19:13,The main experiment item,yes,Sternbergtask.osexp,C:\Users\Edgar\Documents\Edgar School\Fall 2019\Lab 3-1,no,mono,no,18,no,white,no,yes,768,legacy,74,11,C:/Users/Edgar/Documents/Edgar School/Fall 2019/Lab 3-1/OJ-subject-4.csv,legacy,8 5 1 3 9,Kafkaesque Koffka,3.2.8,4,y,0,left,space,space,left,NA,649,61235,68899,649,NA,2,legacy,5,1024,2,48000,-16,experiment,4,even,3,691980,688328,689756,5984,218140,689764,681868,6003,149237,693987,694642,690771,67242,693987,NA,Sternberg task,75,58906,87,yes,1024
86.36363636,86.36363636,675.0340909,675.0340909,black,experiment,legacy,legacy,legacy,0,uniform,1,undefined,1,left,87,87,87,0,0,87,87,0,0,87,87,87,0,87,0,10/25/19 19:13,The main experiment item,yes,Sternbergtask.osexp,C:\Users\Edgar\Documents\Edgar School\Fall 2019\Lab 3-1,no,mono,no,18,no,white,no,yes,768,legacy,75,11,C:/Users/Edgar/Documents/Edgar School/Fall 2019/Lab 3-1/OJ-subject-4.csv,legacy,9 8 4,Kafkaesque Koffka,3.2.8,1,y,0,left,space,space,left,NA,497,61235,68899,497,NA,2,legacy,3,1024,2,48000,-16,experiment,4,even,9,698349,694764,696130,5984,218140,696137,681868,6003,149237,700357,700863,697142,67242,700356,NA,Sternberg task,76,59403,88,yes,1024
85.39325843,85.39325843,674.2247191,674.2247191,black,experiment,legacy,legacy,legacy,0,uniform,0,undefined,0,right,88,88,88,0,0,88,88,0,0,88,88,88,0,88,0,10/25/19 19:13,The main experiment item,yes,Sternbergtask.osexp,C:\Users\Edgar\Documents\Edgar School\Fall 2019\Lab 3-1,no,mono,no,18,no,white,no,yes,768,legacy,76,11,C:/Users/Edgar/Documents/Edgar School/Fall 2019/Lab 3-1/OJ-subject-4.csv,legacy,1 5 3 2 8,Kafkaesque Koffka,3.2.8,0,n,0,left,space,space,left,NA,603,61235,68899,603,NA,2,legacy,5,1024,2,48000,-16,experiment,4,even,4,704583,700945,702361,5984,218140,702368,681868,6003,149237,706591,707200,703375,67242,706590,NA,Sternberg task,76,60006,89,yes,1024
85.55555556,85.55555556,671.4444444,671.4444444,black,experiment,legacy,legacy,legacy,0,uniform,1,undefined,1,left,89,89,89,0,0,89,89,0,0,89,89,89,0,89,0,10/25/19 19:13,The main experiment item,yes,Sternbergtask.osexp,C:\Users\Edgar\Documents\Edgar School\Fall 2019\Lab 3-1,no,mono,no,18,no,white,no,yes,768,legacy,77,11,C:/Users/Edgar/Documents/Edgar School/Fall 2019/Lab 3-1/OJ-subject-4.csv,legacy,7 8 4 6 9 5,Kafkaesque Koffka,3.2.8,4,y,0,left,space,space,left,NA,424,61235,68899,424,NA,2,legacy,6,1024,2,48000,-16,experiment,4,even,6,710828,700945,708609,5984,218140,708616,707235,6003,149237,712836,713266,709622,67242,712836,NA,Sternberg task,77,60430,90,yes,1024
85.71428571,85.71428571,669.3626374,669.3626374,black,experiment,legacy,legacy,legacy,0,uniform,1,undefined,1,left,90,90,90,0,0,90,90,0,0,90,90,90,0,90,0,10/25/19 19:13,The main experiment item,yes,Sternbergtask.osexp,C:\Users\Edgar\Documents\Edgar School\Fall 2019\Lab 3-1,no,mono,no,18,no,white,no,yes,768,legacy,78,11,C:/Users/Edgar/Documents/Edgar School/Fall 2019/Lab 3-1/OJ-subject-4.csv,legacy,9 3 8 2 1 4,Kafkaesque Koffka,3.2.8,3,y,0,left,space,space,left,NA,482,61235,68899,482,NA,2,legacy,6,1024,2,48000,-16,experiment,4,even,8,716966,713393,714747,5984,218140,714754,707235,6003,149237,718973,719462,715760,67242,718973,NA,Sternberg task,78,60912,91,yes,1024
85.86956522,85.86956522,665.2717391,665.2717391,black,experiment,legacy,legacy,legacy,0,uniform,1,undefined,1,right,91,91,91,0,0,91,91,0,0,91,91,91,0,91,0,10/25/19 19:13,The main experiment item,yes,Sternbergtask.osexp,C:\Users\Edgar\Documents\Edgar School\Fall 2019\Lab 3-1,no,mono,no,18,no,white,no,yes,768,legacy,79,11,C:/Users/Edgar/Documents/Edgar School/Fall 2019/Lab 3-1/OJ-subject-4.csv,legacy,8 2 1 4 5 9,Kafkaesque Koffka,3.2.8,0,n,0,right,space,space,right,NA,293,61235,68899,293,NA,2,legacy,6,1024,2,48000,-16,experiment,4,even,7,723114,719535,720894,5984,218140,720902,707235,6003,149237,725120,725420,721907,67242,725120,NA,Sternberg task,79,61205,92,yes,1024
86.02150538,86.02150538,663.311828,663.311828,black,experiment,legacy,legacy,legacy,0,uniform,1,undefined,1,left,92,92,92,0,0,92,92,0,0,92,92,92,0,92,0,10/25/19 19:13,The main experiment item,yes,Sternbergtask.osexp,C:\Users\Edgar\Documents\Edgar School\Fall 2019\Lab 3-1,no,mono,no,18,no,white,no,yes,768,legacy,80,11,C:/Users/Edgar/Documents/Edgar School/Fall 2019/Lab 3-1/OJ-subject-4.csv,legacy,4 3 2 5 8,Kafkaesque Koffka,3.2.8,2,y,0,left,space,space,left,NA,483,61235,68899,483,NA,2,legacy,5,1024,2,48000,-16,experiment,4,even,3,729048,725469,726827,5984,218140,726835,707235,6003,149237,731055,731543,727842,67242,731055,NA,Sternberg task,80,61688,93,yes,1024
85.10638298,85.10638298,660.6382979,660.6382979,black,experiment,legacy,legacy,legacy,0,uniform,0,undefined,0,right,93,93,93,0,0,93,93,0,0,93,93,93,0,93,0,10/25/19 19:13,The main experiment item,yes,Sternbergtask.osexp,C:\Users\Edgar\Documents\Edgar School\Fall 2019\Lab 3-1,no,mono,no,18,no,white,no,yes,768,legacy,81,11,C:/Users/Edgar/Documents/Edgar School/Fall 2019/Lab 3-1/OJ-subject-4.csv,legacy,4 2 6 9,Kafkaesque Koffka,3.2.8,0,n,0,left,space,space,left,NA,412,61235,68899,412,NA,2,legacy,4,1024,2,48000,-16,experiment,4,even,7,735196,731610,732974,5984,218140,732981,707235,6003,149237,737202,737619,733989,67242,737201,NA,Sternberg task,80,62100,94,yes,1024
84.21052632,84.21052632,659.2736842,659.2736842,black,experiment,legacy,legacy,legacy,0,uniform,0,undefined,0,right,94,94,94,0,0,94,94,0,0,94,94,94,0,94,0,10/25/19 19:13,The main experiment item,yes,Sternbergtask.osexp,C:\Users\Edgar\Documents\Edgar School\Fall 2019\Lab 3-1,no,mono,no,18,no,white,no,yes,768,legacy,82,11,C:/Users/Edgar/Documents/Edgar School/Fall 2019/Lab 3-1/OJ-subject-4.csv,legacy,7 4 2 8 1 9,Kafkaesque Koffka,3.2.8,0,n,0,left,space,space,left,NA,531,61235,68899,531,NA,2,legacy,6,1024,2,48000,-16,experiment,4,even,5,741245,731610,739022,5984,218140,739029,737662,6003,149237,743251,743789,740037,67242,743251,NA,Sternberg task,80,62631,95,yes,1024
83.33333333,83.33333333,659.0208333,659.0208333,black,experiment,legacy,legacy,legacy,0,uniform,0,undefined,0,left,95,95,95,0,0,95,95,0,0,95,95,95,0,95,0,10/25/19 19:13,The main experiment item,yes,Sternbergtask.osexp,C:\Users\Edgar\Documents\Edgar School\Fall 2019\Lab 3-1,no,mono,no,18,no,white,no,yes,768,legacy,83,11,C:/Users/Edgar/Documents/Edgar School/Fall 2019/Lab 3-1/OJ-subject-4.csv,legacy,4 1 8 7 5,Kafkaesque Koffka,3.2.8,3,y,0,right,space,space,right,NA,635,61235,68899,635,NA,2,legacy,5,1024,2,48000,-16,experiment,4,even,8,747416,731610,745197,5984,218140,745204,743847,6003,149237,749422,750062,746209,67242,749421,NA,Sternberg task,80,63266,96,yes,1024
83.50515464,83.50515464,658,658,black,experiment,legacy,legacy,legacy,0,uniform,1,undefined,1,right,96,96,96,0,0,96,96,0,0,96,96,96,0,96,0,10/25/19 19:13,The main experiment item,yes,Sternbergtask.osexp,C:\Users\Edgar\Documents\Edgar School\Fall 2019\Lab 3-1,no,mono,no,18,no,white,no,yes,768,legacy,84,11,C:/Users/Edgar/Documents/Edgar School/Fall 2019/Lab 3-1/OJ-subject-4.csv,legacy,9,Kafkaesque Koffka,3.2.8,0,n,0,right,space,space,right,NA,560,61235,68899,560,NA,2,legacy,1,1024,2,48000,-16,experiment,4,even,6,753695,731610,751474,5984,218140,751481,750126,6003,149237,755702,756268,752489,67242,755701,NA,Sternberg task,81,63826,97,yes,1024
82.65306122,82.65306122,657.3061224,657.3061224,black,experiment,legacy,legacy,legacy,0,uniform,0,undefined,0,right,97,97,97,0,0,97,97,0,0,97,97,97,0,97,0,10/25/19 19:13,The main experiment item,yes,Sternbergtask.osexp,C:\Users\Edgar\Documents\Edgar School\Fall 2019\Lab 3-1,no,mono,no,18,no,white,no,yes,768,legacy,85,11,C:/Users/Edgar/Documents/Edgar School/Fall 2019/Lab 3-1/OJ-subject-4.csv,legacy,6 8,Kafkaesque Koffka,3.2.8,0,n,0,left,space,space,left,NA,590,61235,68899,590,NA,2,legacy,2,1024,2,48000,-16,experiment,4,even,9,759861,756300,757642,5984,218140,757649,750126,6003,149237,761868,762466,758656,67242,761867,NA,Sternberg task,81,64416,98,yes,1024
82.82828283,82.82828283,655.6767677,655.6767677,black,experiment,legacy,legacy,legacy,0,uniform,1,undefined,1,left,98,98,98,0,0,98,98,0,0,98,98,98,0,98,0,10/25/19 19:13,The main experiment item,yes,Sternbergtask.osexp,C:\Users\Edgar\Documents\Edgar School\Fall 2019\Lab 3-1,no,mono,no,18,no,white,no,yes,768,legacy,86,11,C:/Users/Edgar/Documents/Edgar School/Fall 2019/Lab 3-1/OJ-subject-4.csv,legacy,2 6 1 7 4,Kafkaesque Koffka,3.2.8,2,y,0,left,space,space,left,NA,496,61235,68899,496,NA,2,legacy,5,1024,2,48000,-16,experiment,4,even,6,766138,756300,763917,5984,218140,763926,762542,6003,149237,768146,768647,764932,67242,768146,NA,Sternberg task,82,64912,99,yes,1024
83,83,656.39,656.39,black,experiment,legacy,legacy,legacy,0,uniform,1,undefined,1,right,99,99,99,0,0,99,99,0,0,99,99,99,0,99,0,10/25/19 19:13,The main experiment item,yes,Sternbergtask.osexp,C:\Users\Edgar\Documents\Edgar School\Fall 2019\Lab 3-1,no,mono,no,18,no,white,no,yes,768,legacy,87,11,C:/Users/Edgar/Documents/Edgar School/Fall 2019/Lab 3-1/OJ-subject-4.csv,legacy,6 9 5,Kafkaesque Koffka,3.2.8,0,n,0,right,space,space,right,NA,727,61235,68899,727,NA,2,legacy,3,1024,2,48000,-16,experiment,4,even,8,772281,768709,770061,5984,218140,770069,762542,6003,149237,774290,775024,771074,67242,774289,NA,Sternberg task,83,65639,100,yes,1024
83.16831683,83.16831683,655.8811881,655.8811881,black,experiment,legacy,legacy,legacy,0,uniform,1,undefined,1,right,100,100,100,0,0,100,100,0,0,100,100,100,0,100,0,10/25/19 19:13,The main experiment item,yes,Sternbergtask.osexp,C:\Users\Edgar\Documents\Edgar School\Fall 2019\Lab 3-1,no,mono,no,18,no,white,no,yes,768,legacy,88,11,C:/Users/Edgar/Documents/Edgar School/Fall 2019/Lab 3-1/OJ-subject-4.csv,legacy,8 4 3 5,Kafkaesque Koffka,3.2.8,0,n,0,right,space,space,right,NA,605,61235,68899,605,NA,2,legacy,4,1024,2,48000,-16,experiment,4,even,6,778645,775067,776421,5984,218140,776428,762542,6003,149237,780650,781261,777438,67242,780650,NA,Sternberg task,84,66244,101,yes,1024
83.33333333,83.33333333,657.5882353,657.5882353,black,experiment,legacy,legacy,legacy,0,uniform,1,undefined,1,left,101,101,101,0,0,101,101,0,0,101,101,101,0,101,0,10/25/19 19:13,The main experiment item,yes,Sternbergtask.osexp,C:\Users\Edgar\Documents\Edgar School\Fall 2019\Lab 3-1,no,mono,no,18,no,white,no,yes,768,legacy,89,11,C:/Users/Edgar/Documents/Edgar School/Fall 2019/Lab 3-1/OJ-subject-4.csv,legacy,4 1 5,Kafkaesque Koffka,3.2.8,2,y,0,left,space,space,left,NA,830,61235,68899,830,NA,2,legacy,3,1024,2,48000,-16,experiment,4,even,1,784894,781324,782669,5984,218140,782676,762542,6003,149237,786900,787736,783685,67242,786899,NA,Sternberg task,85,67074,102,yes,1024
82.52427184,82.52427184,656.4368932,656.4368932,black,experiment,legacy,legacy,legacy,0,uniform,0,undefined,0,left,102,102,102,0,0,102,102,0,0,102,102,102,0,102,0,10/25/19 19:13,The main experiment item,yes,Sternbergtask.osexp,C:\Users\Edgar\Documents\Edgar School\Fall 2019\Lab 3-1,no,mono,no,18,no,white,no,yes,768,legacy,90,11,C:/Users/Edgar/Documents/Edgar School/Fall 2019/Lab 3-1/OJ-subject-4.csv,legacy,9 3 1 2 5,Kafkaesque Koffka,3.2.8,4,y,0,right,space,space,right,NA,539,61235,68899,539,NA,2,legacy,5,1024,2,48000,-16,experiment,4,even,2,791385,787790,789162,5984,218140,789172,762542,6003,149237,793391,793936,790178,67242,793391,NA,Sternberg task,85,67613,103,yes,1024
82.69230769,82.69230769,653.9230769,653.9230769,black,experiment,legacy,legacy,legacy,0,uniform,1,undefined,1,left,103,103,103,0,0,103,103,0,0,103,103,103,0,103,0,10/25/19 19:13,The main experiment item,yes,Sternbergtask.osexp,C:\Users\Edgar\Documents\Edgar School\Fall 2019\Lab 3-1,no,mono,no,18,no,white,no,yes,768,legacy,91,11,C:/Users/Edgar/Documents/Edgar School/Fall 2019/Lab 3-1/OJ-subject-4.csv,legacy,2 4 8 5 1 3,Kafkaesque Koffka,3.2.8,1,y,0,left,space,space,left,NA,395,61235,68899,395,NA,2,legacy,6,1024,2,48000,-16,experiment,4,even,2,797614,787790,795393,5984,218140,795401,793994,6003,149237,799621,800023,796408,67242,799620,NA,Sternberg task,86,68008,104,yes,1024
82.85714286,82.85714286,653.9428571,653.9428571,black,experiment,legacy,legacy,legacy,0,uniform,1,undefined,1,right,104,104,104,0,0,104,104,0,0,104,104,104,0,104,0,10/25/19 19:13,The main experiment item,yes,Sternbergtask.osexp,C:\Users\Edgar\Documents\Edgar School\Fall 2019\Lab 3-1,no,mono,no,18,no,white,no,yes,768,legacy,92,11,C:/Users/Edgar/Documents/Edgar School/Fall 2019/Lab 3-1/OJ-subject-4.csv,legacy,3 9 8 1 6 4,Kafkaesque Koffka,3.2.8,0,n,0,right,space,space,right,NA,656,61235,68899,656,NA,2,legacy,6,1024,2,48000,-16,experiment,4,even,7,803740,800084,801517,5984,218140,801525,793994,6003,149237,805747,806410,802533,67242,805747,NA,Sternberg task,87,68664,105,yes,1024
82.0754717,82.0754717,653.9528302,653.9528302,black,experiment,legacy,legacy,legacy,0,uniform,0,undefined,0,right,105,105,105,0,0,105,105,0,0,105,105,105,0,105,0,10/25/19 19:13,The main experiment item,yes,Sternbergtask.osexp,C:\Users\Edgar\Documents\Edgar School\Fall 2019\Lab 3-1,no,mono,no,18,no,white,no,yes,768,legacy,93,11,C:/Users/Edgar/Documents/Edgar School/Fall 2019/Lab 3-1/OJ-subject-4.csv,legacy,8 6 3 4 7,Kafkaesque Koffka,3.2.8,0,n,0,left,space,space,left,NA,655,61235,68899,655,NA,2,legacy,5,1024,2,48000,-16,experiment,4,even,1,810047,806475,807827,5984,218140,807834,793994,6003,149237,812055,812717,808841,67242,812054,NA,Sternberg task,87,69319,106,yes,1024
82.24299065,82.24299065,652.1869159,652.1869159,black,experiment,legacy,legacy,legacy,0,uniform,1,undefined,1,left,106,106,106,0,0,106,106,0,0,106,106,106,0,106,0,10/25/19 19:13,The main experiment item,yes,Sternbergtask.osexp,C:\Users\Edgar\Documents\Edgar School\Fall 2019\Lab 3-1,no,mono,no,18,no,white,no,yes,768,legacy,94,11,C:/Users/Edgar/Documents/Edgar School/Fall 2019/Lab 3-1/OJ-subject-4.csv,legacy,8 3,Kafkaesque Koffka,3.2.8,2,y,0,left,space,space,left,NA,465,61235,68899,465,NA,2,legacy,2,1024,2,48000,-16,experiment,4,even,3,816340,806475,814119,5984,218140,814126,812776,6003,149237,818349,818821,815133,67242,818348,NA,Sternberg task,88,69784,107,yes,1024
82.40740741,82.40740741,651.7777778,651.7777778,black,experiment,legacy,legacy,legacy,0,uniform,1,undefined,1,left,107,107,107,0,0,107,107,0,0,107,107,107,0,107,0,10/25/19 19:13,The main experiment item,yes,Sternbergtask.osexp,C:\Users\Edgar\Documents\Edgar School\Fall 2019\Lab 3-1,no,mono,no,18,no,white,no,yes,768,legacy,95,11,C:/Users/Edgar/Documents/Edgar School/Fall 2019/Lab 3-1/OJ-subject-4.csv,legacy,9 5 8 1,Kafkaesque Koffka,3.2.8,2,y,0,left,space,space,left,NA,608,61235,68899,608,NA,2,legacy,4,1024,2,48000,-16,experiment,4,even,5,822472,818895,820250,5984,218140,820258,812776,6003,149237,824481,825096,821266,67242,824480,NA,Sternberg task,89,70392,108,yes,1024
81.65137615,81.65137615,652.6146789,652.6146789,black,experiment,legacy,legacy,legacy,0,uniform,0,undefined,0,left,108,108,108,0,0,108,108,0,0,108,108,108,0,108,0,10/25/19 19:13,The main experiment item,yes,Sternbergtask.osexp,C:\Users\Edgar\Documents\Edgar School\Fall 2019\Lab 3-1,no,mono,no,18,no,white,no,yes,768,legacy,96,11,C:/Users/Edgar/Documents/Edgar School/Fall 2019/Lab 3-1/OJ-subject-4.csv,legacy,6 2,Kafkaesque Koffka,3.2.8,1,y,0,right,space,space,right,NA,743,61235,68899,743,NA,2,legacy,2,1024,2,48000,-16,experiment,4,even,6,828694,825134,826474,5984,218140,826482,812776,6003,149237,830702,831450,827488,67242,830701,NA,Sternberg task,89,71135,109,yes,1024
81.81818182,81.81818182,657.1454545,657.1454545,black,experiment,legacy,legacy,legacy,0,uniform,1,undefined,1,left,109,109,109,0,0,109,109,0,0,109,109,109,0,109,0,10/25/19 19:13,The main experiment item,yes,Sternbergtask.osexp,C:\Users\Edgar\Documents\Edgar School\Fall 2019\Lab 3-1,no,mono,no,18,no,white,no,yes,768,legacy,97,11,C:/Users/Edgar/Documents/Edgar School/Fall 2019/Lab 3-1/OJ-subject-4.csv,legacy,3 4 9 6 2 9,Kafkaesque Koffka,3.2.8,5,y,0,left,space,space,left,NA,1151,61235,68899,1151,NA,2,legacy,6,1024,2,48000,-16,experiment,4,even,2,835073,825134,832854,5984,218140,832862,831504,6003,149237,837081,838237,833867,67242,837081,NA,Sternberg task,90,72286,110,yes,1024
81.08108108,81.08108108,655.018018,655.018018,black,experiment,legacy,legacy,legacy,0,uniform,0,undefined,0,right,110,110,110,0,0,110,110,0,0,110,110,110,0,110,0,10/25/19 19:13,The main experiment item,yes,Sternbergtask.osexp,C:\Users\Edgar\Documents\Edgar School\Fall 2019\Lab 3-1,no,mono,no,18,no,white,no,yes,768,legacy,98,11,C:/Users/Edgar/Documents/Edgar School/Fall 2019/Lab 3-1/OJ-subject-4.csv,legacy,1 3 2 6 9,Kafkaesque Koffka,3.2.8,0,n,0,left,space,space,left,NA,421,61235,68899,421,NA,2,legacy,5,1024,2,48000,-16,experiment,4,even,5,841909,838293,839689,5984,218140,839695,831504,6003,149237,843917,844344,840702,67242,843917,NA,Sternberg task,90,72707,111,yes,1024
81.25,81.25,654.5803571,654.5803571,black,experiment,legacy,legacy,legacy,0,uniform,1,undefined,1,left,111,111,111,0,0,111,111,0,0,111,111,111,0,111,0,10/25/19 19:13,The main experiment item,yes,Sternbergtask.osexp,C:\Users\Edgar\Documents\Edgar School\Fall 2019\Lab 3-1,no,mono,no,18,no,white,no,yes,768,legacy,99,11,C:/Users/Edgar/Documents/Edgar School/Fall 2019/Lab 3-1/OJ-subject-4.csv,legacy,5 2 9 6 1 7,Kafkaesque Koffka,3.2.8,3,y,0,left,space,space,left,NA,606,61235,68899,606,NA,2,legacy,6,1024,2,48000,-16,experiment,4,even,9,847986,838293,845766,5984,218140,845772,844406,6003,149237,849992,850606,846778,67242,849992,NA,Sternberg task,91,73313,112,yes,1024
81.4159292,81.4159292,653.4513274,653.4513274,black,experiment,legacy,legacy,legacy,0,uniform,1,undefined,1,left,112,112,112,0,0,112,112,0,0,112,112,112,0,112,0,10/25/19 19:13,The main experiment item,yes,Sternbergtask.osexp,C:\Users\Edgar\Documents\Edgar School\Fall 2019\Lab 3-1,no,mono,no,18,no,white,no,yes,768,legacy,100,11,C:/Users/Edgar/Documents/Edgar School/Fall 2019/Lab 3-1/OJ-subject-4.csv,legacy,8 5 4 7 3 1,Kafkaesque Koffka,3.2.8,2,y,0,left,space,space,left,NA,527,61235,68899,527,NA,2,legacy,6,1024,2,48000,-16,experiment,4,even,5,854276,850651,852054,5984,218140,852062,844406,6003,149237,856283,856817,853068,67242,856283,NA,Sternberg task,92,73840,113,yes,1024
81.57894737,81.57894737,652.9298246,652.9298246,black,experiment,legacy,legacy,legacy,0,uniform,1,undefined,1,left,113,113,113,0,0,113,113,0,0,113,113,113,0,113,0,10/25/19 19:13,The main experiment item,yes,Sternbergtask.osexp,C:\Users\Edgar\Documents\Edgar School\Fall 2019\Lab 3-1,no,mono,no,18,no,white,no,yes,768,legacy,101,11,C:/Users/Edgar/Documents/Edgar School/Fall 2019/Lab 3-1/OJ-subject-4.csv,legacy,8 7 3,Kafkaesque Koffka,3.2.8,1,y,0,left,space,space,left,NA,594,61235,68899,594,NA,2,legacy,3,1024,2,48000,-16,experiment,4,even,8,860448,856855,858227,5984,218140,858236,844406,6003,149237,862457,863058,859241,67242,862456,NA,Sternberg task,93,74434,114,yes,1024
81.73913043,81.73913043,652.2434783,652.2434783,black,experiment,legacy,legacy,legacy,0,uniform,1,undefined,1,left,114,114,114,0,0,114,114,0,0,114,114,114,0,114,0,10/25/19 19:13,The main experiment item,yes,Sternbergtask.osexp,C:\Users\Edgar\Documents\Edgar School\Fall 2019\Lab 3-1,no,mono,no,18,no,white,no,yes,768,legacy,102,11,C:/Users/Edgar/Documents/Edgar School/Fall 2019/Lab 3-1/OJ-subject-4.csv,legacy,9 1 6 7 8,Kafkaesque Koffka,3.2.8,1,y,0,left,space,space,left,NA,574,61235,68899,574,NA,2,legacy,5,1024,2,48000,-16,experiment,4,even,9,866676,863110,864456,5984,218140,864464,844406,6003,149237,868683,869263,865470,67242,868683,NA,Sternberg task,94,75008,115,yes,1024
81.89655172,81.89655172,651.6293103,651.6293103,black,experiment,legacy,legacy,legacy,0,uniform,1,undefined,1,left,115,115,115,0,0,115,115,0,0,115,115,115,0,115,0,10/25/19 19:13,The main experiment item,yes,Sternbergtask.osexp,C:\Users\Edgar\Documents\Edgar School\Fall 2019\Lab 3-1,no,mono,no,18,no,white,no,yes,768,legacy,103,11,C:/Users/Edgar/Documents/Edgar School/Fall 2019/Lab 3-1/OJ-subject-4.csv,legacy,4 6 2 5 1,Kafkaesque Koffka,3.2.8,5,y,0,left,space,space,left,NA,581,61235,68899,581,NA,2,legacy,5,1024,2,48000,-16,experiment,4,even,1,872928,869325,870707,5984,218140,870715,844406,6003,149237,874935,875524,871721,67242,874935,NA,Sternberg task,95,75589,116,yes,1024
82.05128205,82.05128205,648.7094017,648.7094017,black,experiment,legacy,legacy,legacy,0,uniform,1,undefined,1,right,116,116,116,0,0,116,116,0,0,116,116,116,0,116,0,10/25/19 19:13,The main experiment item,yes,Sternbergtask.osexp,C:\Users\Edgar\Documents\Edgar School\Fall 2019\Lab 3-1,no,mono,no,18,no,white,no,yes,768,legacy,104,11,C:/Users/Edgar/Documents/Edgar School/Fall 2019/Lab 3-1/OJ-subject-4.csv,legacy,7 6 4 8 1 2,Kafkaesque Koffka,3.2.8,0,n,0,right,space,space,right,NA,310,61235,68899,310,NA,2,legacy,6,1024,2,48000,-16,experiment,4,even,9,879185,875594,876966,5984,218140,876973,844406,6003,149237,881192,881508,877979,67242,881192,NA,Sternberg task,96,75899,117,yes,1024
81.3559322,81.3559322,647.6864407,647.6864407,black,experiment,legacy,legacy,legacy,0,uniform,0,undefined,0,right,117,117,117,0,0,117,117,0,0,117,117,117,0,117,0,10/25/19 19:13,The main experiment item,yes,Sternbergtask.osexp,C:\Users\Edgar\Documents\Edgar School\Fall 2019\Lab 3-1,no,mono,no,18,no,white,no,yes,768,legacy,105,11,C:/Users/Edgar/Documents/Edgar School/Fall 2019/Lab 3-1/OJ-subject-4.csv,legacy,2 3 8 5 6 7,Kafkaesque Koffka,3.2.8,0,n,0,left,space,space,left,NA,528,61235,68899,528,NA,2,legacy,6,1024,2,48000,-16,experiment,4,even,1,885155,881561,882935,5984,218140,882942,844406,6003,149237,887161,887696,883948,67242,887161,NA,Sternberg task,96,76427,118,yes,1024
80.67226891,80.67226891,644.9747899,644.9747899,black,experiment,legacy,legacy,legacy,0,uniform,0,undefined,0,left,118,118,118,0,0,118,118,0,0,118,118,118,0,118,0,10/25/19 19:13,The main experiment item,yes,Sternbergtask.osexp,C:\Users\Edgar\Documents\Edgar School\Fall 2019\Lab 3-1,no,mono,no,18,no,white,no,yes,768,legacy,106,11,C:/Users/Edgar/Documents/Edgar School/Fall 2019/Lab 3-1/OJ-subject-4.csv,legacy,3 2 1 4 7,Kafkaesque Koffka,3.2.8,2,y,0,right,space,space,right,NA,325,61235,68899,325,NA,2,legacy,5,1024,2,48000,-16,experiment,4,even,2,891347,881561,889125,5984,218140,889133,887762,6003,149237,893354,893685,890140,67242,893353,NA,Sternberg task,96,76752,119,yes,1024
80,80,641.825,641.825,black,experiment,legacy,legacy,legacy,0,uniform,0,undefined,0,right,119,119,119,0,0,119,119,0,0,119,119,119,0,119,0,10/25/19 19:13,The main experiment item,yes,Sternbergtask.osexp,C:\Users\Edgar\Documents\Edgar School\Fall 2019\Lab 3-1,no,mono,no,18,no,white,no,yes,768,legacy,107,11,C:/Users/Edgar/Documents/Edgar School/Fall 2019/Lab 3-1/OJ-subject-4.csv,legacy,5 3 2 6 9 8,Kafkaesque Koffka,3.2.8,0,n,0,left,space,space,left,NA,267,61235,68899,267,NA,2,legacy,6,1024,2,48000,-16,experiment,4,even,4,897323,881561,895102,5984,218140,895110,893743,6003,149237,899330,899607,896116,67242,899330,NA,Sternberg task,96,77019,120,yes,1024
80.16528926,80.16528926,640.0330579,640.0330579,black,experiment,legacy,legacy,legacy,0,uniform,1,undefined,1,left,120,120,120,0,0,120,120,0,0,120,120,120,0,120,0,10/25/19 19:13,The main experiment item,yes,Sternbergtask.osexp,C:\Users\Edgar\Documents\Edgar School\Fall 2019\Lab 3-1,no,mono,no,18,no,white,no,yes,768,legacy,108,11,C:/Users/Edgar/Documents/Edgar School/Fall 2019/Lab 3-1/OJ-subject-4.csv,legacy,3 4,Kafkaesque Koffka,3.2.8,1,y,0,left,space,space,left,NA,425,61235,68899,425,NA,2,legacy,2,1024,2,48000,-16,experiment,4,even,3,903288,881561,901068,5984,218140,901075,899675,6003,149237,905294,905725,902082,67242,905294,NA,Sternberg task,97,77444,121,yes,1024
80.32786885,80.32786885,639.204918,639.204918,black,experiment,legacy,legacy,legacy,0,uniform,1,undefined,1,right,121,121,121,0,0,121,121,0,0,121,121,121,0,121,0,10/25/19 19:13,The main experiment item,yes,Sternbergtask.osexp,C:\Users\Edgar\Documents\Edgar School\Fall 2019\Lab 3-1,no,mono,no,18,no,white,no,yes,768,legacy,109,11,C:/Users/Edgar/Documents/Edgar School/Fall 2019/Lab 3-1/OJ-subject-4.csv,legacy,3 4 2,Kafkaesque Koffka,3.2.8,0,n,0,right,space,space,right,NA,539,61235,68899,539,NA,2,legacy,3,1024,2,48000,-16,experiment,4,even,5,909374,905779,907150,5984,218140,907158,899675,6003,149237,911381,911925,908165,67242,911380,NA,Sternberg task,98,77983,122,yes,1024
80.48780488,80.48780488,639.2357724,639.2357724,black,experiment,legacy,legacy,legacy,0,uniform,1,undefined,1,right,122,122,122,0,0,122,122,0,0,122,122,122,0,122,0,10/25/19 19:13,The main experiment item,yes,Sternbergtask.osexp,C:\Users\Edgar\Documents\Edgar School\Fall 2019\Lab 3-1,no,mono,no,18,no,white,no,yes,768,legacy,110,11,C:/Users/Edgar/Documents/Edgar School/Fall 2019/Lab 3-1/OJ-subject-4.csv,legacy,2 8 6 3 1,Kafkaesque Koffka,3.2.8,0,n,0,right,space,space,right,NA,643,61235,68899,643,NA,2,legacy,5,1024,2,48000,-16,experiment,4,even,7,915571,911977,913349,5984,218140,913359,899675,6003,149237,917577,918225,914365,67242,917577,NA,Sternberg task,99,78626,123,yes,1024
79.83870968,79.83870968,638.5322581,638.5322581,black,experiment,legacy,legacy,legacy,0,uniform,0,undefined,0,left,123,123,123,0,0,123,123,0,0,123,123,123,0,123,0,10/25/19 19:13,The main experiment item,yes,Sternbergtask.osexp,C:\Users\Edgar\Documents\Edgar School\Fall 2019\Lab 3-1,no,mono,no,18,no,white,no,yes,768,legacy,111,11,C:/Users/Edgar/Documents/Edgar School/Fall 2019/Lab 3-1/OJ-subject-4.csv,legacy,3 5 4 7,Kafkaesque Koffka,3.2.8,1,y,0,right,space,space,right,NA,552,61235,68899,552,NA,2,legacy,4,1024,2,48000,-16,experiment,4,even,3,921887,918295,919663,5984,218140,919671,899675,6003,149237,923895,924454,920678,67242,923895,NA,Sternberg task,99,79178,124,yes,1024
79.2,79.2,640.344,640.344,black,experiment,legacy,legacy,legacy,0,uniform,0,undefined,0,right,124,124,124,0,0,124,124,0,0,124,124,124,0,124,0,10/25/19 19:13,The main experiment item,yes,Sternbergtask.osexp,C:\Users\Edgar\Documents\Edgar School\Fall 2019\Lab 3-1,no,mono,no,18,no,white,no,yes,768,legacy,112,11,C:/Users/Edgar/Documents/Edgar School/Fall 2019/Lab 3-1/OJ-subject-4.csv,legacy,1 8 7,Kafkaesque Koffka,3.2.8,0,n,0,left,space,space,left,NA,865,61235,68899,865,NA,2,legacy,3,1024,2,48000,-16,experiment,4,even,4,928093,918295,925874,5984,218140,925882,924518,6003,149237,930101,930973,926888,67242,930101,NA,Sternberg task,99,80043,125,yes,1024
79.36507937,79.36507937,639.7619048,639.7619048,black,experiment,legacy,legacy,legacy,0,uniform,1,undefined,1,right,125,125,125,0,0,125,125,0,0,125,125,125,0,125,0,10/25/19 19:13,The main experiment item,yes,Sternbergtask.osexp,C:\Users\Edgar\Documents\Edgar School\Fall 2019\Lab 3-1,no,mono,no,18,no,white,no,yes,768,legacy,113,11,C:/Users/Edgar/Documents/Edgar School/Fall 2019/Lab 3-1/OJ-subject-4.csv,legacy,3 9 1,Kafkaesque Koffka,3.2.8,0,n,0,right,space,space,right,NA,567,61235,68899,567,NA,2,legacy,3,1024,2,48000,-16,experiment,4,even,7,934628,918295,932407,5984,218140,932415,931033,6003,149237,936636,937211,933421,67242,936635,NA,Sternberg task,100,80610,126,yes,1024
79.52755906,79.52755906,638.023622,638.023622,black,experiment,legacy,legacy,legacy,0,uniform,1,undefined,1,right,126,126,126,0,0,126,126,0,0,126,126,126,0,126,0,10/25/19 19:13,The main experiment item,yes,Sternbergtask.osexp,C:\Users\Edgar\Documents\Edgar School\Fall 2019\Lab 3-1,no,mono,no,18,no,white,no,yes,768,legacy,114,11,C:/Users/Edgar/Documents/Edgar School/Fall 2019/Lab 3-1/OJ-subject-4.csv,legacy,5,Kafkaesque Koffka,3.2.8,0,n,0,right,space,space,right,NA,419,61235,68899,419,NA,2,legacy,1,1024,2,48000,-16,experiment,4,even,8,940875,937277,938653,5984,218140,938662,931033,6003,149237,942882,943309,939667,67242,942880,NA,Sternberg task,101,81029,127,yes,1024
78.90625,78.90625,638.40625,638.40625,black,experiment,legacy,legacy,legacy,0,uniform,0,undefined,0,right,127,127,127,0,0,127,127,0,0,127,127,127,0,127,0,10/25/19 19:13,The main experiment item,yes,Sternbergtask.osexp,C:\Users\Edgar\Documents\Edgar School\Fall 2019\Lab 3-1,no,mono,no,18,no,white,no,yes,768,legacy,115,11,C:/Users/Edgar/Documents/Edgar School/Fall 2019/Lab 3-1/OJ-subject-4.csv,legacy,2 8 7 9 5 3,Kafkaesque Koffka,3.2.8,0,n,0,left,space,space,left,NA,687,61235,68899,687,NA,2,legacy,6,1024,2,48000,-16,experiment,4,even,6,946946,943368,944727,5984,218140,944735,931033,6003,149237,948953,949647,945740,67242,948952,NA,Sternberg task,101,81716,128,yes,1024
79.06976744,79.06976744,640.8062016,640.8062016,black,experiment,legacy,legacy,legacy,0,uniform,1,undefined,1,left,128,128,128,0,0,128,128,0,0,128,128,128,0,128,0,10/25/19 19:13,The main experiment item,yes,Sternbergtask.osexp,C:\Users\Edgar\Documents\Edgar School\Fall 2019\Lab 3-1,no,mono,no,18,no,white,no,yes,768,legacy,116,11,C:/Users/Edgar/Documents/Edgar School/Fall 2019/Lab 3-1/OJ-subject-4.csv,legacy,4 9 7 8 5 3,Kafkaesque Koffka,3.2.8,4,y,0,left,space,space,left,NA,948,61235,68899,948,NA,2,legacy,6,1024,2,48000,-16,experiment,4,even,8,953318,943368,951097,5984,218140,951106,949726,6003,149237,955326,956282,952113,67242,955325,NA,Sternberg task,102,82664,129,yes,1024
79.23076923,79.23076923,641.1615385,641.1615385,black,experiment,legacy,legacy,legacy,0,uniform,1,undefined,1,left,129,129,129,0,0,129,129,0,0,129,129,129,0,129,0,10/25/19 19:13,The main experiment item,yes,Sternbergtask.osexp,C:\Users\Edgar\Documents\Edgar School\Fall 2019\Lab 3-1,no,mono,no,18,no,white,no,yes,768,legacy,117,11,C:/Users/Edgar/Documents/Edgar School/Fall 2019/Lab 3-1/OJ-subject-4.csv,legacy,6 9 3 1,Kafkaesque Koffka,3.2.8,4,y,0,left,space,space,left,NA,687,61235,68899,687,NA,2,legacy,4,1024,2,48000,-16,experiment,4,even,1,959934,956333,957712,5984,218140,957719,949726,6003,149237,961940,962636,958727,67242,961940,NA,Sternberg task,103,83351,130,yes,1024
79.38931298,79.38931298,641.3816794,641.3816794,black,experiment,legacy,legacy,legacy,0,uniform,1,undefined,1,right,130,130,130,0,0,130,130,0,0,130,130,130,0,130,0,10/25/19 19:13,The main experiment item,yes,Sternbergtask.osexp,C:\Users\Edgar\Documents\Edgar School\Fall 2019\Lab 3-1,no,mono,no,18,no,white,no,yes,768,legacy,118,11,C:/Users/Edgar/Documents/Edgar School/Fall 2019/Lab 3-1/OJ-subject-4.csv,legacy,6 3 1 7 9 8,Kafkaesque Koffka,3.2.8,0,n,0,right,space,space,right,NA,670,61235,68899,670,NA,2,legacy,6,1024,2,48000,-16,experiment,4,even,4,966271,962694,964051,5984,218140,964059,949726,6003,149237,968279,968958,965064,67242,968278,NA,Sternberg task,104,84021,131,yes,1024
79.54545455,79.54545455,639.1666667,639.1666667,black,experiment,legacy,legacy,legacy,0,uniform,1,undefined,1,left,131,131,131,0,0,131,131,0,0,131,131,131,0,131,0,10/25/19 19:13,The main experiment item,yes,Sternbergtask.osexp,C:\Users\Edgar\Documents\Edgar School\Fall 2019\Lab 3-1,no,mono,no,18,no,white,no,yes,768,legacy,119,11,C:/Users/Edgar/Documents/Edgar School/Fall 2019/Lab 3-1/OJ-subject-4.csv,legacy,4,Kafkaesque Koffka,3.2.8,1,y,0,left,space,space,left,NA,349,61235,68899,349,NA,2,legacy,1,1024,2,48000,-16,experiment,4,even,4,972601,969013,970380,5984,218140,970388,949726,6003,149237,974610,974968,971394,67242,974610,NA,Sternberg task,105,84370,132,yes,1024
79.69924812,79.69924812,641.5037594,641.5037594,black,experiment,legacy,legacy,legacy,0,uniform,1,undefined,1,right,132,132,132,0,0,132,132,0,0,132,132,132,0,132,0,10/25/19 19:13,The main experiment item,yes,Sternbergtask.osexp,C:\Users\Edgar\Documents\Edgar School\Fall 2019\Lab 3-1,no,mono,no,18,no,white,no,yes,768,legacy,120,11,C:/Users/Edgar/Documents/Edgar School/Fall 2019/Lab 3-1/OJ-subject-4.csv,legacy,6 9 4 5 2,Kafkaesque Koffka,3.2.8,0,n,0,right,space,space,right,NA,950,61235,68899,950,NA,2,legacy,5,1024,2,48000,-16,experiment,4,even,1,978588,975020,976364,5984,218140,976372,949726,6003,149237,980594,981555,977378,67242,980594,NA,Sternberg task,106,85320,133,yes,1024
79.10447761,79.10447761,640.3208955,640.3208955,black,experiment,legacy,legacy,legacy,0,uniform,0,undefined,0,right,133,133,133,0,0,133,133,0,0,133,133,133,0,133,0,10/25/19 19:13,The main experiment item,yes,Sternbergtask.osexp,C:\Users\Edgar\Documents\Edgar School\Fall 2019\Lab 3-1,no,mono,no,18,no,white,no,yes,768,legacy,121,11,C:/Users/Edgar/Documents/Edgar School/Fall 2019/Lab 3-1/OJ-subject-4.csv,legacy,7 9,Kafkaesque Koffka,3.2.8,0,n,0,left,space,space,left,NA,483,61235,68899,483,NA,2,legacy,2,1024,2,48000,-16,experiment,4,even,1,985231,981644,983010,5984,218140,983017,949726,6003,149237,987238,987727,984026,67242,987237,NA,Sternberg task,106,85803,134,yes,1024
78.51851852,78.51851852,638.7111111,638.7111111,black,experiment,legacy,legacy,legacy,0,uniform,0,undefined,0,right,134,134,134,0,0,134,134,0,0,134,134,134,0,134,0,10/25/19 19:13,The main experiment item,yes,Sternbergtask.osexp,C:\Users\Edgar\Documents\Edgar School\Fall 2019\Lab 3-1,no,mono,no,18,no,white,no,yes,768,legacy,122,11,C:/Users/Edgar/Documents/Edgar School/Fall 2019/Lab 3-1/OJ-subject-4.csv,legacy,5 2,Kafkaesque Koffka,3.2.8,0,n,0,left,space,space,left,NA,423,61235,68899,423,NA,2,legacy,2,1024,2,48000,-16,experiment,4,even,7,991381,981644,989161,5984,218140,989167,987813,6003,149237,993388,993818,990175,67242,993388,NA,Sternberg task,106,86226,135,yes,1024
78.67647059,78.67647059,636.75,636.75,black,experiment,legacy,legacy,legacy,0,uniform,1,undefined,1,left,135,135,135,0,0,135,135,0,0,135,135,135,0,135,0,10/25/19 19:13,The main experiment item,yes,Sternbergtask.osexp,C:\Users\Edgar\Documents\Edgar School\Fall 2019\Lab 3-1,no,mono,no,18,no,white,no,yes,768,legacy,123,11,C:/Users/Edgar/Documents/Edgar School/Fall 2019/Lab 3-1/OJ-subject-4.csv,legacy,7 1 8 5 6 2,Kafkaesque Koffka,3.2.8,2,y,0,left,space,space,left,NA,372,61235,68899,372,NA,2,legacy,6,1024,2,48000,-16,experiment,4,even,1,997446,981644,995225,5984,218140,995232,993860,6003,149237,999453,999834,996239,67242,999452,NA,Sternberg task,107,86598,136,yes,1024
78.10218978,78.10218978,642.270073,642.270073,black,experiment,legacy,legacy,legacy,0,uniform,0,undefined,0,right,136,136,136,0,0,136,136,0,0,136,136,136,0,136,0,10/25/19 19:13,The main experiment item,yes,Sternbergtask.osexp,C:\Users\Edgar\Documents\Edgar School\Fall 2019\Lab 3-1,no,mono,no,18,no,white,no,yes,768,legacy,124,11,C:/Users/Edgar/Documents/Edgar School/Fall 2019/Lab 3-1/OJ-subject-4.csv,legacy,6 9 4 5 3 2,Kafkaesque Koffka,3.2.8,0,n,0,left,space,space,left,NA,1393,61235,68899,1393,NA,2,legacy,6,1024,2,48000,-16,experiment,4,even,8,1003470,999872,1001247,5984,218140,1001256,993860,6003,149237,1005477,1006878,1002263,67242,1005477,NA,Sternberg task,107,87991,137,yes,1024
78.26086957,78.26086957,641.2101449,641.2101449,black,experiment,legacy,legacy,legacy,0,uniform,1,undefined,1,left,137,137,137,0,0,137,137,0,0,137,137,137,0,137,0,10/25/19 19:13,The main experiment item,yes,Sternbergtask.osexp,C:\Users\Edgar\Documents\Edgar School\Fall 2019\Lab 3-1,no,mono,no,18,no,white,no,yes,768,legacy,125,11,C:/Users/Edgar/Documents/Edgar School/Fall 2019/Lab 3-1/OJ-subject-4.csv,legacy,6 7 8 5,Kafkaesque Koffka,3.2.8,3,y,0,left,space,space,left,NA,496,61235,68899,496,NA,2,legacy,4,1024,2,48000,-16,experiment,4,even,8,1010552,999872,1008331,5984,218140,1008338,1006951,6003,149237,1012558,1013063,1009345,67242,1012558,NA,Sternberg task,108,88487,138,yes,1024