"acc","accuracy","average_response_time","avg_rt","background","block","canvas_backend","clock_backend","color_backend","compensation","coordinates","correct","correct_instruction1","correct_keyboard_response","correct_response","count_ISI","count_correctFeedback","count_expSequense","count_experiment","count_experimentLoop","count_fixation","count_incorredtFeedback","count_instruction1","count_instructions2","count_keyboard_response","count_logger","count_memorySet","count_practiceLoop","count_probe","count_thankYou","datetime","description","disable_garbage_collection","experiment_file","experiment_path","font_bold","font_family","font_italic","font_size","font_underline","foreground","form_clicks","fullscreen","height","keyboard_backend","live_row","live_row_practiceLoop","logfile","mouse_backend","numberSet","opensesame_codename","opensesame_version","posInSet","present","repeat_cycle","response","response_instruction1","response_instructions2","response_keyboard_response","response_thankYou","response_time","response_time_instruction1","response_time_instructions2","response_time_keyboard_response","response_time_thankYou","round_decimals","sampler_backend","setSize","sound_buf_size","sound_channels","sound_freq","sound_sample_size","start","subject_nr","subject_parity","target","time_ISI","time_correctFeedback","time_expSequense","time_experiment","time_experimentLoop","time_fixation","time_incorredtFeedback","time_instruction1","time_instructions2","time_keyboard_response","time_logger","time_memorySet","time_practiceLoop","time_probe","time_thankYou","title","total_correct","total_response_time","total_responses","uniform_coordinates","width"
"100","100","1780","1780","black","practice","legacy","legacy","legacy","0","uniform","1","undefined","1","left","0","0","0","0","0","0","0","0","0","0","0","0","0","0","0","Sat Oct 24 11:01:18 2020","The main experiment item","yes","SternbergTask.osexp","/Users/suzannejosey/Documents","no","mono","no","18","no","white","no","no","768","legacy","0","0","/Users/suzannejosey/Documents/subject-2.csv","legacy","1 5 2 9","Lentiform Loewenfeld","3.3.3","2","y","0","left","down","NA","left","NA","1780","55465","NA","1780","NA","2","legacy","4","1024","2","48000","-16","experiment","2","even","5","60455","NA","58089","2448","NA","58144","NA","2538","NA","62520","64300","59202","58017","62520","NA","Sternberg Task","1","1780","1","yes","1024"
"100","100","1476.5","1476.5","black","practice","legacy","legacy","legacy","0","uniform","1","undefined","1","left","1","1","1","0","0","1","1","0","0","1","1","1","0","1","0","Sat Oct 24 11:01:18 2020","The main experiment item","yes","SternbergTask.osexp","/Users/suzannejosey/Documents","no","mono","no","18","no","white","no","no","768","legacy","1","1","/Users/suzannejosey/Documents/subject-2.csv","legacy","1 7 9 8 5","Lentiform Loewenfeld","3.3.3","4","y","0","left","down","NA","left","NA","1173","55465","NA","1173","NA","2","legacy","5","1024","2","48000","-16","experiment","2","even","8","68078","64433","65748","2448","NA","65792","NA","2538","NA","70123","71296","66839","58017","70123","NA","Sternberg Task","2","2953","2","yes","1024"
"100","100","1158.3333333333333","1158.3333333333333","black","practice","legacy","legacy","legacy","0","uniform","1","undefined","1","right","2","2","2","0","0","2","2","0","0","2","2","2","0","2","0","Sat Oct 24 11:01:18 2020","The main experiment item","yes","SternbergTask.osexp","/Users/suzannejosey/Documents","no","mono","no","18","no","white","no","no","768","legacy","2","2","/Users/suzannejosey/Documents/subject-2.csv","legacy","2 1","Lentiform Loewenfeld","3.3.3","0","n","0","right","down","NA","right","NA","522","55465","NA","522","NA","2","legacy","2","1024","2","48000","-16","experiment","2","even","5","74849","71342","72492","2448","NA","72553","NA","2538","NA","76894","77417","73600","58017","76894","NA","Sternberg Task","3","3475","3","yes","1024"
"100","100","1040.75","1040.75","black","practice","legacy","legacy","legacy","0","uniform","1","undefined","1","right","3","3","3","0","0","3","3","0","0","3","3","3","0","3","0","Sat Oct 24 11:01:18 2020","The main experiment item","yes","SternbergTask.osexp","/Users/suzannejosey/Documents","no","mono","no","18","no","white","no","no","768","legacy","3","3","/Users/suzannejosey/Documents/subject-2.csv","legacy","5","Lentiform Loewenfeld","3.3.3","0","n","0","right","down","NA","right","NA","688","55465","NA","688","NA","2","legacy","1","1024","2","48000","-16","experiment","2","even","3","80960","77466","78634","2448","NA","78673","NA","2538","NA","83003","83692","79719","58017","83003","NA","Sternberg Task","4","4163","4","yes","1024"
"100","100","937","937","black","practice","legacy","legacy","legacy","0","uniform","1","undefined","1","left","4","4","4","0","0","4","4","0","0","4","4","4","0","4","0","Sat Oct 24 11:01:18 2020","The main experiment item","yes","SternbergTask.osexp","/Users/suzannejosey/Documents","no","mono","no","18","no","white","no","no","768","legacy","4","4","/Users/suzannejosey/Documents/subject-2.csv","legacy","6","Lentiform Loewenfeld","3.3.3","1","y","0","left","down","NA","left","NA","522","55465","NA","522","NA","2","legacy","1","1024","2","48000","-16","experiment","2","even","6","87238","83742","84914","2448","NA","84953","NA","2538","NA","89282","89805","85999","58017","89282","NA","Sternberg Task","5","4685","5","yes","1024"
"100","100","887.8333333333334","887.8333333333334","black","practice","legacy","legacy","legacy","0","uniform","1","undefined","1","right","5","5","5","0","0","5","5","0","0","5","5","5","0","5","0","Sat Oct 24 11:01:18 2020","The main experiment item","yes","SternbergTask.osexp","/Users/suzannejosey/Documents","no","mono","no","18","no","white","no","no","768","legacy","5","5","/Users/suzannejosey/Documents/subject-2.csv","legacy","9 6 7 4 5","Lentiform Loewenfeld","3.3.3","0","n","0","right","down","NA","right","NA","642","55465","NA","642","NA","2","legacy","5","1024","2","48000","-16","experiment","2","even","3","93344","89859","91023","2448","NA","91060","NA","2538","NA","95389","96032","92107","58017","95389","NA","Sternberg Task","6","5327","6","yes","1024"
"100","100","878.8571428571429","878.8571428571429","black","practice","legacy","legacy","legacy","0","uniform","1","undefined","1","left","6","6","6","0","0","6","6","0","0","6","6","6","0","6","0","Sat Oct 24 11:01:18 2020","The main experiment item","yes","SternbergTask.osexp","/Users/suzannejosey/Documents","no","mono","no","18","no","white","no","no","768","legacy","6","6","/Users/suzannejosey/Documents/subject-2.csv","legacy","4 3 1 7 9 8","Lentiform Loewenfeld","3.3.3","1","y","0","left","down","NA","left","NA","825","55465","NA","825","NA","2","legacy","6","1024","2","48000","-16","experiment","2","even","4","99573","96081","97243","2448","NA","97281","NA","2538","NA","101611","102437","98327","58017","101611","NA","Sternberg Task","7","6152","7","yes","1024"
"100","100","934.625","934.625","black","practice","legacy","legacy","legacy","0","uniform","1","undefined","1","left","7","7","7","0","0","7","7","0","0","7","7","7","0","7","0","Sat Oct 24 11:01:18 2020","The main experiment item","yes","SternbergTask.osexp","/Users/suzannejosey/Documents","no","mono","no","18","no","white","no","no","768","legacy","7","7","/Users/suzannejosey/Documents/subject-2.csv","legacy","2 9 4","Lentiform Loewenfeld","3.3.3","3","y","0","left","down","NA","left","NA","1325","55465","NA","1325","NA","2","legacy","3","1024","2","48000","-16","experiment","2","even","4","105924","102483","103610","2448","NA","103648","NA","2538","NA","107969","109295","104687","58017","107969","NA","Sternberg Task","8","7477","8","yes","1024"
"100","100","895.3333333333334","895.3333333333334","black","practice","legacy","legacy","legacy","0","uniform","1","undefined","1","right","8","8","8","0","0","8","8","0","0","8","8","8","0","8","0","Sat Oct 24 11:01:18 2020","The main experiment item","yes","SternbergTask.osexp","/Users/suzannejosey/Documents","no","mono","no","18","no","white","no","no","768","legacy","8","8","/Users/suzannejosey/Documents/subject-2.csv","legacy","3 1 9 4","Lentiform Loewenfeld","3.3.3","0","n","0","right","down","NA","right","NA","581","55465","NA","581","NA","2","legacy","4","1024","2","48000","-16","experiment","2","even","6","112794","109342","110467","2448","NA","110506","NA","2538","NA","114833","115415","111545","58017","114833","NA","Sternberg Task","9","8058","9","yes","1024"
"100","100","912.4","912.4","black","practice","legacy","legacy","legacy","0","uniform","1","undefined","1","right","9","9","9","0","0","9","9","0","0","9","9","9","0","9","0","Sat Oct 24 11:01:18 2020","The main experiment item","yes","SternbergTask.osexp","/Users/suzannejosey/Documents","no","mono","no","18","no","white","no","no","768","legacy","9","9","/Users/suzannejosey/Documents/subject-2.csv","legacy","5 7 8 4 1 2","Lentiform Loewenfeld","3.3.3","0","n","0","right","down","NA","right","NA","1066","55465","NA","1066","NA","2","legacy","6","1024","2","48000","-16","experiment","2","even","6","118915","115468","116584","2448","NA","116624","NA","2538","NA","120959","122026","117666","58017","120959","NA","Sternberg Task","10","9124","10","yes","1024"
"100","100","906.6363636363636","906.6363636363636","black","practice","legacy","legacy","legacy","0","uniform","1","undefined","1","right","10","10","10","0","0","10","10","0","0","10","10","10","0","10","0","Sat Oct 24 11:01:18 2020","The main experiment item","yes","SternbergTask.osexp","/Users/suzannejosey/Documents","no","mono","no","18","no","white","no","no","768","legacy","10","10","/Users/suzannejosey/Documents/subject-2.csv","legacy","4 1 5","Lentiform Loewenfeld","3.3.3","0","n","0","right","down","NA","right","NA","849","55465","NA","849","NA","2","legacy","3","1024","2","48000","-16","experiment","2","even","2","125523","122068","123189","2448","NA","123228","NA","2538","NA","127567","128417","124274","58017","127567","NA","Sternberg Task","11","9973","11","yes","1024"
"91.66666666666667","91.66666666666667","877.8333333333334","877.8333333333334","black","practice","legacy","legacy","legacy","0","uniform","0","undefined","0","left","11","11","11","0","0","11","11","0","0","11","11","11","0","11","0","Sat Oct 24 11:01:18 2020","The main experiment item","yes","SternbergTask.osexp","/Users/suzannejosey/Documents","no","mono","no","18","no","white","no","no","768","legacy","11","11","/Users/suzannejosey/Documents/subject-2.csv","legacy","4 8","Lentiform Loewenfeld","3.3.3","1","y","0","right","down","NA","right","NA","561","55465","NA","561","NA","2","legacy","2","1024","2","48000","-16","experiment","2","even","4","131962","128465","129628","2448","NA","129671","NA","2538","NA","134006","134568","130716","58017","134006","NA","Sternberg Task","11","10534","12","yes","1024"
"92.3076923076923","92.3076923076923","920.6923076923077","920.6923076923077","black","experiment","legacy","legacy","legacy","0","uniform","1","undefined","1","left","12","12","12","0","0","12","12","0","0","12","12","12","0","12","0","Sat Oct 24 11:01:18 2020","The main experiment item","yes","SternbergTask.osexp","/Users/suzannejosey/Documents","no","mono","no","18","no","white","no","no","768","legacy","0","11","/Users/suzannejosey/Documents/subject-2.csv","legacy","6 1 2","Lentiform Loewenfeld","3.3.3","3","y","0","left","down","left","left","NA","1435","55465","4839","1435","NA","2","legacy","3","1024","2","48000","-16","experiment","2","even","2","142988","128465","140663","2448","140578","140700","134616","2538","135738","145027","146463","141741","58017","145027","NA","Sternberg Task","12","11969","13","yes","1024"
"92.85714285714286","92.85714285714286","912.8571428571429","912.8571428571429","black","experiment","legacy","legacy","legacy","0","uniform","1","undefined","1","right","13","13","13","0","0","13","13","0","0","13","13","13","0","13","0","Sat Oct 24 11:01:18 2020","The main experiment item","yes","SternbergTask.osexp","/Users/suzannejosey/Documents","no","mono","no","18","no","white","no","no","768","legacy","1","11","/Users/suzannejosey/Documents/subject-2.csv","legacy","5 9 2 3","Lentiform Loewenfeld","3.3.3","0","n","0","right","down","left","right","NA","811","55465","4839","811","NA","2","legacy","4","1024","2","48000","-16","experiment","2","even","8","150013","146511","147679","2448","140578","147723","134616","2538","135738","152058","152870","148769","58017","152058","NA","Sternberg Task","13","12780","14","yes","1024"
"93.33333333333333","93.33333333333333","915.3333333333334","915.3333333333334","black","experiment","legacy","legacy","legacy","0","uniform","1","undefined","1","left","14","14","14","0","0","14","14","0","0","14","14","14","0","14","0","Sat Oct 24 11:01:18 2020","The main experiment item","yes","SternbergTask.osexp","/Users/suzannejosey/Documents","no","mono","no","18","no","white","no","no","768","legacy","2","11","/Users/suzannejosey/Documents/subject-2.csv","legacy","2 5 4 8 7","Lentiform Loewenfeld","3.3.3","3","y","0","left","down","left","left","NA","950","55465","4839","950","NA","2","legacy","5","1024","2","48000","-16","experiment","2","even","4","156406","152916","154072","2448","140578","154113","134616","2538","135738","158449","159399","155158","58017","158449","NA","Sternberg Task","14","13730","15","yes","1024"
"93.75","93.75","906.0625","906.0625","black","experiment","legacy","legacy","legacy","0","uniform","1","undefined","1","left","15","15","15","0","0","15","15","0","0","15","15","15","0","15","0","Sat Oct 24 11:01:18 2020","The main experiment item","yes","SternbergTask.osexp","/Users/suzannejosey/Documents","no","mono","no","18","no","white","no","no","768","legacy","3","11","/Users/suzannejosey/Documents/subject-2.csv","legacy","7 1 8 5 6 2","Lentiform Loewenfeld","3.3.3","2","y","0","left","down","left","left","NA","767","55465","4839","767","NA","2","legacy","6","1024","2","48000","-16","experiment","2","even","1","162926","159442","160593","2448","140578","160638","134616","2538","135738","164970","165738","161685","58017","164970","NA","Sternberg Task","15","14497","16","yes","1024"
"94.11764705882354","94.11764705882354","887.7058823529412","887.7058823529412","black","experiment","legacy","legacy","legacy","0","uniform","1","undefined","1","left","16","16","16","0","0","16","16","0","0","16","16","16","0","16","0","Sat Oct 24 11:01:18 2020","The main experiment item","yes","SternbergTask.osexp","/Users/suzannejosey/Documents","no","mono","no","18","no","white","no","no","768","legacy","4","11","/Users/suzannejosey/Documents/subject-2.csv","legacy","9 1 6 7 8","Lentiform Loewenfeld","3.3.3","1","y","0","left","down","left","left","NA","594","55465","4839","594","NA","2","legacy","5","1024","2","48000","-16","experiment","2","even","9","169267","165788","166942","2448","140578","166981","134616","2538","135738","171311","171906","168024","58017","171311","NA","Sternberg Task","16","15091","17","yes","1024"
"94.44444444444444","94.44444444444444","879.5555555555555","879.5555555555555","black","experiment","legacy","legacy","legacy","0","uniform","1","undefined","1","right","17","17","17","0","0","17","17","0","0","17","17","17","0","17","0","Sat Oct 24 11:01:18 2020","The main experiment item","yes","SternbergTask.osexp","/Users/suzannejosey/Documents","no","mono","no","18","no","white","no","no","768","legacy","5","11","/Users/suzannejosey/Documents/subject-2.csv","legacy","2 5 1 4","Lentiform Loewenfeld","3.3.3","0","n","0","right","down","left","right","NA","741","55465","4839","741","NA","2","legacy","4","1024","2","48000","-16","experiment","2","even","6","175446","171956","173120","2448","140578","173157","134616","2538","135738","177490","178232","174203","58017","177490","NA","Sternberg Task","17","15832","18","yes","1024"
"94.73684210526316","94.73684210526316","879","879","black","experiment","legacy","legacy","legacy","0","uniform","1","undefined","1","right","18","18","18","0","0","18","18","0","0","18","18","18","0","18","0","Sat Oct 24 11:01:18 2020","The main experiment item","yes","SternbergTask.osexp","/Users/suzannejosey/Documents","no","mono","no","18","no","white","no","no","768","legacy","6","11","/Users/suzannejosey/Documents/subject-2.csv","legacy","7 4 2 8 1 9","Lentiform Loewenfeld","3.3.3","0","n","0","right","down","left","right","NA","869","55465","4839","869","NA","2","legacy","6","1024","2","48000","-16","experiment","2","even","5","181746","178274","179423","2448","140578","179462","134616","2538","135738","183790","184660","180507","58017","183790","NA","Sternberg Task","18","16701","19","yes","1024"
"95","95","861.45","861.45","black","experiment","legacy","legacy","legacy","0","uniform","1","undefined","1","left","19","19","19","0","0","19","19","0","0","19","19","19","0","19","0","Sat Oct 24 11:01:18 2020","The main experiment item","yes","SternbergTask.osexp","/Users/suzannejosey/Documents","no","mono","no","18","no","white","no","no","768","legacy","7","11","/Users/suzannejosey/Documents/subject-2.csv","legacy","8 1 6","Lentiform Loewenfeld","3.3.3","3","y","0","left","down","left","left","NA","528","55465","4839","528","NA","2","legacy","3","1024","2","48000","-16","experiment","2","even","6","188200","184714","185868","2448","140578","185909","134616","2538","135738","190245","190773","186954","58017","190245","NA","Sternberg Task","19","17229","20","yes","1024"
"95.23809523809524","95.23809523809524","854.5238095238095","854.5238095238095","black","experiment","legacy","legacy","legacy","0","uniform","1","undefined","1","right","20","20","20","0","0","20","20","0","0","20","20","20","0","20","0","Sat Oct 24 11:01:18 2020","The main experiment item","yes","SternbergTask.osexp","/Users/suzannejosey/Documents","no","mono","no","18","no","white","no","no","768","legacy","8","11","/Users/suzannejosey/Documents/subject-2.csv","legacy","9 5 3 2 8 6","Lentiform Loewenfeld","3.3.3","0","n","0","right","down","left","right","NA","716","55465","4839","716","NA","2","legacy","6","1024","2","48000","-16","experiment","2","even","7","194324","190817","191992","2448","140578","192035","134616","2538","135738","196369","197085","193084","58017","196368","NA","Sternberg Task","20","17945","21","yes","1024"
"95.45454545454545","95.45454545454545","856.8636363636364","856.8636363636364","black","experiment","legacy","legacy","legacy","0","uniform","1","undefined","1","left","21","21","21","0","0","21","21","0","0","21","21","21","0","21","0","Sat Oct 24 11:01:18 2020","The main experiment item","yes","SternbergTask.osexp","/Users/suzannejosey/Documents","no","mono","no","18","no","white","no","no","768","legacy","9","11","/Users/suzannejosey/Documents/subject-2.csv","legacy","9 5 8 1","Lentiform Loewenfeld","3.3.3","2","y","0","left","down","left","left","NA","906","55465","4839","906","NA","2","legacy","4","1024","2","48000","-16","experiment","2","even","5","200633","197134","198300","2448","140578","198337","134616","2538","135738","202677","203584","199383","58017","202677","NA","Sternberg Task","21","18851","22","yes","1024"
"95.65217391304348","95.65217391304348","856.2173913043479","856.2173913043479","black","experiment","legacy","legacy","legacy","0","uniform","1","undefined","1","left","22","22","22","0","0","22","22","0","0","22","22","22","0","22","0","Sat Oct 24 11:01:18 2020","The main experiment item","yes","SternbergTask.osexp","/Users/suzannejosey/Documents","no","mono","no","18","no","white","no","no","768","legacy","10","11","/Users/suzannejosey/Documents/subject-2.csv","legacy","3 5 9 6 2 4","Lentiform Loewenfeld","3.3.3","1","y","0","left","down","left","left","NA","842","55465","4839","842","NA","2","legacy","6","1024","2","48000","-16","experiment","2","even","3","207129","203651","204797","2448","140578","204840","134616","2538","135738","209172","210015","205886","58017","209172","NA","Sternberg Task","22","19693","23","yes","1024"
"95.83333333333333","95.83333333333333","848.7083333333334","848.7083333333334","black","experiment","legacy","legacy","legacy","0","uniform","1","undefined","1","left","23","23","23","0","0","23","23","0","0","23","23","23","0","23","0","Sat Oct 24 11:01:18 2020","The main experiment item","yes","SternbergTask.osexp","/Users/suzannejosey/Documents","no","mono","no","18","no","white","no","no","768","legacy","11","11","/Users/suzannejosey/Documents/subject-2.csv","legacy","2 4 8 5 1 3","Lentiform Loewenfeld","3.3.3","1","y","0","left","down","left","left","NA","676","55465","4839","676","NA","2","legacy","6","1024","2","48000","-16","experiment","2","even","2","213572","210061","211241","2448","140578","211289","134616","2538","135738","215630","216307","212331","58017","215630","NA","Sternberg Task","23","20369","24","yes","1024"
"96","96","838.16","838.16","black","experiment","legacy","legacy","legacy","0","uniform","1","undefined","1","right","24","24","24","0","0","24","24","0","0","24","24","24","0","24","0","Sat Oct 24 11:01:18 2020","The main experiment item","yes","SternbergTask.osexp","/Users/suzannejosey/Documents","no","mono","no","18","no","white","no","no","768","legacy","12","11","/Users/suzannejosey/Documents/subject-2.csv","legacy","1 6 4","Lentiform Loewenfeld","3.3.3","0","n","0","right","down","left","right","NA","585","55465","4839","585","NA","2","legacy","3","1024","2","48000","-16","experiment","2","even","7","219842","216349","217513","2448","140578","217553","134616","2538","135738","221886","222472","218599","58017","221886","NA","Sternberg Task","24","20954","25","yes","1024"
"96.15384615384616","96.15384615384616","838.7307692307693","838.7307692307693","black","experiment","legacy","legacy","legacy","0","uniform","1","undefined","1","right","25","25","25","0","0","25","25","0","0","25","25","25","0","25","0","Sat Oct 24 11:01:18 2020","The main experiment item","yes","SternbergTask.osexp","/Users/suzannejosey/Documents","no","mono","no","18","no","white","no","no","768","legacy","13","11","/Users/suzannejosey/Documents/subject-2.csv","legacy","6 9 4 5 3 2","Lentiform Loewenfeld","3.3.3","0","n","0","right","down","left","right","NA","853","55465","4839","853","NA","2","legacy","6","1024","2","48000","-16","experiment","2","even","8","226007","222520","223678","2448","140578","223720","134616","2538","135738","228052","228905","224766","58017","228051","NA","Sternberg Task","25","21807","26","yes","1024"
"96.29629629629629","96.29629629629629","833.3333333333334","833.3333333333334","black","experiment","legacy","legacy","legacy","0","uniform","1","undefined","1","left","26","26","26","0","0","26","26","0","0","26","26","26","0","26","0","Sat Oct 24 11:01:18 2020","The main experiment item","yes","SternbergTask.osexp","/Users/suzannejosey/Documents","no","mono","no","18","no","white","no","no","768","legacy","14","11","/Users/suzannejosey/Documents/subject-2.csv","legacy","8 7 3","Lentiform Loewenfeld","3.3.3","1","y","0","left","down","left","left","NA","693","55465","4839","693","NA","2","legacy","3","1024","2","48000","-16","experiment","2","even","8","232436","228956","230106","2448","140578","230148","134616","2538","135738","234479","235173","231194","58017","234479","NA","Sternberg Task","26","22500","27","yes","1024"
"96.42857142857143","96.42857142857143","831.6071428571429","831.6071428571429","black","experiment","legacy","legacy","legacy","0","uniform","1","undefined","1","left","27","27","27","0","0","27","27","0","0","27","27","27","0","27","0","Sat Oct 24 11:01:18 2020","The main experiment item","yes","SternbergTask.osexp","/Users/suzannejosey/Documents","no","mono","no","18","no","white","no","no","768","legacy","15","11","/Users/suzannejosey/Documents/subject-2.csv","legacy","9 4 2","Lentiform Loewenfeld","3.3.3","1","y","0","left","down","left","left","NA","785","55465","4839","785","NA","2","legacy","3","1024","2","48000","-16","experiment","2","even","9","238712","235228","236385","2448","140578","236424","134616","2538","135738","240756","241542","237470","58017","240755","NA","Sternberg Task","27","23285","28","yes","1024"
"96.55172413793103","96.55172413793103","834.2758620689655","834.2758620689655","black","experiment","legacy","legacy","legacy","0","uniform","1","undefined","1","left","28","28","28","0","0","28","28","0","0","28","28","28","0","28","0","Sat Oct 24 11:01:18 2020","The main experiment item","yes","SternbergTask.osexp","/Users/suzannejosey/Documents","no","mono","no","18","no","white","no","no","768","legacy","16","11","/Users/suzannejosey/Documents/subject-2.csv","legacy","4 3 2 5 8","Lentiform Loewenfeld","3.3.3","2","y","0","left","down","left","left","NA","909","55465","4839","909","NA","2","legacy","5","1024","2","48000","-16","experiment","2","even","3","245076","241588","242748","2448","140578","242789","134616","2538","135738","247118","248028","243835","58017","247118","NA","Sternberg Task","28","24194","29","yes","1024"
"96.66666666666667","96.66666666666667","842.3666666666667","842.3666666666667","black","experiment","legacy","legacy","legacy","0","uniform","1","undefined","1","left","29","29","29","0","0","29","29","0","0","29","29","29","0","29","0","Sat Oct 24 11:01:18 2020","The main experiment item","yes","SternbergTask.osexp","/Users/suzannejosey/Documents","no","mono","no","18","no","white","no","no","768","legacy","17","11","/Users/suzannejosey/Documents/subject-2.csv","legacy","3 5 7 1","Lentiform Loewenfeld","3.3.3","3","y","0","left","down","left","left","NA","1077","55465","4839","1077","NA","2","legacy","4","1024","2","48000","-16","experiment","2","even","7","251563","248082","249240","2448","140578","249278","134616","2538","135738","253607","254685","250321","58017","253607","NA","Sternberg Task","29","25271","30","yes","1024"
"96.7741935483871","96.7741935483871","845.0967741935484","845.0967741935484","black","experiment","legacy","legacy","legacy","0","uniform","1","undefined","1","left","30","30","30","0","0","30","30","0","0","30","30","30","0","30","0","Sat Oct 24 11:01:18 2020","The main experiment item","yes","SternbergTask.osexp","/Users/suzannejosey/Documents","no","mono","no","18","no","white","no","no","768","legacy","18","11","/Users/suzannejosey/Documents/subject-2.csv","legacy","9 1 7 2","Lentiform Loewenfeld","3.3.3","2","y","0","left","down","left","left","NA","927","55465","4839","927","NA","2","legacy","4","1024","2","48000","-16","experiment","2","even","1","258185","254732","255869","2448","140578","255905","134616","2538","135738","260231","261159","256947","58017","260231","NA","Sternberg Task","30","26198","31","yes","1024"
"96.875","96.875","843.3125","843.3125","black","experiment","legacy","legacy","legacy","0","uniform","1","undefined","1","right","31","31","31","0","0","31","31","0","0","31","31","31","0","31","0","Sat Oct 24 11:01:18 2020","The main experiment item","yes","SternbergTask.osexp","/Users/suzannejosey/Documents","no","mono","no","18","no","white","no","no","768","legacy","19","11","/Users/suzannejosey/Documents/subject-2.csv","legacy","6 8 4","Lentiform Loewenfeld","3.3.3","0","n","0","right","down","left","right","NA","788","55465","4839","788","NA","2","legacy","3","1024","2","48000","-16","experiment","2","even","1","264704","261209","262376","2448","140578","262417","134616","2538","135738","266749","267538","263464","58017","266749","NA","Sternberg Task","31","26986","32","yes","1024"
"96.96969696969697","96.96969696969697","845.3939393939394","845.3939393939394","black","experiment","legacy","legacy","legacy","0","uniform","1","undefined","1","left","32","32","32","0","0","32","32","0","0","32","32","32","0","32","0","Sat Oct 24 11:01:18 2020","The main experiment item","yes","SternbergTask.osexp","/Users/suzannejosey/Documents","no","mono","no","18","no","white","no","no","768","legacy","20","11","/Users/suzannejosey/Documents/subject-2.csv","legacy","9 6 2 4 1","Lentiform Loewenfeld","3.3.3","4","y","0","left","down","left","left","NA","912","55465","4839","912","NA","2","legacy","5","1024","2","48000","-16","experiment","2","even","4","271075","267589","268749","2448","140578","268787","134616","2538","135738","273119","274032","269832","58017","273118","NA","Sternberg Task","32","27898","33","yes","1024"
"97.05882352941177","97.05882352941177","844.5882352941177","844.5882352941177","black","experiment","legacy","legacy","legacy","0","uniform","1","undefined","1","left","33","33","33","0","0","33","33","0","0","33","33","33","0","33","0","Sat Oct 24 11:01:18 2020","The main experiment item","yes","SternbergTask.osexp","/Users/suzannejosey/Documents","no","mono","no","18","no","white","no","no","768","legacy","21","11","/Users/suzannejosey/Documents/subject-2.csv","legacy","2 3 7 4","Lentiform Loewenfeld","3.3.3","1","y","0","left","down","left","left","NA","818","55465","4839","818","NA","2","legacy","4","1024","2","48000","-16","experiment","2","even","2","277578","274085","275249","2448","140578","275287","134616","2538","135738","279622","280441","276333","58017","279622","NA","Sternberg Task","33","28716","34","yes","1024"
"97.14285714285714","97.14285714285714","837.9142857142857","837.9142857142857","black","experiment","legacy","legacy","legacy","0","uniform","1","undefined","1","right","34","34","34","0","0","34","34","0","0","34","34","34","0","34","0","Sat Oct 24 11:01:18 2020","The main experiment item","yes","SternbergTask.osexp","/Users/suzannejosey/Documents","no","mono","no","18","no","white","no","no","768","legacy","22","11","/Users/suzannejosey/Documents/subject-2.csv","legacy","1","Lentiform Loewenfeld","3.3.3","0","n","0","right","down","left","right","NA","611","55465","4839","611","NA","2","legacy","1","1024","2","48000","-16","experiment","2","even","7","283969","280492","281636","2448","140578","281681","134616","2538","135738","286012","286624","282727","58017","286012","NA","Sternberg Task","34","29327","35","yes","1024"
"97.22222222222223","97.22222222222223","833.9166666666666","833.9166666666666","black","experiment","legacy","legacy","legacy","0","uniform","1","undefined","1","right","35","35","35","0","0","35","35","0","0","35","35","35","0","35","0","Sat Oct 24 11:01:18 2020","The main experiment item","yes","SternbergTask.osexp","/Users/suzannejosey/Documents","no","mono","no","18","no","white","no","no","768","legacy","23","11","/Users/suzannejosey/Documents/subject-2.csv","legacy","5","Lentiform Loewenfeld","3.3.3","0","n","0","right","down","left","right","NA","694","55465","4839","694","NA","2","legacy","1","1024","2","48000","-16","experiment","2","even","8","290152","286668","287830","2448","140578","287869","134616","2538","135738","292197","292893","288915","58017","292196","NA","Sternberg Task","35","30021","36","yes","1024"
"97.29729729729729","97.29729729729729","838.8378378378378","838.8378378378378","black","experiment","legacy","legacy","legacy","0","uniform","1","undefined","1","right","36","36","36","0","0","36","36","0","0","36","36","36","0","36","0","Sat Oct 24 11:01:18 2020","The main experiment item","yes","SternbergTask.osexp","/Users/suzannejosey/Documents","no","mono","no","18","no","white","no","no","768","legacy","24","11","/Users/suzannejosey/Documents/subject-2.csv","legacy","8 5 7 3 6","Lentiform Loewenfeld","3.3.3","0","n","0","right","down","left","right","NA","1016","55465","4839","1016","NA","2","legacy","5","1024","2","48000","-16","experiment","2","even","9","296434","292939","294108","2448","140578","294147","134616","2538","135738","298478","299495","295193","58017","298477","NA","Sternberg Task","36","31037","37","yes","1024"
"97.36842105263158","97.36842105263158","843.8947368421053","843.8947368421053","black","experiment","legacy","legacy","legacy","0","uniform","1","undefined","1","left","37","37","37","0","0","37","37","0","0","37","37","37","0","37","0","Sat Oct 24 11:01:18 2020","The main experiment item","yes","SternbergTask.osexp","/Users/suzannejosey/Documents","no","mono","no","18","no","white","no","no","768","legacy","25","11","/Users/suzannejosey/Documents/subject-2.csv","legacy","8 5 4 7 3 1","Lentiform Loewenfeld","3.3.3","2","y","0","left","down","left","left","NA","1031","55465","4839","1031","NA","2","legacy","6","1024","2","48000","-16","experiment","2","even","5","303023","299539","300698","2448","140578","300737","134616","2538","135738","305067","306098","301784","58017","305066","NA","Sternberg Task","37","32068","38","yes","1024"
"97.43589743589743","97.43589743589743","850.974358974359","850.974358974359","black","experiment","legacy","legacy","legacy","0","uniform","1","undefined","1","right","38","38","38","0","0","38","38","0","0","38","38","38","0","38","0","Sat Oct 24 11:01:18 2020","The main experiment item","yes","SternbergTask.osexp","/Users/suzannejosey/Documents","no","mono","no","18","no","white","no","no","768","legacy","26","11","/Users/suzannejosey/Documents/subject-2.csv","legacy","1 6 4 3 9 7","Lentiform Loewenfeld","3.3.3","0","n","0","right","down","left","right","NA","1120","55465","4839","1120","NA","2","legacy","6","1024","2","48000","-16","experiment","2","even","8","309629","306143","307299","2448","140578","307337","134616","2538","135738","311673","312794","308385","58017","311673","NA","Sternberg Task","38","33188","39","yes","1024"
"97.5","97.5","852.15","852.15","black","experiment","legacy","legacy","legacy","0","uniform","1","undefined","1","left","39","39","39","0","0","39","39","0","0","39","39","39","0","39","0","Sat Oct 24 11:01:18 2020","The main experiment item","yes","SternbergTask.osexp","/Users/suzannejosey/Documents","no","mono","no","18","no","white","no","no","768","legacy","27","11","/Users/suzannejosey/Documents/subject-2.csv","legacy","3 2 1 4 7","Lentiform Loewenfeld","3.3.3","2","y","0","left","down","left","left","NA","898","55465","4839","898","NA","2","legacy","5","1024","2","48000","-16","experiment","2","even","2","316309","312844","313995","2448","140578","314033","134616","2538","135738","318352","319251","315070","58017","318352","NA","Sternberg Task","39","34086","40","yes","1024"
"97.5609756097561","97.5609756097561","846.9756097560976","846.9756097560976","black","experiment","legacy","legacy","legacy","0","uniform","1","undefined","1","left","40","40","40","0","0","40","40","0","0","40","40","40","0","40","0","Sat Oct 24 11:01:18 2020","The main experiment item","yes","SternbergTask.osexp","/Users/suzannejosey/Documents","no","mono","no","18","no","white","no","no","768","legacy","28","11","/Users/suzannejosey/Documents/subject-2.csv","legacy","3 5 4 7","Lentiform Loewenfeld","3.3.3","1","y","0","left","down","left","left","NA","640","55465","4839","640","NA","2","legacy","4","1024","2","48000","-16","experiment","2","even","3","322779","319300","320455","2448","140578","320493","134616","2538","135738","324832","325473","321539","58017","324831","NA","Sternberg Task","40","34726","41","yes","1024"
"97.61904761904762","97.61904761904762","844.9047619047619","844.9047619047619","black","experiment","legacy","legacy","legacy","0","uniform","1","undefined","1","right","41","41","41","0","0","41","41","0","0","41","41","41","0","41","0","Sat Oct 24 11:01:18 2020","The main experiment item","yes","SternbergTask.osexp","/Users/suzannejosey/Documents","no","mono","no","18","no","white","no","no","768","legacy","29","11","/Users/suzannejosey/Documents/subject-2.csv","legacy","2 8 9 4 1","Lentiform Loewenfeld","3.3.3","0","n","0","right","down","left","right","NA","760","55465","4839","760","NA","2","legacy","5","1024","2","48000","-16","experiment","2","even","5","329021","325521","326694","2448","140578","326733","134616","2538","135738","331066","331827","327780","58017","331066","NA","Sternberg Task","41","35486","42","yes","1024"
"97.67441860465117","97.67441860465117","855.5348837209302","855.5348837209302","black","experiment","legacy","legacy","legacy","0","uniform","1","undefined","1","left","42","42","42","0","0","42","42","0","0","42","42","42","0","42","0","Sat Oct 24 11:01:18 2020","The main experiment item","yes","SternbergTask.osexp","/Users/suzannejosey/Documents","no","mono","no","18","no","white","no","no","768","legacy","30","11","/Users/suzannejosey/Documents/subject-2.csv","legacy","5 7 3 6 2","Lentiform Loewenfeld","3.3.3","5","y","0","left","down","left","left","NA","1302","55465","4839","1302","NA","2","legacy","5","1024","2","48000","-16","experiment","2","even","2","335360","331875","333028","2448","140578","333069","134616","2538","135738","337404","338707","334115","58017","337404","NA","Sternberg Task","42","36788","43","yes","1024"
"97.72727272727273","97.72727272727273","854.9545454545455","854.9545454545455","black","experiment","legacy","legacy","legacy","0","uniform","1","undefined","1","right","43","43","43","0","0","43","43","0","0","43","43","43","0","43","0","Sat Oct 24 11:01:18 2020","The main experiment item","yes","SternbergTask.osexp","/Users/suzannejosey/Documents","no","mono","no","18","no","white","no","no","768","legacy","31","11","/Users/suzannejosey/Documents/subject-2.csv","legacy","4 2 7 6 1 3","Lentiform Loewenfeld","3.3.3","0","n","0","right","down","left","right","NA","830","55465","4839","830","NA","2","legacy","6","1024","2","48000","-16","experiment","2","even","8","342205","338747","339874","2448","140578","339912","134616","2538","135738","344243","345074","340958","58017","344243","NA","Sternberg Task","43","37618","44","yes","1024"
"97.77777777777777","97.77777777777777","850","850","black","experiment","legacy","legacy","legacy","0","uniform","1","undefined","1","left","44","44","44","0","0","44","44","0","0","44","44","44","0","44","0","Sat Oct 24 11:01:18 2020","The main experiment item","yes","SternbergTask.osexp","/Users/suzannejosey/Documents","no","mono","no","18","no","white","no","no","768","legacy","32","11","/Users/suzannejosey/Documents/subject-2.csv","legacy","8 9 6 1","Lentiform Loewenfeld","3.3.3","2","y","0","left","down","left","left","NA","632","55465","4839","632","NA","2","legacy","4","1024","2","48000","-16","experiment","2","even","9","348572","345114","346238","2448","140578","346276","134616","2538","135738","350615","351248","347323","58017","350615","NA","Sternberg Task","44","38250","45","yes","1024"
"97.82608695652173","97.82608695652173","847.5869565217391","847.5869565217391","black","experiment","legacy","legacy","legacy","0","uniform","1","undefined","1","right","45","45","45","0","0","45","45","0","0","45","45","45","0","45","0","Sat Oct 24 11:01:18 2020","The main experiment item","yes","SternbergTask.osexp","/Users/suzannejosey/Documents","no","mono","no","18","no","white","no","no","768","legacy","33","11","/Users/suzannejosey/Documents/subject-2.csv","legacy","4 8 1 2","Lentiform Loewenfeld","3.3.3","0","n","0","right","down","left","right","NA","739","55465","4839","739","NA","2","legacy","4","1024","2","48000","-16","experiment","2","even","7","354782","351294","352456","2448","140578","352494","134616","2538","135738","356826","357566","353539","58017","356826","NA","Sternberg Task","45","38989","46","yes","1024"
"97.87234042553192","97.87234042553192","850.936170212766","850.936170212766","black","experiment","legacy","legacy","legacy","0","uniform","1","undefined","1","right","46","46","46","0","0","46","46","0","0","46","46","46","0","46","0","Sat Oct 24 11:01:18 2020","The main experiment item","yes","SternbergTask.osexp","/Users/suzannejosey/Documents","no","mono","no","18","no","white","no","no","768","legacy","34","11","/Users/suzannejosey/Documents/subject-2.csv","legacy","5 3 8 7 2 4","Lentiform Loewenfeld","3.3.3","0","n","0","right","down","left","right","NA","1005","55465","4839","1005","NA","2","legacy","6","1024","2","48000","-16","experiment","2","even","9","361101","357614","358773","2448","140578","358814","134616","2538","135738","363146","364152","359858","58017","363145","NA","Sternberg Task","46","39994","47","yes","1024"
"97.91666666666667","97.91666666666667","857.0416666666666","857.0416666666666","black","experiment","legacy","legacy","legacy","0","uniform","1","undefined","1","left","47","47","47","0","0","47","47","0","0","47","47","47","0","47","0","Sat Oct 24 11:01:18 2020","The main experiment item","yes","SternbergTask.osexp","/Users/suzannejosey/Documents","no","mono","no","18","no","white","no","no","768","legacy","35","11","/Users/suzannejosey/Documents/subject-2.csv","legacy","3 4 9 6 2 9","Lentiform Loewenfeld","3.3.3","5","y","0","left","down","left","left","NA","1144","55465","4839","1144","NA","2","legacy","6","1024","2","48000","-16","experiment","2","even","2","367690","364213","365366","2448","140578","365406","134616","2538","135738","369734","370879","366452","58017","369734","NA","Sternberg Task","47","41138","48","yes","1024"
"97.95918367346938","97.95918367346938","855.7142857142857","855.7142857142857","black","experiment","legacy","legacy","legacy","0","uniform","1","undefined","1","right","48","48","48","0","0","48","48","0","0","48","48","48","0","48","0","Sat Oct 24 11:01:18 2020","The main experiment item","yes","SternbergTask.osexp","/Users/suzannejosey/Documents","no","mono","no","18","no","white","no","no","768","legacy","36","11","/Users/suzannejosey/Documents/subject-2.csv","legacy","7 6 4 8 1 2","Lentiform Loewenfeld","3.3.3","0","n","0","right","down","left","right","NA","792","55465","4839","792","NA","2","legacy","6","1024","2","48000","-16","experiment","2","even","9","374413","370926","372078","2448","140578","372118","134616","2538","135738","376457","377249","373172","58017","376457","NA","Sternberg Task","48","41930","49","yes","1024"
"98","98","865.66","865.66","black","experiment","legacy","legacy","legacy","0","uniform","1","undefined","1","right","49","49","49","0","0","49","49","0","0","49","49","49","0","49","0","Sat Oct 24 11:01:18 2020","The main experiment item","yes","SternbergTask.osexp","/Users/suzannejosey/Documents","no","mono","no","18","no","white","no","no","768","legacy","37","11","/Users/suzannejosey/Documents/subject-2.csv","legacy","9 7 4 5 8","Lentiform Loewenfeld","3.3.3","0","n","0","right","down","left","right","NA","1353","55465","4839","1353","NA","2","legacy","5","1024","2","48000","-16","experiment","2","even","6","380780","377291","378452","2448","140578","378491","134616","2538","135738","382825","384179","379537","58017","382825","NA","Sternberg Task","49","43283","50","yes","1024"
"98.03921568627452","98.03921568627452","866.9215686274509","866.9215686274509","black","experiment","legacy","legacy","legacy","0","uniform","1","undefined","1","right","50","50","50","0","0","50","50","0","0","50","50","50","0","50","0","Sat Oct 24 11:01:18 2020","The main experiment item","yes","SternbergTask.osexp","/Users/suzannejosey/Documents","no","mono","no","18","no","white","no","no","768","legacy","38","11","/Users/suzannejosey/Documents/subject-2.csv","legacy","6 7 5 9","Lentiform Loewenfeld","3.3.3","0","n","0","right","down","left","right","NA","930","55465","4839","930","NA","2","legacy","4","1024","2","48000","-16","experiment","2","even","2","387686","384223","385356","2448","140578","385394","134616","2538","135738","389729","390660","386438","58017","389729","NA","Sternberg Task","50","44213","51","yes","1024"
"98.07692307692308","98.07692307692308","869.3653846153846","869.3653846153846","black","experiment","legacy","legacy","legacy","0","uniform","1","undefined","1","right","51","51","51","0","0","51","51","0","0","51","51","51","0","51","0","Sat Oct 24 11:01:18 2020","The main experiment item","yes","SternbergTask.osexp","/Users/suzannejosey/Documents","no","mono","no","18","no","white","no","no","768","legacy","39","11","/Users/suzannejosey/Documents/subject-2.csv","legacy","1 7 5 2","Lentiform Loewenfeld","3.3.3","0","n","0","right","down","left","right","NA","994","55465","4839","994","NA","2","legacy","4","1024","2","48000","-16","experiment","2","even","3","394189","390715","391862","2448","140578","391903","134616","2538","135738","396234","397229","392948","58017","396233","NA","Sternberg Task","51","45207","52","yes","1024"
"98.11320754716981","98.11320754716981","867.811320754717","867.811320754717","black","experiment","legacy","legacy","legacy","0","uniform","1","undefined","1","right","52","52","52","0","0","52","52","0","0","52","52","52","0","52","0","Sat Oct 24 11:01:18 2020","The main experiment item","yes","SternbergTask.osexp","/Users/suzannejosey/Documents","no","mono","no","18","no","white","no","no","768","legacy","40","11","/Users/suzannejosey/Documents/subject-2.csv","legacy","8 2 1 4 5 9","Lentiform Loewenfeld","3.3.3","0","n","0","right","down","left","right","NA","787","55465","4839","787","NA","2","legacy","6","1024","2","48000","-16","experiment","2","even","7","400755","397275","398432","2448","140578","398471","134616","2538","135738","402798","403586","399517","58017","402798","NA","Sternberg Task","52","45994","53","yes","1024"
"98.14814814814815","98.14814814814815","871.2777777777778","871.2777777777778","black","experiment","legacy","legacy","legacy","0","uniform","1","undefined","1","left","53","53","53","0","0","53","53","0","0","53","53","53","0","53","0","Sat Oct 24 11:01:18 2020","The main experiment item","yes","SternbergTask.osexp","/Users/suzannejosey/Documents","no","mono","no","18","no","white","no","no","768","legacy","41","11","/Users/suzannejosey/Documents/subject-2.csv","legacy","7 1 3","Lentiform Loewenfeld","3.3.3","2","y","0","left","down","left","left","NA","1055","55465","4839","1055","NA","2","legacy","3","1024","2","48000","-16","experiment","2","even","1","407109","403636","404783","2448","140578","404825","134616","2538","135738","409154","410210","405871","58017","409154","NA","Sternberg Task","53","47049","54","yes","1024"
"98.18181818181819","98.18181818181819","870.2363636363636","870.2363636363636","black","experiment","legacy","legacy","legacy","0","uniform","1","undefined","1","left","54","54","54","0","0","54","54","0","0","54","54","54","0","54","0","Sat Oct 24 11:01:18 2020","The main experiment item","yes","SternbergTask.osexp","/Users/suzannejosey/Documents","no","mono","no","18","no","white","no","no","768","legacy","42","11","/Users/suzannejosey/Documents/subject-2.csv","legacy","3 9 7 6 4","Lentiform Loewenfeld","3.3.3","3","y","0","left","down","left","left","NA","814","55465","4839","814","NA","2","legacy","5","1024","2","48000","-16","experiment","2","even","7","413755","410263","411427","2448","140578","411465","134616","2538","135738","415795","416610","412514","58017","415795","NA","Sternberg Task","54","47863","55","yes","1024"
"98.21428571428571","98.21428571428571","867.0535714285714","867.0535714285714","black","experiment","legacy","legacy","legacy","0","uniform","1","undefined","1","right","55","55","55","0","0","55","55","0","0","55","55","55","0","55","0","Sat Oct 24 11:01:18 2020","The main experiment item","yes","SternbergTask.osexp","/Users/suzannejosey/Documents","no","mono","no","18","no","white","no","no","768","legacy","43","11","/Users/suzannejosey/Documents/subject-2.csv","legacy","5 2","Lentiform Loewenfeld","3.3.3","0","n","0","right","down","left","right","NA","692","55465","4839","692","NA","2","legacy","2","1024","2","48000","-16","experiment","2","even","7","420146","416662","417824","2448","140578","417862","134616","2538","135738","422190","422883","418908","58017","422190","NA","Sternberg Task","55","48555","56","yes","1024"
"98.24561403508773","98.24561403508773","866.6315789473684","866.6315789473684","black","experiment","legacy","legacy","legacy","0","uniform","1","undefined","1","left","56","56","56","0","0","56","56","0","0","56","56","56","0","56","0","Sat Oct 24 11:01:18 2020","The main experiment item","yes","SternbergTask.osexp","/Users/suzannejosey/Documents","no","mono","no","18","no","white","no","no","768","legacy","44","11","/Users/suzannejosey/Documents/subject-2.csv","legacy","6 2","Lentiform Loewenfeld","3.3.3","1","y","0","left","down","left","left","NA","843","55465","4839","843","NA","2","legacy","2","1024","2","48000","-16","experiment","2","even","6","426421","422933","424092","2448","140578","424130","134616","2538","135738","428465","429309","425176","58017","428465","NA","Sternberg Task","56","49398","57","yes","1024"
"98.27586206896552","98.27586206896552","873.9655172413793","873.9655172413793","black","experiment","legacy","legacy","legacy","0","uniform","1","undefined","1","left","57","57","57","0","0","57","57","0","0","57","57","57","0","57","0","Sat Oct 24 11:01:18 2020","The main experiment item","yes","SternbergTask.osexp","/Users/suzannejosey/Documents","no","mono","no","18","no","white","no","no","768","legacy","45","11","/Users/suzannejosey/Documents/subject-2.csv","legacy","8 3","Lentiform Loewenfeld","3.3.3","2","y","0","left","down","left","left","NA","1292","55465","4839","1292","NA","2","legacy","2","1024","2","48000","-16","experiment","2","even","3","432846","429358","430521","2448","140578","430558","134616","2538","135738","434890","436183","431603","58017","434890","NA","Sternberg Task","57","50690","58","yes","1024"
"98.30508474576271","98.30508474576271","871.9152542372881","871.9152542372881","black","experiment","legacy","legacy","legacy","0","uniform","1","undefined","1","left","58","58","58","0","0","58","58","0","0","58","58","58","0","58","0","Sat Oct 24 11:01:18 2020","The main experiment item","yes","SternbergTask.osexp","/Users/suzannejosey/Documents","no","mono","no","18","no","white","no","no","768","legacy","46","11","/Users/suzannejosey/Documents/subject-2.csv","legacy","2 8 5 1","Lentiform Loewenfeld","3.3.3","4","y","0","left","down","left","left","NA","753","55465","4839","753","NA","2","legacy","4","1024","2","48000","-16","experiment","2","even","1","439691","436229","437357","2448","140578","437395","134616","2538","135738","441729","442483","438443","58017","441728","NA","Sternberg Task","58","51443","59","yes","1024"
"98.33333333333333","98.33333333333333","871.3","871.3","black","experiment","legacy","legacy","legacy","0","uniform","1","undefined","1","right","59","59","59","0","0","59","59","0","0","59","59","59","0","59","0","Sat Oct 24 11:01:18 2020","The main experiment item","yes","SternbergTask.osexp","/Users/suzannejosey/Documents","no","mono","no","18","no","white","no","no","768","legacy","47","11","/Users/suzannejosey/Documents/subject-2.csv","legacy","7 1 5 6 3","Lentiform Loewenfeld","3.3.3","0","n","0","right","down","left","right","NA","835","55465","4839","835","NA","2","legacy","5","1024","2","48000","-16","experiment","2","even","8","445979","442525","443647","2448","140578","443685","134616","2538","135738","448022","448859","444731","58017","448022","NA","Sternberg Task","59","52278","60","yes","1024"
"98.36065573770492","98.36065573770492","869.655737704918","869.655737704918","black","experiment","legacy","legacy","legacy","0","uniform","1","undefined","1","right","60","60","60","0","0","60","60","0","0","60","60","60","0","60","0","Sat Oct 24 11:01:18 2020","The main experiment item","yes","SternbergTask.osexp","/Users/suzannejosey/Documents","no","mono","no","18","no","white","no","no","768","legacy","48","11","/Users/suzannejosey/Documents/subject-2.csv","legacy","6 9 7 3 8 2","Lentiform Loewenfeld","3.3.3","0","n","0","right","down","left","right","NA","771","55465","4839","771","NA","2","legacy","6","1024","2","48000","-16","experiment","2","even","5","452392","448903","450066","2448","140578","450104","134616","2538","135738","454436","455208","451150","58017","454436","NA","Sternberg Task","60","53049","61","yes","1024"
"98.38709677419355","98.38709677419355","868.758064516129","868.758064516129","black","experiment","legacy","legacy","legacy","0","uniform","1","undefined","1","right","61","61","61","0","0","61","61","0","0","61","61","61","0","61","0","Sat Oct 24 11:01:18 2020","The main experiment item","yes","SternbergTask.osexp","/Users/suzannejosey/Documents","no","mono","no","18","no","white","no","no","768","legacy","49","11","/Users/suzannejosey/Documents/subject-2.csv","legacy","1 4 9 3","Lentiform Loewenfeld","3.3.3","0","n","0","right","down","left","right","NA","814","55465","4839","814","NA","2","legacy","4","1024","2","48000","-16","experiment","2","even","5","458753","455263","456423","2448","140578","456464","134616","2538","135738","460797","461612","457510","58017","460796","NA","Sternberg Task","61","53863","62","yes","1024"
"98.41269841269842","98.41269841269842","866.4285714285714","866.4285714285714","black","experiment","legacy","legacy","legacy","0","uniform","1","undefined","1","left","62","62","62","0","0","62","62","0","0","62","62","62","0","62","0","Sat Oct 24 11:01:18 2020","The main experiment item","yes","SternbergTask.osexp","/Users/suzannejosey/Documents","no","mono","no","18","no","white","no","no","768","legacy","50","11","/Users/suzannejosey/Documents/subject-2.csv","legacy","6 7 9 3 1 2","Lentiform Loewenfeld","3.3.3","1","y","0","left","down","left","left","NA","722","55465","4839","722","NA","2","legacy","6","1024","2","48000","-16","experiment","2","even","6","465144","461658","462816","2448","140578","462857","134616","2538","135738","467188","467911","463903","58017","467188","NA","Sternberg Task","62","54585","63","yes","1024"
"98.4375","98.4375","862.984375","862.984375","black","experiment","legacy","legacy","legacy","0","uniform","1","undefined","1","left","63","63","63","0","0","63","63","0","0","63","63","63","0","63","0","Sat Oct 24 11:01:18 2020","The main experiment item","yes","SternbergTask.osexp","/Users/suzannejosey/Documents","no","mono","no","18","no","white","no","no","768","legacy","51","11","/Users/suzannejosey/Documents/subject-2.csv","legacy","9 5 3 8 4","Lentiform Loewenfeld","3.3.3","1","y","0","left","down","left","left","NA","646","55465","4839","646","NA","2","legacy","5","1024","2","48000","-16","experiment","2","even","9","471438","467955","469110","2448","140578","469151","134616","2538","135738","473481","474128","470197","58017","473481","NA","Sternberg Task","63","55231","64","yes","1024"
"98.46153846153847","98.46153846153847","861.0307692307692","861.0307692307692","black","experiment","legacy","legacy","legacy","0","uniform","1","undefined","1","right","64","64","64","0","0","64","64","0","0","64","64","64","0","64","0","Sat Oct 24 11:01:18 2020","The main experiment item","yes","SternbergTask.osexp","/Users/suzannejosey/Documents","no","mono","no","18","no","white","no","no","768","legacy","52","11","/Users/suzannejosey/Documents/subject-2.csv","legacy","7 3 2 8","Lentiform Loewenfeld","3.3.3","0","n","0","right","down","left","right","NA","736","55465","4839","736","NA","2","legacy","4","1024","2","48000","-16","experiment","2","even","4","477664","474173","475333","2448","140578","475375","134616","2538","135738","479708","480445","476421","58017","479708","NA","Sternberg Task","64","55967","65","yes","1024"
"98.48484848484848","98.48484848484848","857.6969696969697","857.6969696969697","black","experiment","legacy","legacy","legacy","0","uniform","1","undefined","1","right","65","65","65","0","0","65","65","0","0","65","65","65","0","65","0","Sat Oct 24 11:01:18 2020","The main experiment item","yes","SternbergTask.osexp","/Users/suzannejosey/Documents","no","mono","no","18","no","white","no","no","768","legacy","53","11","/Users/suzannejosey/Documents/subject-2.csv","legacy","6 8","Lentiform Loewenfeld","3.3.3","0","n","0","right","down","left","right","NA","641","55465","4839","641","NA","2","legacy","2","1024","2","48000","-16","experiment","2","even","9","483982","480493","481657","2448","140578","481696","134616","2538","135738","486024","486667","482742","58017","486024","NA","Sternberg Task","65","56608","66","yes","1024"
"98.50746268656717","98.50746268656717","857.776119402985","857.776119402985","black","experiment","legacy","legacy","legacy","0","uniform","1","undefined","1","left","66","66","66","0","0","66","66","0","0","66","66","66","0","66","0","Sat Oct 24 11:01:18 2020","The main experiment item","yes","SternbergTask.osexp","/Users/suzannejosey/Documents","no","mono","no","18","no","white","no","no","768","legacy","54","11","/Users/suzannejosey/Documents/subject-2.csv","legacy","4 6 2 5 1","Lentiform Loewenfeld","3.3.3","5","y","0","left","down","left","left","NA","863","55465","4839","863","NA","2","legacy","5","1024","2","48000","-16","experiment","2","even","1","490216","486722","487892","2448","140578","487929","134616","2538","135738","492259","493123","488975","58017","492259","NA","Sternberg Task","66","57471","67","yes","1024"
"98.52941176470588","98.52941176470588","872.2205882352941","872.2205882352941","black","experiment","legacy","legacy","legacy","0","uniform","1","undefined","1","right","67","67","67","0","0","67","67","0","0","67","67","67","0","67","0","Sat Oct 24 11:01:18 2020","The main experiment item","yes","SternbergTask.osexp","/Users/suzannejosey/Documents","no","mono","no","18","no","white","no","no","768","legacy","55","11","/Users/suzannejosey/Documents/subject-2.csv","legacy","7 9 1 6","Lentiform Loewenfeld","3.3.3","0","n","0","right","down","left","right","NA","1840","55465","4839","1840","NA","2","legacy","4","1024","2","48000","-16","experiment","2","even","4","496660","493172","494327","2448","140578","494369","134616","2538","135738","498704","500545","495417","58017","498703","NA","Sternberg Task","67","59311","68","yes","1024"
"98.55072463768116","98.55072463768116","871.4782608695652","871.4782608695652","black","experiment","legacy","legacy","legacy","0","uniform","1","undefined","1","right","68","68","68","0","0","68","68","0","0","68","68","68","0","68","0","Sat Oct 24 11:01:18 2020","The main experiment item","yes","SternbergTask.osexp","/Users/suzannejosey/Documents","no","mono","no","18","no","white","no","no","768","legacy","56","11","/Users/suzannejosey/Documents/subject-2.csv","legacy","5 7 3","Lentiform Loewenfeld","3.3.3","0","n","0","right","down","left","right","NA","821","55465","4839","821","NA","2","legacy","3","1024","2","48000","-16","experiment","2","even","9","504051","500586","501719","2448","140578","501758","134616","2538","135738","506095","506917","502803","58017","506095","NA","Sternberg Task","68","60132","69","yes","1024"
"98.57142857142857","98.57142857142857","871.1714285714286","871.1714285714286","black","experiment","legacy","legacy","legacy","0","uniform","1","undefined","1","right","69","69","69","0","0","69","69","0","0","69","69","69","0","69","0","Sat Oct 24 11:01:18 2020","The main experiment item","yes","SternbergTask.osexp","/Users/suzannejosey/Documents","no","mono","no","18","no","white","no","no","768","legacy","57","11","/Users/suzannejosey/Documents/subject-2.csv","legacy","2 8 9","Lentiform Loewenfeld","3.3.3","0","n","0","right","down","left","right","NA","850","55465","4839","850","NA","2","legacy","3","1024","2","48000","-16","experiment","2","even","6","510472","506973","508144","2448","140578","508184","134616","2538","135738","512515","513366","509230","58017","512515","NA","Sternberg Task","69","60982","70","yes","1024"
"98.59154929577464","98.59154929577464","872.0704225352113","872.0704225352113","black","experiment","legacy","legacy","legacy","0","uniform","1","undefined","1","left","70","70","70","0","0","70","70","0","0","70","70","70","0","70","0","Sat Oct 24 11:01:18 2020","The main experiment item","yes","SternbergTask.osexp","/Users/suzannejosey/Documents","no","mono","no","18","no","white","no","no","768","legacy","58","11","/Users/suzannejosey/Documents/subject-2.csv","legacy","5 2 9 6 1 7","Lentiform Loewenfeld","3.3.3","3","y","0","left","down","left","left","NA","935","55465","4839","935","NA","2","legacy","6","1024","2","48000","-16","experiment","2","even","9","516901","513425","514571","2448","140578","514611","134616","2538","135738","518944","519880","515657","58017","518944","NA","Sternberg Task","70","61917","71","yes","1024"
"98.61111111111111","98.61111111111111","871.7777777777778","871.7777777777778","black","experiment","legacy","legacy","legacy","0","uniform","1","undefined","1","right","71","71","71","0","0","71","71","0","0","71","71","71","0","71","0","Sat Oct 24 11:01:18 2020","The main experiment item","yes","SternbergTask.osexp","/Users/suzannejosey/Documents","no","mono","no","18","no","white","no","no","768","legacy","59","11","/Users/suzannejosey/Documents/subject-2.csv","legacy","1 8 7","Lentiform Loewenfeld","3.3.3","0","n","0","right","down","left","right","NA","851","55465","4839","851","NA","2","legacy","3","1024","2","48000","-16","experiment","2","even","4","523421","519930","521091","2448","140578","521132","134616","2538","135738","525465","526317","522178","58017","525465","NA","Sternberg Task","71","62768","72","yes","1024"
"98.63013698630137","98.63013698630137","869.6986301369863","869.6986301369863","black","experiment","legacy","legacy","legacy","0","uniform","1","undefined","1","left","72","72","72","0","0","72","72","0","0","72","72","72","0","72","0","Sat Oct 24 11:01:18 2020","The main experiment item","yes","SternbergTask.osexp","/Users/suzannejosey/Documents","no","mono","no","18","no","white","no","no","768","legacy","60","11","/Users/suzannejosey/Documents/subject-2.csv","legacy","6 7 8 5","Lentiform Loewenfeld","3.3.3","3","y","0","left","down","left","left","NA","720","55465","4839","720","NA","2","legacy","4","1024","2","48000","-16","experiment","2","even","8","529847","526363","527525","2448","140578","527563","134616","2538","135738","531891","532612","528609","58017","531891","NA","Sternberg Task","72","63488","73","yes","1024"
"98.64864864864865","98.64864864864865","865.418918918919","865.418918918919","black","experiment","legacy","legacy","legacy","0","uniform","1","undefined","1","left","73","73","73","0","0","73","73","0","0","73","73","73","0","73","0","Sat Oct 24 11:01:18 2020","The main experiment item","yes","SternbergTask.osexp","/Users/suzannejosey/Documents","no","mono","no","18","no","white","no","no","768","legacy","61","11","/Users/suzannejosey/Documents/subject-2.csv","legacy","8 9 5 6 7","Lentiform Loewenfeld","3.3.3","1","y","0","left","down","left","left","NA","553","55465","4839","553","NA","2","legacy","5","1024","2","48000","-16","experiment","2","even","8","536148","532667","533822","2448","140578","533863","134616","2538","135738","538192","538746","534908","58017","538192","NA","Sternberg Task","73","64041","74","yes","1024"
"98.66666666666667","98.66666666666667","862.36","862.36","black","experiment","legacy","legacy","legacy","0","uniform","1","undefined","1","right","74","74","74","0","0","74","74","0","0","74","74","74","0","74","0","Sat Oct 24 11:01:18 2020","The main experiment item","yes","SternbergTask.osexp","/Users/suzannejosey/Documents","no","mono","no","18","no","white","no","no","768","legacy","62","11","/Users/suzannejosey/Documents/subject-2.csv","legacy","3 9 8 1 6 4","Lentiform Loewenfeld","3.3.3","0","n","0","right","down","left","right","NA","636","55465","4839","636","NA","2","legacy","6","1024","2","48000","-16","experiment","2","even","7","542293","538805","539964","2448","140578","540004","134616","2538","135738","544337","544974","541049","58017","544337","NA","Sternberg Task","74","64677","75","yes","1024"
"98.6842105263158","98.6842105263158","864.7631578947369","864.7631578947369","black","experiment","legacy","legacy","legacy","0","uniform","1","undefined","1","left","75","75","75","0","0","75","75","0","0","75","75","75","0","75","0","Sat Oct 24 11:01:18 2020","The main experiment item","yes","SternbergTask.osexp","/Users/suzannejosey/Documents","no","mono","no","18","no","white","no","no","768","legacy","63","11","/Users/suzannejosey/Documents/subject-2.csv","legacy","2 4 6 9","Lentiform Loewenfeld","3.3.3","3","y","0","left","down","left","left","NA","1045","55465","4839","1045","NA","2","legacy","4","1024","2","48000","-16","experiment","2","even","6","548502","545024","546170","2448","140578","546215","134616","2538","135738","550545","551591","547260","58017","550545","NA","Sternberg Task","75","65722","76","yes","1024"
"98.7012987012987","98.7012987012987","862.7662337662338","862.7662337662338","black","experiment","legacy","legacy","legacy","0","uniform","1","undefined","1","right","76","76","76","0","0","76","76","0","0","76","76","76","0","76","0","Sat Oct 24 11:01:18 2020","The main experiment item","yes","SternbergTask.osexp","/Users/suzannejosey/Documents","no","mono","no","18","no","white","no","no","768","legacy","64","11","/Users/suzannejosey/Documents/subject-2.csv","legacy","8 4 3 5","Lentiform Loewenfeld","3.3.3","0","n","0","right","down","left","right","NA","711","55465","4839","711","NA","2","legacy","4","1024","2","48000","-16","experiment","2","even","6","555111","551641","552787","2448","140578","552827","134616","2538","135738","557156","557868","553873","58017","557155","NA","Sternberg Task","76","66433","77","yes","1024"
"98.71794871794872","98.71794871794872","862.8974358974359","862.8974358974359","black","experiment","legacy","legacy","legacy","0","uniform","1","undefined","1","right","77","77","77","0","0","77","77","0","0","77","77","77","0","77","0","Sat Oct 24 11:01:18 2020","The main experiment item","yes","SternbergTask.osexp","/Users/suzannejosey/Documents","no","mono","no","18","no","white","no","no","768","legacy","65","11","/Users/suzannejosey/Documents/subject-2.csv","legacy","3 4 2","Lentiform Loewenfeld","3.3.3","0","n","0","right","down","left","right","NA","873","55465","4839","873","NA","2","legacy","3","1024","2","48000","-16","experiment","2","even","5","561403","557917","559074","2448","140578","559115","134616","2538","135738","563446","564320","560161","58017","563446","NA","Sternberg Task","77","67306","78","yes","1024"
"98.73417721518987","98.73417721518987","860.7974683544304","860.7974683544304","black","experiment","legacy","legacy","legacy","0","uniform","1","undefined","1","right","78","78","78","0","0","78","78","0","0","78","78","78","0","78","0","Sat Oct 24 11:01:18 2020","The main experiment item","yes","SternbergTask.osexp","/Users/suzannejosey/Documents","no","mono","no","18","no","white","no","no","768","legacy","66","11","/Users/suzannejosey/Documents/subject-2.csv","legacy","3 9 1","Lentiform Loewenfeld","3.3.3","0","n","0","right","down","left","right","NA","697","55465","4839","697","NA","2","legacy","3","1024","2","48000","-16","experiment","2","even","7","567856","564366","565523","2448","140578","565563","134616","2538","135738","569899","570597","566608","58017","569898","NA","Sternberg Task","78","68003","79","yes","1024"
"98.75","98.75","863.3125","863.3125","black","experiment","legacy","legacy","legacy","0","uniform","1","undefined","1","left","79","79","79","0","0","79","79","0","0","79","79","79","0","79","0","Sat Oct 24 11:01:18 2020","The main experiment item","yes","SternbergTask.osexp","/Users/suzannejosey/Documents","no","mono","no","18","no","white","no","no","768","legacy","67","11","/Users/suzannejosey/Documents/subject-2.csv","legacy","9 3 1 2 5","Lentiform Loewenfeld","3.3.3","4","y","0","left","down","left","left","NA","1062","55465","4839","1062","NA","2","legacy","5","1024","2","48000","-16","experiment","2","even","2","574133","570645","571812","2448","140578","571851","134616","2538","135738","576177","577240","572895","58017","576177","NA","Sternberg Task","79","69065","80","yes","1024"
"98.76543209876543","98.76543209876543","862.8271604938271","862.8271604938271","black","experiment","legacy","legacy","legacy","0","uniform","1","undefined","1","left","80","80","80","0","0","80","80","0","0","80","80","80","0","80","0","Sat Oct 24 11:01:18 2020","The main experiment item","yes","SternbergTask.osexp","/Users/suzannejosey/Documents","no","mono","no","18","no","white","no","no","768","legacy","68","11","/Users/suzannejosey/Documents/subject-2.csv","legacy","7 2 3","Lentiform Loewenfeld","3.3.3","3","y","0","left","down","left","left","NA","824","55465","4839","824","NA","2","legacy","3","1024","2","48000","-16","experiment","2","even","3","580773","577293","578452","2448","140578","578490","134616","2538","135738","582817","583642","579535","58017","582817","NA","Sternberg Task","80","69889","81","yes","1024"
"98.78048780487805","98.78048780487805","861.109756097561","861.109756097561","black","experiment","legacy","legacy","legacy","0","uniform","1","undefined","1","left","81","81","81","0","0","81","81","0","0","81","81","81","0","81","0","Sat Oct 24 11:01:18 2020","The main experiment item","yes","SternbergTask.osexp","/Users/suzannejosey/Documents","no","mono","no","18","no","white","no","no","768","legacy","69","11","/Users/suzannejosey/Documents/subject-2.csv","legacy","3 9 6 2","Lentiform Loewenfeld","3.3.3","4","y","0","left","down","left","left","NA","722","55465","4839","722","NA","2","legacy","4","1024","2","48000","-16","experiment","2","even","2","587175","583692","584850","2448","140578","584890","134616","2538","135738","589219","589942","585935","58017","589219","NA","Sternberg Task","81","70611","82","yes","1024"
"98.79518072289157","98.79518072289157","859.289156626506","859.289156626506","black","experiment","legacy","legacy","legacy","0","uniform","1","undefined","1","right","82","82","82","0","0","82","82","0","0","82","82","82","0","82","0","Sat Oct 24 11:01:18 2020","The main experiment item","yes","SternbergTask.osexp","/Users/suzannejosey/Documents","no","mono","no","18","no","white","no","no","768","legacy","70","11","/Users/suzannejosey/Documents/subject-2.csv","legacy","7 1","Lentiform Loewenfeld","3.3.3","0","n","0","right","down","left","right","NA","710","55465","4839","710","NA","2","legacy","2","1024","2","48000","-16","experiment","2","even","8","593454","589987","591128","2448","140578","591168","134616","2538","135738","595499","596210","592214","58017","595498","NA","Sternberg Task","82","71321","83","yes","1024"
"98.80952380952381","98.80952380952381","858.4880952380952","858.4880952380952","black","experiment","legacy","legacy","legacy","0","uniform","1","undefined","1","left","83","83","83","0","0","83","83","0","0","83","83","83","0","83","0","Sat Oct 24 11:01:18 2020","The main experiment item","yes","SternbergTask.osexp","/Users/suzannejosey/Documents","no","mono","no","18","no","white","no","no","768","legacy","71","11","/Users/suzannejosey/Documents/subject-2.csv","legacy","8 9 5 7 1 6","Lentiform Loewenfeld","3.3.3","4","y","0","left","down","left","left","NA","792","55465","4839","792","NA","2","legacy","6","1024","2","48000","-16","experiment","2","even","7","599734","596257","597414","2448","140578","597451","134616","2538","135738","601778","602571","598496","58017","601778","NA","Sternberg Task","83","72113","84","yes","1024"
"98.82352941176471","98.82352941176471","856.4705882352941","856.4705882352941","black","experiment","legacy","legacy","legacy","0","uniform","1","undefined","1","right","84","84","84","0","0","84","84","0","0","84","84","84","0","84","0","Sat Oct 24 11:01:18 2020","The main experiment item","yes","SternbergTask.osexp","/Users/suzannejosey/Documents","no","mono","no","18","no","white","no","no","768","legacy","72","11","/Users/suzannejosey/Documents/subject-2.csv","legacy","1 7 5 2 9","Lentiform Loewenfeld","3.3.3","0","n","0","right","down","left","right","NA","687","55465","4839","687","NA","2","legacy","5","1024","2","48000","-16","experiment","2","even","3","606115","602623","603782","2448","140578","603823","134616","2538","135738","608159","608847","604875","58017","608159","NA","Sternberg Task","84","72800","85","yes","1024"
"98.83720930232558","98.83720930232558","857.3372093023256","857.3372093023256","black","experiment","legacy","legacy","legacy","0","uniform","1","undefined","1","left","85","85","85","0","0","85","85","0","0","85","85","85","0","85","0","Sat Oct 24 11:01:18 2020","The main experiment item","yes","SternbergTask.osexp","/Users/suzannejosey/Documents","no","mono","no","18","no","white","no","no","768","legacy","73","11","/Users/suzannejosey/Documents/subject-2.csv","legacy","7 4 2 6 3 5","Lentiform Loewenfeld","3.3.3","6","y","0","left","down","left","left","NA","931","55465","4839","931","NA","2","legacy","6","1024","2","48000","-16","experiment","2","even","5","612378","608898","610053","2448","140578","610091","134616","2538","135738","614422","615355","611136","58017","614422","NA","Sternberg Task","85","73731","86","yes","1024"
"98.85057471264368","98.85057471264368","857.0574712643678","857.0574712643678","black","experiment","legacy","legacy","legacy","0","uniform","1","undefined","1","right","86","86","86","0","0","86","86","0","0","86","86","86","0","86","0","Sat Oct 24 11:01:18 2020","The main experiment item","yes","SternbergTask.osexp","/Users/suzannejosey/Documents","no","mono","no","18","no","white","no","no","768","legacy","74","11","/Users/suzannejosey/Documents/subject-2.csv","legacy","6 3 1 7 9 8","Lentiform Loewenfeld","3.3.3","0","n","0","right","down","left","right","NA","833","55465","4839","833","NA","2","legacy","6","1024","2","48000","-16","experiment","2","even","4","618888","615404","616564","2448","140578","616603","134616","2538","135738","620932","621766","617647","58017","620932","NA","Sternberg Task","86","74564","87","yes","1024"
"98.86363636363636","98.86363636363636","864.0568181818181","864.0568181818181","black","experiment","legacy","legacy","legacy","0","uniform","1","undefined","1","right","87","87","87","0","0","87","87","0","0","87","87","87","0","87","0","Sat Oct 24 11:01:18 2020","The main experiment item","yes","SternbergTask.osexp","/Users/suzannejosey/Documents","no","mono","no","18","no","white","no","no","768","legacy","75","11","/Users/suzannejosey/Documents/subject-2.csv","legacy","7 8 6 1","Lentiform Loewenfeld","3.3.3","0","n","0","right","down","left","right","NA","1473","55465","4839","1473","NA","2","legacy","4","1024","2","48000","-16","experiment","2","even","3","625304","621815","622980","2448","140578","623018","134616","2538","135738","627348","628822","624063","58017","627348","NA","Sternberg Task","87","76037","88","yes","1024"
"98.87640449438203","98.87640449438203","864.2696629213483","864.2696629213483","black","experiment","legacy","legacy","legacy","0","uniform","1","undefined","1","right","88","88","88","0","0","88","88","0","0","88","88","88","0","88","0","Sat Oct 24 11:01:18 2020","The main experiment item","yes","SternbergTask.osexp","/Users/suzannejosey/Documents","no","mono","no","18","no","white","no","no","768","legacy","76","11","/Users/suzannejosey/Documents/subject-2.csv","legacy","2 8 6 3 1","Lentiform Loewenfeld","3.3.3","0","n","0","right","down","left","right","NA","883","55465","4839","883","NA","2","legacy","5","1024","2","48000","-16","experiment","2","even","7","632323","628861","629993","2448","140578","630031","134616","2538","135738","634368","635252","631074","58017","634368","NA","Sternberg Task","88","76920","89","yes","1024"
"98.88888888888889","98.88888888888889","861.7","861.7","black","experiment","legacy","legacy","legacy","0","uniform","1","undefined","1","left","89","89","89","0","0","89","89","0","0","89","89","89","0","89","0","Sat Oct 24 11:01:18 2020","The main experiment item","yes","SternbergTask.osexp","/Users/suzannejosey/Documents","no","mono","no","18","no","white","no","no","768","legacy","77","11","/Users/suzannejosey/Documents/subject-2.csv","legacy","4 6 5 8","Lentiform Loewenfeld","3.3.3","1","y","0","left","down","left","left","NA","633","55465","4839","633","NA","2","legacy","4","1024","2","48000","-16","experiment","2","even","4","638790","635300","636464","2448","140578","636506","134616","2538","135738","640834","641468","637551","58017","640834","NA","Sternberg Task","89","77553","90","yes","1024"
"98.9010989010989","98.9010989010989","862.967032967033","862.967032967033","black","experiment","legacy","legacy","legacy","0","uniform","1","undefined","1","left","90","90","90","0","0","90","90","0","0","90","90","90","0","90","0","Sat Oct 24 11:01:18 2020","The main experiment item","yes","SternbergTask.osexp","/Users/suzannejosey/Documents","no","mono","no","18","no","white","no","no","768","legacy","78","11","/Users/suzannejosey/Documents/subject-2.csv","legacy","4 7 6 8 2 3","Lentiform Loewenfeld","3.3.3","6","y","0","left","down","left","left","NA","977","55465","4839","977","NA","2","legacy","6","1024","2","48000","-16","experiment","2","even","3","644992","641514","642661","2448","140578","642705","134616","2538","135738","647035","648014","643751","58017","647035","NA","Sternberg Task","90","78530","91","yes","1024"
"98.91304347826087","98.91304347826087","861.2608695652174","861.2608695652174","black","experiment","legacy","legacy","legacy","0","uniform","1","undefined","1","right","91","91","91","0","0","91","91","0","0","91","91","91","0","91","0","Sat Oct 24 11:01:18 2020","The main experiment item","yes","SternbergTask.osexp","/Users/suzannejosey/Documents","no","mono","no","18","no","white","no","no","768","legacy","79","11","/Users/suzannejosey/Documents/subject-2.csv","legacy","7 1 8 4 9 3","Lentiform Loewenfeld","3.3.3","0","n","0","right","down","left","right","NA","706","55465","4839","706","NA","2","legacy","6","1024","2","48000","-16","experiment","2","even","6","651563","648062","649234","2448","140578","649271","134616","2538","135738","653606","654313","650320","58017","653606","NA","Sternberg Task","91","79236","92","yes","1024"
"97.84946236559139","97.84946236559139","863.010752688172","863.010752688172","black","experiment","legacy","legacy","legacy","0","uniform","0","undefined","0","left","92","92","92","0","0","92","92","0","0","92","92","92","0","92","0","Sat Oct 24 11:01:18 2020","The main experiment item","yes","SternbergTask.osexp","/Users/suzannejosey/Documents","no","mono","no","18","no","white","no","no","768","legacy","80","11","/Users/suzannejosey/Documents/subject-2.csv","legacy","9 3 8 2 1 4","Lentiform Loewenfeld","3.3.3","3","y","0","right","down","left","right","NA","1024","55465","4839","1024","NA","2","legacy","6","1024","2","48000","-16","experiment","2","even","8","657852","654369","655526","2448","140578","655565","134616","2538","135738","659895","660920","656611","58017","659895","NA","Sternberg Task","91","80260","93","yes","1024"
"97.87234042553192","97.87234042553192","863.5957446808511","863.5957446808511","black","experiment","legacy","legacy","legacy","0","uniform","1","undefined","1","left","93","93","93","0","0","93","93","0","0","93","93","93","0","93","0","Sat Oct 24 11:01:18 2020","The main experiment item","yes","SternbergTask.osexp","/Users/suzannejosey/Documents","no","mono","no","18","no","white","no","no","768","legacy","81","11","/Users/suzannejosey/Documents/subject-2.csv","legacy","7 8 4 6 9 5","Lentiform Loewenfeld","3.3.3","4","y","0","left","down","left","left","NA","918","55465","4839","918","NA","2","legacy","6","1024","2","48000","-16","experiment","2","even","6","664445","654369","662119","2448","140578","662157","660968","2538","135738","666489","667408","663203","58017","666489","NA","Sternberg Task","92","81178","94","yes","1024"
"97.89473684210526","97.89473684210526","865.2105263157895","865.2105263157895","black","experiment","legacy","legacy","legacy","0","uniform","1","undefined","1","left","94","94","94","0","0","94","94","0","0","94","94","94","0","94","0","Sat Oct 24 11:01:18 2020","The main experiment item","yes","SternbergTask.osexp","/Users/suzannejosey/Documents","no","mono","no","18","no","white","no","no","768","legacy","82","11","/Users/suzannejosey/Documents/subject-2.csv","legacy","8 5 3 7 4 6","Lentiform Loewenfeld","3.3.3","6","y","0","left","down","left","left","NA","1017","55465","4839","1017","NA","2","legacy","6","1024","2","48000","-16","experiment","2","even","6","670945","667456","668619","2448","140578","668658","660968","2538","135738","672990","674009","669704","58017","672989","NA","Sternberg Task","93","82195","95","yes","1024"
"97.91666666666667","97.91666666666667","864.5833333333334","864.5833333333334","black","experiment","legacy","legacy","legacy","0","uniform","1","undefined","1","right","95","95","95","0","0","95","95","0","0","95","95","95","0","95","0","Sat Oct 24 11:01:18 2020","The main experiment item","yes","SternbergTask.osexp","/Users/suzannejosey/Documents","no","mono","no","18","no","white","no","no","768","legacy","83","11","/Users/suzannejosey/Documents/subject-2.csv","legacy","8 4 3 9","Lentiform Loewenfeld","3.3.3","0","n","0","right","down","left","right","NA","805","55465","4839","805","NA","2","legacy","4","1024","2","48000","-16","experiment","2","even","5","677537","674052","675214","2448","140578","675252","660968","2538","135738","679581","680388","676299","58017","679580","NA","Sternberg Task","94","83000","96","yes","1024"
"97.9381443298969","97.9381443298969","863.7938144329897","863.7938144329897","black","experiment","legacy","legacy","legacy","0","uniform","1","undefined","1","right","96","96","96","0","0","96","96","0","0","96","96","96","0","96","0","Sat Oct 24 11:01:18 2020","The main experiment item","yes","SternbergTask.osexp","/Users/suzannejosey/Documents","no","mono","no","18","no","white","no","no","768","legacy","84","11","/Users/suzannejosey/Documents/subject-2.csv","legacy","4 2 6 9","Lentiform Loewenfeld","3.3.3","0","n","0","right","down","left","right","NA","788","55465","4839","788","NA","2","legacy","4","1024","2","48000","-16","experiment","2","even","7","683922","680438","681599","2448","140578","681638","660968","2538","135738","685966","686755","682684","58017","685966","NA","Sternberg Task","95","83788","97","yes","1024"
"97.95918367346938","97.95918367346938","863.6734693877551","863.6734693877551","black","experiment","legacy","legacy","legacy","0","uniform","1","undefined","1","right","97","97","97","0","0","97","97","0","0","97","97","97","0","97","0","Sat Oct 24 11:01:18 2020","The main experiment item","yes","SternbergTask.osexp","/Users/suzannejosey/Documents","no","mono","no","18","no","white","no","no","768","legacy","85","11","/Users/suzannejosey/Documents/subject-2.csv","legacy","2 3 8 5 6 7","Lentiform Loewenfeld","3.3.3","0","n","0","right","down","left","right","NA","852","55465","4839","852","NA","2","legacy","6","1024","2","48000","-16","experiment","2","even","1","690288","686810","687967","2448","140578","688004","660968","2538","135738","692331","693184","689048","58017","692331","NA","Sternberg Task","96","84640","98","yes","1024"
"97.97979797979798","97.97979797979798","863.7070707070707","863.7070707070707","black","experiment","legacy","legacy","legacy","0","uniform","1","undefined","1","left","98","98","98","0","0","98","98","0","0","98","98","98","0","98","0","Sat Oct 24 11:01:18 2020","The main experiment item","yes","SternbergTask.osexp","/Users/suzannejosey/Documents","no","mono","no","18","no","white","no","no","768","legacy","86","11","/Users/suzannejosey/Documents/subject-2.csv","legacy","2 6 1 7 4","Lentiform Loewenfeld","3.3.3","2","y","0","left","down","left","left","NA","867","55465","4839","867","NA","2","legacy","5","1024","2","48000","-16","experiment","2","even","6","696714","693226","694389","2448","140578","694430","660968","2538","135738","698757","699625","695475","58017","698757","NA","Sternberg Task","97","85507","99","yes","1024"
"98","98","861.28","861.28","black","experiment","legacy","legacy","legacy","0","uniform","1","undefined","1","left","99","99","99","0","0","99","99","0","0","99","99","99","0","99","0","Sat Oct 24 11:01:18 2020","The main experiment item","yes","SternbergTask.osexp","/Users/suzannejosey/Documents","no","mono","no","18","no","white","no","no","768","legacy","87","11","/Users/suzannejosey/Documents/subject-2.csv","legacy","7 6","Lentiform Loewenfeld","3.3.3","2","y","0","left","down","left","left","NA","621","55465","4839","621","NA","2","legacy","2","1024","2","48000","-16","experiment","2","even","6","703145","699670","700816","2448","140578","700860","660968","2538","135738","705189","705811","701905","58017","705189","NA","Sternberg Task","98","86128","100","yes","1024"
"98.01980198019803","98.01980198019803","859.5940594059406","859.5940594059406","black","experiment","legacy","legacy","legacy","0","uniform","1","undefined","1","right","100","100","100","0","0","100","100","0","0","100","100","100","0","100","0","Sat Oct 24 11:01:18 2020","The main experiment item","yes","SternbergTask.osexp","/Users/suzannejosey/Documents","no","mono","no","18","no","white","no","no","768","legacy","88","11","/Users/suzannejosey/Documents/subject-2.csv","legacy","7 9","Lentiform Loewenfeld","3.3.3","0","n","0","right","down","left","right","NA","691","55465","4839","691","NA","2","legacy","2","1024","2","48000","-16","experiment","2","even","1","709346","705862","707018","2448","140578","707059","660968","2538","135738","711391","712083","708104","58017","711391","NA","Sternberg Task","99","86819","101","yes","1024"
"98.03921568627452","98.03921568627452","859.0588235294117","859.0588235294117","black","experiment","legacy","legacy","legacy","0","uniform","1","undefined","1","right","101","101","101","0","0","101","101","0","0","101","101","101","0","101","0","Sat Oct 24 11:01:18 2020","The main experiment item","yes","SternbergTask.osexp","/Users/suzannejosey/Documents","no","mono","no","18","no","white","no","no","768","legacy","89","11","/Users/suzannejosey/Documents/subject-2.csv","legacy","3 4 9 6 7 8","Lentiform Loewenfeld","3.3.3","0","n","0","right","down","left","right","NA","805","55465","4839","805","NA","2","legacy","6","1024","2","48000","-16","experiment","2","even","2","715608","712128","713282","2448","140578","713323","660968","2538","135738","717651","718458","714370","58017","717651","NA","Sternberg Task","100","87624","102","yes","1024"
"98.05825242718447","98.05825242718447","866.6019417475728","866.6019417475728","black","experiment","legacy","legacy","legacy","0","uniform","1","undefined","1","left","102","102","102","0","0","102","102","0","0","102","102","102","0","102","0","Sat Oct 24 11:01:18 2020","The main experiment item","yes","SternbergTask.osexp","/Users/suzannejosey/Documents","no","mono","no","18","no","white","no","no","768","legacy","90","11","/Users/suzannejosey/Documents/subject-2.csv","legacy","1 4 9 3 2 5","Lentiform Loewenfeld","3.3.3","3","y","0","left","down","left","left","NA","1636","55465","4839","1636","NA","2","legacy","6","1024","2","48000","-16","experiment","2","even","9","721997","718511","719674","2448","140578","719712","660968","2538","135738","724041","725679","720757","58017","724041","NA","Sternberg Task","101","89260","103","yes","1024"
"98.07692307692308","98.07692307692308","866.6826923076923","866.6826923076923","black","experiment","legacy","legacy","legacy","0","uniform","1","undefined","1","left","103","103","103","0","0","103","103","0","0","103","103","103","0","103","0","Sat Oct 24 11:01:18 2020","The main experiment item","yes","SternbergTask.osexp","/Users/suzannejosey/Documents","no","mono","no","18","no","white","no","no","768","legacy","91","11","/Users/suzannejosey/Documents/subject-2.csv","legacy","7 8 6 3 1","Lentiform Loewenfeld","3.3.3","5","y","0","left","down","left","left","NA","875","55465","4839","875","NA","2","legacy","5","1024","2","48000","-16","experiment","2","even","1","729182","725718","726850","2448","140578","726889","660968","2538","135738","731226","732103","727934","58017","731226","NA","Sternberg Task","102","90135","104","yes","1024"
"98.0952380952381","98.0952380952381","866.3523809523809","866.3523809523809","black","experiment","legacy","legacy","legacy","0","uniform","1","undefined","1","right","104","104","104","0","0","104","104","0","0","104","104","104","0","104","0","Sat Oct 24 11:01:18 2020","The main experiment item","yes","SternbergTask.osexp","/Users/suzannejosey/Documents","no","mono","no","18","no","white","no","no","768","legacy","92","11","/Users/suzannejosey/Documents/subject-2.csv","legacy","2 7 5","Lentiform Loewenfeld","3.3.3","0","n","0","right","down","left","right","NA","832","55465","4839","832","NA","2","legacy","3","1024","2","48000","-16","experiment","2","even","8","735631","732150","733295","2448","140578","733337","660968","2538","135738","737675","738508","734385","58017","737675","NA","Sternberg Task","103","90967","105","yes","1024"
"98.11320754716981","98.11320754716981","864.1132075471698","864.1132075471698","black","experiment","legacy","legacy","legacy","0","uniform","1","undefined","1","left","105","105","105","0","0","105","105","0","0","105","105","105","0","105","0","Sat Oct 24 11:01:18 2020","The main experiment item","yes","SternbergTask.osexp","/Users/suzannejosey/Documents","no","mono","no","18","no","white","no","no","768","legacy","93","11","/Users/suzannejosey/Documents/subject-2.csv","legacy","8","Lentiform Loewenfeld","3.3.3","1","y","0","left","down","left","left","NA","629","55465","4839","629","NA","2","legacy","1","1024","2","48000","-16","experiment","2","even","8","742048","738562","739718","2448","140578","739758","660968","2538","135738","744092","744722","740804","58017","744091","NA","Sternberg Task","104","91596","106","yes","1024"
"98.13084112149532","98.13084112149532","862.7570093457944","862.7570093457944","black","experiment","legacy","legacy","legacy","0","uniform","1","undefined","1","right","106","106","106","0","0","106","106","0","0","106","106","106","0","106","0","Sat Oct 24 11:01:18 2020","The main experiment item","yes","SternbergTask.osexp","/Users/suzannejosey/Documents","no","mono","no","18","no","white","no","no","768","legacy","94","11","/Users/suzannejosey/Documents/subject-2.csv","legacy","2 6 4 3 9","Lentiform Loewenfeld","3.3.3","0","n","0","right","down","left","right","NA","719","55465","4839","719","NA","2","legacy","5","1024","2","48000","-16","experiment","2","even","1","748250","744771","745925","2448","140578","745966","660968","2538","135738","750294","751014","747011","58017","750294","NA","Sternberg Task","105","92315","107","yes","1024"
"98.14814814814815","98.14814814814815","860.5648148148148","860.5648148148148","black","experiment","legacy","legacy","legacy","0","uniform","1","undefined","1","left","107","107","107","0","0","107","107","0","0","107","107","107","0","107","0","Sat Oct 24 11:01:18 2020","The main experiment item","yes","SternbergTask.osexp","/Users/suzannejosey/Documents","no","mono","no","18","no","white","no","no","768","legacy","95","11","/Users/suzannejosey/Documents/subject-2.csv","legacy","4 1 5","Lentiform Loewenfeld","3.3.3","2","y","0","left","down","left","left","NA","626","55465","4839","626","NA","2","legacy","3","1024","2","48000","-16","experiment","2","even","1","754538","751056","752211","2448","140578","752252","660968","2538","135738","756583","757210","753298","58017","756583","NA","Sternberg Task","106","92941","108","yes","1024"
"98.1651376146789","98.1651376146789","865.4036697247707","865.4036697247707","black","experiment","legacy","legacy","legacy","0","uniform","1","undefined","1","left","108","108","108","0","0","108","108","0","0","108","108","108","0","108","0","Sat Oct 24 11:01:18 2020","The main experiment item","yes","SternbergTask.osexp","/Users/suzannejosey/Documents","no","mono","no","18","no","white","no","no","768","legacy","96","11","/Users/suzannejosey/Documents/subject-2.csv","legacy","6 8 9 3 4 9","Lentiform Loewenfeld","3.3.3","5","y","0","left","down","left","left","NA","1388","55465","4839","1388","NA","2","legacy","6","1024","2","48000","-16","experiment","2","even","4","760740","757253","758413","2448","140578","758452","660968","2538","135738","762783","764173","759497","58017","762783","NA","Sternberg Task","107","94329","109","yes","1024"
"98.18181818181819","98.18181818181819","864.8909090909091","864.8909090909091","black","experiment","legacy","legacy","legacy","0","uniform","1","undefined","1","right","109","109","109","0","0","109","109","0","0","109","109","109","0","109","0","Sat Oct 24 11:01:18 2020","The main experiment item","yes","SternbergTask.osexp","/Users/suzannejosey/Documents","no","mono","no","18","no","white","no","no","768","legacy","97","11","/Users/suzannejosey/Documents/subject-2.csv","legacy","1 4 3 6 5","Lentiform Loewenfeld","3.3.3","0","n","0","right","down","left","right","NA","809","55465","4839","809","NA","2","legacy","5","1024","2","48000","-16","experiment","2","even","8","767682","764218","765349","2448","140578","765389","660968","2538","135738","769727","770538","766434","58017","769726","NA","Sternberg Task","108","95138","110","yes","1024"
"98.1981981981982","98.1981981981982","866.5315315315315","866.5315315315315","black","experiment","legacy","legacy","legacy","0","uniform","1","undefined","1","left","110","110","110","0","0","110","110","0","0","110","110","110","0","110","0","Sat Oct 24 11:01:18 2020","The main experiment item","yes","SternbergTask.osexp","/Users/suzannejosey/Documents","no","mono","no","18","no","white","no","no","768","legacy","98","11","/Users/suzannejosey/Documents/subject-2.csv","legacy","5 2 6","Lentiform Loewenfeld","3.3.3","2","y","0","left","down","left","left","NA","1047","55465","4839","1047","NA","2","legacy","3","1024","2","48000","-16","experiment","2","even","2","774057","770586","771723","2448","140578","771762","660968","2538","135738","776101","777149","772805","58017","776101","NA","Sternberg Task","109","96185","111","yes","1024"
"98.21428571428571","98.21428571428571","865.6428571428571","865.6428571428571","black","experiment","legacy","legacy","legacy","0","uniform","1","undefined","1","right","111","111","111","0","0","111","111","0","0","111","111","111","0","111","0","Sat Oct 24 11:01:18 2020","The main experiment item","yes","SternbergTask.osexp","/Users/suzannejosey/Documents","no","mono","no","18","no","white","no","no","768","legacy","99","11","/Users/suzannejosey/Documents/subject-2.csv","legacy","1 3 2 6 9","Lentiform Loewenfeld","3.3.3","0","n","0","right","down","left","right","NA","767","55465","4839","767","NA","2","legacy","5","1024","2","48000","-16","experiment","2","even","5","780672","777198","778343","2448","140578","778383","660968","2538","135738","782716","783484","779429","58017","782716","NA","Sternberg Task","110","96952","112","yes","1024"
"98.23008849557522","98.23008849557522","865.9380530973451","865.9380530973451","black","experiment","legacy","legacy","legacy","0","uniform","1","undefined","1","left","112","112","112","0","0","112","112","0","0","112","112","112","0","112","0","Sat Oct 24 11:01:18 2020","The main experiment item","yes","SternbergTask.osexp","/Users/suzannejosey/Documents","no","mono","no","18","no","white","no","no","768","legacy","100","11","/Users/suzannejosey/Documents/subject-2.csv","legacy","6 9 7 4 5 1","Lentiform Loewenfeld","3.3.3","2","y","0","left","down","left","left","NA","899","55465","4839","899","NA","2","legacy","6","1024","2","48000","-16","experiment","2","even","9","787019","783532","784690","2448","140578","784731","660968","2538","135738","789062","789962","785777","58017","789062","NA","Sternberg Task","111","97851","113","yes","1024"
"98.24561403508773","98.24561403508773","865.7543859649123","865.7543859649123","black","experiment","legacy","legacy","legacy","0","uniform","1","undefined","1","right","113","113","113","0","0","113","113","0","0","113","113","113","0","113","0","Sat Oct 24 11:01:18 2020","The main experiment item","yes","SternbergTask.osexp","/Users/suzannejosey/Documents","no","mono","no","18","no","white","no","no","768","legacy","101","11","/Users/suzannejosey/Documents/subject-2.csv","legacy","8 6 3 4 7","Lentiform Loewenfeld","3.3.3","0","n","0","right","down","left","right","NA","845","55465","4839","845","NA","2","legacy","5","1024","2","48000","-16","experiment","2","even","1","793492","790011","791172","2448","140578","791211","660968","2538","135738","795536","796382","792250","58017","795535","NA","Sternberg Task","112","98696","114","yes","1024"
"98.26086956521739","98.26086956521739","866.8521739130434","866.8521739130434","black","experiment","legacy","legacy","legacy","0","uniform","1","undefined","1","right","114","114","114","0","0","114","114","0","0","114","114","114","0","114","0","Sat Oct 24 11:01:18 2020","The main experiment item","yes","SternbergTask.osexp","/Users/suzannejosey/Documents","no","mono","no","18","no","white","no","no","768","legacy","102","11","/Users/suzannejosey/Documents/subject-2.csv","legacy","1 4 9 2 5","Lentiform Loewenfeld","3.3.3","0","n","0","right","down","left","right","NA","992","55465","4839","992","NA","2","legacy","5","1024","2","48000","-16","experiment","2","even","7","799916","796434","797590","2448","140578","797632","660968","2538","135738","801960","802954","798678","58017","801959","NA","Sternberg Task","113","99688","115","yes","1024"
"98.27586206896552","98.27586206896552","865.0086206896551","865.0086206896551","black","experiment","legacy","legacy","legacy","0","uniform","1","undefined","1","left","115","115","115","0","0","115","115","0","0","115","115","115","0","115","0","Sat Oct 24 11:01:18 2020","The main experiment item","yes","SternbergTask.osexp","/Users/suzannejosey/Documents","no","mono","no","18","no","white","no","no","768","legacy","103","11","/Users/suzannejosey/Documents/subject-2.csv","legacy","8 5 1 3 9","Lentiform Loewenfeld","3.3.3","4","y","0","left","down","left","left","NA","653","55465","4839","653","NA","2","legacy","5","1024","2","48000","-16","experiment","2","even","3","806490","802995","804166","2448","140578","804205","660968","2538","135738","808534","809188","805251","58017","808534","NA","Sternberg Task","114","100341","116","yes","1024"
"98.2905982905983","98.2905982905983","864.5384615384615","864.5384615384615","black","experiment","legacy","legacy","legacy","0","uniform","1","undefined","1","right","116","116","116","0","0","116","116","0","0","116","116","116","0","116","0","Sat Oct 24 11:01:18 2020","The main experiment item","yes","SternbergTask.osexp","/Users/suzannejosey/Documents","no","mono","no","18","no","white","no","no","768","legacy","104","11","/Users/suzannejosey/Documents/subject-2.csv","legacy","8 5 4 2 9 6","Lentiform Loewenfeld","3.3.3","0","n","0","right","down","left","right","NA","810","55465","4839","810","NA","2","legacy","6","1024","2","48000","-16","experiment","2","even","3","812718","809236","810389","2448","140578","810429","660968","2538","135738","814761","815572","811476","58017","814761","NA","Sternberg Task","115","101151","117","yes","1024"
"98.30508474576271","98.30508474576271","864.042372881356","864.042372881356","black","experiment","legacy","legacy","legacy","0","uniform","1","undefined","1","left","117","117","117","0","0","117","117","0","0","117","117","117","0","117","0","Sat Oct 24 11:01:18 2020","The main experiment item","yes","SternbergTask.osexp","/Users/suzannejosey/Documents","no","mono","no","18","no","white","no","no","768","legacy","105","11","/Users/suzannejosey/Documents/subject-2.csv","legacy","5 7 8 2 3 8","Lentiform Loewenfeld","3.3.3","5","y","0","left","down","left","left","NA","806","55465","4839","806","NA","2","legacy","6","1024","2","48000","-16","experiment","2","even","3","819106","815617","816781","2448","140578","816820","660968","2538","135738","821150","821958","817866","58017","821149","NA","Sternberg Task","116","101957","118","yes","1024"
