"acc","accuracy","average_response_time","avg_rt","background","block","canvas_backend","clock_backend","color_backend","correct","correct_Instruction1","correct_keyboard_response","correct_response","count_CorrectFeedback","count_Fixation","count_ISI","count_IncorrectFeedback","count_Instruction1","count_Instructions2","count_MemorySet","count_Probe","count_ThankYou","count_expSequence","count_experiment","count_experimentLoop","count_keyboard_response","count_logger","count_practiceLoop","datetime","description","disable_garbage_collection","experiment_file","experiment_path","font_bold","font_family","font_italic","font_size","font_underline","foreground","form_clicks","fullscreen","height","keyboard_backend","live_row","live_row_practiceLoop","logfile","mouse_backend","numberSet","opensesame_codename","opensesame_version","posInSet","present","repeat_cycle","response","response_Instruction1","response_Instructions2","response_ThankYou","response_keyboard_response","response_time","response_time_Instruction1","response_time_Instructions2","response_time_ThankYou","response_time_keyboard_response","round_decimals","sampler_backend","setSize","sound_buf_size","sound_channels","sound_freq","sound_sample_size","start","subject_nr","subject_parity","target","time_CorrectFeedback","time_Fixation","time_ISI","time_IncorrectFeedback","time_Instruction1","time_Instructions2","time_MemorySet","time_Probe","time_ThankYou","time_expSequence","time_experiment","time_experimentLoop","time_keyboard_response","time_logger","time_practiceLoop","title","total_correct","total_response_time","total_responses","width"
"100","100","1461","1461","#3d3846","practice","legacy","legacy","legacy","1","undefined","1","left","0","0","0","0","0","0","0","0","0","0","0","0","0","0","0","Sun Oct 22 20:32:10 2023","The main experiment item","True","SternbergTask.osexp","C:\Users\Hannah Laskoskie\Desktop\OpenSesame SternburgTask","False","mono","False","18","no","white","no","yes","768","legacy","0","0","C:/Users/Hannah Laskoskie/Desktop/OpenSesame SternburgTask/HL-subject-3.csv","legacy","2 9 4","Melodramatic Milgram","4.0.5","3","y","0","left","up","NA","NA","left","1461.0","100800","NA","NA","1461","2","legacy","3","1024","2","48000","-16","experiment","3","odd","4","NA","105523","107725","NA","4416","NA","106524","109726","NA","105522","4413","NA","109726","111187","105217","Sternberg Task","1","1461.0","1","1024"
"100","100","1329","1329","#3d3846","practice","legacy","legacy","legacy","1","undefined","1","right","1","1","1","1","0","0","1","1","0","1","0","0","1","1","0","Sun Oct 22 20:32:10 2023","The main experiment item","True","SternbergTask.osexp","C:\Users\Hannah Laskoskie\Desktop\OpenSesame SternburgTask","False","mono","False","18","no","white","no","yes","768","legacy","1","1","C:/Users/Hannah Laskoskie/Desktop/OpenSesame SternburgTask/HL-subject-3.csv","legacy","9 6 7 4 5","Melodramatic Milgram","4.0.5","0","n","0","right","up","NA","NA","right","1198.0","100800","NA","NA","1198","2","legacy","5","1024","2","48000","-16","experiment","3","odd","3","111225","112276","114478","NA","4416","NA","113277","116479","NA","112274","4413","NA","116479","117678","105217","Sternberg Task","2","2659.0","2","1024"
"100","100","1269","1269","#3d3846","practice","legacy","legacy","legacy","1","undefined","1","right","2","2","2","2","0","0","2","2","0","2","0","0","2","2","0","Sun Oct 22 20:32:10 2023","The main experiment item","True","SternbergTask.osexp","C:\Users\Hannah Laskoskie\Desktop\OpenSesame SternburgTask","False","mono","False","18","no","white","no","yes","768","legacy","2","2","C:/Users/Hannah Laskoskie/Desktop/OpenSesame SternburgTask/HL-subject-3.csv","legacy","3 1 9 4","Melodramatic Milgram","4.0.5","0","n","0","right","up","NA","NA","right","1149.0","100800","NA","NA","1149","2","legacy","4","1024","2","48000","-16","experiment","3","odd","6","117687","118736","120938","NA","4416","NA","119737","122939","NA","118734","4413","NA","122939","124089","105217","Sternberg Task","3","3808.0","3","1024"
"100","100","1088","1088","#3d3846","practice","legacy","legacy","legacy","1","undefined","1","left","3","3","3","3","0","0","3","3","0","3","0","0","3","3","0","Sun Oct 22 20:32:10 2023","The main experiment item","True","SternbergTask.osexp","C:\Users\Hannah Laskoskie\Desktop\OpenSesame SternburgTask","False","mono","False","18","no","white","no","yes","768","legacy","3","3","C:/Users/Hannah Laskoskie/Desktop/OpenSesame SternburgTask/HL-subject-3.csv","legacy","4 8","Melodramatic Milgram","4.0.5","1","y","0","left","up","NA","NA","left","546.0","100800","NA","NA","546","2","legacy","2","1024","2","48000","-16","experiment","3","odd","4","124098","125148","127350","NA","4416","NA","126149","129351","NA","125146","4413","NA","129351","129898","105217","Sternberg Task","4","4354.0","4","1024"
"100","100","1035","1035","#3d3846","practice","legacy","legacy","legacy","1","undefined","1","right","4","4","4","4","0","0","4","4","0","4","0","0","4","4","0","Sun Oct 22 20:32:10 2023","The main experiment item","True","SternbergTask.osexp","C:\Users\Hannah Laskoskie\Desktop\OpenSesame SternburgTask","False","mono","False","18","no","white","no","yes","768","legacy","4","4","C:/Users/Hannah Laskoskie/Desktop/OpenSesame SternburgTask/HL-subject-3.csv","legacy","5 7 8 4 1 2","Melodramatic Milgram","4.0.5","0","n","0","right","up","NA","NA","right","821.0","100800","NA","NA","821","2","legacy","6","1024","2","48000","-16","experiment","3","odd","6","129901","130952","133154","NA","4416","NA","131953","135155","NA","130949","4413","NA","135155","135977","105217","Sternberg Task","5","5175.0","5","1024"
"100","100","1043","1043","#3d3846","practice","legacy","legacy","legacy","1","undefined","1","left","5","5","5","5","0","0","5","5","0","5","0","0","5","5","0","Sun Oct 22 20:32:10 2023","The main experiment item","True","SternbergTask.osexp","C:\Users\Hannah Laskoskie\Desktop\OpenSesame SternburgTask","False","mono","False","18","no","white","no","yes","768","legacy","5","5","C:/Users/Hannah Laskoskie/Desktop/OpenSesame SternburgTask/HL-subject-3.csv","legacy","4 3 1 7 9 8","Melodramatic Milgram","4.0.5","1","y","0","left","up","NA","NA","left","1085.0","100800","NA","NA","1085","2","legacy","6","1024","2","48000","-16","experiment","3","odd","4","135980","137032","139234","NA","4416","NA","138033","141235","NA","137029","4413","NA","141235","142321","105217","Sternberg Task","6","6260.0","6","1024"
"100","100","964","964","#3d3846","practice","legacy","legacy","legacy","1","undefined","1","left","6","6","6","6","0","0","6","6","0","6","0","0","6","6","0","Sun Oct 22 20:32:10 2023","The main experiment item","True","SternbergTask.osexp","C:\Users\Hannah Laskoskie\Desktop\OpenSesame SternburgTask","False","mono","False","18","no","white","no","yes","768","legacy","6","6","C:/Users/Hannah Laskoskie/Desktop/OpenSesame SternburgTask/HL-subject-3.csv","legacy","6","Melodramatic Milgram","4.0.5","1","y","0","left","up","NA","NA","left","492.0","100800","NA","NA","492","2","legacy","1","1024","2","48000","-16","experiment","3","odd","6","142325","143374","145576","NA","4416","NA","144375","147577","NA","143372","4413","NA","147577","148069","105217","Sternberg Task","7","6752.0","7","1024"
"87","87","944","944","#3d3846","practice","legacy","legacy","legacy","0","undefined","0","left","7","7","7","7","0","0","7","7","0","7","0","0","7","7","0","Sun Oct 22 20:32:10 2023","The main experiment item","True","SternbergTask.osexp","C:\Users\Hannah Laskoskie\Desktop\OpenSesame SternburgTask","False","mono","False","18","no","white","no","yes","768","legacy","7","7","C:/Users/Hannah Laskoskie/Desktop/OpenSesame SternburgTask/HL-subject-3.csv","legacy","1 7 9 8 5","Melodramatic Milgram","4.0.5","4","y","0","right","up","NA","NA","right","804.0","100800","NA","NA","804","2","legacy","5","1024","2","48000","-16","experiment","3","odd","8","148079","149143","151345","NA","4416","NA","150144","153346","NA","149141","4413","NA","153346","154151","105217","Sternberg Task","7","7556.0","8","1024"
"88","88","925","925","#3d3846","practice","legacy","legacy","legacy","1","undefined","1","left","8","8","8","8","0","0","8","8","0","8","0","0","8","8","0","Sun Oct 22 20:32:10 2023","The main experiment item","True","SternbergTask.osexp","C:\Users\Hannah Laskoskie\Desktop\OpenSesame SternburgTask","False","mono","False","18","no","white","no","yes","768","legacy","8","8","C:/Users/Hannah Laskoskie/Desktop/OpenSesame SternburgTask/HL-subject-3.csv","legacy","1 5 2 9","Melodramatic Milgram","4.0.5","2","y","0","left","up","NA","NA","left","775.0","100800","NA","NA","775","2","legacy","4","1024","2","48000","-16","experiment","3","odd","5","148079","155205","157407","154159","4416","NA","156206","159408","NA","155203","4413","NA","159408","160184","105217","Sternberg Task","8","8331.0","9","1024"
"90","90","882","882","#3d3846","practice","legacy","legacy","legacy","1","undefined","1","right","9","9","9","9","0","0","9","9","0","9","0","0","9","9","0","Sun Oct 22 20:32:10 2023","The main experiment item","True","SternbergTask.osexp","C:\Users\Hannah Laskoskie\Desktop\OpenSesame SternburgTask","False","mono","False","18","no","white","no","yes","768","legacy","9","9","C:/Users/Hannah Laskoskie/Desktop/OpenSesame SternburgTask/HL-subject-3.csv","legacy","5","Melodramatic Milgram","4.0.5","0","n","0","right","up","NA","NA","right","496.0","100800","NA","NA","496","2","legacy","1","1024","2","48000","-16","experiment","3","odd","3","160192","161237","163439","154159","4416","NA","162238","165440","NA","161234","4413","NA","165440","165936","105217","Sternberg Task","9","8827.0","10","1024"
"90","90","864","864","#3d3846","practice","legacy","legacy","legacy","1","undefined","1","right","10","10","10","10","0","0","10","10","0","10","0","0","10","10","0","Sun Oct 22 20:32:10 2023","The main experiment item","True","SternbergTask.osexp","C:\Users\Hannah Laskoskie\Desktop\OpenSesame SternburgTask","False","mono","False","18","no","white","no","yes","768","legacy","10","10","C:/Users/Hannah Laskoskie/Desktop/OpenSesame SternburgTask/HL-subject-3.csv","legacy","4 1 5","Melodramatic Milgram","4.0.5","0","n","0","right","up","NA","NA","right","682.0","100800","NA","NA","682","2","legacy","3","1024","2","48000","-16","experiment","3","odd","2","165945","166988","169190","154159","4416","NA","167989","171191","NA","166986","4413","NA","171191","171874","105217","Sternberg Task","10","9509.0","11","1024"
"91","91","836","836","#3d3846","practice","legacy","legacy","legacy","1","undefined","1","right","11","11","11","11","0","0","11","11","0","11","0","0","11","11","0","Sun Oct 22 20:32:10 2023","The main experiment item","True","SternbergTask.osexp","C:\Users\Hannah Laskoskie\Desktop\OpenSesame SternburgTask","False","mono","False","18","no","white","no","yes","768","legacy","11","11","C:/Users/Hannah Laskoskie/Desktop/OpenSesame SternburgTask/HL-subject-3.csv","legacy","2 1","Melodramatic Milgram","4.0.5","0","n","0","right","up","NA","NA","right","532.0","100800","NA","NA","532","2","legacy","2","1024","2","48000","-16","experiment","3","odd","5","171876","172927","175129","154159","4416","NA","173928","177130","NA","172925","4413","NA","177130","177663","105217","Sternberg Task","11","10041.0","12","1024"
"92","92","815","815","#3d3846","experiment","legacy","legacy","legacy","1","undefined","1","left","12","12","12","12","0","0","12","12","0","12","0","0","12","12","0","Sun Oct 22 20:32:10 2023","The main experiment item","True","SternbergTask.osexp","C:\Users\Hannah Laskoskie\Desktop\OpenSesame SternburgTask","False","mono","False","18","no","white","no","yes","768","legacy","0","11","C:/Users/Hannah Laskoskie/Desktop/OpenSesame SternburgTask/HL-subject-3.csv","legacy","8 7 3","Melodramatic Milgram","4.0.5","1","y","0","left","up","up","NA","left","555.0","100800","16142","NA","555","2","legacy","3","1024","2","48000","-16","experiment","3","odd","8","177672","194911","197113","154159","4416","178673","195912","199114","NA","194910","4413","194816","199115","199671","105217","Sternberg Task","12","10596.0","13","1024"
"92","92","800","800","#3d3846","experiment","legacy","legacy","legacy","1","undefined","1","right","13","13","13","13","0","0","13","13","0","13","0","0","13","13","0","Sun Oct 22 20:32:10 2023","The main experiment item","True","SternbergTask.osexp","C:\Users\Hannah Laskoskie\Desktop\OpenSesame SternburgTask","False","mono","False","18","no","white","no","yes","768","legacy","1","11","C:/Users/Hannah Laskoskie/Desktop/OpenSesame SternburgTask/HL-subject-3.csv","legacy","9 7 4 5 8","Melodramatic Milgram","4.0.5","0","n","0","right","up","up","NA","right","612.0","100800","16142","NA","612","2","legacy","5","1024","2","48000","-16","experiment","3","odd","6","199680","200725","202927","154159","4416","178673","201726","204928","NA","200723","4413","194816","204928","205540","105217","Sternberg Task","13","11208.0","14","1024"
"93","93","798","798","#3d3846","experiment","legacy","legacy","legacy","1","undefined","1","left","14","14","14","14","0","0","14","14","0","14","0","0","14","14","0","Sun Oct 22 20:32:10 2023","The main experiment item","True","SternbergTask.osexp","C:\Users\Hannah Laskoskie\Desktop\OpenSesame SternburgTask","False","mono","False","18","no","white","no","yes","768","legacy","2","11","C:/Users/Hannah Laskoskie/Desktop/OpenSesame SternburgTask/HL-subject-3.csv","legacy","5 7 8 2 3 8","Melodramatic Milgram","4.0.5","5","y","0","left","up","up","NA","left","770.0","100800","16142","NA","770","2","legacy","6","1024","2","48000","-16","experiment","3","odd","3","205544","206591","208794","154159","4416","178673","207592","210795","NA","206588","4413","194816","210795","211566","105217","Sternberg Task","14","11978.0","15","1024"
"93","93","796","796","#3d3846","experiment","legacy","legacy","legacy","1","undefined","1","right","15","15","15","15","0","0","15","15","0","15","0","0","15","15","0","Sun Oct 22 20:32:10 2023","The main experiment item","True","SternbergTask.osexp","C:\Users\Hannah Laskoskie\Desktop\OpenSesame SternburgTask","False","mono","False","18","no","white","no","yes","768","legacy","3","11","C:/Users/Hannah Laskoskie/Desktop/OpenSesame SternburgTask/HL-subject-3.csv","legacy","8 5 7 3 6","Melodramatic Milgram","4.0.5","0","n","0","right","up","up","NA","right","762.0","100800","16142","NA","762","2","legacy","5","1024","2","48000","-16","experiment","3","odd","9","211575","212621","214823","154159","4416","178673","213622","216824","NA","212619","4413","194816","216824","217586","105217","Sternberg Task","15","12740.0","16","1024"
"88","88","814","814","#3d3846","experiment","legacy","legacy","legacy","0","undefined","0","left","16","16","16","16","0","0","16","16","0","16","0","0","16","16","0","Sun Oct 22 20:32:10 2023","The main experiment item","True","SternbergTask.osexp","C:\Users\Hannah Laskoskie\Desktop\OpenSesame SternburgTask","False","mono","False","18","no","white","no","yes","768","legacy","4","11","C:/Users/Hannah Laskoskie/Desktop/OpenSesame SternburgTask/HL-subject-3.csv","legacy","5 2 9 6 1 7","Melodramatic Milgram","4.0.5","3","y","0","right","up","up","NA","right","1103.0","100800","16142","NA","1103","2","legacy","6","1024","2","48000","-16","experiment","3","odd","9","217596","218645","220847","154159","4416","178673","219646","222848","NA","218643","4413","194816","222848","223952","105217","Sternberg Task","15","13843.0","17","1024"
"88","88","802","802","#3d3846","experiment","legacy","legacy","legacy","1","undefined","1","left","17","17","17","17","0","0","17","17","0","17","0","0","17","17","0","Sun Oct 22 20:32:10 2023","The main experiment item","True","SternbergTask.osexp","C:\Users\Hannah Laskoskie\Desktop\OpenSesame SternburgTask","False","mono","False","18","no","white","no","yes","768","legacy","5","11","C:/Users/Hannah Laskoskie/Desktop/OpenSesame SternburgTask/HL-subject-3.csv","legacy","7","Melodramatic Milgram","4.0.5","1","y","0","left","up","up","NA","left","609.0","100800","16142","NA","609","2","legacy","1","1024","2","48000","-16","experiment","3","odd","7","217596","225004","227206","223961","4416","178673","226005","229210","NA","225002","4413","194816","229210","229820","105217","Sternberg Task","16","14452.0","18","1024"
"89","89","800","800","#3d3846","experiment","legacy","legacy","legacy","1","undefined","1","right","18","18","18","18","0","0","18","18","0","18","0","0","18","18","0","Sun Oct 22 20:32:10 2023","The main experiment item","True","SternbergTask.osexp","C:\Users\Hannah Laskoskie\Desktop\OpenSesame SternburgTask","False","mono","False","18","no","white","no","yes","768","legacy","6","11","C:/Users/Hannah Laskoskie/Desktop/OpenSesame SternburgTask/HL-subject-3.csv","legacy","2 5 1 4","Melodramatic Milgram","4.0.5","0","n","0","right","up","up","NA","right","754.0","100800","16142","NA","754","2","legacy","4","1024","2","48000","-16","experiment","3","odd","6","229829","230872","233075","223961","4416","178673","231874","235076","NA","230870","4413","194816","235076","235831","105217","Sternberg Task","17","15206.0","19","1024"
"85","85","787","787","#3d3846","experiment","legacy","legacy","legacy","0","undefined","0","left","19","19","19","19","0","0","19","19","0","19","0","0","19","19","0","Sun Oct 22 20:32:10 2023","The main experiment item","True","SternbergTask.osexp","C:\Users\Hannah Laskoskie\Desktop\OpenSesame SternburgTask","False","mono","False","18","no","white","no","yes","768","legacy","7","11","C:/Users/Hannah Laskoskie/Desktop/OpenSesame SternburgTask/HL-subject-3.csv","legacy","6 9 3 1","Melodramatic Milgram","4.0.5","4","y","0","right","up","up","NA","right","540.0","100800","16142","NA","540","2","legacy","4","1024","2","48000","-16","experiment","3","odd","1","235840","236884","239086","223961","4416","178673","237885","241087","NA","236882","4413","194816","241087","241628","105217","Sternberg Task","17","15746.0","20","1024"
"85","85","789","789","#3d3846","experiment","legacy","legacy","legacy","1","undefined","1","left","20","20","20","20","0","0","20","20","0","20","0","0","20","20","0","Sun Oct 22 20:32:10 2023","The main experiment item","True","SternbergTask.osexp","C:\Users\Hannah Laskoskie\Desktop\OpenSesame SternburgTask","False","mono","False","18","no","white","no","yes","768","legacy","8","11","C:/Users/Hannah Laskoskie/Desktop/OpenSesame SternburgTask/HL-subject-3.csv","legacy","2 6 1 7 4","Melodramatic Milgram","4.0.5","2","y","0","left","up","up","NA","left","843.0","100800","16142","NA","843","2","legacy","5","1024","2","48000","-16","experiment","3","odd","6","235840","242685","244887","241638","4416","178673","243686","246888","NA","242683","4413","194816","246888","247732","105217","Sternberg Task","18","16589.0","21","1024"
"86","86","776","776","#3d3846","experiment","legacy","legacy","legacy","1","undefined","1","left","21","21","21","21","0","0","21","21","0","21","0","0","21","21","0","Sun Oct 22 20:32:10 2023","The main experiment item","True","SternbergTask.osexp","C:\Users\Hannah Laskoskie\Desktop\OpenSesame SternburgTask","False","mono","False","18","no","white","no","yes","768","legacy","9","11","C:/Users/Hannah Laskoskie/Desktop/OpenSesame SternburgTask/HL-subject-3.csv","legacy","2 3","Melodramatic Milgram","4.0.5","1","y","0","left","up","up","NA","left","485.0","100800","16142","NA","485","2","legacy","2","1024","2","48000","-16","experiment","3","odd","2","247741","248787","250989","241638","4416","178673","249788","252990","NA","248785","4413","194816","252990","253477","105217","Sternberg Task","19","17074.0","22","1024"
"86","86","780","780","#3d3846","experiment","legacy","legacy","legacy","1","undefined","1","right","22","22","22","22","0","0","22","22","0","22","0","0","22","22","0","Sun Oct 22 20:32:10 2023","The main experiment item","True","SternbergTask.osexp","C:\Users\Hannah Laskoskie\Desktop\OpenSesame SternburgTask","False","mono","False","18","no","white","no","yes","768","legacy","10","11","C:/Users/Hannah Laskoskie/Desktop/OpenSesame SternburgTask/HL-subject-3.csv","legacy","3 4 2","Melodramatic Milgram","4.0.5","0","n","0","right","up","up","NA","right","882.0","100800","16142","NA","882","2","legacy","3","1024","2","48000","-16","experiment","3","odd","5","253486","254535","256737","241638","4416","178673","255536","258738","NA","254533","4413","194816","258738","259621","105217","Sternberg Task","20","17956.0","23","1024"
"83","83","771","771","#3d3846","experiment","legacy","legacy","legacy","0","undefined","0","left","23","23","23","23","0","0","23","23","0","23","0","0","23","23","0","Sun Oct 22 20:32:10 2023","The main experiment item","True","SternbergTask.osexp","C:\Users\Hannah Laskoskie\Desktop\OpenSesame SternburgTask","False","mono","False","18","no","white","no","yes","768","legacy","11","11","C:/Users/Hannah Laskoskie/Desktop/OpenSesame SternburgTask/HL-subject-3.csv","legacy","3 9 6 2","Melodramatic Milgram","4.0.5","4","y","0","right","up","up","NA","right","548.0","100800","16142","NA","548","2","legacy","4","1024","2","48000","-16","experiment","3","odd","2","259632","260702","262904","241638","4416","178673","261703","264905","NA","260700","4413","194816","264906","265455","105217","Sternberg Task","20","18504.0","24","1024"
"84","84","766","766","#3d3846","experiment","legacy","legacy","legacy","1","undefined","1","right","24","24","24","24","0","0","24","24","0","24","0","0","24","24","0","Sun Oct 22 20:32:10 2023","The main experiment item","True","SternbergTask.osexp","C:\Users\Hannah Laskoskie\Desktop\OpenSesame SternburgTask","False","mono","False","18","no","white","no","yes","768","legacy","12","11","C:/Users/Hannah Laskoskie/Desktop/OpenSesame SternburgTask/HL-subject-3.csv","legacy","6 9 7 3 8 2","Melodramatic Milgram","4.0.5","0","n","0","right","up","up","NA","right","650.0","100800","16142","NA","650","2","legacy","6","1024","2","48000","-16","experiment","3","odd","5","259632","266514","268716","265464","4416","178673","267515","270717","NA","266512","4413","194816","270717","271367","105217","Sternberg Task","21","19154.0","25","1024"
"84","84","764","764","#3d3846","experiment","legacy","legacy","legacy","1","undefined","1","left","25","25","25","25","0","0","25","25","0","25","0","0","25","25","0","Sun Oct 22 20:32:10 2023","The main experiment item","True","SternbergTask.osexp","C:\Users\Hannah Laskoskie\Desktop\OpenSesame SternburgTask","False","mono","False","18","no","white","no","yes","768","legacy","13","11","C:/Users/Hannah Laskoskie/Desktop/OpenSesame SternburgTask/HL-subject-3.csv","legacy","7 1 8 5 6 2","Melodramatic Milgram","4.0.5","2","y","0","left","up","up","NA","left","720.0","100800","16142","NA","720","2","legacy","6","1024","2","48000","-16","experiment","3","odd","1","271371","272418","274620","265464","4416","178673","273419","276621","NA","272416","4413","194816","276621","277342","105217","Sternberg Task","22","19874.0","26","1024"
"85","85","758","758","#3d3846","experiment","legacy","legacy","legacy","1","undefined","1","left","26","26","26","26","0","0","26","26","0","26","0","0","26","26","0","Sun Oct 22 20:32:10 2023","The main experiment item","True","SternbergTask.osexp","C:\Users\Hannah Laskoskie\Desktop\OpenSesame SternburgTask","False","mono","False","18","no","white","no","yes","768","legacy","14","11","C:/Users/Hannah Laskoskie/Desktop/OpenSesame SternburgTask/HL-subject-3.csv","legacy","2 5 4 8 7","Melodramatic Milgram","4.0.5","3","y","0","left","up","up","NA","left","602.0","100800","16142","NA","602","2","legacy","5","1024","2","48000","-16","experiment","3","odd","4","277345","278389","280591","265464","4416","178673","279390","282592","NA","278387","4413","194816","282592","283195","105217","Sternberg Task","23","20476.0","27","1024"
"85","85","758","758","#3d3846","experiment","legacy","legacy","legacy","1","undefined","1","right","27","27","27","27","0","0","27","27","0","27","0","0","27","27","0","Sun Oct 22 20:32:10 2023","The main experiment item","True","SternbergTask.osexp","C:\Users\Hannah Laskoskie\Desktop\OpenSesame SternburgTask","False","mono","False","18","no","white","no","yes","768","legacy","15","11","C:/Users/Hannah Laskoskie/Desktop/OpenSesame SternburgTask/HL-subject-3.csv","legacy","7 3 2 8","Melodramatic Milgram","4.0.5","0","n","0","right","up","up","NA","right","759.0","100800","16142","NA","759","2","legacy","4","1024","2","48000","-16","experiment","3","odd","4","283205","284249","286451","265464","4416","178673","285250","288452","NA","284247","4413","194816","288452","289212","105217","Sternberg Task","24","21235.0","28","1024"
"82","82","755","755","#3d3846","experiment","legacy","legacy","legacy","0","undefined","0","right","28","28","28","28","0","0","28","28","0","28","0","0","28","28","0","Sun Oct 22 20:32:10 2023","The main experiment item","True","SternbergTask.osexp","C:\Users\Hannah Laskoskie\Desktop\OpenSesame SternburgTask","False","mono","False","18","no","white","no","yes","768","legacy","16","11","C:/Users/Hannah Laskoskie/Desktop/OpenSesame SternburgTask/HL-subject-3.csv","legacy","8 5 4 2 9 6","Melodramatic Milgram","4.0.5","0","n","0","left","up","up","NA","left","670.0","100800","16142","NA","670","2","legacy","6","1024","2","48000","-16","experiment","3","odd","3","289222","290265","292467","265464","4416","178673","291266","294468","NA","290263","4413","194816","294468","295139","105217","Sternberg Task","24","21905.0","29","1024"
"83","83","752","752","#3d3846","experiment","legacy","legacy","legacy","1","undefined","1","right","29","29","29","29","0","0","29","29","0","29","0","0","29","29","0","Sun Oct 22 20:32:10 2023","The main experiment item","True","SternbergTask.osexp","C:\Users\Hannah Laskoskie\Desktop\OpenSesame SternburgTask","False","mono","False","18","no","white","no","yes","768","legacy","17","11","C:/Users/Hannah Laskoskie/Desktop/OpenSesame SternburgTask/HL-subject-3.csv","legacy","1 7 5 2 9","Melodramatic Milgram","4.0.5","0","n","0","right","up","up","NA","right","675.0","100800","16142","NA","675","2","legacy","5","1024","2","48000","-16","experiment","3","odd","3","289222","296192","298394","295149","4416","178673","297193","300395","NA","296190","4413","194816","300395","301071","105217","Sternberg Task","25","22580.0","30","1024"
"80","80","744","744","#3d3846","experiment","legacy","legacy","legacy","0","undefined","0","left","30","30","30","30","0","0","30","30","0","30","0","0","30","30","0","Sun Oct 22 20:32:10 2023","The main experiment item","True","SternbergTask.osexp","C:\Users\Hannah Laskoskie\Desktop\OpenSesame SternburgTask","False","mono","False","18","no","white","no","yes","768","legacy","18","11","C:/Users/Hannah Laskoskie/Desktop/OpenSesame SternburgTask/HL-subject-3.csv","legacy","2 4 6 9","Melodramatic Milgram","4.0.5","3","y","0","right","up","up","NA","right","496.0","100800","16142","NA","496","2","legacy","4","1024","2","48000","-16","experiment","3","odd","6","301080","302126","304328","295149","4416","178673","303127","306329","NA","302124","4413","194816","306329","306826","105217","Sternberg Task","25","23076.0","31","1024"
"81","81","735","735","#3d3846","experiment","legacy","legacy","legacy","1","undefined","1","right","31","31","31","31","0","0","31","31","0","31","0","0","31","31","0","Sun Oct 22 20:32:10 2023","The main experiment item","True","SternbergTask.osexp","C:\Users\Hannah Laskoskie\Desktop\OpenSesame SternburgTask","False","mono","False","18","no","white","no","yes","768","legacy","19","11","C:/Users/Hannah Laskoskie/Desktop/OpenSesame SternburgTask/HL-subject-3.csv","legacy","4 1","Melodramatic Milgram","4.0.5","0","n","0","right","up","up","NA","right","463.0","100800","16142","NA","463","2","legacy","2","1024","2","48000","-16","experiment","3","odd","6","301080","307894","310096","306835","4416","178673","308895","312097","NA","307892","4413","194816","312097","312560","105217","Sternberg Task","26","23539.0","32","1024"
"81","81","733","733","#3d3846","experiment","legacy","legacy","legacy","1","undefined","1","right","32","32","32","32","0","0","32","32","0","32","0","0","32","32","0","Sun Oct 22 20:32:10 2023","The main experiment item","True","SternbergTask.osexp","C:\Users\Hannah Laskoskie\Desktop\OpenSesame SternburgTask","False","mono","False","18","no","white","no","yes","768","legacy","20","11","C:/Users/Hannah Laskoskie/Desktop/OpenSesame SternburgTask/HL-subject-3.csv","legacy","7 4 2 8 1 9","Melodramatic Milgram","4.0.5","0","n","0","right","up","up","NA","right","663.0","100800","16142","NA","663","2","legacy","6","1024","2","48000","-16","experiment","3","odd","5","312569","313615","315817","306835","4416","178673","314616","317818","NA","313612","4413","194816","317818","318482","105217","Sternberg Task","27","24202.0","33","1024"
"82","82","728","728","#3d3846","experiment","legacy","legacy","legacy","1","undefined","1","left","33","33","33","33","0","0","33","33","0","33","0","0","33","33","0","Sun Oct 22 20:32:10 2023","The main experiment item","True","SternbergTask.osexp","C:\Users\Hannah Laskoskie\Desktop\OpenSesame SternburgTask","False","mono","False","18","no","white","no","yes","768","legacy","21","11","C:/Users/Hannah Laskoskie/Desktop/OpenSesame SternburgTask/HL-subject-3.csv","legacy","4","Melodramatic Milgram","4.0.5","1","y","0","left","up","up","NA","left","552.0","100800","16142","NA","552","2","legacy","1","1024","2","48000","-16","experiment","3","odd","4","318491","319534","321736","306835","4416","178673","320535","323737","NA","319532","4413","194816","323737","324291","105217","Sternberg Task","28","24754.0","34","1024"
"80","80","733","733","#3d3846","experiment","legacy","legacy","legacy","0","undefined","0","right","34","34","34","34","0","0","34","34","0","34","0","0","34","34","0","Sun Oct 22 20:32:10 2023","The main experiment item","True","SternbergTask.osexp","C:\Users\Hannah Laskoskie\Desktop\OpenSesame SternburgTask","False","mono","False","18","no","white","no","yes","768","legacy","22","11","C:/Users/Hannah Laskoskie/Desktop/OpenSesame SternburgTask/HL-subject-3.csv","legacy","6 9 4 5 2","Melodramatic Milgram","4.0.5","0","n","0","left","up","up","NA","left","916.0","100800","16142","NA","916","2","legacy","5","1024","2","48000","-16","experiment","3","odd","1","324300","325343","327545","306835","4416","178673","326344","329546","NA","325342","4413","194816","329546","330463","105217","Sternberg Task","28","25670.0","35","1024"
"80","80","732","732","#3d3846","experiment","legacy","legacy","legacy","1","undefined","1","right","35","35","35","35","0","0","35","35","0","35","0","0","35","35","0","Sun Oct 22 20:32:10 2023","The main experiment item","True","SternbergTask.osexp","C:\Users\Hannah Laskoskie\Desktop\OpenSesame SternburgTask","False","mono","False","18","no","white","no","yes","768","legacy","23","11","C:/Users/Hannah Laskoskie/Desktop/OpenSesame SternburgTask/HL-subject-3.csv","legacy","1 8 7","Melodramatic Milgram","4.0.5","0","n","0","right","up","up","NA","right","684.0","100800","16142","NA","684","2","legacy","3","1024","2","48000","-16","experiment","3","odd","4","324300","331509","333712","330466","4416","178673","332511","335713","NA","331507","4413","194816","335713","336398","105217","Sternberg Task","29","26354.0","36","1024"
"81","81","724","724","#3d3846","experiment","legacy","legacy","legacy","1","undefined","1","right","36","36","36","36","0","0","36","36","0","36","0","0","36","36","0","Sun Oct 22 20:32:10 2023","The main experiment item","True","SternbergTask.osexp","C:\Users\Hannah Laskoskie\Desktop\OpenSesame SternburgTask","False","mono","False","18","no","white","no","yes","768","legacy","24","11","C:/Users/Hannah Laskoskie/Desktop/OpenSesame SternburgTask/HL-subject-3.csv","legacy","2 8 9 4 1","Melodramatic Milgram","4.0.5","0","n","0","right","up","up","NA","right","461.0","100800","16142","NA","461","2","legacy","5","1024","2","48000","-16","experiment","3","odd","5","336407","337456","339658","330466","4416","178673","338457","341659","NA","337454","4413","194816","341659","342121","105217","Sternberg Task","30","26815.0","37","1024"
"81","81","717","717","#3d3846","experiment","legacy","legacy","legacy","1","undefined","1","left","37","37","37","37","0","0","37","37","0","37","0","0","37","37","0","Sun Oct 22 20:32:10 2023","The main experiment item","True","SternbergTask.osexp","C:\Users\Hannah Laskoskie\Desktop\OpenSesame SternburgTask","False","mono","False","18","no","white","no","yes","768","legacy","25","11","C:/Users/Hannah Laskoskie/Desktop/OpenSesame SternburgTask/HL-subject-3.csv","legacy","8","Melodramatic Milgram","4.0.5","1","y","0","left","up","up","NA","left","466.0","100800","16142","NA","466","2","legacy","1","1024","2","48000","-16","experiment","3","odd","8","342130","343178","345381","330466","4416","178673","344179","347382","NA","343175","4413","194816","347383","347850","105217","Sternberg Task","31","27281.0","38","1024"
"82","82","721","721","#3d3846","experiment","legacy","legacy","legacy","1","undefined","1","right","38","38","38","38","0","0","38","38","0","38","0","0","38","38","0","Sun Oct 22 20:32:10 2023","The main experiment item","True","SternbergTask.osexp","C:\Users\Hannah Laskoskie\Desktop\OpenSesame SternburgTask","False","mono","False","18","no","white","no","yes","768","legacy","26","11","C:/Users/Hannah Laskoskie/Desktop/OpenSesame SternburgTask/HL-subject-3.csv","legacy","1 6 4","Melodramatic Milgram","4.0.5","0","n","0","right","up","up","NA","right","870.0","100800","16142","NA","870","2","legacy","3","1024","2","48000","-16","experiment","3","odd","7","347859","348921","351123","330466","4416","178673","349922","353124","NA","348919","4413","194816","353124","353995","105217","Sternberg Task","32","28151.0","39","1024"
"82","82","720","720","#3d3846","experiment","legacy","legacy","legacy","1","undefined","1","right","39","39","39","39","0","0","39","39","0","39","0","0","39","39","0","Sun Oct 22 20:32:10 2023","The main experiment item","True","SternbergTask.osexp","C:\Users\Hannah Laskoskie\Desktop\OpenSesame SternburgTask","False","mono","False","18","no","white","no","yes","768","legacy","27","11","C:/Users/Hannah Laskoskie/Desktop/OpenSesame SternburgTask/HL-subject-3.csv","legacy","7 9 1 6","Melodramatic Milgram","4.0.5","0","n","0","right","up","up","NA","right","683.0","100800","16142","NA","683","2","legacy","4","1024","2","48000","-16","experiment","3","odd","4","354004","355049","357251","330466","4416","178673","356050","359252","NA","355047","4413","194816","359252","359937","105217","Sternberg Task","33","28834.0","40","1024"
"82","82","716","716","#3d3846","experiment","legacy","legacy","legacy","1","undefined","1","right","40","40","40","40","0","0","40","40","0","40","0","0","40","40","0","Sun Oct 22 20:32:10 2023","The main experiment item","True","SternbergTask.osexp","C:\Users\Hannah Laskoskie\Desktop\OpenSesame SternburgTask","False","mono","False","18","no","white","no","yes","768","legacy","28","11","C:/Users/Hannah Laskoskie/Desktop/OpenSesame SternburgTask/HL-subject-3.csv","legacy","5 2","Melodramatic Milgram","4.0.5","0","n","0","right","up","up","NA","right","530.0","100800","16142","NA","530","2","legacy","2","1024","2","48000","-16","experiment","3","odd","7","359940","360984","363186","330466","4416","178673","361985","365187","NA","360982","4413","194816","365187","365718","105217","Sternberg Task","34","29364.0","41","1024"
"80","80","712","712","#3d3846","experiment","legacy","legacy","legacy","0","undefined","0","left","41","41","41","41","0","0","41","41","0","41","0","0","41","41","0","Sun Oct 22 20:32:10 2023","The main experiment item","True","SternbergTask.osexp","C:\Users\Hannah Laskoskie\Desktop\OpenSesame SternburgTask","False","mono","False","18","no","white","no","yes","768","legacy","29","11","C:/Users/Hannah Laskoskie/Desktop/OpenSesame SternburgTask/HL-subject-3.csv","legacy","3 5 7 1","Melodramatic Milgram","4.0.5","3","y","0","right","up","up","NA","right","544.0","100800","16142","NA","544","2","legacy","4","1024","2","48000","-16","experiment","3","odd","7","365728","366772","368974","330466","4416","178673","367773","370975","NA","366770","4413","194816","370975","371520","105217","Sternberg Task","34","29908.0","42","1024"
"81","81","714","714","#3d3846","experiment","legacy","legacy","legacy","1","undefined","1","right","42","42","42","42","0","0","42","42","0","42","0","0","42","42","0","Sun Oct 22 20:32:10 2023","The main experiment item","True","SternbergTask.osexp","C:\Users\Hannah Laskoskie\Desktop\OpenSesame SternburgTask","False","mono","False","18","no","white","no","yes","768","legacy","30","11","C:/Users/Hannah Laskoskie/Desktop/OpenSesame SternburgTask/HL-subject-3.csv","legacy","3 9 8 1 6 4","Melodramatic Milgram","4.0.5","0","n","0","right","up","up","NA","right","796.0","100800","16142","NA","796","2","legacy","6","1024","2","48000","-16","experiment","3","odd","7","365728","372574","374777","371530","4416","178673","373576","376778","NA","372572","4413","194816","376779","377576","105217","Sternberg Task","35","30704.0","43","1024"
"79","79","714","714","#3d3846","experiment","legacy","legacy","legacy","0","undefined","0","left","43","43","43","43","0","0","43","43","0","43","0","0","43","43","0","Sun Oct 22 20:32:10 2023","The main experiment item","True","SternbergTask.osexp","C:\Users\Hannah Laskoskie\Desktop\OpenSesame SternburgTask","False","mono","False","18","no","white","no","yes","768","legacy","31","11","C:/Users/Hannah Laskoskie/Desktop/OpenSesame SternburgTask/HL-subject-3.csv","legacy","6 5","Melodramatic Milgram","4.0.5","2","y","0","right","up","up","NA","right","717.0","100800","16142","NA","717","2","legacy","2","1024","2","48000","-16","experiment","3","odd","5","377585","378629","380832","371530","4416","178673","379631","382833","NA","378627","4413","194816","382833","383552","105217","Sternberg Task","35","31421.0","44","1024"
"77","77","712","712","#3d3846","experiment","legacy","legacy","legacy","0","undefined","0","right","44","44","44","44","0","0","44","44","0","44","0","0","44","44","0","Sun Oct 22 20:32:10 2023","The main experiment item","True","SternbergTask.osexp","C:\Users\Hannah Laskoskie\Desktop\OpenSesame SternburgTask","False","mono","False","18","no","white","no","yes","768","legacy","32","11","C:/Users/Hannah Laskoskie/Desktop/OpenSesame SternburgTask/HL-subject-3.csv","legacy","7 1 5 6 3","Melodramatic Milgram","4.0.5","0","n","0","left","up","up","NA","left","619.0","100800","16142","NA","619","2","legacy","5","1024","2","48000","-16","experiment","3","odd","8","377585","384605","386807","383561","4416","178673","385606","388808","NA","384603","4413","194816","388808","389429","105217","Sternberg Task","35","32040.0","45","1024"
"76","76","716","716","#3d3846","experiment","legacy","legacy","legacy","0","undefined","0","right","45","45","45","45","0","0","45","45","0","45","0","0","45","45","0","Sun Oct 22 20:32:10 2023","The main experiment item","True","SternbergTask.osexp","C:\Users\Hannah Laskoskie\Desktop\OpenSesame SternburgTask","False","mono","False","18","no","white","no","yes","768","legacy","33","11","C:/Users/Hannah Laskoskie/Desktop/OpenSesame SternburgTask/HL-subject-3.csv","legacy","4 2 7 6 1 3","Melodramatic Milgram","4.0.5","0","n","0","left","up","up","NA","left","923.0","100800","16142","NA","923","2","legacy","6","1024","2","48000","-16","experiment","3","odd","8","377585","390481","392684","389438","4416","178673","391483","394685","NA","390479","4413","194816","394685","395609","105217","Sternberg Task","35","32963.0","46","1024"
"74","74","712","712","#3d3846","experiment","legacy","legacy","legacy","0","undefined","0","left","46","46","46","46","0","0","46","46","0","46","0","0","46","46","0","Sun Oct 22 20:32:10 2023","The main experiment item","True","SternbergTask.osexp","C:\Users\Hannah Laskoskie\Desktop\OpenSesame SternburgTask","False","mono","False","18","no","white","no","yes","768","legacy","34","11","C:/Users/Hannah Laskoskie/Desktop/OpenSesame SternburgTask/HL-subject-3.csv","legacy","8 5 1 3 9","Melodramatic Milgram","4.0.5","4","y","0","right","up","up","NA","right","527.0","100800","16142","NA","527","2","legacy","5","1024","2","48000","-16","experiment","3","odd","3","377585","396668","398870","395613","4416","178673","397669","400871","NA","396666","4413","194816","400871","401399","105217","Sternberg Task","35","33490.0","47","1024"
"75","75","709","709","#3d3846","experiment","legacy","legacy","legacy","1","undefined","1","left","47","47","47","47","0","0","47","47","0","47","0","0","47","47","0","Sun Oct 22 20:32:10 2023","The main experiment item","True","SternbergTask.osexp","C:\Users\Hannah Laskoskie\Desktop\OpenSesame SternburgTask","False","mono","False","18","no","white","no","yes","768","legacy","35","11","C:/Users/Hannah Laskoskie/Desktop/OpenSesame SternburgTask/HL-subject-3.csv","legacy","2 3 7 4","Melodramatic Milgram","4.0.5","1","y","0","left","up","up","NA","left","542.0","100800","16142","NA","542","2","legacy","4","1024","2","48000","-16","experiment","3","odd","2","377585","402454","404656","401408","4416","178673","403455","406657","NA","402452","4413","194816","406657","407200","105217","Sternberg Task","36","34032.0","48","1024"
"75","75","707","707","#3d3846","experiment","legacy","legacy","legacy","1","undefined","1","left","48","48","48","48","0","0","48","48","0","48","0","0","48","48","0","Sun Oct 22 20:32:10 2023","The main experiment item","True","SternbergTask.osexp","C:\Users\Hannah Laskoskie\Desktop\OpenSesame SternburgTask","False","mono","False","18","no","white","no","yes","768","legacy","36","11","C:/Users/Hannah Laskoskie/Desktop/OpenSesame SternburgTask/HL-subject-3.csv","legacy","9 4 2","Melodramatic Milgram","4.0.5","1","y","0","left","up","up","NA","left","636.0","100800","16142","NA","636","2","legacy","3","1024","2","48000","-16","experiment","3","odd","9","407208","408256","410458","401408","4416","178673","409257","412459","NA","408254","4413","194816","412459","413097","105217","Sternberg Task","37","34668.0","49","1024"
"74","74","703","703","#3d3846","experiment","legacy","legacy","legacy","0","undefined","0","left","49","49","49","49","0","0","49","49","0","49","0","0","49","49","0","Sun Oct 22 20:32:10 2023","The main experiment item","True","SternbergTask.osexp","C:\Users\Hannah Laskoskie\Desktop\OpenSesame SternburgTask","False","mono","False","18","no","white","no","yes","768","legacy","37","11","C:/Users/Hannah Laskoskie/Desktop/OpenSesame SternburgTask/HL-subject-3.csv","legacy","4 6 2 5 1","Melodramatic Milgram","4.0.5","5","y","0","right","up","up","NA","right","521.0","100800","16142","NA","521","2","legacy","5","1024","2","48000","-16","experiment","3","odd","1","413100","414143","416348","401408","4416","178673","415144","418349","NA","414141","4413","194816","418349","418871","105217","Sternberg Task","37","35189.0","50","1024"
"72","72","703","703","#3d3846","experiment","legacy","legacy","legacy","0","undefined","0","right","50","50","50","50","0","0","50","50","0","50","0","0","50","50","0","Sun Oct 22 20:32:10 2023","The main experiment item","True","SternbergTask.osexp","C:\Users\Hannah Laskoskie\Desktop\OpenSesame SternburgTask","False","mono","False","18","no","white","no","yes","768","legacy","38","11","C:/Users/Hannah Laskoskie/Desktop/OpenSesame SternburgTask/HL-subject-3.csv","legacy","7 6 4 8 1 2","Melodramatic Milgram","4.0.5","0","n","0","left","up","up","NA","left","685.0","100800","16142","NA","685","2","legacy","6","1024","2","48000","-16","experiment","3","odd","9","413100","419927","422129","418880","4416","178673","420928","424130","NA","419925","4413","194816","424130","424816","105217","Sternberg Task","37","35874.0","51","1024"
"73","73","707","707","#3d3846","experiment","legacy","legacy","legacy","1","undefined","1","right","51","51","51","51","0","0","51","51","0","51","0","0","51","51","0","Sun Oct 22 20:32:10 2023","The main experiment item","True","SternbergTask.osexp","C:\Users\Hannah Laskoskie\Desktop\OpenSesame SternburgTask","False","mono","False","18","no","white","no","yes","768","legacy","39","11","C:/Users/Hannah Laskoskie/Desktop/OpenSesame SternburgTask/HL-subject-3.csv","legacy","9 8 2 7 4","Melodramatic Milgram","4.0.5","0","n","0","right","up","up","NA","right","914.0","100800","16142","NA","914","2","legacy","5","1024","2","48000","-16","experiment","3","odd","5","413100","425868","428070","424819","4416","178673","426869","430071","NA","425866","4413","194816","430071","430987","105217","Sternberg Task","38","36788.0","52","1024"
"73","73","709","709","#3d3846","experiment","legacy","legacy","legacy","1","undefined","1","right","52","52","52","52","0","0","52","52","0","52","0","0","52","52","0","Sun Oct 22 20:32:10 2023","The main experiment item","True","SternbergTask.osexp","C:\Users\Hannah Laskoskie\Desktop\OpenSesame SternburgTask","False","mono","False","18","no","white","no","yes","768","legacy","40","11","C:/Users/Hannah Laskoskie/Desktop/OpenSesame SternburgTask/HL-subject-3.csv","legacy","2 7 5","Melodramatic Milgram","4.0.5","0","n","0","right","up","up","NA","right","799.0","100800","16142","NA","799","2","legacy","3","1024","2","48000","-16","experiment","3","odd","8","430996","432042","434244","424819","4416","178673","433043","436245","NA","432040","4413","194816","436245","437045","105217","Sternberg Task","39","37587.0","53","1024"
"74","74","708","708","#3d3846","experiment","legacy","legacy","legacy","1","undefined","1","right","53","53","53","53","0","0","53","53","0","53","0","0","53","53","0","Sun Oct 22 20:32:10 2023","The main experiment item","True","SternbergTask.osexp","C:\Users\Hannah Laskoskie\Desktop\OpenSesame SternburgTask","False","mono","False","18","no","white","no","yes","768","legacy","41","11","C:/Users/Hannah Laskoskie/Desktop/OpenSesame SternburgTask/HL-subject-3.csv","legacy","3 9 1","Melodramatic Milgram","4.0.5","0","n","0","right","up","up","NA","right","657.0","100800","16142","NA","657","2","legacy","3","1024","2","48000","-16","experiment","3","odd","7","437048","438111","440313","424819","4416","178673","439112","442314","NA","438107","4413","194816","442314","442971","105217","Sternberg Task","40","38244.0","54","1024"
"74","74","711","711","#3d3846","experiment","legacy","legacy","legacy","1","undefined","1","left","54","54","54","54","0","0","54","54","0","54","0","0","54","54","0","Sun Oct 22 20:32:10 2023","The main experiment item","True","SternbergTask.osexp","C:\Users\Hannah Laskoskie\Desktop\OpenSesame SternburgTask","False","mono","False","18","no","white","no","yes","768","legacy","42","11","C:/Users/Hannah Laskoskie/Desktop/OpenSesame SternburgTask/HL-subject-3.csv","legacy","4 3 2 5 8","Melodramatic Milgram","4.0.5","2","y","0","left","up","up","NA","left","866.0","100800","16142","NA","866","2","legacy","5","1024","2","48000","-16","experiment","3","odd","3","442981","444025","446227","424819","4416","178673","445026","448229","NA","444023","4413","194816","448229","449096","105217","Sternberg Task","41","39110.0","55","1024"
"75","75","707","707","#3d3846","experiment","legacy","legacy","legacy","1","undefined","1","right","55","55","55","55","0","0","55","55","0","55","0","0","55","55","0","Sun Oct 22 20:32:10 2023","The main experiment item","True","SternbergTask.osexp","C:\Users\Hannah Laskoskie\Desktop\OpenSesame SternburgTask","False","mono","False","18","no","white","no","yes","768","legacy","43","11","C:/Users/Hannah Laskoskie/Desktop/OpenSesame SternburgTask/HL-subject-3.csv","legacy","1 7 5 2","Melodramatic Milgram","4.0.5","0","n","0","right","up","up","NA","right","508.0","100800","16142","NA","508","2","legacy","4","1024","2","48000","-16","experiment","3","odd","3","449105","450153","452355","424819","4416","178673","451154","454356","NA","450150","4413","194816","454356","454865","105217","Sternberg Task","42","39618.0","56","1024"
"73","73","705","705","#3d3846","experiment","legacy","legacy","legacy","0","undefined","0","left","56","56","56","56","0","0","56","56","0","56","0","0","56","56","0","Sun Oct 22 20:32:10 2023","The main experiment item","True","SternbergTask.osexp","C:\Users\Hannah Laskoskie\Desktop\OpenSesame SternburgTask","False","mono","False","18","no","white","no","yes","768","legacy","44","11","C:/Users/Hannah Laskoskie/Desktop/OpenSesame SternburgTask/HL-subject-3.csv","legacy","2 8 5 1","Melodramatic Milgram","4.0.5","4","y","0","right","up","up","NA","right","618.0","100800","16142","NA","618","2","legacy","4","1024","2","48000","-16","experiment","3","odd","1","454868","455917","458119","424819","4416","178673","456918","460120","NA","455915","4413","194816","460120","460740","105217","Sternberg Task","42","40236.0","57","1024"
"74","74","701","701","#3d3846","experiment","legacy","legacy","legacy","1","undefined","1","left","57","57","57","57","0","0","57","57","0","57","0","0","57","57","0","Sun Oct 22 20:32:10 2023","The main experiment item","True","SternbergTask.osexp","C:\Users\Hannah Laskoskie\Desktop\OpenSesame SternburgTask","False","mono","False","18","no","white","no","yes","768","legacy","45","11","C:/Users/Hannah Laskoskie/Desktop/OpenSesame SternburgTask/HL-subject-3.csv","legacy","5 7 3 6 2","Melodramatic Milgram","4.0.5","5","y","0","left","up","up","NA","left","470.0","100800","16142","NA","470","2","legacy","5","1024","2","48000","-16","experiment","3","odd","2","454868","461797","463999","460749","4416","178673","462798","466000","NA","461795","4413","194816","466000","466471","105217","Sternberg Task","43","40706.0","58","1024"
"74","74","700","700","#3d3846","experiment","legacy","legacy","legacy","1","undefined","1","left","58","58","58","58","0","0","58","58","0","58","0","0","58","58","0","Sun Oct 22 20:32:10 2023","The main experiment item","True","SternbergTask.osexp","C:\Users\Hannah Laskoskie\Desktop\OpenSesame SternburgTask","False","mono","False","18","no","white","no","yes","768","legacy","46","11","C:/Users/Hannah Laskoskie/Desktop/OpenSesame SternburgTask/HL-subject-3.csv","legacy","4 7 6 8 2 3","Melodramatic Milgram","4.0.5","6","y","0","left","up","up","NA","left","647.0","100800","16142","NA","647","2","legacy","6","1024","2","48000","-16","experiment","3","odd","3","466475","467529","469731","460749","4416","178673","468530","471732","NA","467527","4413","194816","471732","472381","105217","Sternberg Task","44","41353.0","59","1024"
"73","73","702","702","#3d3846","experiment","legacy","legacy","legacy","0","undefined","0","right","59","59","59","59","0","0","59","59","0","59","0","0","59","59","0","Sun Oct 22 20:32:10 2023","The main experiment item","True","SternbergTask.osexp","C:\Users\Hannah Laskoskie\Desktop\OpenSesame SternburgTask","False","mono","False","18","no","white","no","yes","768","legacy","47","11","C:/Users/Hannah Laskoskie/Desktop/OpenSesame SternburgTask/HL-subject-3.csv","legacy","4 2 6 9","Melodramatic Milgram","4.0.5","0","n","0","left","up","up","NA","left","802.0","100800","16142","NA","802","2","legacy","4","1024","2","48000","-16","experiment","3","odd","7","472385","473431","475633","460749","4416","178673","474432","477634","NA","473429","4413","194816","477634","478437","105217","Sternberg Task","44","42155.0","60","1024"
"73","73","703","703","#3d3846","experiment","legacy","legacy","legacy","1","undefined","1","right","60","60","60","60","0","0","60","60","0","60","0","0","60","60","0","Sun Oct 22 20:32:10 2023","The main experiment item","True","SternbergTask.osexp","C:\Users\Hannah Laskoskie\Desktop\OpenSesame SternburgTask","False","mono","False","18","no","white","no","yes","768","legacy","48","11","C:/Users/Hannah Laskoskie/Desktop/OpenSesame SternburgTask/HL-subject-3.csv","legacy","5 3 8 7 2 4","Melodramatic Milgram","4.0.5","0","n","0","right","up","up","NA","right","739.0","100800","16142","NA","739","2","legacy","6","1024","2","48000","-16","experiment","3","odd","9","472385","479492","481694","478446","4416","178673","480493","483695","NA","479490","4413","194816","483695","484435","105217","Sternberg Task","45","42894.0","61","1024"
"74","74","702","702","#3d3846","experiment","legacy","legacy","legacy","1","undefined","1","left","61","61","61","61","0","0","61","61","0","61","0","0","61","61","0","Sun Oct 22 20:32:10 2023","The main experiment item","True","SternbergTask.osexp","C:\Users\Hannah Laskoskie\Desktop\OpenSesame SternburgTask","False","mono","False","18","no","white","no","yes","768","legacy","49","11","C:/Users/Hannah Laskoskie/Desktop/OpenSesame SternburgTask/HL-subject-3.csv","legacy","7 6","Melodramatic Milgram","4.0.5","2","y","0","left","up","up","NA","left","648.0","100800","16142","NA","648","2","legacy","2","1024","2","48000","-16","experiment","3","odd","6","484444","485503","487705","478446","4416","178673","486504","489706","NA","485500","4413","194816","489706","490355","105217","Sternberg Task","46","43542.0","62","1024"
"74","74","702","702","#3d3846","experiment","legacy","legacy","legacy","1","undefined","1","left","62","62","62","62","0","0","62","62","0","62","0","0","62","62","0","Sun Oct 22 20:32:10 2023","The main experiment item","True","SternbergTask.osexp","C:\Users\Hannah Laskoskie\Desktop\OpenSesame SternburgTask","False","mono","False","18","no","white","no","yes","768","legacy","50","11","C:/Users/Hannah Laskoskie/Desktop/OpenSesame SternburgTask/HL-subject-3.csv","legacy","8 1 6","Melodramatic Milgram","4.0.5","3","y","0","left","up","up","NA","left","702.0","100800","16142","NA","702","2","legacy","3","1024","2","48000","-16","experiment","3","odd","6","490359","491403","493605","478446","4416","178673","492404","495606","NA","491401","4413","194816","495606","496309","105217","Sternberg Task","47","44244.0","63","1024"
"73","73","706","706","#3d3846","experiment","legacy","legacy","legacy","0","undefined","0","right","63","63","63","63","0","0","63","63","0","63","0","0","63","63","0","Sun Oct 22 20:32:10 2023","The main experiment item","True","SternbergTask.osexp","C:\Users\Hannah Laskoskie\Desktop\OpenSesame SternburgTask","False","mono","False","18","no","white","no","yes","768","legacy","51","11","C:/Users/Hannah Laskoskie/Desktop/OpenSesame SternburgTask/HL-subject-3.csv","legacy","7 8 6 1","Melodramatic Milgram","4.0.5","0","n","0","left","up","up","NA","left","952.0","100800","16142","NA","952","2","legacy","4","1024","2","48000","-16","experiment","3","odd","3","496318","497371","499573","478446","4416","178673","498372","501574","NA","497369","4413","194816","501574","502527","105217","Sternberg Task","47","45196.0","64","1024"
"73","73","703","703","#3d3846","experiment","legacy","legacy","legacy","1","undefined","1","right","64","64","64","64","0","0","64","64","0","64","0","0","64","64","0","Sun Oct 22 20:32:10 2023","The main experiment item","True","SternbergTask.osexp","C:\Users\Hannah Laskoskie\Desktop\OpenSesame SternburgTask","False","mono","False","18","no","white","no","yes","768","legacy","52","11","C:/Users/Hannah Laskoskie/Desktop/OpenSesame SternburgTask/HL-subject-3.csv","legacy","1","Melodramatic Milgram","4.0.5","0","n","0","right","up","up","NA","right","501.0","100800","16142","NA","501","2","legacy","1","1024","2","48000","-16","experiment","3","odd","7","496318","503575","505777","502530","4416","178673","504576","507778","NA","503573","4413","194816","507778","508280","105217","Sternberg Task","48","45697.0","65","1024"
"74","74","704","704","#3d3846","experiment","legacy","legacy","legacy","1","undefined","1","left","65","65","65","65","0","0","65","65","0","65","0","0","65","65","0","Sun Oct 22 20:32:10 2023","The main experiment item","True","SternbergTask.osexp","C:\Users\Hannah Laskoskie\Desktop\OpenSesame SternburgTask","False","mono","False","18","no","white","no","yes","768","legacy","53","11","C:/Users/Hannah Laskoskie/Desktop/OpenSesame SternburgTask/HL-subject-3.csv","legacy","9 5 3 8 4","Melodramatic Milgram","4.0.5","1","y","0","left","up","up","NA","left","805.0","100800","16142","NA","805","2","legacy","5","1024","2","48000","-16","experiment","3","odd","9","508289","509338","511540","502530","4416","178673","510339","513541","NA","509336","4413","194816","513541","514348","105217","Sternberg Task","49","46502.0","66","1024"
"74","74","703","703","#3d3846","experiment","legacy","legacy","legacy","1","undefined","1","left","66","66","66","66","0","0","66","66","0","66","0","0","66","66","0","Sun Oct 22 20:32:10 2023","The main experiment item","True","SternbergTask.osexp","C:\Users\Hannah Laskoskie\Desktop\OpenSesame SternburgTask","False","mono","False","18","no","white","no","yes","768","legacy","54","11","C:/Users/Hannah Laskoskie/Desktop/OpenSesame SternburgTask/HL-subject-3.csv","legacy","4 9 7 8 5 3","Melodramatic Milgram","4.0.5","4","y","0","left","up","up","NA","left","625.0","100800","16142","NA","625","2","legacy","6","1024","2","48000","-16","experiment","3","odd","8","514357","515409","517611","502530","4416","178673","516410","519612","NA","515407","4413","194816","519612","520238","105217","Sternberg Task","50","47127.0","67","1024"
"73","73","702","702","#3d3846","experiment","legacy","legacy","legacy","0","undefined","0","right","67","67","67","67","0","0","67","67","0","67","0","0","67","67","0","Sun Oct 22 20:32:10 2023","The main experiment item","True","SternbergTask.osexp","C:\Users\Hannah Laskoskie\Desktop\OpenSesame SternburgTask","False","mono","False","18","no","white","no","yes","768","legacy","55","11","C:/Users/Hannah Laskoskie/Desktop/OpenSesame SternburgTask/HL-subject-3.csv","legacy","6 9 4 5 3 2","Melodramatic Milgram","4.0.5","0","n","0","left","up","up","NA","left","632.0","100800","16142","NA","632","2","legacy","6","1024","2","48000","-16","experiment","3","odd","8","520241","521286","523488","502530","4416","178673","522287","525489","NA","521284","4413","194816","525489","526122","105217","Sternberg Task","50","47759.0","68","1024"
"73","73","701","701","#3d3846","experiment","legacy","legacy","legacy","1","undefined","1","right","68","68","68","68","0","0","68","68","0","68","0","0","68","68","0","Sun Oct 22 20:32:10 2023","The main experiment item","True","SternbergTask.osexp","C:\Users\Hannah Laskoskie\Desktop\OpenSesame SternburgTask","False","mono","False","18","no","white","no","yes","768","legacy","56","11","C:/Users/Hannah Laskoskie/Desktop/OpenSesame SternburgTask/HL-subject-3.csv","legacy","1 3 2 6 9","Melodramatic Milgram","4.0.5","0","n","0","right","up","up","NA","right","651.0","100800","16142","NA","651","2","legacy","5","1024","2","48000","-16","experiment","3","odd","5","520241","527191","529393","526124","4416","178673","528192","531394","NA","527188","4413","194816","531394","532046","105217","Sternberg Task","51","48410.0","69","1024"
"72","72","699","699","#3d3846","experiment","legacy","legacy","legacy","0","undefined","0","left","69","69","69","69","0","0","69","69","0","69","0","0","69","69","0","Sun Oct 22 20:32:10 2023","The main experiment item","True","SternbergTask.osexp","C:\Users\Hannah Laskoskie\Desktop\OpenSesame SternburgTask","False","mono","False","18","no","white","no","yes","768","legacy","57","11","C:/Users/Hannah Laskoskie/Desktop/OpenSesame SternburgTask/HL-subject-3.csv","legacy","7 2 3","Melodramatic Milgram","4.0.5","3","y","0","right","up","up","NA","right","535.0","100800","16142","NA","535","2","legacy","3","1024","2","48000","-16","experiment","3","odd","3","532056","533099","535301","526124","4416","178673","534100","537302","NA","533097","4413","194816","537302","537838","105217","Sternberg Task","51","48945.0","70","1024"
"73","73","702","702","#3d3846","experiment","legacy","legacy","legacy","1","undefined","1","left","70","70","70","70","0","0","70","70","0","70","0","0","70","70","0","Sun Oct 22 20:32:10 2023","The main experiment item","True","SternbergTask.osexp","C:\Users\Hannah Laskoskie\Desktop\OpenSesame SternburgTask","False","mono","False","18","no","white","no","yes","768","legacy","58","11","C:/Users/Hannah Laskoskie/Desktop/OpenSesame SternburgTask/HL-subject-3.csv","legacy","6 1 2","Melodramatic Milgram","4.0.5","3","y","0","left","up","up","NA","left","897.0","100800","16142","NA","897","2","legacy","3","1024","2","48000","-16","experiment","3","odd","2","532056","538893","541095","537847","4416","178673","539894","543096","NA","538891","4413","194816","543096","543994","105217","Sternberg Task","52","49842.0","71","1024"
"73","73","701","701","#3d3846","experiment","legacy","legacy","legacy","1","undefined","1","left","71","71","71","71","0","0","71","71","0","71","0","0","71","71","0","Sun Oct 22 20:32:10 2023","The main experiment item","True","SternbergTask.osexp","C:\Users\Hannah Laskoskie\Desktop\OpenSesame SternburgTask","False","mono","False","18","no","white","no","yes","768","legacy","59","11","C:/Users/Hannah Laskoskie/Desktop/OpenSesame SternburgTask/HL-subject-3.csv","legacy","7 1 3","Melodramatic Milgram","4.0.5","2","y","0","left","up","up","NA","left","644.0","100800","16142","NA","644","2","legacy","3","1024","2","48000","-16","experiment","3","odd","1","544003","545051","547253","537847","4416","178673","546052","549254","NA","545049","4413","194816","549254","549899","105217","Sternberg Task","53","50486.0","72","1024"
"73","73","699","699","#3d3846","experiment","legacy","legacy","legacy","1","undefined","1","right","72","72","72","72","0","0","72","72","0","72","0","0","72","72","0","Sun Oct 22 20:32:10 2023","The main experiment item","True","SternbergTask.osexp","C:\Users\Hannah Laskoskie\Desktop\OpenSesame SternburgTask","False","mono","False","18","no","white","no","yes","768","legacy","60","11","C:/Users/Hannah Laskoskie/Desktop/OpenSesame SternburgTask/HL-subject-3.csv","legacy","9","Melodramatic Milgram","4.0.5","0","n","0","right","up","up","NA","right","572.0","100800","16142","NA","572","2","legacy","1","1024","2","48000","-16","experiment","3","odd","6","549908","550956","553158","537847","4416","178673","551957","555160","NA","550954","4413","194816","555160","555733","105217","Sternberg Task","54","51058.0","73","1024"
"74","74","703","703","#3d3846","experiment","legacy","legacy","legacy","1","undefined","1","right","73","73","73","73","0","0","73","73","0","73","0","0","73","73","0","Sun Oct 22 20:32:10 2023","The main experiment item","True","SternbergTask.osexp","C:\Users\Hannah Laskoskie\Desktop\OpenSesame SternburgTask","False","mono","False","18","no","white","no","yes","768","legacy","61","11","C:/Users/Hannah Laskoskie/Desktop/OpenSesame SternburgTask/HL-subject-3.csv","legacy","2 8 9","Melodramatic Milgram","4.0.5","0","n","0","right","up","up","NA","right","1027.0","100800","16142","NA","1027","2","legacy","3","1024","2","48000","-16","experiment","3","odd","6","555742","556792","558994","537847","4416","178673","557793","560995","NA","556790","4413","194816","560995","562023","105217","Sternberg Task","55","52085.0","74","1024"
"74","74","708","708","#3d3846","experiment","legacy","legacy","legacy","1","undefined","1","right","74","74","74","74","0","0","74","74","0","74","0","0","74","74","0","Sun Oct 22 20:32:10 2023","The main experiment item","True","SternbergTask.osexp","C:\Users\Hannah Laskoskie\Desktop\OpenSesame SternburgTask","False","mono","False","18","no","white","no","yes","768","legacy","62","11","C:/Users/Hannah Laskoskie/Desktop/OpenSesame SternburgTask/HL-subject-3.csv","legacy","1 4 3 6 5","Melodramatic Milgram","4.0.5","0","n","0","right","up","up","NA","right","1046.0","100800","16142","NA","1046","2","legacy","5","1024","2","48000","-16","experiment","3","odd","8","562032","563081","565283","537847","4416","178673","564082","567284","NA","563079","4413","194816","567284","568331","105217","Sternberg Task","56","53131.0","75","1024"
"75","75","708","708","#3d3846","experiment","legacy","legacy","legacy","1","undefined","1","right","75","75","75","75","0","0","75","75","0","75","0","0","75","75","0","Sun Oct 22 20:32:10 2023","The main experiment item","True","SternbergTask.osexp","C:\Users\Hannah Laskoskie\Desktop\OpenSesame SternburgTask","False","mono","False","18","no","white","no","yes","768","legacy","63","11","C:/Users/Hannah Laskoskie/Desktop/OpenSesame SternburgTask/HL-subject-3.csv","legacy","7 1","Melodramatic Milgram","4.0.5","0","n","0","right","up","up","NA","right","751.0","100800","16142","NA","751","2","legacy","2","1024","2","48000","-16","experiment","3","odd","8","568341","569392","571594","537847","4416","178673","570393","573595","NA","569388","4413","194816","573595","574348","105217","Sternberg Task","57","53882.0","76","1024"
"74","74","715","715","#3d3846","experiment","legacy","legacy","legacy","0","undefined","0","left","76","76","76","76","0","0","76","76","0","76","0","0","76","76","0","Sun Oct 22 20:32:10 2023","The main experiment item","True","SternbergTask.osexp","C:\Users\Hannah Laskoskie\Desktop\OpenSesame SternburgTask","False","mono","False","18","no","white","no","yes","768","legacy","64","11","C:/Users/Hannah Laskoskie/Desktop/OpenSesame SternburgTask/HL-subject-3.csv","legacy","4 6 5 8","Melodramatic Milgram","4.0.5","1","y","0","right","up","up","NA","right","1247.0","100800","16142","NA","1247","2","legacy","4","1024","2","48000","-16","experiment","3","odd","4","574352","575409","577611","537847","4416","178673","576410","579612","NA","575407","4413","194816","579612","580861","105217","Sternberg Task","57","55129.0","77","1024"
"74","74","716","716","#3d3846","experiment","legacy","legacy","legacy","1","undefined","1","left","77","77","77","77","0","0","77","77","0","77","0","0","77","77","0","Sun Oct 22 20:32:10 2023","The main experiment item","True","SternbergTask.osexp","C:\Users\Hannah Laskoskie\Desktop\OpenSesame SternburgTask","False","mono","False","18","no","white","no","yes","768","legacy","65","11","C:/Users/Hannah Laskoskie/Desktop/OpenSesame SternburgTask/HL-subject-3.csv","legacy","4 1 8 7 5","Melodramatic Milgram","4.0.5","3","y","0","left","up","up","NA","left","784.0","100800","16142","NA","784","2","legacy","5","1024","2","48000","-16","experiment","3","odd","8","574352","581911","584113","580864","4416","178673","582912","586114","NA","581909","4413","194816","586114","586899","105217","Sternberg Task","58","55913.0","78","1024"
"74","74","716","716","#3d3846","experiment","legacy","legacy","legacy","1","undefined","1","left","78","78","78","78","0","0","78","78","0","78","0","0","78","78","0","Sun Oct 22 20:32:10 2023","The main experiment item","True","SternbergTask.osexp","C:\Users\Hannah Laskoskie\Desktop\OpenSesame SternburgTask","False","mono","False","18","no","white","no","yes","768","legacy","66","11","C:/Users/Hannah Laskoskie/Desktop/OpenSesame SternburgTask/HL-subject-3.csv","legacy","3 2 1 4 7","Melodramatic Milgram","4.0.5","2","y","0","left","up","up","NA","left","693.0","100800","16142","NA","693","2","legacy","5","1024","2","48000","-16","experiment","3","odd","2","586908","587962","590164","580864","4416","178673","588963","592165","NA","587960","4413","194816","592165","592859","105217","Sternberg Task","59","56606.0","79","1024"
"75","75","719","719","#3d3846","experiment","legacy","legacy","legacy","1","undefined","1","right","79","79","79","79","0","0","79","79","0","79","0","0","79","79","0","Sun Oct 22 20:32:10 2023","The main experiment item","True","SternbergTask.osexp","C:\Users\Hannah Laskoskie\Desktop\OpenSesame SternburgTask","False","mono","False","18","no","white","no","yes","768","legacy","67","11","C:/Users/Hannah Laskoskie/Desktop/OpenSesame SternburgTask/HL-subject-3.csv","legacy","2 3 8 5 6 7","Melodramatic Milgram","4.0.5","0","n","0","right","up","up","NA","right","989.0","100800","16142","NA","989","2","legacy","6","1024","2","48000","-16","experiment","3","odd","1","592869","593916","596118","580864","4416","178673","594917","598119","NA","593914","4413","194816","598119","599110","105217","Sternberg Task","60","57595.0","80","1024"
"74","74","718","718","#3d3846","experiment","legacy","legacy","legacy","0","undefined","0","right","80","80","80","80","0","0","80","80","0","80","0","0","80","80","0","Sun Oct 22 20:32:10 2023","The main experiment item","True","SternbergTask.osexp","C:\Users\Hannah Laskoskie\Desktop\OpenSesame SternburgTask","False","mono","False","18","no","white","no","yes","768","legacy","68","11","C:/Users/Hannah Laskoskie/Desktop/OpenSesame SternburgTask/HL-subject-3.csv","legacy","2 8 6 3 1","Melodramatic Milgram","4.0.5","0","n","0","left","up","up","NA","left","621.0","100800","16142","NA","621","2","legacy","5","1024","2","48000","-16","experiment","3","odd","7","599118","600161","602363","580864","4416","178673","601162","604364","NA","600159","4413","194816","604364","604987","105217","Sternberg Task","60","58216.0","81","1024"
"73","73","725","725","#3d3846","experiment","legacy","legacy","legacy","0","undefined","0","left","81","81","81","81","0","0","81","81","0","81","0","0","81","81","0","Sun Oct 22 20:32:10 2023","The main experiment item","True","SternbergTask.osexp","C:\Users\Hannah Laskoskie\Desktop\OpenSesame SternburgTask","False","mono","False","18","no","white","no","yes","768","legacy","69","11","C:/Users/Hannah Laskoskie/Desktop/OpenSesame SternburgTask/HL-subject-3.csv","legacy","7 4 2 6 3 5","Melodramatic Milgram","4.0.5","6","y","0","right","up","up","NA","right","1251.0","100800","16142","NA","1251","2","legacy","6","1024","2","48000","-16","experiment","3","odd","5","599118","606043","608245","604996","4416","178673","607044","610246","NA","606041","4413","194816","610247","611499","105217","Sternberg Task","60","59467.0","82","1024"
"73","73","724","724","#3d3846","experiment","legacy","legacy","legacy","1","undefined","1","left","82","82","82","82","0","0","82","82","0","82","0","0","82","82","0","Sun Oct 22 20:32:10 2023","The main experiment item","True","SternbergTask.osexp","C:\Users\Hannah Laskoskie\Desktop\OpenSesame SternburgTask","False","mono","False","18","no","white","no","yes","768","legacy","70","11","C:/Users/Hannah Laskoskie/Desktop/OpenSesame SternburgTask/HL-subject-3.csv","legacy","9 3 1 2 5","Melodramatic Milgram","4.0.5","4","y","0","left","up","up","NA","left","668.0","100800","16142","NA","668","2","legacy","5","1024","2","48000","-16","experiment","3","odd","2","599118","612554","614756","611508","4416","178673","613555","616757","NA","612551","4413","194816","616757","617426","105217","Sternberg Task","61","60135.0","83","1024"
"73","73","721","721","#3d3846","experiment","legacy","legacy","legacy","1","undefined","1","left","83","83","83","83","0","0","83","83","0","83","0","0","83","83","0","Sun Oct 22 20:32:10 2023","The main experiment item","True","SternbergTask.osexp","C:\Users\Hannah Laskoskie\Desktop\OpenSesame SternburgTask","False","mono","False","18","no","white","no","yes","768","legacy","71","11","C:/Users/Hannah Laskoskie/Desktop/OpenSesame SternburgTask/HL-subject-3.csv","legacy","7 8 4 6 9 5","Melodramatic Milgram","4.0.5","4","y","0","left","up","up","NA","left","510.0","100800","16142","NA","510","2","legacy","6","1024","2","48000","-16","experiment","3","odd","6","617435","618498","620700","611508","4416","178673","619499","622701","NA","618495","4413","194816","622701","623212","105217","Sternberg Task","62","60645.0","84","1024"
"74","74","720","720","#3d3846","experiment","legacy","legacy","legacy","1","undefined","1","left","84","84","84","84","0","0","84","84","0","84","0","0","84","84","0","Sun Oct 22 20:32:10 2023","The main experiment item","True","SternbergTask.osexp","C:\Users\Hannah Laskoskie\Desktop\OpenSesame SternburgTask","False","mono","False","18","no","white","no","yes","768","legacy","72","11","C:/Users/Hannah Laskoskie/Desktop/OpenSesame SternburgTask/HL-subject-3.csv","legacy","8 5 3 7 4 6","Melodramatic Milgram","4.0.5","6","y","0","left","up","up","NA","left","583.0","100800","16142","NA","583","2","legacy","6","1024","2","48000","-16","experiment","3","odd","6","623221","624271","626473","611508","4416","178673","625272","628474","NA","624268","4413","194816","628474","629058","105217","Sternberg Task","63","61228.0","85","1024"
"74","74","721","721","#3d3846","experiment","legacy","legacy","legacy","1","undefined","1","right","85","85","85","85","0","0","85","85","0","85","0","0","85","85","0","Sun Oct 22 20:32:10 2023","The main experiment item","True","SternbergTask.osexp","C:\Users\Hannah Laskoskie\Desktop\OpenSesame SternburgTask","False","mono","False","18","no","white","no","yes","768","legacy","73","11","C:/Users/Hannah Laskoskie/Desktop/OpenSesame SternburgTask/HL-subject-3.csv","legacy","6 9 5","Melodramatic Milgram","4.0.5","0","n","0","right","up","up","NA","right","836.0","100800","16142","NA","836","2","legacy","3","1024","2","48000","-16","experiment","3","odd","8","629068","630112","632314","611508","4416","178673","631113","634315","NA","630110","4413","194816","634315","635152","105217","Sternberg Task","64","62064.0","86","1024"
"74","74","722","722","#3d3846","experiment","legacy","legacy","legacy","1","undefined","1","right","86","86","86","86","0","0","86","86","0","86","0","0","86","86","0","Sun Oct 22 20:32:10 2023","The main experiment item","True","SternbergTask.osexp","C:\Users\Hannah Laskoskie\Desktop\OpenSesame SternburgTask","False","mono","False","18","no","white","no","yes","768","legacy","74","11","C:/Users/Hannah Laskoskie/Desktop/OpenSesame SternburgTask/HL-subject-3.csv","legacy","9 5 3 2 8 6","Melodramatic Milgram","4.0.5","0","n","0","right","up","up","NA","right","817.0","100800","16142","NA","817","2","legacy","6","1024","2","48000","-16","experiment","3","odd","7","635161","636206","638408","611508","4416","178673","637207","640409","NA","636203","4413","194816","640409","641227","105217","Sternberg Task","65","62881.0","87","1024"
"73","73","725","725","#3d3846","experiment","legacy","legacy","legacy","0","undefined","0","right","87","87","87","87","0","0","87","87","0","87","0","0","87","87","0","Sun Oct 22 20:32:10 2023","The main experiment item","True","SternbergTask.osexp","C:\Users\Hannah Laskoskie\Desktop\OpenSesame SternburgTask","False","mono","False","18","no","white","no","yes","768","legacy","75","11","C:/Users/Hannah Laskoskie/Desktop/OpenSesame SternburgTask/HL-subject-3.csv","legacy","6 3 1 7 9 8","Melodramatic Milgram","4.0.5","0","n","0","left","up","up","NA","left","975.0","100800","16142","NA","975","2","legacy","6","1024","2","48000","-16","experiment","3","odd","4","641236","642280","644482","611508","4416","178673","643281","646483","NA","642278","4413","194816","646483","647460","105217","Sternberg Task","65","63856.0","88","1024"
"74","74","725","725","#3d3846","experiment","legacy","legacy","legacy","1","undefined","1","left","88","88","88","88","0","0","88","88","0","88","0","0","88","88","0","Sun Oct 22 20:32:10 2023","The main experiment item","True","SternbergTask.osexp","C:\Users\Hannah Laskoskie\Desktop\OpenSesame SternburgTask","False","mono","False","18","no","white","no","yes","768","legacy","76","11","C:/Users/Hannah Laskoskie/Desktop/OpenSesame SternburgTask/HL-subject-3.csv","legacy","5 2 6","Melodramatic Milgram","4.0.5","2","y","0","left","up","up","NA","left","681.0","100800","16142","NA","681","2","legacy","3","1024","2","48000","-16","experiment","3","odd","2","641236","648518","650720","647464","4416","178673","649519","652721","NA","648515","4413","194816","652721","653403","105217","Sternberg Task","66","64537.0","89","1024"
"73","73","739","739","#3d3846","experiment","legacy","legacy","legacy","0","undefined","0","right","89","89","89","89","0","0","89","89","0","89","0","0","89","89","0","Sun Oct 22 20:32:10 2023","The main experiment item","True","SternbergTask.osexp","C:\Users\Hannah Laskoskie\Desktop\OpenSesame SternburgTask","False","mono","False","18","no","white","no","yes","768","legacy","77","11","C:/Users/Hannah Laskoskie/Desktop/OpenSesame SternburgTask/HL-subject-3.csv","legacy","8 9","Melodramatic Milgram","4.0.5","0","n","0","None","up","up","NA","None","2000.0","100800","16142","NA","2000","2","legacy","2","1024","2","48000","-16","experiment","3","odd","5","653412","654459","656661","647464","4416","178673","655460","658662","NA","654457","4413","194816","658662","660663","105217","Sternberg Task","66","66537.0","90","1024"
"72","72","737","737","#3d3846","experiment","legacy","legacy","legacy","0","undefined","0","right","90","90","90","90","0","0","90","90","0","90","0","0","90","90","0","Sun Oct 22 20:32:10 2023","The main experiment item","True","SternbergTask.osexp","C:\Users\Hannah Laskoskie\Desktop\OpenSesame SternburgTask","False","mono","False","18","no","white","no","yes","768","legacy","78","11","C:/Users/Hannah Laskoskie/Desktop/OpenSesame SternburgTask/HL-subject-3.csv","legacy","7 1 8 4 9 3","Melodramatic Milgram","4.0.5","0","n","0","left","up","up","NA","left","579.0","100800","16142","NA","579","2","legacy","6","1024","2","48000","-16","experiment","3","odd","6","653412","661710","663912","660667","4416","178673","662711","665913","NA","661708","4413","194816","665913","666494","105217","Sternberg Task","66","67116.0","91","1024"
"72","72","735","735","#3d3846","experiment","legacy","legacy","legacy","1","undefined","1","left","91","91","91","91","0","0","91","91","0","91","0","0","91","91","0","Sun Oct 22 20:32:10 2023","The main experiment item","True","SternbergTask.osexp","C:\Users\Hannah Laskoskie\Desktop\OpenSesame SternburgTask","False","mono","False","18","no","white","no","yes","768","legacy","79","11","C:/Users/Hannah Laskoskie/Desktop/OpenSesame SternburgTask/HL-subject-3.csv","legacy","6 2","Melodramatic Milgram","4.0.5","1","y","0","left","up","up","NA","left","590.0","100800","16142","NA","590","2","legacy","2","1024","2","48000","-16","experiment","3","odd","6","653412","667575","669777","666497","4416","178673","668576","671778","NA","667573","4413","194816","671778","672370","105217","Sternberg Task","67","67706.0","92","1024"
"72","72","733","733","#3d3846","experiment","legacy","legacy","legacy","0","undefined","0","left","92","92","92","92","0","0","92","92","0","92","0","0","92","92","0","Sun Oct 22 20:32:10 2023","The main experiment item","True","SternbergTask.osexp","C:\Users\Hannah Laskoskie\Desktop\OpenSesame SternburgTask","False","mono","False","18","no","white","no","yes","768","legacy","80","11","C:/Users/Hannah Laskoskie/Desktop/OpenSesame SternburgTask/HL-subject-3.csv","legacy","9 3 8 2 1 4","Melodramatic Milgram","4.0.5","3","y","0","right","up","up","NA","right","537.0","100800","16142","NA","537","2","legacy","6","1024","2","48000","-16","experiment","3","odd","8","672379","673423","675625","666497","4416","178673","674424","677626","NA","673421","4413","194816","677626","678164","105217","Sternberg Task","67","68243.0","93","1024"
"72","72","731","731","#3d3846","experiment","legacy","legacy","legacy","1","undefined","1","left","93","93","93","93","0","0","93","93","0","93","0","0","93","93","0","Sun Oct 22 20:32:10 2023","The main experiment item","True","SternbergTask.osexp","C:\Users\Hannah Laskoskie\Desktop\OpenSesame SternburgTask","False","mono","False","18","no","white","no","yes","768","legacy","81","11","C:/Users/Hannah Laskoskie/Desktop/OpenSesame SternburgTask/HL-subject-3.csv","legacy","3 4 9 6 2 9","Melodramatic Milgram","4.0.5","5","y","0","left","up","up","NA","left","550.0","100800","16142","NA","550","2","legacy","6","1024","2","48000","-16","experiment","3","odd","2","672379","679220","681422","678173","4416","178673","680221","683423","NA","679218","4413","194816","683423","683974","105217","Sternberg Task","68","68793.0","94","1024"
"72","72","729","729","#3d3846","experiment","legacy","legacy","legacy","1","undefined","1","left","94","94","94","94","0","0","94","94","0","94","0","0","94","94","0","Sun Oct 22 20:32:10 2023","The main experiment item","True","SternbergTask.osexp","C:\Users\Hannah Laskoskie\Desktop\OpenSesame SternburgTask","False","mono","False","18","no","white","no","yes","768","legacy","82","11","C:/Users/Hannah Laskoskie/Desktop/OpenSesame SternburgTask/HL-subject-3.csv","legacy","3 9 7 6 4","Melodramatic Milgram","4.0.5","3","y","0","left","up","up","NA","left","536.0","100800","16142","NA","536","2","legacy","5","1024","2","48000","-16","experiment","3","odd","7","683978","685028","687230","678173","4416","178673","686029","689232","NA","685026","4413","194816","689232","689769","105217","Sternberg Task","69","69329.0","95","1024"
"72","72","730","730","#3d3846","experiment","legacy","legacy","legacy","1","undefined","1","right","95","95","95","95","0","0","95","95","0","95","0","0","95","95","0","Sun Oct 22 20:32:10 2023","The main experiment item","True","SternbergTask.osexp","C:\Users\Hannah Laskoskie\Desktop\OpenSesame SternburgTask","False","mono","False","18","no","white","no","yes","768","legacy","83","11","C:/Users/Hannah Laskoskie/Desktop/OpenSesame SternburgTask/HL-subject-3.csv","legacy","8 6 3 4 7","Melodramatic Milgram","4.0.5","0","n","0","right","up","up","NA","right","770.0","100800","16142","NA","770","2","legacy","5","1024","2","48000","-16","experiment","3","odd","1","689772","690818","693020","678173","4416","178673","691819","695021","NA","690815","4413","194816","695021","695793","105217","Sternberg Task","70","70099.0","96","1024"
"72","72","743","743","#3d3846","experiment","legacy","legacy","legacy","0","undefined","0","left","96","96","96","96","0","0","96","96","0","96","0","0","96","96","0","Sun Oct 22 20:32:10 2023","The main experiment item","True","SternbergTask.osexp","C:\Users\Hannah Laskoskie\Desktop\OpenSesame SternburgTask","False","mono","False","18","no","white","no","yes","768","legacy","84","11","C:/Users/Hannah Laskoskie/Desktop/OpenSesame SternburgTask/HL-subject-3.csv","legacy","8 9 6 1","Melodramatic Milgram","4.0.5","2","y","0","None","up","up","NA","None","2000.0","100800","16142","NA","2000","2","legacy","4","1024","2","48000","-16","experiment","3","odd","9","695802","696845","699047","678173","4416","178673","697846","701048","NA","696843","4413","194816","701048","703048","105217","Sternberg Task","70","72099.0","97","1024"
"72","72","743","743","#3d3846","experiment","legacy","legacy","legacy","1","undefined","1","left","97","97","97","97","0","0","97","97","0","97","0","0","97","97","0","Sun Oct 22 20:32:10 2023","The main experiment item","True","SternbergTask.osexp","C:\Users\Hannah Laskoskie\Desktop\OpenSesame SternburgTask","False","mono","False","18","no","white","no","yes","768","legacy","85","11","C:/Users/Hannah Laskoskie/Desktop/OpenSesame SternburgTask/HL-subject-3.csv","legacy","8 9 5 6 7","Melodramatic Milgram","4.0.5","1","y","0","left","up","up","NA","left","779.0","100800","16142","NA","779","2","legacy","5","1024","2","48000","-16","experiment","3","odd","8","695802","704100","706302","703057","4416","178673","705101","708303","NA","704099","4413","194816","708303","709083","105217","Sternberg Task","71","72878.0","98","1024"
"72","72","746","746","#3d3846","experiment","legacy","legacy","legacy","1","undefined","1","right","98","98","98","98","0","0","98","98","0","98","0","0","98","98","0","Sun Oct 22 20:32:10 2023","The main experiment item","True","SternbergTask.osexp","C:\Users\Hannah Laskoskie\Desktop\OpenSesame SternburgTask","False","mono","False","18","no","white","no","yes","768","legacy","86","11","C:/Users/Hannah Laskoskie/Desktop/OpenSesame SternburgTask/HL-subject-3.csv","legacy","5 9 2 3","Melodramatic Milgram","4.0.5","0","n","0","right","up","up","NA","right","1044.0","100800","16142","NA","1044","2","legacy","4","1024","2","48000","-16","experiment","3","odd","8","709092","710154","712356","703057","4416","178673","711155","714357","NA","710152","4413","194816","714357","715403","105217","Sternberg Task","72","73922.0","99","1024"
"73","73","747","747","#3d3846","experiment","legacy","legacy","legacy","1","undefined","1","left","99","99","99","99","0","0","99","99","0","99","0","0","99","99","0","Sun Oct 22 20:32:10 2023","The main experiment item","True","SternbergTask.osexp","C:\Users\Hannah Laskoskie\Desktop\OpenSesame SternburgTask","False","mono","False","18","no","white","no","yes","768","legacy","87","11","C:/Users/Hannah Laskoskie/Desktop/OpenSesame SternburgTask/HL-subject-3.csv","legacy","3 5 4 7","Melodramatic Milgram","4.0.5","1","y","0","left","up","up","NA","left","855.0","100800","16142","NA","855","2","legacy","4","1024","2","48000","-16","experiment","3","odd","3","715411","716460","718662","703057","4416","178673","717461","720663","NA","716458","4413","194816","720663","721520","105217","Sternberg Task","73","74777.0","100","1024"
"72","72","751","751","#3d3846","experiment","legacy","legacy","legacy","0","undefined","0","left","100","100","100","100","0","0","100","100","0","100","0","0","100","100","0","Sun Oct 22 20:32:10 2023","The main experiment item","True","SternbergTask.osexp","C:\Users\Hannah Laskoskie\Desktop\OpenSesame SternburgTask","False","mono","False","18","no","white","no","yes","768","legacy","88","11","C:/Users/Hannah Laskoskie/Desktop/OpenSesame SternburgTask/HL-subject-3.csv","legacy","9 6 2 4 1","Melodramatic Milgram","4.0.5","4","y","0","right","up","up","NA","right","1132.0","100800","16142","NA","1132","2","legacy","5","1024","2","48000","-16","experiment","3","odd","4","721529","722573","724775","703057","4416","178673","723574","726776","NA","722570","4413","194816","726776","727910","105217","Sternberg Task","73","75909.0","101","1024"
"71","71","752","752","#3d3846","experiment","legacy","legacy","legacy","0","undefined","0","right","101","101","101","101","0","0","101","101","0","101","0","0","101","101","0","Sun Oct 22 20:32:10 2023","The main experiment item","True","SternbergTask.osexp","C:\Users\Hannah Laskoskie\Desktop\OpenSesame SternburgTask","False","mono","False","18","no","white","no","yes","768","legacy","89","11","C:/Users/Hannah Laskoskie/Desktop/OpenSesame SternburgTask/HL-subject-3.csv","legacy","7 9","Melodramatic Milgram","4.0.5","0","n","0","left","up","up","NA","left","840.0","100800","16142","NA","840","2","legacy","2","1024","2","48000","-16","experiment","3","odd","1","721529","728957","731160","727913","4416","178673","729959","733162","NA","728955","4413","194816","733162","734003","105217","Sternberg Task","73","76749.0","102","1024"
"70","70","753","753","#3d3846","experiment","legacy","legacy","legacy","0","undefined","0","left","102","102","102","102","0","0","102","102","0","102","0","0","102","102","0","Sun Oct 22 20:32:10 2023","The main experiment item","True","SternbergTask.osexp","C:\Users\Hannah Laskoskie\Desktop\OpenSesame SternburgTask","False","mono","False","18","no","white","no","yes","768","legacy","90","11","C:/Users/Hannah Laskoskie/Desktop/OpenSesame SternburgTask/HL-subject-3.csv","legacy","6 7 8 5","Melodramatic Milgram","4.0.5","3","y","0","right","up","up","NA","right","889.0","100800","16142","NA","889","2","legacy","4","1024","2","48000","-16","experiment","3","odd","8","721529","735064","737266","734007","4416","178673","736065","739270","NA","735061","4413","194816","739270","740160","105217","Sternberg Task","73","77638.0","103","1024"
"70","70","752","752","#3d3846","experiment","legacy","legacy","legacy","0","undefined","0","right","103","103","103","103","0","0","103","103","0","103","0","0","103","103","0","Sun Oct 22 20:32:10 2023","The main experiment item","True","SternbergTask.osexp","C:\Users\Hannah Laskoskie\Desktop\OpenSesame SternburgTask","False","mono","False","18","no","white","no","yes","768","legacy","91","11","C:/Users/Hannah Laskoskie/Desktop/OpenSesame SternburgTask/HL-subject-3.csv","legacy","2 8 7 9 5 3","Melodramatic Milgram","4.0.5","0","n","0","left","up","up","NA","left","612.0","100800","16142","NA","612","2","legacy","6","1024","2","48000","-16","experiment","3","odd","6","721529","741215","743418","740163","4416","178673","742217","745419","NA","741213","4413","194816","745419","746033","105217","Sternberg Task","73","78250.0","104","1024"
"69","69","749","749","#3d3846","experiment","legacy","legacy","legacy","0","undefined","0","left","104","104","104","104","0","0","104","104","0","104","0","0","104","104","0","Sun Oct 22 20:32:10 2023","The main experiment item","True","SternbergTask.osexp","C:\Users\Hannah Laskoskie\Desktop\OpenSesame SternburgTask","False","mono","False","18","no","white","no","yes","768","legacy","92","11","C:/Users/Hannah Laskoskie/Desktop/OpenSesame SternburgTask/HL-subject-3.csv","legacy","7 8 6 3 1","Melodramatic Milgram","4.0.5","5","y","0","right","up","up","NA","right","499.0","100800","16142","NA","499","2","legacy","5","1024","2","48000","-16","experiment","3","odd","1","721529","747090","749292","746042","4416","178673","748091","751293","NA","747088","4413","194816","751293","751794","105217","Sternberg Task","73","78749.0","105","1024"
"69","69","748","748","#3d3846","experiment","legacy","legacy","legacy","1","undefined","1","left","105","105","105","105","0","0","105","105","0","105","0","0","105","105","0","Sun Oct 22 20:32:10 2023","The main experiment item","True","SternbergTask.osexp","C:\Users\Hannah Laskoskie\Desktop\OpenSesame SternburgTask","False","mono","False","18","no","white","no","yes","768","legacy","93","11","C:/Users/Hannah Laskoskie/Desktop/OpenSesame SternburgTask/HL-subject-3.csv","legacy","8 5 4 7 3 1","Melodramatic Milgram","4.0.5","2","y","0","left","up","up","NA","left","594.0","100800","16142","NA","594","2","legacy","6","1024","2","48000","-16","experiment","3","odd","5","721529","752853","755055","751803","4416","178673","753854","757056","NA","752851","4413","194816","757056","757651","105217","Sternberg Task","74","79343.0","106","1024"
"70","70","746","746","#3d3846","experiment","legacy","legacy","legacy","1","undefined","1","left","106","106","106","106","0","0","106","106","0","106","0","0","106","106","0","Sun Oct 22 20:32:10 2023","The main experiment item","True","SternbergTask.osexp","C:\Users\Hannah Laskoskie\Desktop\OpenSesame SternburgTask","False","mono","False","18","no","white","no","yes","768","legacy","94","11","C:/Users/Hannah Laskoskie/Desktop/OpenSesame SternburgTask/HL-subject-3.csv","legacy","3 4","Melodramatic Milgram","4.0.5","1","y","0","left","up","up","NA","left","568.0","100800","16142","NA","568","2","legacy","2","1024","2","48000","-16","experiment","3","odd","3","757655","758714","760916","751803","4416","178673","759715","762917","NA","758712","4413","194816","762917","763487","105217","Sternberg Task","75","79911.0","107","1024"
"70","70","744","744","#3d3846","experiment","legacy","legacy","legacy","1","undefined","1","left","107","107","107","107","0","0","107","107","0","107","0","0","107","107","0","Sun Oct 22 20:32:10 2023","The main experiment item","True","SternbergTask.osexp","C:\Users\Hannah Laskoskie\Desktop\OpenSesame SternburgTask","False","mono","False","18","no","white","no","yes","768","legacy","95","11","C:/Users/Hannah Laskoskie/Desktop/OpenSesame SternburgTask/HL-subject-3.csv","legacy","4 1 5","Melodramatic Milgram","4.0.5","2","y","0","left","up","up","NA","left","486.0","100800","16142","NA","486","2","legacy","3","1024","2","48000","-16","experiment","3","odd","1","763496","764541","766743","751803","4416","178673","765542","768744","NA","764539","4413","194816","768744","769232","105217","Sternberg Task","76","80397.0","108","1024"
"70","70","743","743","#3d3846","experiment","legacy","legacy","legacy","1","undefined","1","right","108","108","108","108","0","0","108","108","0","108","0","0","108","108","0","Sun Oct 22 20:32:10 2023","The main experiment item","True","SternbergTask.osexp","C:\Users\Hannah Laskoskie\Desktop\OpenSesame SternburgTask","False","mono","False","18","no","white","no","yes","768","legacy","96","11","C:/Users/Hannah Laskoskie/Desktop/OpenSesame SternburgTask/HL-subject-3.csv","legacy","5","Melodramatic Milgram","4.0.5","0","n","0","right","up","up","NA","right","647.0","100800","16142","NA","647","2","legacy","1","1024","2","48000","-16","experiment","3","odd","8","769236","770286","772489","751803","4416","178673","771288","774490","NA","770284","4413","194816","774490","775138","105217","Sternberg Task","77","81044.0","109","1024"
"70","70","754","754","#3d3846","experiment","legacy","legacy","legacy","1","undefined","1","right","109","109","109","109","0","0","109","109","0","109","0","0","109","109","0","Sun Oct 22 20:32:10 2023","The main experiment item","True","SternbergTask.osexp","C:\Users\Hannah Laskoskie\Desktop\OpenSesame SternburgTask","False","mono","False","18","no","white","no","yes","768","legacy","97","11","C:/Users/Hannah Laskoskie/Desktop/OpenSesame SternburgTask/HL-subject-3.csv","legacy","6 8","Melodramatic Milgram","4.0.5","0","n","0","right","up","up","NA","right","1929.0","100800","16142","NA","1929","2","legacy","2","1024","2","48000","-16","experiment","3","odd","9","775148","776198","778400","751803","4416","178673","777199","780401","NA","776196","4413","194816","780401","782332","105217","Sternberg Task","78","82973.0","110","1024"
"70","70","753","753","#3d3846","experiment","legacy","legacy","legacy","0","undefined","0","right","110","110","110","110","0","0","110","110","0","110","0","0","110","110","0","Sun Oct 22 20:32:10 2023","The main experiment item","True","SternbergTask.osexp","C:\Users\Hannah Laskoskie\Desktop\OpenSesame SternburgTask","False","mono","False","18","no","white","no","yes","768","legacy","98","11","C:/Users/Hannah Laskoskie/Desktop/OpenSesame SternburgTask/HL-subject-3.csv","legacy","8 4 3 5","Melodramatic Milgram","4.0.5","0","n","0","left","up","up","NA","left","680.0","100800","16142","NA","680","2","legacy","4","1024","2","48000","-16","experiment","3","odd","6","782341","783393","785595","751803","4416","178673","784394","787596","NA","783391","4413","194816","787596","788277","105217","Sternberg Task","78","83653.0","111","1024"
"70","70","750","750","#3d3846","experiment","legacy","legacy","legacy","1","undefined","1","right","111","111","111","111","0","0","111","111","0","111","0","0","111","111","0","Sun Oct 22 20:32:10 2023","The main experiment item","True","SternbergTask.osexp","C:\Users\Hannah Laskoskie\Desktop\OpenSesame SternburgTask","False","mono","False","18","no","white","no","yes","768","legacy","99","11","C:/Users/Hannah Laskoskie/Desktop/OpenSesame SternburgTask/HL-subject-3.csv","legacy","3 4 9 6 7 8","Melodramatic Milgram","4.0.5","0","n","0","right","up","up","NA","right","409.0","100800","16142","NA","409","2","legacy","6","1024","2","48000","-16","experiment","3","odd","2","782341","789336","791538","788287","4416","178673","790337","793539","NA","789334","4413","194816","793539","793949","105217","Sternberg Task","79","84062.0","112","1024"
"70","70","748","748","#3d3846","experiment","legacy","legacy","legacy","1","undefined","1","right","112","112","112","112","0","0","112","112","0","112","0","0","112","112","0","Sun Oct 22 20:32:10 2023","The main experiment item","True","SternbergTask.osexp","C:\Users\Hannah Laskoskie\Desktop\OpenSesame SternburgTask","False","mono","False","18","no","white","no","yes","768","legacy","100","11","C:/Users/Hannah Laskoskie/Desktop/OpenSesame SternburgTask/HL-subject-3.csv","legacy","1 4 9 3","Melodramatic Milgram","4.0.5","0","n","0","right","up","up","NA","right","563.0","100800","16142","NA","563","2","legacy","4","1024","2","48000","-16","experiment","3","odd","5","793958","795005","797207","788287","4416","178673","796006","799208","NA","795003","4413","194816","799208","799773","105217","Sternberg Task","80","84625.0","113","1024"
"71","71","756","756","#3d3846","experiment","legacy","legacy","legacy","1","undefined","1","right","113","113","113","113","0","0","113","113","0","113","0","0","113","113","0","Sun Oct 22 20:32:10 2023","The main experiment item","True","SternbergTask.osexp","C:\Users\Hannah Laskoskie\Desktop\OpenSesame SternburgTask","False","mono","False","18","no","white","no","yes","768","legacy","101","11","C:/Users/Hannah Laskoskie/Desktop/OpenSesame SternburgTask/HL-subject-3.csv","legacy","4 8 1 2","Melodramatic Milgram","4.0.5","0","n","0","right","up","up","NA","right","1656.0","100800","16142","NA","1656","2","legacy","4","1024","2","48000","-16","experiment","3","odd","7","799782","800849","803051","788287","4416","178673","801850","805052","NA","800847","4413","194816","805052","806710","105217","Sternberg Task","81","86281.0","114","1024"
"70","70","755","755","#3d3846","experiment","legacy","legacy","legacy","0","undefined","0","right","114","114","114","114","0","0","114","114","0","114","0","0","114","114","0","Sun Oct 22 20:32:10 2023","The main experiment item","True","SternbergTask.osexp","C:\Users\Hannah Laskoskie\Desktop\OpenSesame SternburgTask","False","mono","False","18","no","white","no","yes","768","legacy","102","11","C:/Users/Hannah Laskoskie/Desktop/OpenSesame SternburgTask/HL-subject-3.csv","legacy","8 2 1 4 5 9","Melodramatic Milgram","4.0.5","0","n","0","left","up","up","NA","left","616.0","100800","16142","NA","616","2","legacy","6","1024","2","48000","-16","experiment","3","odd","7","806719","807763","809965","788287","4416","178673","808764","811966","NA","807761","4413","194816","811966","812584","105217","Sternberg Task","81","86897.0","115","1024"
"70","70","753","753","#3d3846","experiment","legacy","legacy","legacy","1","undefined","1","left","115","115","115","115","0","0","115","115","0","115","0","0","115","115","0","Sun Oct 22 20:32:10 2023","The main experiment item","True","SternbergTask.osexp","C:\Users\Hannah Laskoskie\Desktop\OpenSesame SternburgTask","False","mono","False","18","no","white","no","yes","768","legacy","103","11","C:/Users/Hannah Laskoskie/Desktop/OpenSesame SternburgTask/HL-subject-3.csv","legacy","6 9 7 4 5 1","Melodramatic Milgram","4.0.5","2","y","0","left","up","up","NA","left","545.0","100800","16142","NA","545","2","legacy","6","1024","2","48000","-16","experiment","3","odd","9","806719","813639","815841","812593","4416","178673","814640","817842","NA","813636","4413","194816","817842","818388","105217","Sternberg Task","82","87442.0","116","1024"
"70","70","749","749","#3d3846","experiment","legacy","legacy","legacy","1","undefined","1","right","116","116","116","116","0","0","116","116","0","116","0","0","116","116","0","Sun Oct 22 20:32:10 2023","The main experiment item","True","SternbergTask.osexp","C:\Users\Hannah Laskoskie\Desktop\OpenSesame SternburgTask","False","mono","False","18","no","white","no","yes","768","legacy","104","11","C:/Users/Hannah Laskoskie/Desktop/OpenSesame SternburgTask/HL-subject-3.csv","legacy","2 6 4 3 9","Melodramatic Milgram","4.0.5","0","n","0","right","up","up","NA","right","205.0","100800","16142","NA","205","2","legacy","5","1024","2","48000","-16","experiment","3","odd","1","818397","819440","821642","812593","4416","178673","820441","823643","NA","819438","4413","194816","823643","823850","105217","Sternberg Task","83","87647.0","117","1024"
