"acc","accuracy","average_response_time","avg_rt","background","block","canvas_backend","clock_backend","color_backend","compensation","coordinates","correct","correct_Instructions1","correct_KeyboardResponse","correct_response","count_CorrectFeedback","count_ExpSequence","count_ExperimentLoop","count_Fixation","count_ISI","count_IncorrectFeedback","count_Instructions1","count_Instructions2","count_KeyboardResponse","count_Logger","count_MemorySet","count_PracticeLoop","count_Probe","count_ThankYou","count_experiment","datetime","description","disable_garbage_collection","experiment_file","experiment_path","font_bold","font_family","font_italic","font_size","font_underline","foreground","form_clicks","fullscreen","height","keyboard_backend","live_row","live_row_PracticeLoop","logfile","mouse_backend","numberSet","opensesame_codename","opensesame_version","posInSet","present","repeat_cycle","response","response_Instructions1","response_Instructions2","response_KeyboardResponse","response_ThankYou","response_time","response_time_Instructions1","response_time_Instructions2","response_time_KeyboardResponse","response_time_ThankYou","round_decimals","sampler_backend","setSize","sound_buf_size","sound_channels","sound_freq","sound_sample_size","start","subject_nr","subject_parity","target","time_CorrectFeedback","time_ExpSequence","time_ExperimentLoop","time_Fixation","time_ISI","time_IncorrectFeedback","time_Instructions1","time_Instructions2","time_KeyboardResponse","time_Logger","time_MemorySet","time_PracticeLoop","time_Probe","time_ThankYou","time_experiment","title","total_correct","total_response_time","total_responses","uniform_coordinates","width"
"0","0","2000","2000","black","practice","legacy","legacy","legacy","0","uniform","0","undefined","0","right","0","0","0","0","0","0","0","0","0","0","0","0","0","0","0","Sat Oct 24 23:27:55 2020","The main experiment item","yes","SternbergTask.osexp","C:\Users\katri\OneDrive\Documents\Fall 2020\Sternberg Memory Task","no","mono","no","18","no","white","no","yes","768","legacy","0","0","C:/Users/katri/OneDrive/Documents/Fall 2020/Sternberg Memory Task/subject-3.csv","legacy","5","Lentiform Loewenfeld","3.3.3","0","n","0","None","right","NA","None","NA","2000","28044","NA","2000","NA","2","legacy","1","1024","2","48000","-16","experiment","3","odd","3","NA","31238","NA","31240","33448","NA","2727","NA","35454","37454","32244","30772","35453","NA","2718","Sternberg Task","0","2000","1","yes","1024"
"50","50","1999","1999","black","practice","legacy","legacy","legacy","0","uniform","1","undefined","1","right","1","1","0","1","1","1","0","0","1","1","1","0","1","0","0","Sat Oct 24 23:27:55 2020","The main experiment item","yes","SternbergTask.osexp","C:\Users\katri\OneDrive\Documents\Fall 2020\Sternberg Memory Task","no","mono","no","18","no","white","no","yes","768","legacy","1","1","C:/Users/katri/OneDrive/Documents/Fall 2020/Sternberg Memory Task/subject-3.csv","legacy","3 1 9 4","Lentiform Loewenfeld","3.3.3","0","n","0","right","right","NA","right","NA","1998","28044","NA","1998","NA","2","legacy","4","1024","2","48000","-16","experiment","3","odd","6","NA","38596","NA","38597","40801","37486","2727","NA","42803","44802","39598","30772","42803","NA","2718","Sternberg Task","1","3998","2","yes","1024"
"66.66666666666667","66.66666666666667","1719","1719","black","practice","legacy","legacy","legacy","0","uniform","1","undefined","1","left","2","2","0","2","2","2","0","0","2","2","2","0","2","0","0","Sat Oct 24 23:27:55 2020","The main experiment item","yes","SternbergTask.osexp","C:\Users\katri\OneDrive\Documents\Fall 2020\Sternberg Memory Task","no","mono","no","18","no","white","no","yes","768","legacy","2","2","C:/Users/katri/OneDrive/Documents/Fall 2020/Sternberg Memory Task/subject-3.csv","legacy","4 3 1 7 9 8","Lentiform Loewenfeld","3.3.3","1","y","0","left","right","NA","left","NA","1159","28044","NA","1159","NA","2","legacy","6","1024","2","48000","-16","experiment","3","odd","4","44829","45909","NA","45911","48115","37486","2727","NA","50116","51275","46912","30772","50116","NA","2718","Sternberg Task","2","5157","3","yes","1024"
"75","75","1641.75","1641.75","black","practice","legacy","legacy","legacy","0","uniform","1","undefined","1","right","3","3","0","3","3","3","0","0","3","3","3","0","3","0","0","Sat Oct 24 23:27:55 2020","The main experiment item","yes","SternbergTask.osexp","C:\Users\katri\OneDrive\Documents\Fall 2020\Sternberg Memory Task","no","mono","no","18","no","white","no","yes","768","legacy","3","3","C:/Users/katri/OneDrive/Documents/Fall 2020/Sternberg Memory Task/subject-3.csv","legacy","4 1 5","Lentiform Loewenfeld","3.3.3","0","n","0","right","right","NA","right","NA","1410","28044","NA","1410","NA","2","legacy","3","1024","2","48000","-16","experiment","3","odd","2","51301","52393","NA","52394","54600","37486","2727","NA","56605","58015","53395","30772","56605","NA","2718","Sternberg Task","3","6567","4","yes","1024"
"80","80","1522.8","1522.8","black","practice","legacy","legacy","legacy","0","uniform","1","undefined","1","left","4","4","0","4","4","4","0","0","4","4","4","0","4","0","0","Sat Oct 24 23:27:55 2020","The main experiment item","yes","SternbergTask.osexp","C:\Users\katri\OneDrive\Documents\Fall 2020\Sternberg Memory Task","no","mono","no","18","no","white","no","yes","768","legacy","4","4","C:/Users/katri/OneDrive/Documents/Fall 2020/Sternberg Memory Task/subject-3.csv","legacy","2 9 4","Lentiform Loewenfeld","3.3.3","3","y","0","left","right","NA","left","NA","1047","28044","NA","1047","NA","2","legacy","3","1024","2","48000","-16","experiment","3","odd","4","58023","59130","NA","59131","61337","37486","2727","NA","63342","64389","60133","30772","63341","NA","2718","Sternberg Task","4","7614","5","yes","1024"
"83.33333333333333","83.33333333333333","1467.5","1467.5","black","practice","legacy","legacy","legacy","0","uniform","1","undefined","1","left","5","5","0","5","5","5","0","0","5","5","5","0","5","0","0","Sat Oct 24 23:27:55 2020","The main experiment item","yes","SternbergTask.osexp","C:\Users\katri\OneDrive\Documents\Fall 2020\Sternberg Memory Task","no","mono","no","18","no","white","no","yes","768","legacy","5","5","C:/Users/katri/OneDrive/Documents/Fall 2020/Sternberg Memory Task/subject-3.csv","legacy","1 7 9 8 5","Lentiform Loewenfeld","3.3.3","4","y","0","left","right","NA","left","NA","1191","28044","NA","1191","NA","2","legacy","5","1024","2","48000","-16","experiment","3","odd","8","64417","65520","NA","65522","67731","37486","2727","NA","69732","70924","66527","30772","69732","NA","2718","Sternberg Task","5","8805","6","yes","1024"
"85.71428571428571","85.71428571428571","1367.7142857142858","1367.7142857142858","black","practice","legacy","legacy","legacy","0","uniform","1","undefined","1","left","6","6","0","6","6","6","0","0","6","6","6","0","6","0","0","Sat Oct 24 23:27:55 2020","The main experiment item","yes","SternbergTask.osexp","C:\Users\katri\OneDrive\Documents\Fall 2020\Sternberg Memory Task","no","mono","no","18","no","white","no","yes","768","legacy","6","6","C:/Users/katri/OneDrive/Documents/Fall 2020/Sternberg Memory Task/subject-3.csv","legacy","6","Lentiform Loewenfeld","3.3.3","1","y","0","left","right","NA","left","NA","769","28044","NA","769","NA","2","legacy","1","1024","2","48000","-16","experiment","3","odd","6","70935","72040","NA","72041","74248","37486","2727","NA","76253","77022","73043","30772","76252","NA","2718","Sternberg Task","6","9574","7","yes","1024"
"87.5","87.5","1296.5","1296.5","black","practice","legacy","legacy","legacy","0","uniform","1","undefined","1","right","7","7","0","7","7","7","0","0","7","7","7","0","7","0","0","Sat Oct 24 23:27:55 2020","The main experiment item","yes","SternbergTask.osexp","C:\Users\katri\OneDrive\Documents\Fall 2020\Sternberg Memory Task","no","mono","no","18","no","white","no","yes","768","legacy","7","7","C:/Users/katri/OneDrive/Documents/Fall 2020/Sternberg Memory Task/subject-3.csv","legacy","9 6 7 4 5","Lentiform Loewenfeld","3.3.3","0","n","0","right","right","NA","right","NA","798","28044","NA","798","NA","2","legacy","5","1024","2","48000","-16","experiment","3","odd","3","77049","78157","NA","78159","80364","37486","2727","NA","82368","83166","79161","30772","82368","NA","2718","Sternberg Task","7","10372","8","yes","1024"
"88.88888888888889","88.88888888888889","1219.4444444444443","1219.4444444444443","black","practice","legacy","legacy","legacy","0","uniform","1","undefined","1","left","8","8","0","8","8","8","0","0","8","8","8","0","8","0","0","Sat Oct 24 23:27:55 2020","The main experiment item","yes","SternbergTask.osexp","C:\Users\katri\OneDrive\Documents\Fall 2020\Sternberg Memory Task","no","mono","no","18","no","white","no","yes","768","legacy","8","8","C:/Users/katri/OneDrive/Documents/Fall 2020/Sternberg Memory Task/subject-3.csv","legacy","4 8","Lentiform Loewenfeld","3.3.3","1","y","0","left","right","NA","left","NA","603","28044","NA","603","NA","2","legacy","2","1024","2","48000","-16","experiment","3","odd","4","83192","84301","NA","84303","86509","37486","2727","NA","88514","89117","85305","30772","88513","NA","2718","Sternberg Task","8","10975","9","yes","1024"
"90","90","1196.3","1196.3","black","practice","legacy","legacy","legacy","0","uniform","1","undefined","1","left","9","9","0","9","9","9","0","0","9","9","9","0","9","0","0","Sat Oct 24 23:27:55 2020","The main experiment item","yes","SternbergTask.osexp","C:\Users\katri\OneDrive\Documents\Fall 2020\Sternberg Memory Task","no","mono","no","18","no","white","no","yes","768","legacy","9","9","C:/Users/katri/OneDrive/Documents/Fall 2020/Sternberg Memory Task/subject-3.csv","legacy","1 5 2 9","Lentiform Loewenfeld","3.3.3","2","y","0","left","right","NA","left","NA","988","28044","NA","988","NA","2","legacy","4","1024","2","48000","-16","experiment","3","odd","5","89125","90233","NA","90235","92443","37486","2727","NA","94446","95434","91237","30772","94446","NA","2718","Sternberg Task","9","11963","10","yes","1024"
"90.9090909090909","90.9090909090909","1140.8181818181818","1140.8181818181818","black","practice","legacy","legacy","legacy","0","uniform","1","undefined","1","right","10","10","0","10","10","10","0","0","10","10","10","0","10","0","0","Sat Oct 24 23:27:55 2020","The main experiment item","yes","SternbergTask.osexp","C:\Users\katri\OneDrive\Documents\Fall 2020\Sternberg Memory Task","no","mono","no","18","no","white","no","yes","768","legacy","10","10","C:/Users/katri/OneDrive/Documents/Fall 2020/Sternberg Memory Task/subject-3.csv","legacy","2 1","Lentiform Loewenfeld","3.3.3","0","n","0","right","right","NA","right","NA","586","28044","NA","586","NA","2","legacy","2","1024","2","48000","-16","experiment","3","odd","5","95441","96549","NA","96550","98756","37486","2727","NA","100759","101346","97552","30772","100759","NA","2718","Sternberg Task","10","12549","11","yes","1024"
"91.66666666666667","91.66666666666667","1104.0833333333333","1104.0833333333333","black","practice","legacy","legacy","legacy","0","uniform","1","undefined","1","right","11","11","0","11","11","11","0","0","11","11","11","0","11","0","0","Sat Oct 24 23:27:55 2020","The main experiment item","yes","SternbergTask.osexp","C:\Users\katri\OneDrive\Documents\Fall 2020\Sternberg Memory Task","no","mono","no","18","no","white","no","yes","768","legacy","11","11","C:/Users/katri/OneDrive/Documents/Fall 2020/Sternberg Memory Task/subject-3.csv","legacy","5 7 8 4 1 2","Lentiform Loewenfeld","3.3.3","0","n","0","right","right","NA","right","NA","700","28044","NA","700","NA","2","legacy","6","1024","2","48000","-16","experiment","3","odd","6","101372","102466","NA","102467","104674","37486","2727","NA","106675","107375","103469","30772","106675","NA","2718","Sternberg Task","11","13249","12","yes","1024"
"92.3076923076923","92.3076923076923","1068.5384615384614","1068.5384615384614","black","experiment","legacy","legacy","legacy","0","uniform","1","undefined","1","left","12","12","0","12","12","12","0","0","12","12","12","0","12","0","0","Sat Oct 24 23:27:55 2020","The main experiment item","yes","SternbergTask.osexp","C:\Users\katri\OneDrive\Documents\Fall 2020\Sternberg Memory Task","no","mono","no","18","no","white","no","yes","768","legacy","0","11","C:/Users/katri/OneDrive/Documents/Fall 2020/Sternberg Memory Task/subject-3.csv","legacy","4 6 5 8","Lentiform Loewenfeld","3.3.3","1","y","0","left","right","right","left","NA","642","28044","10357","642","NA","2","legacy","4","1024","2","48000","-16","experiment","3","odd","4","107382","118853","118787","118855","121060","37486","2727","108429","123065","123708","119856","30772","123064","NA","2718","Sternberg Task","12","13891","13","yes","1024"
"92.85714285714286","92.85714285714286","1023.4285714285714","1023.4285714285714","black","experiment","legacy","legacy","legacy","0","uniform","1","undefined","1","right","13","13","0","13","13","13","0","0","13","13","13","0","13","0","0","Sat Oct 24 23:27:55 2020","The main experiment item","yes","SternbergTask.osexp","C:\Users\katri\OneDrive\Documents\Fall 2020\Sternberg Memory Task","no","mono","no","18","no","white","no","yes","768","legacy","1","11","C:/Users/katri/OneDrive/Documents/Fall 2020/Sternberg Memory Task/subject-3.csv","legacy","1 7 5 2","Lentiform Loewenfeld","3.3.3","0","n","0","right","right","right","right","NA","437","28044","10357","437","NA","2","legacy","4","1024","2","48000","-16","experiment","3","odd","3","123729","124837","118787","124839","127050","37486","2727","108429","129052","129489","125843","30772","129052","NA","2718","Sternberg Task","13","14328","14","yes","1024"
"93.33333333333333","93.33333333333333","994.8","994.8","black","experiment","legacy","legacy","legacy","0","uniform","1","undefined","1","right","14","14","0","14","14","14","0","0","14","14","14","0","14","0","0","Sat Oct 24 23:27:55 2020","The main experiment item","yes","SternbergTask.osexp","C:\Users\katri\OneDrive\Documents\Fall 2020\Sternberg Memory Task","no","mono","no","18","no","white","no","yes","768","legacy","2","11","C:/Users/katri/OneDrive/Documents/Fall 2020/Sternberg Memory Task/subject-3.csv","legacy","6 8 4","Lentiform Loewenfeld","3.3.3","0","n","0","right","right","right","right","NA","594","28044","10357","594","NA","2","legacy","3","1024","2","48000","-16","experiment","3","odd","1","129499","130603","118787","130605","132816","37486","2727","108429","134818","135412","131611","30772","134818","NA","2718","Sternberg Task","14","14922","15","yes","1024"
"93.75","93.75","970.25","970.25","black","experiment","legacy","legacy","legacy","0","uniform","1","undefined","1","right","15","15","0","15","15","15","0","0","15","15","15","0","15","0","0","Sat Oct 24 23:27:55 2020","The main experiment item","yes","SternbergTask.osexp","C:\Users\katri\OneDrive\Documents\Fall 2020\Sternberg Memory Task","no","mono","no","18","no","white","no","yes","768","legacy","3","11","C:/Users/katri/OneDrive/Documents/Fall 2020/Sternberg Memory Task/subject-3.csv","legacy","6 3 1 7 9 8","Lentiform Loewenfeld","3.3.3","0","n","0","right","right","right","right","NA","602","28044","10357","602","NA","2","legacy","6","1024","2","48000","-16","experiment","3","odd","4","135420","136531","118787","136533","138739","37486","2727","108429","140745","141348","137534","30772","140745","NA","2718","Sternberg Task","15","15524","16","yes","1024"
"94.11764705882354","94.11764705882354","955.1764705882352","955.1764705882352","black","experiment","legacy","legacy","legacy","0","uniform","1","undefined","1","left","16","16","0","16","16","16","0","0","16","16","16","0","16","0","0","Sat Oct 24 23:27:55 2020","The main experiment item","yes","SternbergTask.osexp","C:\Users\katri\OneDrive\Documents\Fall 2020\Sternberg Memory Task","no","mono","no","18","no","white","no","yes","768","legacy","4","11","C:/Users/katri/OneDrive/Documents/Fall 2020/Sternberg Memory Task/subject-3.csv","legacy","8 9 6 1","Lentiform Loewenfeld","3.3.3","2","y","0","left","right","right","left","NA","714","28044","10357","714","NA","2","legacy","4","1024","2","48000","-16","experiment","3","odd","9","141375","142484","118787","142486","144692","37486","2727","108429","146696","147410","143488","30772","146696","NA","2718","Sternberg Task","16","16238","17","yes","1024"
"94.44444444444444","94.44444444444444","939.4444444444445","939.4444444444445","black","experiment","legacy","legacy","legacy","0","uniform","1","undefined","1","right","17","17","0","17","17","17","0","0","17","17","17","0","17","0","0","Sat Oct 24 23:27:55 2020","The main experiment item","yes","SternbergTask.osexp","C:\Users\katri\OneDrive\Documents\Fall 2020\Sternberg Memory Task","no","mono","no","18","no","white","no","yes","768","legacy","5","11","C:/Users/katri/OneDrive/Documents/Fall 2020/Sternberg Memory Task/subject-3.csv","legacy","4 2 7 6 1 3","Lentiform Loewenfeld","3.3.3","0","n","0","right","right","right","right","NA","672","28044","10357","672","NA","2","legacy","6","1024","2","48000","-16","experiment","3","odd","8","147413","148518","118787","148520","150727","37486","2727","108429","152729","153401","149522","30772","152729","NA","2718","Sternberg Task","17","16910","18","yes","1024"
"94.73684210526316","94.73684210526316","935.578947368421","935.578947368421","black","experiment","legacy","legacy","legacy","0","uniform","1","undefined","1","left","18","18","0","18","18","18","0","0","18","18","18","0","18","0","0","Sat Oct 24 23:27:55 2020","The main experiment item","yes","SternbergTask.osexp","C:\Users\katri\OneDrive\Documents\Fall 2020\Sternberg Memory Task","no","mono","no","18","no","white","no","yes","768","legacy","6","11","C:/Users/katri/OneDrive/Documents/Fall 2020/Sternberg Memory Task/subject-3.csv","legacy","9 3 1 2 5","Lentiform Loewenfeld","3.3.3","4","y","0","left","right","right","left","NA","866","28044","10357","866","NA","2","legacy","5","1024","2","48000","-16","experiment","3","odd","2","153409","154518","118787","154520","156729","37486","2727","108429","158732","159598","155525","30772","158732","NA","2718","Sternberg Task","18","17776","19","yes","1024"
"95","95","916.25","916.25","black","experiment","legacy","legacy","legacy","0","uniform","1","undefined","1","right","19","19","0","19","19","19","0","0","19","19","19","0","19","0","0","Sat Oct 24 23:27:55 2020","The main experiment item","yes","SternbergTask.osexp","C:\Users\katri\OneDrive\Documents\Fall 2020\Sternberg Memory Task","no","mono","no","18","no","white","no","yes","768","legacy","7","11","C:/Users/katri/OneDrive/Documents/Fall 2020/Sternberg Memory Task/subject-3.csv","legacy","7 9","Lentiform Loewenfeld","3.3.3","0","n","0","right","right","right","right","NA","549","28044","10357","549","NA","2","legacy","2","1024","2","48000","-16","experiment","3","odd","1","159605","160699","118787","160701","162911","37486","2727","108429","164913","165462","161706","30772","164913","NA","2718","Sternberg Task","19","18325","20","yes","1024"
"95.23809523809524","95.23809523809524","903.0952380952381","903.0952380952381","black","experiment","legacy","legacy","legacy","0","uniform","1","undefined","1","right","20","20","0","20","20","20","0","0","20","20","20","0","20","0","0","Sat Oct 24 23:27:55 2020","The main experiment item","yes","SternbergTask.osexp","C:\Users\katri\OneDrive\Documents\Fall 2020\Sternberg Memory Task","no","mono","no","18","no","white","no","yes","768","legacy","8","11","C:/Users/katri/OneDrive/Documents/Fall 2020/Sternberg Memory Task/subject-3.csv","legacy","2 3 8 5 6 7","Lentiform Loewenfeld","3.3.3","0","n","0","right","right","right","right","NA","640","28044","10357","640","NA","2","legacy","6","1024","2","48000","-16","experiment","3","odd","1","165488","166597","118787","166598","168808","37486","2727","108429","170810","171450","167603","30772","170810","NA","2718","Sternberg Task","20","18965","21","yes","1024"
"95.45454545454545","95.45454545454545","887.5909090909091","887.5909090909091","black","experiment","legacy","legacy","legacy","0","uniform","1","undefined","1","left","21","21","0","21","21","21","0","0","21","21","21","0","21","0","0","Sat Oct 24 23:27:55 2020","The main experiment item","yes","SternbergTask.osexp","C:\Users\katri\OneDrive\Documents\Fall 2020\Sternberg Memory Task","no","mono","no","18","no","white","no","yes","768","legacy","9","11","C:/Users/katri/OneDrive/Documents/Fall 2020/Sternberg Memory Task/subject-3.csv","legacy","9 6 2 4 1","Lentiform Loewenfeld","3.3.3","4","y","0","left","right","right","left","NA","562","28044","10357","562","NA","2","legacy","5","1024","2","48000","-16","experiment","3","odd","4","171460","172551","118787","172553","174759","37486","2727","108429","176761","177323","173555","30772","176761","NA","2718","Sternberg Task","21","19527","22","yes","1024"
"95.65217391304348","95.65217391304348","875.3913043478261","875.3913043478261","black","experiment","legacy","legacy","legacy","0","uniform","1","undefined","1","right","22","22","0","22","22","22","0","0","22","22","22","0","22","0","0","Sat Oct 24 23:27:55 2020","The main experiment item","yes","SternbergTask.osexp","C:\Users\katri\OneDrive\Documents\Fall 2020\Sternberg Memory Task","no","mono","no","18","no","white","no","yes","768","legacy","10","11","C:/Users/katri/OneDrive/Documents/Fall 2020/Sternberg Memory Task/subject-3.csv","legacy","9 8 2 7 4","Lentiform Loewenfeld","3.3.3","0","n","0","right","right","right","right","NA","607","28044","10357","607","NA","2","legacy","5","1024","2","48000","-16","experiment","3","odd","5","177332","178425","118787","178428","180638","37486","2727","108429","182642","183250","179433","30772","182642","NA","2718","Sternberg Task","22","20134","23","yes","1024"
"95.83333333333333","95.83333333333333","865.4583333333334","865.4583333333334","black","experiment","legacy","legacy","legacy","0","uniform","1","undefined","1","left","23","23","0","23","23","23","0","0","23","23","23","0","23","0","0","Sat Oct 24 23:27:55 2020","The main experiment item","yes","SternbergTask.osexp","C:\Users\katri\OneDrive\Documents\Fall 2020\Sternberg Memory Task","no","mono","no","18","no","white","no","yes","768","legacy","11","11","C:/Users/katri/OneDrive/Documents/Fall 2020/Sternberg Memory Task/subject-3.csv","legacy","8 5 4 7 3 1","Lentiform Loewenfeld","3.3.3","2","y","0","left","right","right","left","NA","637","28044","10357","637","NA","2","legacy","6","1024","2","48000","-16","experiment","3","odd","5","183257","184372","118787","184373","186579","37486","2727","108429","188582","189220","185375","30772","188582","NA","2718","Sternberg Task","23","20771","24","yes","1024"
"96","96","862.68","862.68","black","experiment","legacy","legacy","legacy","0","uniform","1","undefined","1","left","24","24","0","24","24","24","0","0","24","24","24","0","24","0","0","Sat Oct 24 23:27:55 2020","The main experiment item","yes","SternbergTask.osexp","C:\Users\katri\OneDrive\Documents\Fall 2020\Sternberg Memory Task","no","mono","no","18","no","white","no","yes","768","legacy","12","11","C:/Users/katri/OneDrive/Documents/Fall 2020/Sternberg Memory Task/subject-3.csv","legacy","3 9 6 2","Lentiform Loewenfeld","3.3.3","4","y","0","left","right","right","left","NA","796","28044","10357","796","NA","2","legacy","4","1024","2","48000","-16","experiment","3","odd","2","189247","190355","118787","190356","192562","37486","2727","108429","194564","195360","191358","30772","194564","NA","2718","Sternberg Task","24","21567","25","yes","1024"
"96.15384615384616","96.15384615384616","855","855","black","experiment","legacy","legacy","legacy","0","uniform","1","undefined","1","right","25","25","0","25","25","25","0","0","25","25","25","0","25","0","0","Sat Oct 24 23:27:55 2020","The main experiment item","yes","SternbergTask.osexp","C:\Users\katri\OneDrive\Documents\Fall 2020\Sternberg Memory Task","no","mono","no","18","no","white","no","yes","768","legacy","13","11","C:/Users/katri/OneDrive/Documents/Fall 2020/Sternberg Memory Task/subject-3.csv","legacy","1 4 9 2 5","Lentiform Loewenfeld","3.3.3","0","n","0","right","right","right","right","NA","663","28044","10357","663","NA","2","legacy","5","1024","2","48000","-16","experiment","3","odd","7","195367","196458","118787","196460","198667","37486","2727","108429","200672","201335","197464","30772","200671","NA","2718","Sternberg Task","25","22230","26","yes","1024"
"96.29629629629629","96.29629629629629","844.7407407407408","844.7407407407408","black","experiment","legacy","legacy","legacy","0","uniform","1","undefined","1","left","26","26","0","26","26","26","0","0","26","26","26","0","26","0","0","Sat Oct 24 23:27:55 2020","The main experiment item","yes","SternbergTask.osexp","C:\Users\katri\OneDrive\Documents\Fall 2020\Sternberg Memory Task","no","mono","no","18","no","white","no","yes","768","legacy","14","11","C:/Users/katri/OneDrive/Documents/Fall 2020/Sternberg Memory Task/subject-3.csv","legacy","2 3 7 4","Lentiform Loewenfeld","3.3.3","1","y","0","left","right","right","left","NA","578","28044","10357","578","NA","2","legacy","4","1024","2","48000","-16","experiment","3","odd","2","201361","202467","118787","202469","204677","37486","2727","108429","206680","207258","203473","30772","206680","NA","2718","Sternberg Task","26","22808","27","yes","1024"
"96.42857142857143","96.42857142857143","837.75","837.75","black","experiment","legacy","legacy","legacy","0","uniform","1","undefined","1","right","27","27","0","27","27","27","0","0","27","27","27","0","27","0","0","Sat Oct 24 23:27:55 2020","The main experiment item","yes","SternbergTask.osexp","C:\Users\katri\OneDrive\Documents\Fall 2020\Sternberg Memory Task","no","mono","no","18","no","white","no","yes","768","legacy","15","11","C:/Users/katri/OneDrive/Documents/Fall 2020/Sternberg Memory Task/subject-3.csv","legacy","6 9 7 3 8 2","Lentiform Loewenfeld","3.3.3","0","n","0","right","right","right","right","NA","649","28044","10357","649","NA","2","legacy","6","1024","2","48000","-16","experiment","3","odd","5","207284","208393","118787","208394","210601","37486","2727","108429","212606","213255","209396","30772","212606","NA","2718","Sternberg Task","27","23457","28","yes","1024"
"96.55172413793103","96.55172413793103","842.6896551724138","842.6896551724138","black","experiment","legacy","legacy","legacy","0","uniform","1","undefined","1","right","28","28","0","28","28","28","0","0","28","28","28","0","28","0","0","Sat Oct 24 23:27:55 2020","The main experiment item","yes","SternbergTask.osexp","C:\Users\katri\OneDrive\Documents\Fall 2020\Sternberg Memory Task","no","mono","no","18","no","white","no","yes","768","legacy","16","11","C:/Users/katri/OneDrive/Documents/Fall 2020/Sternberg Memory Task/subject-3.csv","legacy","3 4 9 6 7 8","Lentiform Loewenfeld","3.3.3","0","n","0","right","right","right","right","NA","981","28044","10357","981","NA","2","legacy","6","1024","2","48000","-16","experiment","3","odd","2","213264","214351","118787","214352","216558","37486","2727","108429","218562","219543","215354","30772","218562","NA","2718","Sternberg Task","28","24438","29","yes","1024"
"96.66666666666667","96.66666666666667","834.6","834.6","black","experiment","legacy","legacy","legacy","0","uniform","1","undefined","1","right","29","29","0","29","29","29","0","0","29","29","29","0","29","0","0","Sat Oct 24 23:27:55 2020","The main experiment item","yes","SternbergTask.osexp","C:\Users\katri\OneDrive\Documents\Fall 2020\Sternberg Memory Task","no","mono","no","18","no","white","no","yes","768","legacy","17","11","C:/Users/katri/OneDrive/Documents/Fall 2020/Sternberg Memory Task/subject-3.csv","legacy","8 6 3 4 7","Lentiform Loewenfeld","3.3.3","0","n","0","right","right","right","right","NA","600","28044","10357","600","NA","2","legacy","5","1024","2","48000","-16","experiment","3","odd","1","219571","220677","118787","220679","222888","37486","2727","108429","224892","225493","221683","30772","224892","NA","2718","Sternberg Task","29","25038","30","yes","1024"
"93.54838709677419","93.54838709677419","838.258064516129","838.258064516129","black","experiment","legacy","legacy","legacy","0","uniform","0","undefined","0","left","30","30","0","30","30","30","0","0","30","30","30","0","30","0","0","Sat Oct 24 23:27:55 2020","The main experiment item","yes","SternbergTask.osexp","C:\Users\katri\OneDrive\Documents\Fall 2020\Sternberg Memory Task","no","mono","no","18","no","white","no","yes","768","legacy","18","11","C:/Users/katri/OneDrive/Documents/Fall 2020/Sternberg Memory Task/subject-3.csv","legacy","5 7 3 6 2","Lentiform Loewenfeld","3.3.3","5","y","0","right","right","right","right","NA","948","28044","10357","948","NA","2","legacy","5","1024","2","48000","-16","experiment","3","odd","2","225502","226593","118787","226594","228800","37486","2727","108429","230803","231751","227596","30772","230803","NA","2718","Sternberg Task","29","25986","31","yes","1024"
"93.75","93.75","842.65625","842.65625","black","experiment","legacy","legacy","legacy","0","uniform","1","undefined","1","right","31","31","0","31","31","31","0","0","31","31","31","0","31","0","0","Sat Oct 24 23:27:55 2020","The main experiment item","yes","SternbergTask.osexp","C:\Users\katri\OneDrive\Documents\Fall 2020\Sternberg Memory Task","no","mono","no","18","no","white","no","yes","768","legacy","19","11","C:/Users/katri/OneDrive/Documents/Fall 2020/Sternberg Memory Task/subject-3.csv","legacy","8 2 1 4 5 9","Lentiform Loewenfeld","3.3.3","0","n","0","right","right","right","right","NA","979","28044","10357","979","NA","2","legacy","6","1024","2","48000","-16","experiment","3","odd","7","225502","232851","118787","232852","235058","231762","2727","108429","237059","238038","233855","30772","237059","NA","2718","Sternberg Task","30","26965","32","yes","1024"
"93.93939393939394","93.93939393939394","839.4545454545455","839.4545454545455","black","experiment","legacy","legacy","legacy","0","uniform","1","undefined","1","left","32","32","0","32","32","32","0","0","32","32","32","0","32","0","0","Sat Oct 24 23:27:55 2020","The main experiment item","yes","SternbergTask.osexp","C:\Users\katri\OneDrive\Documents\Fall 2020\Sternberg Memory Task","no","mono","no","18","no","white","no","yes","768","legacy","20","11","C:/Users/katri/OneDrive/Documents/Fall 2020/Sternberg Memory Task/subject-3.csv","legacy","5 2 9 6 1 7","Lentiform Loewenfeld","3.3.3","3","y","0","left","right","right","left","NA","737","28044","10357","737","NA","2","legacy","6","1024","2","48000","-16","experiment","3","odd","9","238045","239140","118787","239142","241348","231762","2727","108429","243351","244088","240144","30772","243351","NA","2718","Sternberg Task","31","27702","33","yes","1024"
"94.11764705882354","94.11764705882354","835.0294117647059","835.0294117647059","black","experiment","legacy","legacy","legacy","0","uniform","1","undefined","1","left","33","33","0","33","33","33","0","0","33","33","33","0","33","0","0","Sat Oct 24 23:27:55 2020","The main experiment item","yes","SternbergTask.osexp","C:\Users\katri\OneDrive\Documents\Fall 2020\Sternberg Memory Task","no","mono","no","18","no","white","no","yes","768","legacy","21","11","C:/Users/katri/OneDrive/Documents/Fall 2020/Sternberg Memory Task/subject-3.csv","legacy","7 8 6 3 1","Lentiform Loewenfeld","3.3.3","5","y","0","left","right","right","left","NA","689","28044","10357","689","NA","2","legacy","5","1024","2","48000","-16","experiment","3","odd","1","244115","245206","118787","245208","247415","231762","2727","108429","249418","250107","246210","30772","249418","NA","2718","Sternberg Task","32","28391","34","yes","1024"
"94.28571428571429","94.28571428571429","828.6285714285714","828.6285714285714","black","experiment","legacy","legacy","legacy","0","uniform","1","undefined","1","right","34","34","0","34","34","34","0","0","34","34","34","0","34","0","0","Sat Oct 24 23:27:55 2020","The main experiment item","yes","SternbergTask.osexp","C:\Users\katri\OneDrive\Documents\Fall 2020\Sternberg Memory Task","no","mono","no","18","no","white","no","yes","768","legacy","22","11","C:/Users/katri/OneDrive/Documents/Fall 2020/Sternberg Memory Task/subject-3.csv","legacy","7 1 8 4 9 3","Lentiform Loewenfeld","3.3.3","0","n","0","right","right","right","right","NA","611","28044","10357","611","NA","2","legacy","6","1024","2","48000","-16","experiment","3","odd","6","250132","251228","118787","251228","253436","231762","2727","108429","255440","256051","252232","30772","255440","NA","2718","Sternberg Task","33","29002","35","yes","1024"
"94.44444444444444","94.44444444444444","827.3333333333334","827.3333333333334","black","experiment","legacy","legacy","legacy","0","uniform","1","undefined","1","left","35","35","0","35","35","35","0","0","35","35","35","0","35","0","0","Sat Oct 24 23:27:55 2020","The main experiment item","yes","SternbergTask.osexp","C:\Users\katri\OneDrive\Documents\Fall 2020\Sternberg Memory Task","no","mono","no","18","no","white","no","yes","768","legacy","23","11","C:/Users/katri/OneDrive/Documents/Fall 2020/Sternberg Memory Task/subject-3.csv","legacy","9 5 8 1","Lentiform Loewenfeld","3.3.3","2","y","0","left","right","right","left","NA","782","28044","10357","782","NA","2","legacy","4","1024","2","48000","-16","experiment","3","odd","5","256058","257166","118787","257167","259373","231762","2727","108429","261376","262158","258170","30772","261376","NA","2718","Sternberg Task","34","29784","36","yes","1024"
"94.5945945945946","94.5945945945946","818.6756756756756","818.6756756756756","black","experiment","legacy","legacy","legacy","0","uniform","1","undefined","1","left","36","36","0","36","36","36","0","0","36","36","36","0","36","0","0","Sat Oct 24 23:27:55 2020","The main experiment item","yes","SternbergTask.osexp","C:\Users\katri\OneDrive\Documents\Fall 2020\Sternberg Memory Task","no","mono","no","18","no","white","no","yes","768","legacy","24","11","C:/Users/katri/OneDrive/Documents/Fall 2020/Sternberg Memory Task/subject-3.csv","legacy","6 2","Lentiform Loewenfeld","3.3.3","1","y","0","left","right","right","left","NA","507","28044","10357","507","NA","2","legacy","2","1024","2","48000","-16","experiment","3","odd","6","262168","263280","118787","263281","265490","231762","2727","108429","267492","268000","264285","30772","267492","NA","2718","Sternberg Task","35","30291","37","yes","1024"
"94.73684210526316","94.73684210526316","812.2368421052631","812.2368421052631","black","experiment","legacy","legacy","legacy","0","uniform","1","undefined","1","right","37","37","0","37","37","37","0","0","37","37","37","0","37","0","0","Sat Oct 24 23:27:55 2020","The main experiment item","yes","SternbergTask.osexp","C:\Users\katri\OneDrive\Documents\Fall 2020\Sternberg Memory Task","no","mono","no","18","no","white","no","yes","768","legacy","25","11","C:/Users/katri/OneDrive/Documents/Fall 2020/Sternberg Memory Task/subject-3.csv","legacy","1","Lentiform Loewenfeld","3.3.3","0","n","0","right","right","right","right","NA","574","28044","10357","574","NA","2","legacy","1","1024","2","48000","-16","experiment","3","odd","7","268027","269135","118787","269137","271346","231762","2727","108429","273348","273922","270142","30772","273348","NA","2718","Sternberg Task","36","30865","38","yes","1024"
"94.87179487179488","94.87179487179488","809.8974358974359","809.8974358974359","black","experiment","legacy","legacy","legacy","0","uniform","1","undefined","1","left","38","38","0","38","38","38","0","0","38","38","38","0","38","0","0","Sat Oct 24 23:27:55 2020","The main experiment item","yes","SternbergTask.osexp","C:\Users\katri\OneDrive\Documents\Fall 2020\Sternberg Memory Task","no","mono","no","18","no","white","no","yes","768","legacy","26","11","C:/Users/katri/OneDrive/Documents/Fall 2020/Sternberg Memory Task/subject-3.csv","legacy","7 4 2 6 3 5","Lentiform Loewenfeld","3.3.3","6","y","0","left","right","right","left","NA","721","28044","10357","721","NA","2","legacy","6","1024","2","48000","-16","experiment","3","odd","5","273931","275034","118787","275036","277244","231762","2727","108429","279248","279969","276040","30772","279248","NA","2718","Sternberg Task","37","31586","39","yes","1024"
"95","95","805.725","805.725","black","experiment","legacy","legacy","legacy","0","uniform","1","undefined","1","left","39","39","0","39","39","39","0","0","39","39","39","0","39","0","0","Sat Oct 24 23:27:55 2020","The main experiment item","yes","SternbergTask.osexp","C:\Users\katri\OneDrive\Documents\Fall 2020\Sternberg Memory Task","no","mono","no","18","no","white","no","yes","768","legacy","27","11","C:/Users/katri/OneDrive/Documents/Fall 2020/Sternberg Memory Task/subject-3.csv","legacy","9 8 4","Lentiform Loewenfeld","3.3.3","1","y","0","left","right","right","left","NA","643","28044","10357","643","NA","2","legacy","3","1024","2","48000","-16","experiment","3","odd","9","279995","281077","118787","281078","283284","231762","2727","108429","285289","285932","282080","30772","285288","NA","2718","Sternberg Task","38","32229","40","yes","1024"
"95.1219512195122","95.1219512195122","800.609756097561","800.609756097561","black","experiment","legacy","legacy","legacy","0","uniform","1","undefined","1","left","40","40","0","40","40","40","0","0","40","40","40","0","40","0","0","Sat Oct 24 23:27:55 2020","The main experiment item","yes","SternbergTask.osexp","C:\Users\katri\OneDrive\Documents\Fall 2020\Sternberg Memory Task","no","mono","no","18","no","white","no","yes","768","legacy","28","11","C:/Users/katri/OneDrive/Documents/Fall 2020/Sternberg Memory Task/subject-3.csv","legacy","2 4 8 5 1 3","Lentiform Loewenfeld","3.3.3","1","y","0","left","right","right","left","NA","596","28044","10357","596","NA","2","legacy","6","1024","2","48000","-16","experiment","3","odd","2","285985","287097","118787","287099","289309","231762","2727","108429","291311","291908","288103","30772","291311","NA","2718","Sternberg Task","39","32825","41","yes","1024"
"95.23809523809524","95.23809523809524","795.3809523809524","795.3809523809524","black","experiment","legacy","legacy","legacy","0","uniform","1","undefined","1","right","41","41","0","41","41","41","0","0","41","41","41","0","41","0","0","Sat Oct 24 23:27:55 2020","The main experiment item","yes","SternbergTask.osexp","C:\Users\katri\OneDrive\Documents\Fall 2020\Sternberg Memory Task","no","mono","no","18","no","white","no","yes","768","legacy","29","11","C:/Users/katri/OneDrive/Documents/Fall 2020/Sternberg Memory Task/subject-3.csv","legacy","3 9 8 1 6 4","Lentiform Loewenfeld","3.3.3","0","n","0","right","right","right","right","NA","581","28044","10357","581","NA","2","legacy","6","1024","2","48000","-16","experiment","3","odd","7","291917","293030","118787","293032","295239","231762","2727","108429","297241","297823","294034","30772","297241","NA","2718","Sternberg Task","40","33406","42","yes","1024"
"95.34883720930233","95.34883720930233","789.9767441860465","789.9767441860465","black","experiment","legacy","legacy","legacy","0","uniform","1","undefined","1","right","42","42","0","42","42","42","0","0","42","42","42","0","42","0","0","Sat Oct 24 23:27:55 2020","The main experiment item","yes","SternbergTask.osexp","C:\Users\katri\OneDrive\Documents\Fall 2020\Sternberg Memory Task","no","mono","no","18","no","white","no","yes","768","legacy","30","11","C:/Users/katri/OneDrive/Documents/Fall 2020/Sternberg Memory Task/subject-3.csv","legacy","7 3 2 8","Lentiform Loewenfeld","3.3.3","0","n","0","right","right","right","right","NA","563","28044","10357","563","NA","2","legacy","4","1024","2","48000","-16","experiment","3","odd","4","297850","298955","118787","298956","301164","231762","2727","108429","303165","303728","299960","30772","303165","NA","2718","Sternberg Task","41","33969","43","yes","1024"
"95.45454545454545","95.45454545454545","785.0454545454545","785.0454545454545","black","experiment","legacy","legacy","legacy","0","uniform","1","undefined","1","right","43","43","0","43","43","43","0","0","43","43","43","0","43","0","0","Sat Oct 24 23:27:55 2020","The main experiment item","yes","SternbergTask.osexp","C:\Users\katri\OneDrive\Documents\Fall 2020\Sternberg Memory Task","no","mono","no","18","no","white","no","yes","768","legacy","31","11","C:/Users/katri/OneDrive/Documents/Fall 2020/Sternberg Memory Task/subject-3.csv","legacy","5 3 8 7 2 4","Lentiform Loewenfeld","3.3.3","0","n","0","right","right","right","right","NA","573","28044","10357","573","NA","2","legacy","6","1024","2","48000","-16","experiment","3","odd","9","303739","304841","118787","304843","307048","231762","2727","108429","309053","309626","305844","30772","309052","NA","2718","Sternberg Task","42","34542","44","yes","1024"
"95.55555555555556","95.55555555555556","781.3111111111111","781.3111111111111","black","experiment","legacy","legacy","legacy","0","uniform","1","undefined","1","right","44","44","0","44","44","44","0","0","44","44","44","0","44","0","0","Sat Oct 24 23:27:55 2020","The main experiment item","yes","SternbergTask.osexp","C:\Users\katri\OneDrive\Documents\Fall 2020\Sternberg Memory Task","no","mono","no","18","no","white","no","yes","768","legacy","32","11","C:/Users/katri/OneDrive/Documents/Fall 2020/Sternberg Memory Task/subject-3.csv","legacy","2 8 6 3 1","Lentiform Loewenfeld","3.3.3","0","n","0","right","right","right","right","NA","617","28044","10357","617","NA","2","legacy","5","1024","2","48000","-16","experiment","3","odd","7","309634","310744","118787","310745","312952","231762","2727","108429","314956","315573","311747","30772","314956","NA","2718","Sternberg Task","43","35159","45","yes","1024"
"95.65217391304348","95.65217391304348","779.9347826086956","779.9347826086956","black","experiment","legacy","legacy","legacy","0","uniform","1","undefined","1","left","45","45","0","45","45","45","0","0","45","45","45","0","45","0","0","Sat Oct 24 23:27:55 2020","The main experiment item","yes","SternbergTask.osexp","C:\Users\katri\OneDrive\Documents\Fall 2020\Sternberg Memory Task","no","mono","no","18","no","white","no","yes","768","legacy","33","11","C:/Users/katri/OneDrive/Documents/Fall 2020/Sternberg Memory Task/subject-3.csv","legacy","4 3 2 5 8","Lentiform Loewenfeld","3.3.3","2","y","0","left","right","right","left","NA","718","28044","10357","718","NA","2","legacy","5","1024","2","48000","-16","experiment","3","odd","3","315599","316705","118787","316707","318913","231762","2727","108429","320916","321635","317709","30772","320916","NA","2718","Sternberg Task","44","35877","46","yes","1024"
"95.74468085106383","95.74468085106383","776.2978723404256","776.2978723404256","black","experiment","legacy","legacy","legacy","0","uniform","1","undefined","1","right","46","46","0","46","46","46","0","0","46","46","46","0","46","0","0","Sat Oct 24 23:27:55 2020","The main experiment item","yes","SternbergTask.osexp","C:\Users\katri\OneDrive\Documents\Fall 2020\Sternberg Memory Task","no","mono","no","18","no","white","no","yes","768","legacy","34","11","C:/Users/katri/OneDrive/Documents/Fall 2020/Sternberg Memory Task/subject-3.csv","legacy","7 1 5 6 3","Lentiform Loewenfeld","3.3.3","0","n","0","right","right","right","right","NA","609","28044","10357","609","NA","2","legacy","5","1024","2","48000","-16","experiment","3","odd","8","321643","322755","118787","322757","324962","231762","2727","108429","326964","327574","323759","30772","326964","NA","2718","Sternberg Task","45","36486","47","yes","1024"
"95.83333333333333","95.83333333333333","770.3333333333334","770.3333333333334","black","experiment","legacy","legacy","legacy","0","uniform","1","undefined","1","left","47","47","0","47","47","47","0","0","47","47","47","0","47","0","0","Sat Oct 24 23:27:55 2020","The main experiment item","yes","SternbergTask.osexp","C:\Users\katri\OneDrive\Documents\Fall 2020\Sternberg Memory Task","no","mono","no","18","no","white","no","yes","768","legacy","35","11","C:/Users/katri/OneDrive/Documents/Fall 2020/Sternberg Memory Task/subject-3.csv","legacy","3 5 9 6 2 4","Lentiform Loewenfeld","3.3.3","1","y","0","left","right","right","left","NA","490","28044","10357","490","NA","2","legacy","6","1024","2","48000","-16","experiment","3","odd","3","327601","328709","118787","328711","330918","231762","2727","108429","332920","333410","329714","30772","332920","NA","2718","Sternberg Task","46","36976","48","yes","1024"
"95.91836734693878","95.91836734693878","765.8979591836735","765.8979591836735","black","experiment","legacy","legacy","legacy","0","uniform","1","undefined","1","right","48","48","0","48","48","48","0","0","48","48","48","0","48","0","0","Sat Oct 24 23:27:55 2020","The main experiment item","yes","SternbergTask.osexp","C:\Users\katri\OneDrive\Documents\Fall 2020\Sternberg Memory Task","no","mono","no","18","no","white","no","yes","768","legacy","36","11","C:/Users/katri/OneDrive/Documents/Fall 2020/Sternberg Memory Task/subject-3.csv","legacy","8 4 3 9","Lentiform Loewenfeld","3.3.3","0","n","0","right","right","right","right","NA","553","28044","10357","553","NA","2","legacy","4","1024","2","48000","-16","experiment","3","odd","5","333436","334546","118787","334548","336756","231762","2727","108429","338758","339311","335551","30772","338758","NA","2718","Sternberg Task","47","37529","49","yes","1024"
"96","96","764.38","764.38","black","experiment","legacy","legacy","legacy","0","uniform","1","undefined","1","right","49","49","0","49","49","49","0","0","49","49","49","0","49","0","0","Sat Oct 24 23:27:55 2020","The main experiment item","yes","SternbergTask.osexp","C:\Users\katri\OneDrive\Documents\Fall 2020\Sternberg Memory Task","no","mono","no","18","no","white","no","yes","768","legacy","37","11","C:/Users/katri/OneDrive/Documents/Fall 2020/Sternberg Memory Task/subject-3.csv","legacy","8 5 7 3 6","Lentiform Loewenfeld","3.3.3","0","n","0","right","right","right","right","NA","690","28044","10357","690","NA","2","legacy","5","1024","2","48000","-16","experiment","3","odd","9","339318","340421","118787","340422","342631","231762","2727","108429","344633","345323","341427","30772","344633","NA","2718","Sternberg Task","48","38219","50","yes","1024"
"96.07843137254902","96.07843137254902","766.2549019607843","766.2549019607843","black","experiment","legacy","legacy","legacy","0","uniform","1","undefined","1","left","50","50","0","50","50","50","0","0","50","50","50","0","50","0","0","Sat Oct 24 23:27:55 2020","The main experiment item","yes","SternbergTask.osexp","C:\Users\katri\OneDrive\Documents\Fall 2020\Sternberg Memory Task","no","mono","no","18","no","white","no","yes","768","legacy","38","11","C:/Users/katri/OneDrive/Documents/Fall 2020/Sternberg Memory Task/subject-3.csv","legacy","4 1 8 7 5","Lentiform Loewenfeld","3.3.3","3","y","0","left","right","right","left","NA","860","28044","10357","860","NA","2","legacy","5","1024","2","48000","-16","experiment","3","odd","8","345348","346453","118787","346456","348665","231762","2727","108429","350670","351530","347460","30772","350670","NA","2718","Sternberg Task","49","39079","51","yes","1024"
"96.15384615384616","96.15384615384616","762.8076923076923","762.8076923076923","black","experiment","legacy","legacy","legacy","0","uniform","1","undefined","1","right","51","51","0","51","51","51","0","0","51","51","51","0","51","0","0","Sat Oct 24 23:27:55 2020","The main experiment item","yes","SternbergTask.osexp","C:\Users\katri\OneDrive\Documents\Fall 2020\Sternberg Memory Task","no","mono","no","18","no","white","no","yes","768","legacy","39","11","C:/Users/katri/OneDrive/Documents/Fall 2020/Sternberg Memory Task/subject-3.csv","legacy","2 5 1 4","Lentiform Loewenfeld","3.3.3","0","n","0","right","right","right","right","NA","587","28044","10357","587","NA","2","legacy","4","1024","2","48000","-16","experiment","3","odd","6","351556","352660","118787","352661","354867","231762","2727","108429","356872","357459","353663","30772","356871","NA","2718","Sternberg Task","50","39666","52","yes","1024"
"96.22641509433963","96.22641509433963","759.0377358490566","759.0377358490566","black","experiment","legacy","legacy","legacy","0","uniform","1","undefined","1","left","52","52","0","52","52","52","0","0","52","52","52","0","52","0","0","Sat Oct 24 23:27:55 2020","The main experiment item","yes","SternbergTask.osexp","C:\Users\katri\OneDrive\Documents\Fall 2020\Sternberg Memory Task","no","mono","no","18","no","white","no","yes","768","legacy","40","11","C:/Users/katri/OneDrive/Documents/Fall 2020/Sternberg Memory Task/subject-3.csv","legacy","9 3 8 2 1 4","Lentiform Loewenfeld","3.3.3","3","y","0","left","right","right","left","NA","563","28044","10357","563","NA","2","legacy","6","1024","2","48000","-16","experiment","3","odd","8","357466","358574","118787","358576","360785","231762","2727","108429","362790","363354","359580","30772","362790","NA","2718","Sternberg Task","51","40229","53","yes","1024"
"96.29629629629629","96.29629629629629","756.0185185185185","756.0185185185185","black","experiment","legacy","legacy","legacy","0","uniform","1","undefined","1","left","53","53","0","53","53","53","0","0","53","53","53","0","53","0","0","Sat Oct 24 23:27:55 2020","The main experiment item","yes","SternbergTask.osexp","C:\Users\katri\OneDrive\Documents\Fall 2020\Sternberg Memory Task","no","mono","no","18","no","white","no","yes","768","legacy","41","11","C:/Users/katri/OneDrive/Documents/Fall 2020/Sternberg Memory Task/subject-3.csv","legacy","9 1 7 2","Lentiform Loewenfeld","3.3.3","2","y","0","left","right","right","left","NA","596","28044","10357","596","NA","2","legacy","4","1024","2","48000","-16","experiment","3","odd","1","363364","364468","118787","364470","366678","231762","2727","108429","368682","369278","365474","30772","368682","NA","2718","Sternberg Task","52","40825","54","yes","1024"
"96.36363636363636","96.36363636363636","753.0727272727273","753.0727272727273","black","experiment","legacy","legacy","legacy","0","uniform","1","undefined","1","left","54","54","0","54","54","54","0","0","54","54","54","0","54","0","0","Sat Oct 24 23:27:55 2020","The main experiment item","yes","SternbergTask.osexp","C:\Users\katri\OneDrive\Documents\Fall 2020\Sternberg Memory Task","no","mono","no","18","no","white","no","yes","768","legacy","42","11","C:/Users/katri/OneDrive/Documents/Fall 2020/Sternberg Memory Task/subject-3.csv","legacy","2 6 1 7 4","Lentiform Loewenfeld","3.3.3","2","y","0","left","right","right","left","NA","594","28044","10357","594","NA","2","legacy","5","1024","2","48000","-16","experiment","3","odd","6","369286","370380","118787","370382","372587","231762","2727","108429","374589","375184","371386","30772","374589","NA","2718","Sternberg Task","53","41419","55","yes","1024"
"96.42857142857143","96.42857142857143","750.1785714285714","750.1785714285714","black","experiment","legacy","legacy","legacy","0","uniform","1","undefined","1","left","55","55","0","55","55","55","0","0","55","55","55","0","55","0","0","Sat Oct 24 23:27:55 2020","The main experiment item","yes","SternbergTask.osexp","C:\Users\katri\OneDrive\Documents\Fall 2020\Sternberg Memory Task","no","mono","no","18","no","white","no","yes","768","legacy","43","11","C:/Users/katri/OneDrive/Documents/Fall 2020/Sternberg Memory Task/subject-3.csv","legacy","6 9 7 4 5 1","Lentiform Loewenfeld","3.3.3","2","y","0","left","right","right","left","NA","591","28044","10357","591","NA","2","legacy","6","1024","2","48000","-16","experiment","3","odd","9","375212","376303","118787","376304","378511","231762","2727","108429","380516","381108","377307","30772","380516","NA","2718","Sternberg Task","54","42010","56","yes","1024"
"96.49122807017544","96.49122807017544","747.6666666666666","747.6666666666666","black","experiment","legacy","legacy","legacy","0","uniform","1","undefined","1","right","56","56","0","56","56","56","0","0","56","56","56","0","56","0","0","Sat Oct 24 23:27:55 2020","The main experiment item","yes","SternbergTask.osexp","C:\Users\katri\OneDrive\Documents\Fall 2020\Sternberg Memory Task","no","mono","no","18","no","white","no","yes","768","legacy","44","11","C:/Users/katri/OneDrive/Documents/Fall 2020/Sternberg Memory Task/subject-3.csv","legacy","1 6 4","Lentiform Loewenfeld","3.3.3","0","n","0","right","right","right","right","NA","607","28044","10357","607","NA","2","legacy","3","1024","2","48000","-16","experiment","3","odd","7","381134","382241","118787","382243","384448","231762","2727","108429","386452","387059","383245","30772","386452","NA","2718","Sternberg Task","55","42617","57","yes","1024"
"96.55172413793103","96.55172413793103","745.1896551724138","745.1896551724138","black","experiment","legacy","legacy","legacy","0","uniform","1","undefined","1","left","57","57","0","57","57","57","0","0","57","57","57","0","57","0","0","Sat Oct 24 23:27:55 2020","The main experiment item","yes","SternbergTask.osexp","C:\Users\katri\OneDrive\Documents\Fall 2020\Sternberg Memory Task","no","mono","no","18","no","white","no","yes","768","legacy","45","11","C:/Users/katri/OneDrive/Documents/Fall 2020/Sternberg Memory Task/subject-3.csv","legacy","2 8 5 1","Lentiform Loewenfeld","3.3.3","4","y","0","left","right","right","left","NA","604","28044","10357","604","NA","2","legacy","4","1024","2","48000","-16","experiment","3","odd","1","387086","388193","118787","388196","390402","231762","2727","108429","392405","393010","389198","30772","392405","NA","2718","Sternberg Task","56","43221","58","yes","1024"
"96.61016949152543","96.61016949152543","741.2372881355932","741.2372881355932","black","experiment","legacy","legacy","legacy","0","uniform","1","undefined","1","right","58","58","0","58","58","58","0","0","58","58","58","0","58","0","0","Sat Oct 24 23:27:55 2020","The main experiment item","yes","SternbergTask.osexp","C:\Users\katri\OneDrive\Documents\Fall 2020\Sternberg Memory Task","no","mono","no","18","no","white","no","yes","768","legacy","46","11","C:/Users/katri/OneDrive/Documents/Fall 2020/Sternberg Memory Task/subject-3.csv","legacy","9","Lentiform Loewenfeld","3.3.3","0","n","0","right","right","right","right","NA","512","28044","10357","512","NA","2","legacy","1","1024","2","48000","-16","experiment","3","odd","6","393062","394173","118787","394175","396382","231762","2727","108429","398384","398897","395178","30772","398384","NA","2718","Sternberg Task","57","43733","59","yes","1024"
"95","95","740.8833333333333","740.8833333333333","black","experiment","legacy","legacy","legacy","0","uniform","0","undefined","0","left","59","59","0","59","59","59","0","0","59","59","59","0","59","0","0","Sat Oct 24 23:27:55 2020","The main experiment item","yes","SternbergTask.osexp","C:\Users\katri\OneDrive\Documents\Fall 2020\Sternberg Memory Task","no","mono","no","18","no","white","no","yes","768","legacy","47","11","C:/Users/katri/OneDrive/Documents/Fall 2020/Sternberg Memory Task/subject-3.csv","legacy","8 9 5 6 7","Lentiform Loewenfeld","3.3.3","1","y","0","right","right","right","right","NA","720","28044","10357","720","NA","2","legacy","5","1024","2","48000","-16","experiment","3","odd","8","398906","400009","118787","400011","402220","231762","2727","108429","404225","404946","401015","30772","404224","NA","2718","Sternberg Task","57","44453","60","yes","1024"
"95.08196721311475","95.08196721311475","741.4590163934427","741.4590163934427","black","experiment","legacy","legacy","legacy","0","uniform","1","undefined","1","left","60","60","0","60","60","60","0","0","60","60","60","0","60","0","0","Sat Oct 24 23:27:55 2020","The main experiment item","yes","SternbergTask.osexp","C:\Users\katri\OneDrive\Documents\Fall 2020\Sternberg Memory Task","no","mono","no","18","no","white","no","yes","768","legacy","48","11","C:/Users/katri/OneDrive/Documents/Fall 2020/Sternberg Memory Task/subject-3.csv","legacy","9 5 3 8 4","Lentiform Loewenfeld","3.3.3","1","y","0","left","right","right","left","NA","776","28044","10357","776","NA","2","legacy","5","1024","2","48000","-16","experiment","3","odd","9","398906","406061","118787","406063","408270","404953","2727","108429","410273","411051","407066","30772","410273","NA","2718","Sternberg Task","58","45229","61","yes","1024"
"95.16129032258064","95.16129032258064","738.983870967742","738.983870967742","black","experiment","legacy","legacy","legacy","0","uniform","1","undefined","1","left","61","61","0","61","61","61","0","0","61","61","61","0","61","0","0","Sat Oct 24 23:27:55 2020","The main experiment item","yes","SternbergTask.osexp","C:\Users\katri\OneDrive\Documents\Fall 2020\Sternberg Memory Task","no","mono","no","18","no","white","no","yes","768","legacy","49","11","C:/Users/katri/OneDrive/Documents/Fall 2020/Sternberg Memory Task/subject-3.csv","legacy","8","Lentiform Loewenfeld","3.3.3","1","y","0","left","right","right","left","NA","588","28044","10357","588","NA","2","legacy","1","1024","2","48000","-16","experiment","3","odd","8","411078","412172","118787","412173","414382","404953","2727","108429","416386","416975","413177","30772","416386","NA","2718","Sternberg Task","59","45817","62","yes","1024"
"95.23809523809524","95.23809523809524","740.1428571428571","740.1428571428571","black","experiment","legacy","legacy","legacy","0","uniform","1","undefined","1","right","62","62","0","62","62","62","0","0","62","62","62","0","62","0","0","Sat Oct 24 23:27:55 2020","The main experiment item","yes","SternbergTask.osexp","C:\Users\katri\OneDrive\Documents\Fall 2020\Sternberg Memory Task","no","mono","no","18","no","white","no","yes","768","legacy","50","11","C:/Users/katri/OneDrive/Documents/Fall 2020/Sternberg Memory Task/subject-3.csv","legacy","1 7 5 2 9","Lentiform Loewenfeld","3.3.3","0","n","0","right","right","right","right","NA","812","28044","10357","812","NA","2","legacy","5","1024","2","48000","-16","experiment","3","odd","3","417000","418095","118787","418096","420302","404953","2727","108429","422307","423119","419098","30772","422306","NA","2718","Sternberg Task","60","46629","63","yes","1024"
"95.3125","95.3125","739.625","739.625","black","experiment","legacy","legacy","legacy","0","uniform","1","undefined","1","right","63","63","0","63","63","63","0","0","63","63","63","0","63","0","0","Sat Oct 24 23:27:55 2020","The main experiment item","yes","SternbergTask.osexp","C:\Users\katri\OneDrive\Documents\Fall 2020\Sternberg Memory Task","no","mono","no","18","no","white","no","yes","768","legacy","51","11","C:/Users/katri/OneDrive/Documents/Fall 2020/Sternberg Memory Task/subject-3.csv","legacy","1 4 3 6 5","Lentiform Loewenfeld","3.3.3","0","n","0","right","right","right","right","NA","707","28044","10357","707","NA","2","legacy","5","1024","2","48000","-16","experiment","3","odd","8","423131","424241","118787","424242","426449","404953","2727","108429","428452","429160","425244","30772","428452","NA","2718","Sternberg Task","61","47336","64","yes","1024"
"95.38461538461539","95.38461538461539","742.9846153846154","742.9846153846154","black","experiment","legacy","legacy","legacy","0","uniform","1","undefined","1","left","64","64","0","64","64","64","0","0","64","64","64","0","64","0","0","Sat Oct 24 23:27:55 2020","The main experiment item","yes","SternbergTask.osexp","C:\Users\katri\OneDrive\Documents\Fall 2020\Sternberg Memory Task","no","mono","no","18","no","white","no","yes","768","legacy","52","11","C:/Users/katri/OneDrive/Documents/Fall 2020/Sternberg Memory Task/subject-3.csv","legacy","4 9 7 8 5 3","Lentiform Loewenfeld","3.3.3","4","y","0","left","right","right","left","NA","958","28044","10357","958","NA","2","legacy","6","1024","2","48000","-16","experiment","3","odd","8","429166","430259","118787","430261","432469","404953","2727","108429","434472","435431","431264","30772","434472","NA","2718","Sternberg Task","62","48294","65","yes","1024"
"95.45454545454545","95.45454545454545","742.0151515151515","742.0151515151515","black","experiment","legacy","legacy","legacy","0","uniform","1","undefined","1","right","65","65","0","65","65","65","0","0","65","65","65","0","65","0","0","Sat Oct 24 23:27:55 2020","The main experiment item","yes","SternbergTask.osexp","C:\Users\katri\OneDrive\Documents\Fall 2020\Sternberg Memory Task","no","mono","no","18","no","white","no","yes","768","legacy","53","11","C:/Users/katri/OneDrive/Documents/Fall 2020/Sternberg Memory Task/subject-3.csv","legacy","2 8 9","Lentiform Loewenfeld","3.3.3","0","n","0","right","right","right","right","NA","679","28044","10357","679","NA","2","legacy","3","1024","2","48000","-16","experiment","3","odd","6","435455","436539","118787","436540","438747","404953","2727","108429","440750","441430","437543","30772","440750","NA","2718","Sternberg Task","63","48973","66","yes","1024"
"95.5223880597015","95.5223880597015","750.5223880597015","750.5223880597015","black","experiment","legacy","legacy","legacy","0","uniform","1","undefined","1","left","66","66","0","66","66","66","0","0","66","66","66","0","66","0","0","Sat Oct 24 23:27:55 2020","The main experiment item","yes","SternbergTask.osexp","C:\Users\katri\OneDrive\Documents\Fall 2020\Sternberg Memory Task","no","mono","no","18","no","white","no","yes","768","legacy","54","11","C:/Users/katri/OneDrive/Documents/Fall 2020/Sternberg Memory Task/subject-3.csv","legacy","3 9 7 6 4","Lentiform Loewenfeld","3.3.3","3","y","0","left","right","right","left","NA","1312","28044","10357","1312","NA","2","legacy","5","1024","2","48000","-16","experiment","3","odd","7","441439","442545","118787","442548","444754","404953","2727","108429","446759","448072","443550","30772","446758","NA","2718","Sternberg Task","64","50285","67","yes","1024"
"94.11764705882354","94.11764705882354","755.6764705882352","755.6764705882352","black","experiment","legacy","legacy","legacy","0","uniform","0","undefined","0","left","67","67","0","67","67","67","0","0","67","67","67","0","67","0","0","Sat Oct 24 23:27:55 2020","The main experiment item","yes","SternbergTask.osexp","C:\Users\katri\OneDrive\Documents\Fall 2020\Sternberg Memory Task","no","mono","no","18","no","white","no","yes","768","legacy","55","11","C:/Users/katri/OneDrive/Documents/Fall 2020/Sternberg Memory Task/subject-3.csv","legacy","5 7 8 2 3 8","Lentiform Loewenfeld","3.3.3","5","y","0","right","right","right","right","NA","1101","28044","10357","1101","NA","2","legacy","6","1024","2","48000","-16","experiment","3","odd","3","448098","449173","118787","449175","451383","404953","2727","108429","453388","454489","450179","30772","453387","NA","2718","Sternberg Task","64","51386","68","yes","1024"
"94.20289855072464","94.20289855072464","754.7246376811594","754.7246376811594","black","experiment","legacy","legacy","legacy","0","uniform","1","undefined","1","right","68","68","0","68","68","68","0","0","68","68","68","0","68","0","0","Sat Oct 24 23:27:55 2020","The main experiment item","yes","SternbergTask.osexp","C:\Users\katri\OneDrive\Documents\Fall 2020\Sternberg Memory Task","no","mono","no","18","no","white","no","yes","768","legacy","56","11","C:/Users/katri/OneDrive/Documents/Fall 2020/Sternberg Memory Task/subject-3.csv","legacy","2 7 5","Lentiform Loewenfeld","3.3.3","0","n","0","right","right","right","right","NA","690","28044","10357","690","NA","2","legacy","3","1024","2","48000","-16","experiment","3","odd","8","448098","455598","118787","455599","457809","454496","2727","108429","459813","460504","456603","30772","459813","NA","2718","Sternberg Task","65","52076","69","yes","1024"
"94.28571428571429","94.28571428571429","752.6714285714286","752.6714285714286","black","experiment","legacy","legacy","legacy","0","uniform","1","undefined","1","right","69","69","0","69","69","69","0","0","69","69","69","0","69","0","0","Sat Oct 24 23:27:55 2020","The main experiment item","yes","SternbergTask.osexp","C:\Users\katri\OneDrive\Documents\Fall 2020\Sternberg Memory Task","no","mono","no","18","no","white","no","yes","768","legacy","57","11","C:/Users/katri/OneDrive/Documents/Fall 2020/Sternberg Memory Task/subject-3.csv","legacy","2 8 7 9 5 3","Lentiform Loewenfeld","3.3.3","0","n","0","right","right","right","right","NA","611","28044","10357","611","NA","2","legacy","6","1024","2","48000","-16","experiment","3","odd","6","460529","461635","118787","461637","463844","454496","2727","108429","465846","466457","462640","30772","465846","NA","2718","Sternberg Task","66","52687","70","yes","1024"
"94.36619718309859","94.36619718309859","750.169014084507","750.169014084507","black","experiment","legacy","legacy","legacy","0","uniform","1","undefined","1","right","70","70","0","70","70","70","0","0","70","70","70","0","70","0","0","Sat Oct 24 23:27:55 2020","The main experiment item","yes","SternbergTask.osexp","C:\Users\katri\OneDrive\Documents\Fall 2020\Sternberg Memory Task","no","mono","no","18","no","white","no","yes","768","legacy","58","11","C:/Users/katri/OneDrive/Documents/Fall 2020/Sternberg Memory Task/subject-3.csv","legacy","7 4 2 8 1 9","Lentiform Loewenfeld","3.3.3","0","n","0","right","right","right","right","NA","575","28044","10357","575","NA","2","legacy","6","1024","2","48000","-16","experiment","3","odd","5","466483","467576","118787","467578","469784","454496","2727","108429","471787","472363","468580","30772","471787","NA","2718","Sternberg Task","67","53262","71","yes","1024"
"94.44444444444444","94.44444444444444","748.4166666666666","748.4166666666666","black","experiment","legacy","legacy","legacy","0","uniform","1","undefined","1","right","71","71","0","71","71","71","0","0","71","71","71","0","71","0","0","Sat Oct 24 23:27:55 2020","The main experiment item","yes","SternbergTask.osexp","C:\Users\katri\OneDrive\Documents\Fall 2020\Sternberg Memory Task","no","mono","no","18","no","white","no","yes","768","legacy","59","11","C:/Users/katri/OneDrive/Documents/Fall 2020/Sternberg Memory Task/subject-3.csv","legacy","7 8 6 1","Lentiform Loewenfeld","3.3.3","0","n","0","right","right","right","right","NA","624","28044","10357","624","NA","2","legacy","4","1024","2","48000","-16","experiment","3","odd","3","472373","473464","118787","473467","475677","454496","2727","108429","477679","478303","474472","30772","477679","NA","2718","Sternberg Task","68","53886","72","yes","1024"
"94.52054794520548","94.52054794520548","746.8082191780821","746.8082191780821","black","experiment","legacy","legacy","legacy","0","uniform","1","undefined","1","left","72","72","0","72","72","72","0","0","72","72","72","0","72","0","0","Sat Oct 24 23:27:55 2020","The main experiment item","yes","SternbergTask.osexp","C:\Users\katri\OneDrive\Documents\Fall 2020\Sternberg Memory Task","no","mono","no","18","no","white","no","yes","768","legacy","60","11","C:/Users/katri/OneDrive/Documents/Fall 2020/Sternberg Memory Task/subject-3.csv","legacy","4","Lentiform Loewenfeld","3.3.3","1","y","0","left","right","right","left","NA","631","28044","10357","631","NA","2","legacy","1","1024","2","48000","-16","experiment","3","odd","4","478330","479440","118787","479442","481652","454496","2727","108429","483654","484286","480446","30772","483654","NA","2718","Sternberg Task","69","54517","73","yes","1024"
"94.5945945945946","94.5945945945946","744.4054054054054","744.4054054054054","black","experiment","legacy","legacy","legacy","0","uniform","1","undefined","1","left","73","73","0","73","73","73","0","0","73","73","73","0","73","0","0","Sat Oct 24 23:27:55 2020","The main experiment item","yes","SternbergTask.osexp","C:\Users\katri\OneDrive\Documents\Fall 2020\Sternberg Memory Task","no","mono","no","18","no","white","no","yes","768","legacy","61","11","C:/Users/katri/OneDrive/Documents/Fall 2020/Sternberg Memory Task/subject-3.csv","legacy","9 1 6 7 8","Lentiform Loewenfeld","3.3.3","1","y","0","left","right","right","left","NA","569","28044","10357","569","NA","2","legacy","5","1024","2","48000","-16","experiment","3","odd","9","484293","485389","118787","485391","487597","454496","2727","108429","489599","490169","486393","30772","489599","NA","2718","Sternberg Task","70","55086","74","yes","1024"
"94.66666666666667","94.66666666666667","741.12","741.12","black","experiment","legacy","legacy","legacy","0","uniform","1","undefined","1","right","74","74","0","74","74","74","0","0","74","74","74","0","74","0","0","Sat Oct 24 23:27:55 2020","The main experiment item","yes","SternbergTask.osexp","C:\Users\katri\OneDrive\Documents\Fall 2020\Sternberg Memory Task","no","mono","no","18","no","white","no","yes","768","legacy","62","11","C:/Users/katri/OneDrive/Documents/Fall 2020/Sternberg Memory Task/subject-3.csv","legacy","8 9","Lentiform Loewenfeld","3.3.3","0","n","0","right","right","right","right","NA","498","28044","10357","498","NA","2","legacy","2","1024","2","48000","-16","experiment","3","odd","5","490194","491283","118787","491284","493490","454496","2727","108429","495494","495993","492286","30772","495494","NA","2718","Sternberg Task","71","55584","75","yes","1024"
"94.73684210526316","94.73684210526316","738.6578947368421","738.6578947368421","black","experiment","legacy","legacy","legacy","0","uniform","1","undefined","1","right","75","75","0","75","75","75","0","0","75","75","75","0","75","0","0","Sat Oct 24 23:27:55 2020","The main experiment item","yes","SternbergTask.osexp","C:\Users\katri\OneDrive\Documents\Fall 2020\Sternberg Memory Task","no","mono","no","18","no","white","no","yes","768","legacy","63","11","C:/Users/katri/OneDrive/Documents/Fall 2020/Sternberg Memory Task/subject-3.csv","legacy","5","Lentiform Loewenfeld","3.3.3","0","n","0","right","right","right","right","NA","554","28044","10357","554","NA","2","legacy","1","1024","2","48000","-16","experiment","3","odd","8","496018","497128","118787","497130","499338","454496","2727","108429","501342","501896","498134","30772","501342","NA","2718","Sternberg Task","72","56138","76","yes","1024"
"94.8051948051948","94.8051948051948","741.3766233766233","741.3766233766233","black","experiment","legacy","legacy","legacy","0","uniform","1","undefined","1","left","76","76","0","76","76","76","0","0","76","76","76","0","76","0","0","Sat Oct 24 23:27:55 2020","The main experiment item","yes","SternbergTask.osexp","C:\Users\katri\OneDrive\Documents\Fall 2020\Sternberg Memory Task","no","mono","no","18","no","white","no","yes","768","legacy","64","11","C:/Users/katri/OneDrive/Documents/Fall 2020/Sternberg Memory Task/subject-3.csv","legacy","4 6 2 5 1","Lentiform Loewenfeld","3.3.3","5","y","0","left","right","right","left","NA","948","28044","10357","948","NA","2","legacy","5","1024","2","48000","-16","experiment","3","odd","1","501922","503032","118787","503034","505243","454496","2727","108429","507245","508193","504038","30772","507245","NA","2718","Sternberg Task","73","57086","77","yes","1024"
"94.87179487179488","94.87179487179488","740.3461538461538","740.3461538461538","black","experiment","legacy","legacy","legacy","0","uniform","1","undefined","1","right","77","77","0","77","77","77","0","0","77","77","77","0","77","0","0","Sat Oct 24 23:27:55 2020","The main experiment item","yes","SternbergTask.osexp","C:\Users\katri\OneDrive\Documents\Fall 2020\Sternberg Memory Task","no","mono","no","18","no","white","no","yes","768","legacy","65","11","C:/Users/katri/OneDrive/Documents/Fall 2020/Sternberg Memory Task/subject-3.csv","legacy","9 5 3 2 8 6","Lentiform Loewenfeld","3.3.3","0","n","0","right","right","right","right","NA","661","28044","10357","661","NA","2","legacy","6","1024","2","48000","-16","experiment","3","odd","7","508220","509326","118787","509327","511536","454496","2727","108429","513541","514203","510331","30772","513540","NA","2718","Sternberg Task","74","57747","78","yes","1024"
"94.9367088607595","94.9367088607595","742.1772151898734","742.1772151898734","black","experiment","legacy","legacy","legacy","0","uniform","1","undefined","1","left","78","78","0","78","78","78","0","0","78","78","78","0","78","0","0","Sat Oct 24 23:27:55 2020","The main experiment item","yes","SternbergTask.osexp","C:\Users\katri\OneDrive\Documents\Fall 2020\Sternberg Memory Task","no","mono","no","18","no","white","no","yes","768","legacy","66","11","C:/Users/katri/OneDrive/Documents/Fall 2020/Sternberg Memory Task/subject-3.csv","legacy","8 5 1 3 9","Lentiform Loewenfeld","3.3.3","4","y","0","left","right","right","left","NA","885","28044","10357","885","NA","2","legacy","5","1024","2","48000","-16","experiment","3","odd","3","514212","515307","118787","515309","517515","454496","2727","108429","519517","520404","516312","30772","519517","NA","2718","Sternberg Task","75","58632","79","yes","1024"
"95","95","742.0125","742.0125","black","experiment","legacy","legacy","legacy","0","uniform","1","undefined","1","left","79","79","0","79","79","79","0","0","79","79","79","0","79","0","0","Sat Oct 24 23:27:55 2020","The main experiment item","yes","SternbergTask.osexp","C:\Users\katri\OneDrive\Documents\Fall 2020\Sternberg Memory Task","no","mono","no","18","no","white","no","yes","768","legacy","67","11","C:/Users/katri/OneDrive/Documents/Fall 2020/Sternberg Memory Task/subject-3.csv","legacy","4 1 5","Lentiform Loewenfeld","3.3.3","2","y","0","left","right","right","left","NA","729","28044","10357","729","NA","2","legacy","3","1024","2","48000","-16","experiment","3","odd","1","520411","521499","118787","521501","523707","454496","2727","108429","525713","526442","522503","30772","525712","NA","2718","Sternberg Task","76","59361","80","yes","1024"
"95.06172839506173","95.06172839506173","740.4938271604939","740.4938271604939","black","experiment","legacy","legacy","legacy","0","uniform","1","undefined","1","right","80","80","0","80","80","80","0","0","80","80","80","0","80","0","0","Sat Oct 24 23:27:55 2020","The main experiment item","yes","SternbergTask.osexp","C:\Users\katri\OneDrive\Documents\Fall 2020\Sternberg Memory Task","no","mono","no","18","no","white","no","yes","768","legacy","68","11","C:/Users/katri/OneDrive/Documents/Fall 2020/Sternberg Memory Task/subject-3.csv","legacy","8 5 4 2 9 6","Lentiform Loewenfeld","3.3.3","0","n","0","right","right","right","right","NA","619","28044","10357","619","NA","2","legacy","6","1024","2","48000","-16","experiment","3","odd","3","526469","527579","118787","527581","529787","454496","2727","108429","531789","532408","528583","30772","531789","NA","2718","Sternberg Task","77","59980","81","yes","1024"
"95.1219512195122","95.1219512195122","741.780487804878","741.780487804878","black","experiment","legacy","legacy","legacy","0","uniform","1","undefined","1","left","81","81","0","81","81","81","0","0","81","81","81","0","81","0","0","Sat Oct 24 23:27:55 2020","The main experiment item","yes","SternbergTask.osexp","C:\Users\katri\OneDrive\Documents\Fall 2020\Sternberg Memory Task","no","mono","no","18","no","white","no","yes","768","legacy","69","11","C:/Users/katri/OneDrive/Documents/Fall 2020/Sternberg Memory Task/subject-3.csv","legacy","7 8 4 6 9 5","Lentiform Loewenfeld","3.3.3","4","y","0","left","right","right","left","NA","846","28044","10357","846","NA","2","legacy","6","1024","2","48000","-16","experiment","3","odd","6","532434","533545","118787","533547","535753","454496","2727","108429","537757","538604","534549","30772","537757","NA","2718","Sternberg Task","78","60826","82","yes","1024"
"95.18072289156626","95.18072289156626","745.2289156626506","745.2289156626506","black","experiment","legacy","legacy","legacy","0","uniform","1","undefined","1","right","82","82","0","82","82","82","0","0","82","82","82","0","82","0","0","Sat Oct 24 23:27:55 2020","The main experiment item","yes","SternbergTask.osexp","C:\Users\katri\OneDrive\Documents\Fall 2020\Sternberg Memory Task","no","mono","no","18","no","white","no","yes","768","legacy","70","11","C:/Users/katri/OneDrive/Documents/Fall 2020/Sternberg Memory Task/subject-3.csv","legacy","7 6 4 8 1 2","Lentiform Loewenfeld","3.3.3","0","n","0","right","right","right","right","NA","1028","28044","10357","1028","NA","2","legacy","6","1024","2","48000","-16","experiment","3","odd","9","538614","539722","118787","539724","541932","454496","2727","108429","543936","544965","540727","30772","543936","NA","2718","Sternberg Task","79","61854","83","yes","1024"
"95.23809523809524","95.23809523809524","744.0952380952381","744.0952380952381","black","experiment","legacy","legacy","legacy","0","uniform","1","undefined","1","right","83","83","0","83","83","83","0","0","83","83","83","0","83","0","0","Sat Oct 24 23:27:55 2020","The main experiment item","yes","SternbergTask.osexp","C:\Users\katri\OneDrive\Documents\Fall 2020\Sternberg Memory Task","no","mono","no","18","no","white","no","yes","768","legacy","71","11","C:/Users/katri/OneDrive/Documents/Fall 2020/Sternberg Memory Task/subject-3.csv","legacy","4 8 1 2","Lentiform Loewenfeld","3.3.3","0","n","0","right","right","right","right","NA","650","28044","10357","650","NA","2","legacy","4","1024","2","48000","-16","experiment","3","odd","7","544974","546083","118787","546084","548291","454496","2727","108429","550295","550946","547086","30772","550295","NA","2718","Sternberg Task","80","62504","84","yes","1024"
"95.29411764705883","95.29411764705883","742.5411764705882","742.5411764705882","black","experiment","legacy","legacy","legacy","0","uniform","1","undefined","1","right","84","84","0","84","84","84","0","0","84","84","84","0","84","0","0","Sat Oct 24 23:27:55 2020","The main experiment item","yes","SternbergTask.osexp","C:\Users\katri\OneDrive\Documents\Fall 2020\Sternberg Memory Task","no","mono","no","18","no","white","no","yes","768","legacy","72","11","C:/Users/katri/OneDrive/Documents/Fall 2020/Sternberg Memory Task/subject-3.csv","legacy","6 8","Lentiform Loewenfeld","3.3.3","0","n","0","right","right","right","right","NA","612","28044","10357","612","NA","2","legacy","2","1024","2","48000","-16","experiment","3","odd","9","550973","552064","118787","552065","554271","454496","2727","108429","556273","556886","553068","30772","556273","NA","2718","Sternberg Task","81","63116","85","yes","1024"
"95.34883720930233","95.34883720930233","744.4418604651163","744.4418604651163","black","experiment","legacy","legacy","legacy","0","uniform","1","undefined","1","right","85","85","0","85","85","85","0","0","85","85","85","0","85","0","0","Sat Oct 24 23:27:55 2020","The main experiment item","yes","SternbergTask.osexp","C:\Users\katri\OneDrive\Documents\Fall 2020\Sternberg Memory Task","no","mono","no","18","no","white","no","yes","768","legacy","73","11","C:/Users/katri/OneDrive/Documents/Fall 2020/Sternberg Memory Task/subject-3.csv","legacy","5 3 2 6 9 8","Lentiform Loewenfeld","3.3.3","0","n","0","right","right","right","right","NA","906","28044","10357","906","NA","2","legacy","6","1024","2","48000","-16","experiment","3","odd","4","556895","558001","118787","558003","560208","454496","2727","108429","562213","563119","559004","30772","562212","NA","2718","Sternberg Task","82","64022","86","yes","1024"
"95.40229885057471","95.40229885057471","743.471264367816","743.471264367816","black","experiment","legacy","legacy","legacy","0","uniform","1","undefined","1","left","86","86","0","86","86","86","0","0","86","86","86","0","86","0","0","Sat Oct 24 23:27:55 2020","The main experiment item","yes","SternbergTask.osexp","C:\Users\katri\OneDrive\Documents\Fall 2020\Sternberg Memory Task","no","mono","no","18","no","white","no","yes","768","legacy","74","11","C:/Users/katri/OneDrive/Documents/Fall 2020/Sternberg Memory Task/subject-3.csv","legacy","4 7 6 8 2 3","Lentiform Loewenfeld","3.3.3","6","y","0","left","right","right","left","NA","660","28044","10357","660","NA","2","legacy","6","1024","2","48000","-16","experiment","3","odd","3","563144","564221","118787","564223","566429","454496","2727","108429","568433","569094","565224","30772","568433","NA","2718","Sternberg Task","83","64682","87","yes","1024"
"95.45454545454545","95.45454545454545","741.9431818181819","741.9431818181819","black","experiment","legacy","legacy","legacy","0","uniform","1","undefined","1","right","87","87","0","87","87","87","0","0","87","87","87","0","87","0","0","Sat Oct 24 23:27:55 2020","The main experiment item","yes","SternbergTask.osexp","C:\Users\katri\OneDrive\Documents\Fall 2020\Sternberg Memory Task","no","mono","no","18","no","white","no","yes","768","legacy","75","11","C:/Users/katri/OneDrive/Documents/Fall 2020/Sternberg Memory Task/subject-3.csv","legacy","1 8 7","Lentiform Loewenfeld","3.3.3","0","n","0","right","right","right","right","NA","609","28044","10357","609","NA","2","legacy","3","1024","2","48000","-16","experiment","3","odd","4","569102","570209","118787","570211","572420","454496","2727","108429","574422","575032","571215","30772","574422","NA","2718","Sternberg Task","84","65291","88","yes","1024"
"95.50561797752809","95.50561797752809","741.0224719101124","741.0224719101124","black","experiment","legacy","legacy","legacy","0","uniform","1","undefined","1","right","88","88","0","88","88","88","0","0","88","88","88","0","88","0","0","Sat Oct 24 23:27:55 2020","The main experiment item","yes","SternbergTask.osexp","C:\Users\katri\OneDrive\Documents\Fall 2020\Sternberg Memory Task","no","mono","no","18","no","white","no","yes","768","legacy","76","11","C:/Users/katri/OneDrive/Documents/Fall 2020/Sternberg Memory Task/subject-3.csv","legacy","4 2 6 9","Lentiform Loewenfeld","3.3.3","0","n","0","right","right","right","right","NA","660","28044","10357","660","NA","2","legacy","4","1024","2","48000","-16","experiment","3","odd","7","575040","576143","118787","576144","578350","454496","2727","108429","580355","581016","577146","30772","580355","NA","2718","Sternberg Task","85","65951","89","yes","1024"
"95.55555555555556","95.55555555555556","739.2888888888889","739.2888888888889","black","experiment","legacy","legacy","legacy","0","uniform","1","undefined","1","right","89","89","0","89","89","89","0","0","89","89","89","0","89","0","0","Sat Oct 24 23:27:55 2020","The main experiment item","yes","SternbergTask.osexp","C:\Users\katri\OneDrive\Documents\Fall 2020\Sternberg Memory Task","no","mono","no","18","no","white","no","yes","768","legacy","77","11","C:/Users/katri/OneDrive/Documents/Fall 2020/Sternberg Memory Task/subject-3.csv","legacy","6 7 5 9","Lentiform Loewenfeld","3.3.3","0","n","0","right","right","right","right","NA","585","28044","10357","585","NA","2","legacy","4","1024","2","48000","-16","experiment","3","odd","2","581026","582120","118787","582122","584330","454496","2727","108429","586332","586918","583126","30772","586332","NA","2718","Sternberg Task","86","66536","90","yes","1024"
"95.6043956043956","95.6043956043956","736.6373626373627","736.6373626373627","black","experiment","legacy","legacy","legacy","0","uniform","1","undefined","1","left","90","90","0","90","90","90","0","0","90","90","90","0","90","0","0","Sat Oct 24 23:27:55 2020","The main experiment item","yes","SternbergTask.osexp","C:\Users\katri\OneDrive\Documents\Fall 2020\Sternberg Memory Task","no","mono","no","18","no","white","no","yes","768","legacy","78","11","C:/Users/katri/OneDrive/Documents/Fall 2020/Sternberg Memory Task/subject-3.csv","legacy","6 5","Lentiform Loewenfeld","3.3.3","2","y","0","left","right","right","left","NA","498","28044","10357","498","NA","2","legacy","2","1024","2","48000","-16","experiment","3","odd","5","586946","588024","118787","588026","590232","454496","2727","108429","592236","592734","589028","30772","592236","NA","2718","Sternberg Task","87","67034","91","yes","1024"
"95.65217391304348","95.65217391304348","735.25","735.25","black","experiment","legacy","legacy","legacy","0","uniform","1","undefined","1","left","91","91","0","91","91","91","0","0","91","91","91","0","91","0","0","Sat Oct 24 23:27:55 2020","The main experiment item","yes","SternbergTask.osexp","C:\Users\katri\OneDrive\Documents\Fall 2020\Sternberg Memory Task","no","mono","no","18","no","white","no","yes","768","legacy","79","11","C:/Users/katri/OneDrive/Documents/Fall 2020/Sternberg Memory Task/subject-3.csv","legacy","7 2 3","Lentiform Loewenfeld","3.3.3","3","y","0","left","right","right","left","NA","609","28044","10357","609","NA","2","legacy","3","1024","2","48000","-16","experiment","3","odd","3","592760","593872","118787","593874","596080","454496","2727","108429","598083","598693","594876","30772","598083","NA","2718","Sternberg Task","88","67643","92","yes","1024"
"95.6989247311828","95.6989247311828","733.8817204301075","733.8817204301075","black","experiment","legacy","legacy","legacy","0","uniform","1","undefined","1","left","92","92","0","92","92","92","0","0","92","92","92","0","92","0","0","Sat Oct 24 23:27:55 2020","The main experiment item","yes","SternbergTask.osexp","C:\Users\katri\OneDrive\Documents\Fall 2020\Sternberg Memory Task","no","mono","no","18","no","white","no","yes","768","legacy","80","11","C:/Users/katri/OneDrive/Documents/Fall 2020/Sternberg Memory Task/subject-3.csv","legacy","8 7 3","Lentiform Loewenfeld","3.3.3","1","y","0","left","right","right","left","NA","608","28044","10357","608","NA","2","legacy","3","1024","2","48000","-16","experiment","3","odd","8","598718","599826","118787","599827","602037","454496","2727","108429","604042","604651","600830","30772","604041","NA","2718","Sternberg Task","89","68251","93","yes","1024"
"95.74468085106383","95.74468085106383","731.4255319148937","731.4255319148937","black","experiment","legacy","legacy","legacy","0","uniform","1","undefined","1","left","93","93","0","93","93","93","0","0","93","93","93","0","93","0","0","Sat Oct 24 23:27:55 2020","The main experiment item","yes","SternbergTask.osexp","C:\Users\katri\OneDrive\Documents\Fall 2020\Sternberg Memory Task","no","mono","no","18","no","white","no","yes","768","legacy","81","11","C:/Users/katri/OneDrive/Documents/Fall 2020/Sternberg Memory Task/subject-3.csv","legacy","3 4","Lentiform Loewenfeld","3.3.3","1","y","0","left","right","right","left","NA","503","28044","10357","503","NA","2","legacy","2","1024","2","48000","-16","experiment","3","odd","3","604658","605761","118787","605763","607969","454496","2727","108429","609974","610478","606765","30772","609973","NA","2718","Sternberg Task","90","68754","94","yes","1024"
"95.78947368421052","95.78947368421052","730.2947368421053","730.2947368421053","black","experiment","legacy","legacy","legacy","0","uniform","1","undefined","1","right","94","94","0","94","94","94","0","0","94","94","94","0","94","0","0","Sat Oct 24 23:27:55 2020","The main experiment item","yes","SternbergTask.osexp","C:\Users\katri\OneDrive\Documents\Fall 2020\Sternberg Memory Task","no","mono","no","18","no","white","no","yes","768","legacy","82","11","C:/Users/katri/OneDrive/Documents/Fall 2020/Sternberg Memory Task/subject-3.csv","legacy","2 6 4 3 9","Lentiform Loewenfeld","3.3.3","0","n","0","right","right","right","right","NA","624","28044","10357","624","NA","2","legacy","5","1024","2","48000","-16","experiment","3","odd","1","610503","611613","118787","611614","613821","454496","2727","108429","615823","616447","612617","30772","615823","NA","2718","Sternberg Task","91","69378","95","yes","1024"
"95.83333333333333","95.83333333333333","728.8125","728.8125","black","experiment","legacy","legacy","legacy","0","uniform","1","undefined","1","right","95","95","0","95","95","95","0","0","95","95","95","0","95","0","0","Sat Oct 24 23:27:55 2020","The main experiment item","yes","SternbergTask.osexp","C:\Users\katri\OneDrive\Documents\Fall 2020\Sternberg Memory Task","no","mono","no","18","no","white","no","yes","768","legacy","83","11","C:/Users/katri/OneDrive/Documents/Fall 2020/Sternberg Memory Task/subject-3.csv","legacy","6 9 4 5 3 2","Lentiform Loewenfeld","3.3.3","0","n","0","right","right","right","right","NA","588","28044","10357","588","NA","2","legacy","6","1024","2","48000","-16","experiment","3","odd","8","616474","617585","118787","617587","619794","454496","2727","108429","621798","622387","618589","30772","621798","NA","2718","Sternberg Task","92","69966","96","yes","1024"
"94.84536082474227","94.84536082474227","727.5670103092783","727.5670103092783","black","experiment","legacy","legacy","legacy","0","uniform","0","undefined","0","left","96","96","0","96","96","96","0","0","96","96","96","0","96","0","0","Sat Oct 24 23:27:55 2020","The main experiment item","yes","SternbergTask.osexp","C:\Users\katri\OneDrive\Documents\Fall 2020\Sternberg Memory Task","no","mono","no","18","no","white","no","yes","768","legacy","84","11","C:/Users/katri/OneDrive/Documents/Fall 2020/Sternberg Memory Task/subject-3.csv","legacy","8 9 5 7 1 6","Lentiform Loewenfeld","3.3.3","4","y","0","right","right","right","right","NA","608","28044","10357","608","NA","2","legacy","6","1024","2","48000","-16","experiment","3","odd","7","622413","623509","118787","623511","625718","454496","2727","108429","627720","628329","624513","30772","627720","NA","2718","Sternberg Task","92","70574","97","yes","1024"
"94.89795918367346","94.89795918367346","729.4081632653061","729.4081632653061","black","experiment","legacy","legacy","legacy","0","uniform","1","undefined","1","left","97","97","0","97","97","97","0","0","97","97","97","0","97","0","0","Sat Oct 24 23:27:55 2020","The main experiment item","yes","SternbergTask.osexp","C:\Users\katri\OneDrive\Documents\Fall 2020\Sternberg Memory Task","no","mono","no","18","no","white","no","yes","768","legacy","85","11","C:/Users/katri/OneDrive/Documents/Fall 2020/Sternberg Memory Task/subject-3.csv","legacy","5 2 6","Lentiform Loewenfeld","3.3.3","2","y","0","left","right","right","left","NA","908","28044","10357","908","NA","2","legacy","3","1024","2","48000","-16","experiment","3","odd","2","622413","629445","118787","629447","631654","628339","2727","108429","633657","634566","630449","30772","633657","NA","2718","Sternberg Task","93","71482","98","yes","1024"
"94.94949494949495","94.94949494949495","730.4848484848485","730.4848484848485","black","experiment","legacy","legacy","legacy","0","uniform","1","undefined","1","right","98","98","0","98","98","98","0","0","98","98","98","0","98","0","0","Sat Oct 24 23:27:55 2020","The main experiment item","yes","SternbergTask.osexp","C:\Users\katri\OneDrive\Documents\Fall 2020\Sternberg Memory Task","no","mono","no","18","no","white","no","yes","768","legacy","86","11","C:/Users/katri/OneDrive/Documents/Fall 2020/Sternberg Memory Task/subject-3.csv","legacy","9 7 4 5 8","Lentiform Loewenfeld","3.3.3","0","n","0","right","right","right","right","NA","836","28044","10357","836","NA","2","legacy","5","1024","2","48000","-16","experiment","3","odd","6","634574","635672","118787","635674","637883","628339","2727","108429","639887","640724","636678","30772","639887","NA","2718","Sternberg Task","94","72318","99","yes","1024"
"95","95","729.09","729.09","black","experiment","legacy","legacy","legacy","0","uniform","1","undefined","1","right","99","99","0","99","99","99","0","0","99","99","99","0","99","0","0","Sat Oct 24 23:27:55 2020","The main experiment item","yes","SternbergTask.osexp","C:\Users\katri\OneDrive\Documents\Fall 2020\Sternberg Memory Task","no","mono","no","18","no","white","no","yes","768","legacy","87","11","C:/Users/katri/OneDrive/Documents/Fall 2020/Sternberg Memory Task/subject-3.csv","legacy","4 1","Lentiform Loewenfeld","3.3.3","0","n","0","right","right","right","right","NA","591","28044","10357","591","NA","2","legacy","2","1024","2","48000","-16","experiment","3","odd","6","640749","641854","118787","641856","644062","628339","2727","108429","646065","646657","642858","30772","646063","NA","2718","Sternberg Task","95","72909","100","yes","1024"
"95.04950495049505","95.04950495049505","728.1980198019802","728.1980198019802","black","experiment","legacy","legacy","legacy","0","uniform","1","undefined","1","right","100","100","0","100","100","100","0","0","100","100","100","0","100","0","0","Sat Oct 24 23:27:55 2020","The main experiment item","yes","SternbergTask.osexp","C:\Users\katri\OneDrive\Documents\Fall 2020\Sternberg Memory Task","no","mono","no","18","no","white","no","yes","768","legacy","88","11","C:/Users/katri/OneDrive/Documents/Fall 2020/Sternberg Memory Task/subject-3.csv","legacy","3 9 1","Lentiform Loewenfeld","3.3.3","0","n","0","right","right","right","right","NA","639","28044","10357","639","NA","2","legacy","3","1024","2","48000","-16","experiment","3","odd","7","646682","647786","118787","647788","649994","628339","2727","108429","651996","652636","648790","30772","651996","NA","2718","Sternberg Task","96","73548","101","yes","1024"
"95.09803921568627","95.09803921568627","727.7058823529412","727.7058823529412","black","experiment","legacy","legacy","legacy","0","uniform","1","undefined","1","right","101","101","0","101","101","101","0","0","101","101","101","0","101","0","0","Sat Oct 24 23:27:55 2020","The main experiment item","yes","SternbergTask.osexp","C:\Users\katri\OneDrive\Documents\Fall 2020\Sternberg Memory Task","no","mono","no","18","no","white","no","yes","768","legacy","89","11","C:/Users/katri/OneDrive/Documents/Fall 2020/Sternberg Memory Task/subject-3.csv","legacy","1 5 3 2 8","Lentiform Loewenfeld","3.3.3","0","n","0","right","right","right","right","NA","678","28044","10357","678","NA","2","legacy","5","1024","2","48000","-16","experiment","3","odd","4","652665","653759","118787","653761","655968","628339","2727","108429","657970","658648","654763","30772","657970","NA","2718","Sternberg Task","97","74226","102","yes","1024"
"95.14563106796116","95.14563106796116","728.8446601941747","728.8446601941747","black","experiment","legacy","legacy","legacy","0","uniform","1","undefined","1","right","102","102","0","102","102","102","0","0","102","102","102","0","102","0","0","Sat Oct 24 23:27:55 2020","The main experiment item","yes","SternbergTask.osexp","C:\Users\katri\OneDrive\Documents\Fall 2020\Sternberg Memory Task","no","mono","no","18","no","white","no","yes","768","legacy","90","11","C:/Users/katri/OneDrive/Documents/Fall 2020/Sternberg Memory Task/subject-3.csv","legacy","3 4 2","Lentiform Loewenfeld","3.3.3","0","n","0","right","right","right","right","NA","845","28044","10357","845","NA","2","legacy","3","1024","2","48000","-16","experiment","3","odd","5","658674","659778","118787","659780","661990","628339","2727","108429","663995","664841","660785","30772","663995","NA","2718","Sternberg Task","98","75071","103","yes","1024"
"95.1923076923077","95.1923076923077","726.7115384615385","726.7115384615385","black","experiment","legacy","legacy","legacy","0","uniform","1","undefined","1","right","103","103","0","103","103","103","0","0","103","103","103","0","103","0","0","Sat Oct 24 23:27:55 2020","The main experiment item","yes","SternbergTask.osexp","C:\Users\katri\OneDrive\Documents\Fall 2020\Sternberg Memory Task","no","mono","no","18","no","white","no","yes","768","legacy","91","11","C:/Users/katri/OneDrive/Documents/Fall 2020/Sternberg Memory Task/subject-3.csv","legacy","5 7 3","Lentiform Loewenfeld","3.3.3","0","n","0","right","right","right","right","NA","507","28044","10357","507","NA","2","legacy","3","1024","2","48000","-16","experiment","3","odd","9","664850","665953","118787","665954","668159","628339","2727","108429","670164","670672","666955","30772","670163","NA","2718","Sternberg Task","99","75578","104","yes","1024"
"95.23809523809524","95.23809523809524","724.3714285714286","724.3714285714286","black","experiment","legacy","legacy","legacy","0","uniform","1","undefined","1","left","104","104","0","104","104","104","0","0","104","104","104","0","104","0","0","Sat Oct 24 23:27:55 2020","The main experiment item","yes","SternbergTask.osexp","C:\Users\katri\OneDrive\Documents\Fall 2020\Sternberg Memory Task","no","mono","no","18","no","white","no","yes","768","legacy","92","11","C:/Users/katri/OneDrive/Documents/Fall 2020/Sternberg Memory Task/subject-3.csv","legacy","6 7 8 5","Lentiform Loewenfeld","3.3.3","3","y","0","left","right","right","left","NA","481","28044","10357","481","NA","2","legacy","4","1024","2","48000","-16","experiment","3","odd","8","670698","671806","118787","671808","674015","628339","2727","108429","676017","676498","672813","30772","676017","NA","2718","Sternberg Task","100","76059","105","yes","1024"
"95.28301886792453","95.28301886792453","721.8396226415094","721.8396226415094","black","experiment","legacy","legacy","legacy","0","uniform","1","undefined","1","left","105","105","0","105","105","105","0","0","105","105","105","0","105","0","0","Sat Oct 24 23:27:55 2020","The main experiment item","yes","SternbergTask.osexp","C:\Users\katri\OneDrive\Documents\Fall 2020\Sternberg Memory Task","no","mono","no","18","no","white","no","yes","768","legacy","93","11","C:/Users/katri/OneDrive/Documents/Fall 2020/Sternberg Memory Task/subject-3.csv","legacy","6 9 3 1","Lentiform Loewenfeld","3.3.3","4","y","0","left","right","right","left","NA","456","28044","10357","456","NA","2","legacy","4","1024","2","48000","-16","experiment","3","odd","1","676524","677636","118787","677638","679845","628339","2727","108429","681847","682304","678640","30772","681847","NA","2718","Sternberg Task","101","76515","106","yes","1024"
"95.32710280373831","95.32710280373831","721.607476635514","721.607476635514","black","experiment","legacy","legacy","legacy","0","uniform","1","undefined","1","left","106","106","0","106","106","106","0","0","106","106","106","0","106","0","0","Sat Oct 24 23:27:55 2020","The main experiment item","yes","SternbergTask.osexp","C:\Users\katri\OneDrive\Documents\Fall 2020\Sternberg Memory Task","no","mono","no","18","no","white","no","yes","768","legacy","94","11","C:/Users/katri/OneDrive/Documents/Fall 2020/Sternberg Memory Task/subject-3.csv","legacy","7 1 8 5 6 2","Lentiform Loewenfeld","3.3.3","2","y","0","left","right","right","left","NA","697","28044","10357","697","NA","2","legacy","6","1024","2","48000","-16","experiment","3","odd","1","682329","683421","118787","683422","685631","628339","2727","108429","687633","688331","684427","30772","687633","NA","2718","Sternberg Task","102","77212","107","yes","1024"
"95.37037037037037","95.37037037037037","720.425925925926","720.425925925926","black","experiment","legacy","legacy","legacy","0","uniform","1","undefined","1","left","107","107","0","107","107","107","0","0","107","107","107","0","107","0","0","Sat Oct 24 23:27:55 2020","The main experiment item","yes","SternbergTask.osexp","C:\Users\katri\OneDrive\Documents\Fall 2020\Sternberg Memory Task","no","mono","no","18","no","white","no","yes","768","legacy","95","11","C:/Users/katri/OneDrive/Documents/Fall 2020/Sternberg Memory Task/subject-3.csv","legacy","2 4 6 9","Lentiform Loewenfeld","3.3.3","3","y","0","left","right","right","left","NA","594","28044","10357","594","NA","2","legacy","4","1024","2","48000","-16","experiment","3","odd","6","688357","689468","118787","689470","691676","628339","2727","108429","693678","694273","690472","30772","693678","NA","2718","Sternberg Task","103","77806","108","yes","1024"
