"acc","accuracy","average_response_time","avg_rt","background","block","canvas_backend","clock_backend","color_backend","compensation","coordinates","correct","correct_instruction1","correct_instructions2","correct_keyboard_response","correct_response","count_correctfeedback","count_expSequence","count_experementloop","count_experiment","count_getting_started","count_incorrectfeedback","count_instruction1","count_instructions2","count_instructions2_2","count_isi","count_keyboard_response","count_logger","count_memorySet","count_practiceloop","count_probe","count_thankyou","count_welcome","datetime","description","disable_garbage_collection","experiment_file","experiment_path","font_bold","font_family","font_italic","font_size","font_underline","foreground","form_clicks","fullscreen","height","keyboard_backend","live_row","live_row_practiceloop","logfile","mouse_backend","numberSet","opensesame_codename","opensesame_version","posInSet","present","repeat_cycle","response","response_instruction1","response_instructions2","response_instructions2_2","response_keyboard_response","response_thankyou","response_time","response_time_instruction1","response_time_instructions2","response_time_instructions2_2","response_time_keyboard_response","response_time_thankyou","response_time_welcome","response_welcome","round_decimals","sampler_backend","setSize","sound_buf_size","sound_channels","sound_freq","sound_sample_size","start","subject_nr","subject_parity","target","time_correctfeedback","time_expSequence","time_experementloop","time_experiment","time_getting_started","time_incorrectfeedback","time_instruction1","time_instructions2","time_instructions2_2","time_isi","time_keyboard_response","time_logger","time_memorySet","time_practiceloop","time_probe","time_thankyou","time_welcome","title","total_correct","total_response_time","total_responses","uniform_coordinates","width"
"100","100","860.749100102","860.749100102","black","practice","psycho","psycho","psycho","0","uniform","1","undefined","0","1","left","0","0","0","0","NA","0","0","0","0","0","0","0","0","0","0","0","NA","10/17/21 18:07:53","","yes","SternbergTask.osexp","C:/Users/mmcel/OneDrive/GRAD SCHOOL/fall 2021/Advanced Quant","no","mono","no","18","no","white","no","yes","768","psycho","0","0","C:/Users/mmcel/OneDrive/GRAD SCHOOL/fall 2021/Advanced Quant/sternberg/MM-Subject-1.csv","psycho","1 5 2 9","Lentiform Loewenfeld","3.3.9","2","y","0","left","right","right","NA","left","NA","860.749100102","8776.37300012","9654.45469995","NA","860.749100102","NA","NA","NA","2","legacy","4","1024","2","48000","-16","experiment","1","odd","5","NA","23389.3102","NA","10525.9783","NA","NA","10602.3907999","23394.7373999","NA","34256.7435999","36260.9166999","37122.183","33053.2096999","19379.7996999","36260.7040999","NA","NA","Sternberg Task","1","860.749100102","1","yes","1024"
"50","50","763.083550148","763.083550148","black","practice","psycho","psycho","psycho","0","uniform","0","undefined","1","0","right","1","1","0","0","NA","1","0","1","0","1","1","1","1","0","1","0","NA","10/17/21 18:07:53","","yes","SternbergTask.osexp","C:/Users/mmcel/OneDrive/GRAD SCHOOL/fall 2021/Advanced Quant","no","mono","no","18","no","white","no","yes","768","psycho","1","1","C:/Users/mmcel/OneDrive/GRAD SCHOOL/fall 2021/Advanced Quant/sternberg/MM-Subject-1.csv","psycho","3 1 9 4","Lentiform Loewenfeld","3.3.9","0","n","0","left","right","right","NA","left","NA","665.418000193","8776.37300012","8485.58390001","NA","665.418000193","NA","NA","NA","2","legacy","4","1024","2","48000","-16","experiment","1","odd","6","37224.746","38309.2572","NA","10525.9783","NA","NA","10602.3907999","38312.8318998","NA","48005.3852999","50008.5230998","50674.4734999","46802.1998","19379.7996999","50008.3355999","NA","NA","Sternberg Task","1","1526.1671003","2","yes","1024"
"66.6666666667","66.6666666667","844.639833396","844.639833396","black","practice","psycho","psycho","psycho","0","uniform","1","undefined","0","1","left","2","2","0","0","NA","2","0","2","0","2","2","2","2","0","2","0","NA","10/17/21 18:07:53","","yes","SternbergTask.osexp","C:/Users/mmcel/OneDrive/GRAD SCHOOL/fall 2021/Advanced Quant","no","mono","no","18","no","white","no","yes","768","psycho","2","2","C:/Users/mmcel/OneDrive/GRAD SCHOOL/fall 2021/Advanced Quant/sternberg/MM-Subject-1.csv","psycho","4 8","Lentiform Loewenfeld","3.3.9","1","y","0","left","right","right","NA","left","NA","1007.75239989","8776.37300012","2134.8456","NA","1007.75239989","NA","NA","NA","2","legacy","2","1024","2","48000","-16","experiment","1","odd","4","37224.746","51801.1743999","NA","10525.9783","NA","50713.9289","10602.3907999","51804.6984999","NA","55147.7116998","57151.387","58159.7193999","53943.5769999","19379.7996999","57151.1919999","NA","NA","Sternberg Task","2","2533.91950019","3","yes","1024"
"75","75","868.376575061","868.376575061","black","practice","psycho","psycho","psycho","0","uniform","1","undefined","1","1","right","3","3","0","0","NA","3","0","3","0","3","3","3","3","0","3","0","NA","10/17/21 18:07:53","","yes","SternbergTask.osexp","C:/Users/mmcel/OneDrive/GRAD SCHOOL/fall 2021/Advanced Quant","no","mono","no","18","no","white","no","yes","768","psycho","3","3","C:/Users/mmcel/OneDrive/GRAD SCHOOL/fall 2021/Advanced Quant/sternberg/MM-Subject-1.csv","psycho","4 1 5","Lentiform Loewenfeld","3.3.9","0","n","0","right","right","right","NA","right","NA","939.586800057","8776.37300012","2201.62290009","NA","939.586800057","NA","NA","NA","2","legacy","3","1024","2","48000","-16","experiment","1","odd","2","58228.0961","59311.6321999","NA","10525.9783","NA","50713.9289","10602.3907999","59315.1099999","NA","62724.1366","64728.3607998","65668.4395","61520.4449","19379.7996999","64728.1316","NA","NA","Sternberg Task","3","3473.50630024","4","yes","1024"
"80","80","869.743780047","869.743780047","black","practice","psycho","psycho","psycho","0","uniform","1","undefined","0","1","left","4","4","0","0","NA","4","0","4","0","4","4","4","4","0","4","0","NA","10/17/21 18:07:53","","yes","SternbergTask.osexp","C:/Users/mmcel/OneDrive/GRAD SCHOOL/fall 2021/Advanced Quant","no","mono","no","18","no","white","no","yes","768","psycho","4","4","C:/Users/mmcel/OneDrive/GRAD SCHOOL/fall 2021/Advanced Quant/sternberg/MM-Subject-1.csv","psycho","2 9 4","Lentiform Loewenfeld","3.3.9","3","y","0","left","right","right","NA","left","NA","875.212599989","8776.37300012","1606.36700015","NA","875.212599989","NA","NA","NA","2","legacy","3","1024","2","48000","-16","experiment","1","odd","4","65704.0309","66786.8241998","NA","10525.9783","NA","50713.9289","10602.3907999","66790.3870998","NA","69604.1061999","71608.1431","72483.9134999","68400.564","19379.7996999","71607.9753998","NA","NA","Sternberg Task","4","4348.71890023","5","yes","1024"
"83.3333333333","83.3333333333","964.195766719","964.195766719","black","practice","psycho","psycho","psycho","0","uniform","1","undefined","0","1","right","5","5","0","0","NA","5","0","5","0","5","5","5","5","0","5","0","NA","10/17/21 18:07:53","","yes","SternbergTask.osexp","C:/Users/mmcel/OneDrive/GRAD SCHOOL/fall 2021/Advanced Quant","no","mono","no","18","no","white","no","yes","768","psycho","5","5","C:/Users/mmcel/OneDrive/GRAD SCHOOL/fall 2021/Advanced Quant/sternberg/MM-Subject-1.csv","psycho","5 7 8 4 1 2","Lentiform Loewenfeld","3.3.9","0","n","0","right","right","escape","NA","right","NA","1436.45570008","8776.37300012","1780.85380001","NA","1436.45570008","NA","NA","NA","2","legacy","6","1024","2","48000","-16","experiment","1","odd","6","72515.5932999","73600.8355999","NA","10525.9783","NA","50713.9289","10602.3907999","73604.2446999","NA","80096.7575999","82100.5712999","83537.5649999","78892.5037999","19379.7996999","82100.3784998","NA","NA","Sternberg Task","5","5785.17460031","6","yes","1024"
"85.7142857143","85.7142857143","962.4592286","962.4592286","black","practice","psycho","psycho","psycho","0","uniform","1","undefined","0","1","left","6","6","0","0","NA","6","0","6","0","6","6","6","6","0","6","0","NA","10/17/21 18:07:53","","yes","SternbergTask.osexp","C:/Users/mmcel/OneDrive/GRAD SCHOOL/fall 2021/Advanced Quant","no","mono","no","18","no","white","no","yes","768","psycho","6","6","C:/Users/mmcel/OneDrive/GRAD SCHOOL/fall 2021/Advanced Quant/sternberg/MM-Subject-1.csv","psycho","6","Lentiform Loewenfeld","3.3.9","1","y","0","left","right","right","NA","left","NA","952.039999887","8776.37300012","1818.24349985","NA","952.039999887","NA","NA","NA","2","legacy","1","1024","2","48000","-16","experiment","1","odd","6","83595.4968999","84679.1162998","NA","10525.9783","NA","50713.9289","10602.3907999","84682.5989","NA","87708.2958","89711.417","90664.0669999","86504.4704","19379.7996999","89711.2111","NA","NA","Sternberg Task","6","6737.2146002","7","yes","1024"
"87.5","87.5","938.762175007","938.762175007","black","practice","psycho","psycho","psycho","0","uniform","1","undefined","0","1","left","7","7","0","0","NA","7","0","7","0","7","7","7","7","0","7","0","NA","10/17/21 18:07:53","","yes","SternbergTask.osexp","C:/Users/mmcel/OneDrive/GRAD SCHOOL/fall 2021/Advanced Quant","no","mono","no","18","no","white","no","yes","768","psycho","7","7","C:/Users/mmcel/OneDrive/GRAD SCHOOL/fall 2021/Advanced Quant/sternberg/MM-Subject-1.csv","psycho","4 3 1 7 9 8","Lentiform Loewenfeld","3.3.9","1","y","0","left","right","right","NA","left","NA","772.882799851","8776.37300012","470.08359991","NA","772.882799851","NA","NA","NA","2","legacy","6","1024","2","48000","-16","experiment","1","odd","4","90775.1614","91856.3506","NA","10525.9783","NA","50713.9289","10602.3907999","91859.919","NA","93537.0421999","95540.4395","96313.8633","92333.9626999","19379.7996999","95540.2628998","NA","NA","Sternberg Task","7","7510.09740005","8","yes","1024"
"88.8888888889","88.8888888889","889.95211111","889.95211111","black","practice","psycho","psycho","psycho","0","uniform","1","undefined","1","1","right","8","8","0","0","NA","8","0","8","0","8","8","8","8","0","8","0","NA","10/17/21 18:07:53","","yes","SternbergTask.osexp","C:/Users/mmcel/OneDrive/GRAD SCHOOL/fall 2021/Advanced Quant","no","mono","no","18","no","white","no","yes","768","psycho","8","8","C:/Users/mmcel/OneDrive/GRAD SCHOOL/fall 2021/Advanced Quant/sternberg/MM-Subject-1.csv","psycho","5","Lentiform Loewenfeld","3.3.9","0","n","0","right","right","right","NA","right","NA","499.471599935","8776.37300012","1498.64769983","NA","499.471599935","NA","NA","NA","2","legacy","1","1024","2","48000","-16","experiment","1","odd","3","96395.4878999","97473.83","NA","10525.9783","NA","50713.9289","10602.3907999","97477.3432","NA","100182.7008","102185.7738","102685.9078","98979.5152","19379.7996999","102185.5959","NA","NA","Sternberg Task","8","8009.56899999","9","yes","1024"
"90","90","864.660639991","864.660639991","black","practice","psycho","psycho","psycho","0","uniform","1","undefined","1","1","right","9","9","0","0","NA","9","0","9","0","9","9","9","9","0","9","0","NA","10/17/21 18:07:53","","yes","SternbergTask.osexp","C:/Users/mmcel/OneDrive/GRAD SCHOOL/fall 2021/Advanced Quant","no","mono","no","18","no","white","no","yes","768","psycho","9","9","C:/Users/mmcel/OneDrive/GRAD SCHOOL/fall 2021/Advanced Quant/sternberg/MM-Subject-1.csv","psycho","9 6 7 4 5","Lentiform Loewenfeld","3.3.9","0","n","0","right","right","right","NA","right","NA","637.037399923","8776.37300012","779.969200026","NA","637.037399923","NA","NA","NA","2","legacy","5","1024","2","48000","-16","experiment","1","odd","3","102716.6186","103799.789","NA","10525.9783","NA","50713.9289","10602.3907999","103803.2801","NA","105790.9319","107795.2433","108432.8869","104586.9163","19379.7996999","107795.0644","NA","NA","Sternberg Task","9","8646.60639991","10","yes","1024"
"90.9090909091","90.9090909091","836.028672734","836.028672734","black","practice","psycho","psycho","psycho","0","uniform","1","undefined","1","1","right","10","10","0","0","NA","10","0","10","0","10","10","10","10","0","10","0","NA","10/17/21 18:07:53","","yes","SternbergTask.osexp","C:/Users/mmcel/OneDrive/GRAD SCHOOL/fall 2021/Advanced Quant","no","mono","no","18","no","white","no","yes","768","psycho","10","10","C:/Users/mmcel/OneDrive/GRAD SCHOOL/fall 2021/Advanced Quant/sternberg/MM-Subject-1.csv","psycho","2 1","Lentiform Loewenfeld","3.3.9","0","n","0","right","right","right","NA","right","NA","549.709000159","8776.37300012","679.714000085","NA","549.709000159","NA","NA","NA","2","legacy","2","1024","2","48000","-16","experiment","1","odd","5","108474.9343","109556.0707","NA","10525.9783","NA","50713.9289","10602.3907999","109559.5669","NA","111446.2045","113450.4494","114000.8319","110243.1395","19379.7996999","113450.2701","NA","NA","Sternberg Task","10","9196.31540007","11","yes","1024"
"91.6666666667","91.6666666667","829.826750016","829.826750016","black","practice","psycho","psycho","psycho","0","uniform","1","undefined","0","1","left","11","11","0","0","NA","11","0","11","0","11","11","11","11","0","11","0","NA","10/17/21 18:07:53","","yes","SternbergTask.osexp","C:/Users/mmcel/OneDrive/GRAD SCHOOL/fall 2021/Advanced Quant","no","mono","no","18","no","white","no","yes","768","psycho","11","11","C:/Users/mmcel/OneDrive/GRAD SCHOOL/fall 2021/Advanced Quant/sternberg/MM-Subject-1.csv","psycho","1 7 9 8 5","Lentiform Loewenfeld","3.3.9","4","y","0","left","right","right","NA","left","NA","761.605600128","8776.37300012","1392.48619997","NA","761.605600128","NA","NA","NA","2","legacy","5","1024","2","48000","-16","experiment","1","odd","8","114132.4985","115214.3238","NA","10525.9783","NA","50713.9289","10602.3907999","115217.7158","NA","117817.6879","119821.8225","120584.0399","116614.2404","19379.7996999","119821.6486","NA","NA","Sternberg Task","11","9957.9210002","12","yes","1024"
"92.3076923077","92.3076923077","809.719500007","809.719500007","black","experiment","psycho","psycho","psycho","0","uniform","1","undefined","1","1","left","12","12","0","0","NA","12","0","12","0","12","12","12","12","0","12","0","NA","10/17/21 18:07:53","","yes","SternbergTask.osexp","C:/Users/mmcel/OneDrive/GRAD SCHOOL/fall 2021/Advanced Quant","no","mono","no","18","no","white","no","yes","768","psycho","0","11","C:/Users/mmcel/OneDrive/GRAD SCHOOL/fall 2021/Advanced Quant/sternberg/MM-Subject-1.csv","psycho","2 8 5 1","Lentiform Loewenfeld","3.3.9","4","y","0","left","right","left","left","left","NA","568.432499887","8776.37300012","812.178400112","17884.2226001","568.432499887","NA","NA","NA","2","legacy","4","1024","2","48000","-16","experiment","1","odd","1","120642.7984","139658.7084","139566.3013","10525.9783","NA","50713.9289","10602.3907999","139662.2053","121681.392","141681.4935","143685.3582","144254.3863","140478.2198","19379.7996999","143685.1693","NA","NA","Sternberg Task","12","10526.3535001","13","yes","1024"
"92.8571428571","92.8571428571","803.439892862","803.439892862","black","experiment","psycho","psycho","psycho","0","uniform","1","undefined","1","1","right","13","13","0","0","NA","13","0","13","0","13","13","13","13","0","13","0","NA","10/17/21 18:07:53","","yes","SternbergTask.osexp","C:/Users/mmcel/OneDrive/GRAD SCHOOL/fall 2021/Advanced Quant","no","mono","no","18","no","white","no","yes","768","psycho","1","11","C:/Users/mmcel/OneDrive/GRAD SCHOOL/fall 2021/Advanced Quant/sternberg/MM-Subject-1.csv","psycho","9 7 4 5 8","Lentiform Loewenfeld","3.3.9","0","n","0","right","right","right","left","right","NA","721.804999979","8776.37300012","337.802600116","17884.2226001","721.804999979","NA","NA","NA","2","legacy","5","1024","2","48000","-16","experiment","1","odd","6","144366.7724","145448.1444","139566.3013","10525.9783","NA","50713.9289","10602.3907999","145451.758","121681.392","146996.394","149000.2504","149722.7002","145793.3122","19379.7996999","149000.0513","NA","NA","Sternberg Task","13","11248.1585001","14","yes","1024"
"93.3333333333","93.3333333333","795.017820007","795.017820007","black","experiment","psycho","psycho","psycho","0","uniform","1","undefined","1","1","right","14","14","0","0","NA","14","0","14","0","14","14","14","14","0","14","0","NA","10/17/21 18:07:53","","yes","SternbergTask.osexp","C:/Users/mmcel/OneDrive/GRAD SCHOOL/fall 2021/Advanced Quant","no","mono","no","18","no","white","no","yes","768","psycho","2","11","C:/Users/mmcel/OneDrive/GRAD SCHOOL/fall 2021/Advanced Quant/sternberg/MM-Subject-1.csv","psycho","5 3 8 7 2 4","Lentiform Loewenfeld","3.3.9","0","n","0","right","right","right","left","right","NA","677.108800039","8776.37300012","5928.46710002","17884.2226001","677.108800039","NA","NA","NA","2","legacy","6","1024","2","48000","-16","experiment","1","odd","9","149788.2854","150868.5943","139566.3013","10525.9783","NA","50713.9289","10602.3907999","150872.34","121681.392","158007.4815","160011.4872","160689.2075","156804.7596","19379.7996999","160011.3053","NA","NA","Sternberg Task","14","11925.2673001","15","yes","1024"
"93.75","93.75","786.393662507","786.393662507","black","experiment","psycho","psycho","psycho","0","uniform","1","undefined","0","1","left","15","15","0","0","NA","15","0","15","0","15","15","15","15","0","15","0","NA","10/17/21 18:07:53","","yes","SternbergTask.osexp","C:/Users/mmcel/OneDrive/GRAD SCHOOL/fall 2021/Advanced Quant","no","mono","no","18","no","white","no","yes","768","psycho","3","11","C:/Users/mmcel/OneDrive/GRAD SCHOOL/fall 2021/Advanced Quant/sternberg/MM-Subject-1.csv","psycho","4 1 5","Lentiform Loewenfeld","3.3.9","2","y","0","left","right","right","left","left","NA","657.031300012","8776.37300012","331.51779999","17884.2226001","657.031300012","NA","NA","NA","2","legacy","3","1024","2","48000","-16","experiment","1","odd","1","160733.9628","161814.6396","139566.3013","10525.9783","NA","50713.9289","10602.3907999","161818.151","121681.392","163357.6991","165361.4707","166019.1788","162153.543","19379.7996999","165361.3144","NA","NA","Sternberg Task","15","12582.2986001","16","yes","1024"
"94.1176470588","94.1176470588","772.524735301","772.524735301","black","experiment","psycho","psycho","psycho","0","uniform","1","undefined","1","1","right","16","16","0","0","NA","16","0","16","0","16","16","16","16","0","16","0","NA","10/17/21 18:07:53","","yes","SternbergTask.osexp","C:/Users/mmcel/OneDrive/GRAD SCHOOL/fall 2021/Advanced Quant","no","mono","no","18","no","white","no","yes","768","psycho","4","11","C:/Users/mmcel/OneDrive/GRAD SCHOOL/fall 2021/Advanced Quant/sternberg/MM-Subject-1.csv","psycho","1 6 4","Lentiform Loewenfeld","3.3.9","0","n","0","right","right","right","left","right","NA","550.621900009","8776.37300012","463.150999974","17884.2226001","550.621900009","NA","NA","NA","2","legacy","3","1024","2","48000","-16","experiment","1","odd","7","166086.4448","167166.5677","139566.3013","10525.9783","NA","50713.9289","10602.3907999","167170.0421","121681.392","168840.3453","170844.0528","171395.3826","167636.9407","19379.7996999","170843.8713","NA","NA","Sternberg Task","16","13132.9205001","17","yes","1024"
"94.4444444444","94.4444444444","763.889677784","763.889677784","black","experiment","psycho","psycho","psycho","0","uniform","1","undefined","1","1","right","17","17","0","0","NA","17","0","17","0","17","17","17","17","0","17","0","NA","10/17/21 18:07:53","","yes","SternbergTask.osexp","C:/Users/mmcel/OneDrive/GRAD SCHOOL/fall 2021/Advanced Quant","no","mono","no","18","no","white","no","yes","768","psycho","5","11","C:/Users/mmcel/OneDrive/GRAD SCHOOL/fall 2021/Advanced Quant/sternberg/MM-Subject-1.csv","psycho","7 1","Lentiform Loewenfeld","3.3.9","0","n","0","right","right","right","left","right","NA","617.093699984","8776.37300012","337.960500037","17884.2226001","617.093699984","NA","NA","NA","2","legacy","2","1024","2","48000","-16","experiment","1","odd","8","171431.4086","172512.5208","139566.3013","10525.9783","NA","50713.9289","10602.3907999","172515.8194","121681.392","174061.009","176064.3188","176682.1011","172857.3589","19379.7996999","176064.1343","NA","NA","Sternberg Task","17","13750.0142001","18","yes","1024"
"94.7368421053","94.7368421053","749.941884221","749.941884221","black","experiment","psycho","psycho","psycho","0","uniform","1","undefined","0","1","left","18","18","0","0","NA","18","0","18","0","18","18","18","18","0","18","0","NA","10/17/21 18:07:53","","yes","SternbergTask.osexp","C:/Users/mmcel/OneDrive/GRAD SCHOOL/fall 2021/Advanced Quant","no","mono","no","18","no","white","no","yes","768","psycho","6","11","C:/Users/mmcel/OneDrive/GRAD SCHOOL/fall 2021/Advanced Quant/sternberg/MM-Subject-1.csv","psycho","6 7 9 3 1 2","Lentiform Loewenfeld","3.3.9","1","y","0","left","right","right","left","left","NA","498.881600099","8776.37300012","539.87590014","17884.2226001","498.881600099","NA","NA","NA","2","legacy","6","1024","2","48000","-16","experiment","1","odd","6","176709.4979","177788.513","139566.3013","10525.9783","NA","50713.9289","10602.3907999","177792.0898","121681.392","179539.4724","181543.4791","182043.0266","178335.6765","19379.7996999","181543.2882","NA","NA","Sternberg Task","18","14248.8958002","19","yes","1024"
"95","95","768.349125015","768.349125015","black","experiment","psycho","psycho","psycho","0","uniform","1","undefined","1","1","right","19","19","0","0","NA","19","0","19","0","19","19","19","19","0","19","0","NA","10/17/21 18:07:53","","yes","SternbergTask.osexp","C:/Users/mmcel/OneDrive/GRAD SCHOOL/fall 2021/Advanced Quant","no","mono","no","18","no","white","no","yes","768","psycho","7","11","C:/Users/mmcel/OneDrive/GRAD SCHOOL/fall 2021/Advanced Quant/sternberg/MM-Subject-1.csv","psycho","6 9 7 3 8 2","Lentiform Loewenfeld","3.3.9","0","n","0","right","right","right","left","right","NA","1118.08670009","8776.37300012","608.502199873","17884.2226001","1118.08670009","NA","NA","NA","2","legacy","6","1024","2","48000","-16","experiment","1","odd","5","182076.3721","183155.499","139566.3013","10525.9783","NA","50713.9289","10602.3907999","183159.1697","121681.392","184974.8424","186977.7131","188096.4485","183771.8242","19379.7996999","186977.5271","NA","NA","Sternberg Task","19","15366.9825003","20","yes","1024"
"90.4761904762","90.4761904762","752.993338109","752.993338109","black","experiment","psycho","psycho","psycho","0","uniform","0","undefined","0","0","left","20","20","0","0","NA","20","0","20","0","20","20","20","20","0","20","0","NA","10/17/21 18:07:53","","yes","SternbergTask.osexp","C:/Users/mmcel/OneDrive/GRAD SCHOOL/fall 2021/Advanced Quant","no","mono","no","18","no","white","no","yes","768","psycho","8","11","C:/Users/mmcel/OneDrive/GRAD SCHOOL/fall 2021/Advanced Quant/sternberg/MM-Subject-1.csv","psycho","5 2 9 6 1 7","Lentiform Loewenfeld","3.3.9","3","y","0","right","right","right","left","right","NA","445.877599996","8776.37300012","1252.74199992","17884.2226001","445.877599996","NA","NA","NA","2","legacy","6","1024","2","48000","-16","experiment","1","odd","9","188133.2006","189218.8186","139566.3013","10525.9783","NA","50713.9289","10602.3907999","189222.3303","121681.392","191681.9372","193686.0252","194132.5852","190478.9559","19379.7996999","193685.8166","NA","NA","Sternberg Task","19","15812.8601003","21","yes","1024"
"90.9090909091","90.9090909091","745.017259107","745.017259107","black","experiment","psycho","psycho","psycho","0","uniform","1","undefined","0","1","left","21","21","0","0","NA","21","0","21","0","21","21","21","21","0","21","0","NA","10/17/21 18:07:53","","yes","SternbergTask.osexp","C:/Users/mmcel/OneDrive/GRAD SCHOOL/fall 2021/Advanced Quant","no","mono","no","18","no","white","no","yes","768","psycho","9","11","C:/Users/mmcel/OneDrive/GRAD SCHOOL/fall 2021/Advanced Quant/sternberg/MM-Subject-1.csv","psycho","7 2 3","Lentiform Loewenfeld","3.3.9","3","y","0","left","right","right","left","left","NA","577.519600047","8776.37300012","1589.48129998","17884.2226001","577.519600047","NA","NA","NA","2","legacy","3","1024","2","48000","-16","experiment","1","odd","3","188133.2006","195268.6769","139566.3013","10525.9783","NA","194190.567","10602.3907999","195272.0811","121681.392","198067.8115","200071.0612","200649.4","196865.3782","19379.7996999","200070.9051","NA","NA","Sternberg Task","20","16390.3797003","22","yes","1024"
"91.3043478261","91.3043478261","746.131143492","746.131143492","black","experiment","psycho","psycho","psycho","0","uniform","1","undefined","0","1","left","22","22","0","0","NA","22","0","22","0","22","22","22","22","0","22","0","NA","10/17/21 18:07:53","","yes","SternbergTask.osexp","C:/Users/mmcel/OneDrive/GRAD SCHOOL/fall 2021/Advanced Quant","no","mono","no","18","no","white","no","yes","768","psycho","10","11","C:/Users/mmcel/OneDrive/GRAD SCHOOL/fall 2021/Advanced Quant/sternberg/MM-Subject-1.csv","psycho","3 4 9 6 2 9","Lentiform Loewenfeld","3.3.9","5","y","0","left","right","right","left","left","NA","770.636599977","8776.37300012","808.201499982","17884.2226001","770.636599977","NA","NA","NA","2","legacy","6","1024","2","48000","-16","experiment","1","odd","2","200758.8929","201840.5972","139566.3013","10525.9783","NA","194190.567","10602.3907999","201844.1185","121681.392","203859.5025","205862.3611","206633.7221","202656.2257","19379.7996999","205862.1176","NA","NA","Sternberg Task","21","17161.0163003","23","yes","1024"
"91.6666666667","91.6666666667","738.808316683","738.808316683","black","experiment","psycho","psycho","psycho","0","uniform","1","undefined","0","1","left","23","23","0","0","NA","23","0","23","0","23","23","23","23","0","23","0","NA","10/17/21 18:07:53","","yes","SternbergTask.osexp","C:/Users/mmcel/OneDrive/GRAD SCHOOL/fall 2021/Advanced Quant","no","mono","no","18","no","white","no","yes","768","psycho","11","11","C:/Users/mmcel/OneDrive/GRAD SCHOOL/fall 2021/Advanced Quant/sternberg/MM-Subject-1.csv","psycho","8 9 5 6 7","Lentiform Loewenfeld","3.3.9","1","y","0","left","right","right","left","left","NA","570.383300073","8776.37300012","371.008399874","17884.2226001","570.383300073","NA","NA","NA","2","legacy","5","1024","2","48000","-16","experiment","1","odd","8","206666.3961","207746.3247","139566.3013","10525.9783","NA","194190.567","10602.3907999","207749.8919","121681.392","209327.9618","211331.3548","211902.4751","208124.8814","19379.7996999","211331.1636","NA","NA","Sternberg Task","22","17731.3996004","24","yes","1024"
"92","92","738.076604018","738.076604018","black","experiment","psycho","psycho","psycho","0","uniform","1","undefined","0","1","left","24","24","0","0","NA","24","0","24","0","24","24","24","24","0","24","0","NA","10/17/21 18:07:53","","yes","SternbergTask.osexp","C:/Users/mmcel/OneDrive/GRAD SCHOOL/fall 2021/Advanced Quant","no","mono","no","18","no","white","no","yes","768","psycho","12","11","C:/Users/mmcel/OneDrive/GRAD SCHOOL/fall 2021/Advanced Quant/sternberg/MM-Subject-1.csv","psycho","7 8 4 6 9 5","Lentiform Loewenfeld","3.3.9","4","y","0","left","right","right","left","left","NA","720.515500056","8776.37300012","285.658200039","17884.2226001","720.515500056","NA","NA","NA","2","legacy","6","1024","2","48000","-16","experiment","1","odd","6","211947.4128","213028.0715","139566.3013","10525.9783","NA","194190.567","10602.3907999","213031.4567","121681.392","214524.0236","216527.3276","217248.6384","213321.0441","19379.7996999","216527.1533","NA","NA","Sternberg Task","23","18451.9151004","25","yes","1024"
"92.3076923077","92.3076923077","732.039046178","732.039046178","black","experiment","psycho","psycho","psycho","0","uniform","1","undefined","1","1","right","25","25","0","0","NA","25","0","25","0","25","25","25","25","0","25","0","NA","10/17/21 18:07:53","","yes","SternbergTask.osexp","C:/Users/mmcel/OneDrive/GRAD SCHOOL/fall 2021/Advanced Quant","no","mono","no","18","no","white","no","yes","768","psycho","13","11","C:/Users/mmcel/OneDrive/GRAD SCHOOL/fall 2021/Advanced Quant/sternberg/MM-Subject-1.csv","psycho","8 2 1 4 5 9","Lentiform Loewenfeld","3.3.9","0","n","0","right","right","right","left","right","NA","581.100100186","8776.37300012","833.013400203","17884.2226001","581.100100186","NA","NA","NA","2","legacy","6","1024","2","48000","-16","experiment","1","odd","7","217315.006","218394.7044","139566.3013","10525.9783","NA","194190.567","10602.3907999","218398.0185","121681.392","220437.6478","222441.7","223023.7757","219234.7154","19379.7996999","222441.5167","NA","NA","Sternberg Task","24","19033.0152006","26","yes","1024"
"92.5925925926","92.5925925926","731.732044472","731.732044472","black","experiment","psycho","psycho","psycho","0","uniform","1","undefined","1","1","right","26","26","0","0","NA","26","0","26","0","26","26","26","26","0","26","0","NA","10/17/21 18:07:53","","yes","SternbergTask.osexp","C:/Users/mmcel/OneDrive/GRAD SCHOOL/fall 2021/Advanced Quant","no","mono","no","18","no","white","no","yes","768","psycho","14","11","C:/Users/mmcel/OneDrive/GRAD SCHOOL/fall 2021/Advanced Quant/sternberg/MM-Subject-1.csv","psycho","8 4 3 9","Lentiform Loewenfeld","3.3.9","0","n","0","right","right","right","left","right","NA","723.750000121","8776.37300012","598.950100131","17884.2226001","723.750000121","NA","NA","NA","2","legacy","4","1024","2","48000","-16","experiment","1","odd","5","223069.1609","224153.6076","139566.3013","10525.9783","NA","194190.567","10602.3907999","224157.0463","121681.392","225963.3983","227966.6705","228691.2105","224760.1974","19379.7996999","227966.5128","NA","NA","Sternberg Task","25","19756.7652008","27","yes","1024"
"92.8571428571","92.8571428571","722.78624645","722.78624645","black","experiment","psycho","psycho","psycho","0","uniform","1","undefined","1","1","right","27","27","0","0","NA","27","0","27","0","27","27","27","27","0","27","0","NA","10/17/21 18:07:53","","yes","SternbergTask.osexp","C:/Users/mmcel/OneDrive/GRAD SCHOOL/fall 2021/Advanced Quant","no","mono","no","18","no","white","no","yes","768","psycho","15","11","C:/Users/mmcel/OneDrive/GRAD SCHOOL/fall 2021/Advanced Quant/sternberg/MM-Subject-1.csv","psycho","7 4 2 8 1 9","Lentiform Loewenfeld","3.3.9","0","n","0","right","right","right","left","right","NA","481.249699835","8776.37300012","1862.05570004","17884.2226001","481.249699835","NA","NA","NA","2","legacy","6","1024","2","48000","-16","experiment","1","odd","5","228723.5958","229803.4926","139566.3013","10525.9783","NA","194190.567","10602.3907999","229806.7902","121681.392","232875.6509","234879.4696","235361.6038","231672.8985","19379.7996999","234879.1953","NA","NA","Sternberg Task","26","20238.0149006","28","yes","1024"
"93.1034482759","93.1034482759","716.134293125","716.134293125","black","experiment","psycho","psycho","psycho","0","uniform","1","undefined","0","1","left","28","28","0","0","NA","28","0","28","0","28","28","28","28","0","28","0","NA","10/17/21 18:07:53","","yes","SternbergTask.osexp","C:/Users/mmcel/OneDrive/GRAD SCHOOL/fall 2021/Advanced Quant","no","mono","no","18","no","white","no","yes","768","psycho","16","11","C:/Users/mmcel/OneDrive/GRAD SCHOOL/fall 2021/Advanced Quant/sternberg/MM-Subject-1.csv","psycho","4 1 8 7 5","Lentiform Loewenfeld","3.3.9","3","y","0","left","right","right","left","left","NA","529.879600042","8776.37300012","424.894999946","17884.2226001","529.879600042","NA","NA","NA","2","legacy","5","1024","2","48000","-16","experiment","1","odd","8","235404.0233","236485.3473","139566.3013","10525.9783","NA","194190.567","10602.3907999","236488.8491","121681.392","238121.5071","240125.319","240655.9518","236917.5529","19379.7996999","240125.1476","NA","NA","Sternberg Task","27","20767.8945006","29","yes","1024"
"93.3333333333","93.3333333333","710.419763353","710.419763353","black","experiment","psycho","psycho","psycho","0","uniform","1","undefined","0","1","left","29","29","0","0","NA","29","0","29","0","29","29","29","29","0","29","0","NA","10/17/21 18:07:53","","yes","SternbergTask.osexp","C:/Users/mmcel/OneDrive/GRAD SCHOOL/fall 2021/Advanced Quant","no","mono","no","18","no","white","no","yes","768","psycho","17","11","C:/Users/mmcel/OneDrive/GRAD SCHOOL/fall 2021/Advanced Quant/sternberg/MM-Subject-1.csv","psycho","9 5 3 8 4","Lentiform Loewenfeld","3.3.9","1","y","0","left","right","right","left","left","NA","544.698399957","8776.37300012","528.03889988","17884.2226001","544.698399957","NA","NA","NA","2","legacy","5","1024","2","48000","-16","experiment","1","odd","9","240690.7038","241769.2996","139566.3013","10525.9783","NA","194190.567","10602.3907999","241772.6554","121681.392","243507.8461","245512.1092","246057.7051","242304.6792","19379.7996999","245511.9182","NA","NA","Sternberg Task","28","21312.5929006","30","yes","1024"
"93.5483870968","93.5483870968","706.431161304","706.431161304","black","experiment","psycho","psycho","psycho","0","uniform","1","undefined","1","1","right","30","30","0","0","NA","30","0","30","0","30","30","30","30","0","30","0","NA","10/17/21 18:07:53","","yes","SternbergTask.osexp","C:/Users/mmcel/OneDrive/GRAD SCHOOL/fall 2021/Advanced Quant","no","mono","no","18","no","white","no","yes","768","psycho","18","11","C:/Users/mmcel/OneDrive/GRAD SCHOOL/fall 2021/Advanced Quant/sternberg/MM-Subject-1.csv","psycho","4 2 6 9","Lentiform Loewenfeld","3.3.9","0","n","0","right","right","right","left","right","NA","586.773099843","8776.37300012","1424.26570016","17884.2226001","586.773099843","NA","NA","NA","2","legacy","4","1024","2","48000","-16","experiment","1","odd","7","246149.7057","247229.7927","139566.3013","10525.9783","NA","194190.567","10602.3907999","247233.0414","121681.392","249865.3632","251869.3609","252456.9184","248661.1628","19379.7996999","251869.1618","NA","NA","Sternberg Task","29","21899.3660004","31","yes","1024"
"93.75","93.75","698.743271889","698.743271889","black","experiment","psycho","psycho","psycho","0","uniform","1","undefined","0","1","left","31","31","0","0","NA","31","0","31","0","31","31","31","31","0","31","0","NA","10/17/21 18:07:53","","yes","SternbergTask.osexp","C:/Users/mmcel/OneDrive/GRAD SCHOOL/fall 2021/Advanced Quant","no","mono","no","18","no","white","no","yes","768","psycho","19","11","C:/Users/mmcel/OneDrive/GRAD SCHOOL/fall 2021/Advanced Quant/sternberg/MM-Subject-1.csv","psycho","9 4 2","Lentiform Loewenfeld","3.3.9","1","y","0","left","right","right","left","left","NA","460.418700008","8776.37300012","552.96030012","17884.2226001","460.418700008","NA","NA","NA","2","legacy","3","1024","2","48000","-16","experiment","1","odd","9","252504.7306","253585.188","139566.3013","10525.9783","NA","194190.567","10602.3907999","253588.6586","121681.392","255349.1374","257353.0694","257814.3123","254145.7958","19379.7996999","257352.913","NA","NA","Sternberg Task","30","22359.7847004","32","yes","1024"
"93.9393939394","93.9393939394","695.85795153","695.85795153","black","experiment","psycho","psycho","psycho","0","uniform","1","undefined","1","1","right","32","32","0","0","NA","32","0","32","0","32","32","32","32","0","32","0","NA","10/17/21 18:07:53","","yes","SternbergTask.osexp","C:/Users/mmcel/OneDrive/GRAD SCHOOL/fall 2021/Advanced Quant","no","mono","no","18","no","white","no","yes","768","psycho","20","11","C:/Users/mmcel/OneDrive/GRAD SCHOOL/fall 2021/Advanced Quant/sternberg/MM-Subject-1.csv","psycho","7 6 4 8 1 2","Lentiform Loewenfeld","3.3.9","0","n","0","right","right","right","left","right","NA","603.527700063","8776.37300012","300.80759991","17884.2226001","603.527700063","NA","NA","NA","2","legacy","6","1024","2","48000","-16","experiment","1","odd","9","257847.3295","258927.1864","139566.3013","10525.9783","NA","194190.567","10602.3907999","258930.8991","121681.392","260439.4725","262443.3004","263047.7342","259235.6491","19379.7996999","262443.0775","NA","NA","Sternberg Task","31","22963.3124005","33","yes","1024"
"94.1176470588","94.1176470588","690.072102958","690.072102958","black","experiment","psycho","psycho","psycho","0","uniform","1","undefined","1","1","right","33","33","0","0","NA","33","0","33","0","33","33","33","33","0","33","0","NA","10/17/21 18:07:53","","yes","SternbergTask.osexp","C:/Users/mmcel/OneDrive/GRAD SCHOOL/fall 2021/Advanced Quant","no","mono","no","18","no","white","no","yes","768","psycho","21","11","C:/Users/mmcel/OneDrive/GRAD SCHOOL/fall 2021/Advanced Quant/sternberg/MM-Subject-1.csv","psycho","8 4 3 5","Lentiform Loewenfeld","3.3.9","0","n","0","right","right","right","left","right","NA","499.13910008","8776.37300012","606.433699839","17884.2226001","499.13910008","NA","NA","NA","2","legacy","4","1024","2","48000","-16","experiment","1","odd","6","263067.5646","264151.4239","139566.3013","10525.9783","NA","194190.567","10602.3907999","264154.7953","121681.392","265968.8193","267972.0778","268472.1974","264765.3075","19379.7996999","267971.8749","NA","NA","Sternberg Task","32","23462.4515006","34","yes","1024"
"94.2857142857","94.2857142857","681.925128587","681.925128587","black","experiment","psycho","psycho","psycho","0","uniform","1","undefined","0","1","left","34","34","0","0","NA","34","0","34","0","34","34","34","34","0","34","0","NA","10/17/21 18:07:53","","yes","SternbergTask.osexp","C:/Users/mmcel/OneDrive/GRAD SCHOOL/fall 2021/Advanced Quant","no","mono","no","18","no","white","no","yes","768","psycho","22","11","C:/Users/mmcel/OneDrive/GRAD SCHOOL/fall 2021/Advanced Quant/sternberg/MM-Subject-1.csv","psycho","3 5 9 6 2 4","Lentiform Loewenfeld","3.3.9","1","y","0","left","right","right","left","left","NA","404.927999945","8776.37300012","551.466299919","17884.2226001","404.927999945","NA","NA","NA","2","legacy","6","1024","2","48000","-16","experiment","1","odd","3","268539.7365","269619.0129","139566.3013","10525.9783","NA","194190.567","10602.3907999","269622.6475","121681.392","271382.2111","273385.1507","273790.9171","270178.1473","19379.7996999","273384.9397","NA","NA","Sternberg Task","33","23867.3795005","35","yes","1024"
"94.4444444444","94.4444444444","674.254741681","674.254741681","black","experiment","psycho","psycho","psycho","0","uniform","1","undefined","0","1","left","35","35","0","0","NA","35","0","35","0","35","35","35","35","0","35","0","NA","10/17/21 18:07:53","","yes","SternbergTask.osexp","C:/Users/mmcel/OneDrive/GRAD SCHOOL/fall 2021/Advanced Quant","no","mono","no","18","no","white","no","yes","768","psycho","23","11","C:/Users/mmcel/OneDrive/GRAD SCHOOL/fall 2021/Advanced Quant/sternberg/MM-Subject-1.csv","psycho","4","Lentiform Loewenfeld","3.3.9","1","y","0","left","right","right","left","left","NA","405.791199999","8776.37300012","559.488400118","17884.2226001","405.791199999","NA","NA","NA","2","legacy","1","1024","2","48000","-16","experiment","1","odd","4","273826.4555","274913.8469","139566.3013","10525.9783","NA","194190.567","10602.3907999","274917.2873","121681.392","276683.8973","278687.2121","279093.835","275480.6002","19379.7996999","278686.9991","NA","NA","Sternberg Task","34","24273.1707005","36","yes","1024"
"94.5945945946","94.5945945946","674.348094608","674.348094608","black","experiment","psycho","psycho","psycho","0","uniform","1","undefined","1","1","right","36","36","0","0","NA","36","0","36","0","36","36","36","36","0","36","0","NA","10/17/21 18:07:53","","yes","SternbergTask.osexp","C:/Users/mmcel/OneDrive/GRAD SCHOOL/fall 2021/Advanced Quant","no","mono","no","18","no","white","no","yes","768","psycho","24","11","C:/Users/mmcel/OneDrive/GRAD SCHOOL/fall 2021/Advanced Quant/sternberg/MM-Subject-1.csv","psycho","4 2 7 6 1 3","Lentiform Loewenfeld","3.3.9","0","n","0","right","right","right","left","right","NA","677.708799951","8776.37300012","1232.49900015","17884.2226001","677.708799951","NA","NA","NA","2","legacy","6","1024","2","48000","-16","experiment","1","odd","8","279125.4635","280209.5812","139566.3013","10525.9783","NA","194190.567","10602.3907999","280213.1213","121681.392","282652.3014","284656.2037","285334.7511","281449.8761","19379.7996999","284655.9215","NA","NA","Sternberg Task","35","24950.8795005","37","yes","1024"
"94.7368421053","94.7368421053","673.219194752","673.219194752","black","experiment","psycho","psycho","psycho","0","uniform","1","undefined","1","1","right","37","37","0","0","NA","37","0","37","0","37","37","37","37","0","37","0","NA","10/17/21 18:07:53","","yes","SternbergTask.osexp","C:/Users/mmcel/OneDrive/GRAD SCHOOL/fall 2021/Advanced Quant","no","mono","no","18","no","white","no","yes","768","psycho","25","11","C:/Users/mmcel/OneDrive/GRAD SCHOOL/fall 2021/Advanced Quant/sternberg/MM-Subject-1.csv","psycho","9","Lentiform Loewenfeld","3.3.9","0","n","0","right","right","right","left","right","NA","631.449900102","8776.37300012","3340.57469992","17884.2226001","631.449900102","NA","NA","NA","2","legacy","1","1024","2","48000","-16","experiment","1","odd","6","285370.8457","286448.4196","139566.3013","10525.9783","NA","194190.567","10602.3907999","286452.0216","121681.392","290999.4564","293002.8976","293635.1861","289796.451","19379.7996999","293002.6867","NA","NA","Sternberg Task","36","25582.3294006","38","yes","1024"
"94.8717948718","94.8717948718","672.536482067","672.536482067","black","experiment","psycho","psycho","psycho","0","uniform","1","undefined","0","1","left","38","38","0","0","NA","38","0","38","0","38","38","38","38","0","38","0","NA","10/17/21 18:07:53","","yes","SternbergTask.osexp","C:/Users/mmcel/OneDrive/GRAD SCHOOL/fall 2021/Advanced Quant","no","mono","no","18","no","white","no","yes","768","psycho","26","11","C:/Users/mmcel/OneDrive/GRAD SCHOOL/fall 2021/Advanced Quant/sternberg/MM-Subject-1.csv","psycho","7 1 3","Lentiform Loewenfeld","3.3.9","2","y","0","left","right","right","left","left","NA","646.593400044","8776.37300012","2298.2363","17884.2226001","646.593400044","NA","NA","NA","2","legacy","3","1024","2","48000","-16","experiment","1","odd","1","293671.4541","294754.1343","139566.3013","10525.9783","NA","194190.567","10602.3907999","294757.5968","121681.392","298263.4682","300267.4319","300914.909","297059.6773","19379.7996999","300267.2022","NA","NA","Sternberg Task","37","26228.9228006","39","yes","1024"
"95","95","668.584122515","668.584122515","black","experiment","psycho","psycho","psycho","0","uniform","1","undefined","1","1","right","39","39","0","0","NA","39","0","39","0","39","39","39","39","0","39","0","NA","10/17/21 18:07:53","","yes","SternbergTask.osexp","C:/Users/mmcel/OneDrive/GRAD SCHOOL/fall 2021/Advanced Quant","no","mono","no","18","no","white","no","yes","768","psycho","27","11","C:/Users/mmcel/OneDrive/GRAD SCHOOL/fall 2021/Advanced Quant/sternberg/MM-Subject-1.csv","psycho","1 5 3 2 8","Lentiform Loewenfeld","3.3.9","0","n","0","right","right","right","left","right","NA","514.442099957","8776.37300012","504.283300135","17884.2226001","514.442099957","NA","NA","NA","2","legacy","5","1024","2","48000","-16","experiment","1","odd","4","300961.7357","302055.168","139566.3013","10525.9783","NA","194190.567","10602.3907999","302058.5318","121681.392","303770.6402","305773.7441","306290.162","302567.0977","19379.7996999","305773.5699","NA","NA","Sternberg Task","38","26743.3649006","40","yes","1024"
"95.1219512195","95.1219512195","666.658326841","666.658326841","black","experiment","psycho","psycho","psycho","0","uniform","1","undefined","0","1","left","40","40","0","0","NA","40","0","40","0","40","40","40","40","0","40","0","NA","10/17/21 18:07:53","","yes","SternbergTask.osexp","C:/Users/mmcel/OneDrive/GRAD SCHOOL/fall 2021/Advanced Quant","no","mono","no","18","no","white","no","yes","768","psycho","28","11","C:/Users/mmcel/OneDrive/GRAD SCHOOL/fall 2021/Advanced Quant/sternberg/MM-Subject-1.csv","psycho","3 9 7 6 4","Lentiform Loewenfeld","3.3.9","3","y","0","left","right","right","left","left","NA","589.626499917","8776.37300012","682.451900095","17884.2226001","589.626499917","NA","NA","NA","2","legacy","5","1024","2","48000","-16","experiment","1","odd","7","306327.186","307416.0155","139566.3013","10525.9783","NA","194190.567","10602.3907999","307419.3482","121681.392","309309.4512","311314.6283","311905.1581","308105.8421","19379.7996999","311314.3519","NA","NA","Sternberg Task","39","27332.9914005","41","yes","1024"
"95.2380952381","95.2380952381","662.680652397","662.680652397","black","experiment","psycho","psycho","psycho","0","uniform","1","undefined","1","1","right","41","41","0","0","NA","41","0","41","0","41","41","41","41","0","41","0","NA","10/17/21 18:07:53","","yes","SternbergTask.osexp","C:/Users/mmcel/OneDrive/GRAD SCHOOL/fall 2021/Advanced Quant","no","mono","no","18","no","white","no","yes","768","psycho","29","11","C:/Users/mmcel/OneDrive/GRAD SCHOOL/fall 2021/Advanced Quant/sternberg/MM-Subject-1.csv","psycho","2 6 4 3 9","Lentiform Loewenfeld","3.3.9","0","n","0","right","right","right","left","right","NA","499.596000183","8776.37300012","782.896199962","17884.2226001","499.596000183","NA","NA","NA","2","legacy","5","1024","2","48000","-16","experiment","1","odd","1","312031.2151","313111.3659","139566.3013","10525.9783","NA","194190.567","10602.3907999","313114.6689","121681.392","315105.6299","317109.1994","317609.6842","313901.8984","19379.7996999","317108.9916","NA","NA","Sternberg Task","40","27832.5874007","42","yes","1024"
"95.3488372093","95.3488372093","657.890816295","657.890816295","black","experiment","psycho","psycho","psycho","0","uniform","1","undefined","1","1","right","42","42","0","0","NA","42","0","42","0","42","42","42","42","0","42","0","NA","10/17/21 18:07:53","","yes","SternbergTask.osexp","C:/Users/mmcel/OneDrive/GRAD SCHOOL/fall 2021/Advanced Quant","no","mono","no","18","no","white","no","yes","768","psycho","30","11","C:/Users/mmcel/OneDrive/GRAD SCHOOL/fall 2021/Advanced Quant/sternberg/MM-Subject-1.csv","psycho","9 8 2 7 4","Lentiform Loewenfeld","3.3.9","0","n","0","right","right","right","left","right","NA","456.717699999","8776.37300012","311.051999917","17884.2226001","456.717699999","NA","NA","NA","2","legacy","5","1024","2","48000","-16","experiment","1","odd","5","317698.2652","318784.0392","139566.3013","10525.9783","NA","194190.567","10602.3907999","318787.5075","121681.392","320307.0764","322310.1347","322767.7659","319102.7305","19379.7996999","322309.9754","NA","NA","Sternberg Task","41","28289.3051007","43","yes","1024"
"95.4545454545","95.4545454545","652.975270472","652.975270472","black","experiment","psycho","psycho","psycho","0","uniform","1","undefined","1","1","right","43","43","0","0","NA","43","0","43","0","43","43","43","43","0","43","0","NA","10/17/21 18:07:53","","yes","SternbergTask.osexp","C:/Users/mmcel/OneDrive/GRAD SCHOOL/fall 2021/Advanced Quant","no","mono","no","18","no","white","no","yes","768","psycho","31","11","C:/Users/mmcel/OneDrive/GRAD SCHOOL/fall 2021/Advanced Quant/sternberg/MM-Subject-1.csv","psycho","9 5 3 2 8 6","Lentiform Loewenfeld","3.3.9","0","n","0","right","right","right","left","right","NA","441.606800072","8776.37300012","368.156200042","17884.2226001","441.606800072","NA","NA","NA","2","legacy","6","1024","2","48000","-16","experiment","1","odd","7","322876.5478","323956.104","139566.3013","10525.9783","NA","194190.567","10602.3907999","323959.6047","121681.392","325535.8835","327539.5949","327982.2956","324332.1183","19379.7996999","327539.4138","NA","NA","Sternberg Task","42","28730.9119008","44","yes","1024"
"95.5555555556","95.5555555556","649.391424464","649.391424464","black","experiment","psycho","psycho","psycho","0","uniform","1","undefined","1","1","right","44","44","0","0","NA","44","0","44","0","44","44","44","44","0","44","0","NA","10/17/21 18:07:53","","yes","SternbergTask.osexp","C:/Users/mmcel/OneDrive/GRAD SCHOOL/fall 2021/Advanced Quant","no","mono","no","18","no","white","no","yes","768","psycho","32","11","C:/Users/mmcel/OneDrive/GRAD SCHOOL/fall 2021/Advanced Quant/sternberg/MM-Subject-1.csv","psycho","7 1 8 4 9 3","Lentiform Loewenfeld","3.3.9","0","n","0","right","right","right","left","right","NA","491.702200146","8776.37300012","2136.19660004","17884.2226001","491.702200146","NA","NA","NA","2","legacy","6","1024","2","48000","-16","experiment","1","odd","6","328084.6899","329166.5818","139566.3013","10525.9783","NA","194190.567","10602.3907999","329170.065","121681.392","332514.549","334518.0715","335010.749","331310.4667","19379.7996999","334517.832","NA","NA","Sternberg Task","43","29222.6141009","45","yes","1024"
"95.652173913","95.652173913","643.471702194","643.471702194","black","experiment","psycho","psycho","psycho","0","uniform","1","undefined","1","1","right","45","45","0","0","NA","45","0","45","0","45","45","45","45","0","45","0","NA","10/17/21 18:07:53","","yes","SternbergTask.osexp","C:/Users/mmcel/OneDrive/GRAD SCHOOL/fall 2021/Advanced Quant","no","mono","no","18","no","white","no","yes","768","psycho","33","11","C:/Users/mmcel/OneDrive/GRAD SCHOOL/fall 2021/Advanced Quant/sternberg/MM-Subject-1.csv","psycho","3 9 1","Lentiform Loewenfeld","3.3.9","0","n","0","right","right","right","left","right","NA","377.084200038","8776.37300012","571.147900075","17884.2226001","377.084200038","NA","NA","NA","2","legacy","3","1024","2","48000","-16","experiment","1","odd","7","335143.736","336226.5335","139566.3013","10525.9783","NA","194190.567","10602.3907999","336230.0587","121681.392","338008.7408","340012.1966","340390.2265","336805.4028","19379.7996999","340012.0161","NA","NA","Sternberg Task","44","29599.6983009","46","yes","1024"
"95.7446808511","95.7446808511","638.284485128","638.284485128","black","experiment","psycho","psycho","psycho","0","uniform","1","undefined","0","1","left","46","46","0","0","NA","46","0","46","0","46","46","46","46","0","46","0","NA","10/17/21 18:07:53","","yes","SternbergTask.osexp","C:/Users/mmcel/OneDrive/GRAD SCHOOL/fall 2021/Advanced Quant","no","mono","no","18","no","white","no","yes","768","psycho","34","11","C:/Users/mmcel/OneDrive/GRAD SCHOOL/fall 2021/Advanced Quant/sternberg/MM-Subject-1.csv","psycho","4 6 5 8","Lentiform Loewenfeld","3.3.9","1","y","0","left","right","right","left","left","NA","399.672500091","8776.37300012","3710.66129999","17884.2226001","399.672500091","NA","NA","NA","2","legacy","4","1024","2","48000","-16","experiment","1","odd","4","340432.5066","341515.7737","139566.3013","10525.9783","NA","194190.567","10602.3907999","341519.2222","121681.392","346436.812","348441.0237","348841.6544","345233.9123","19379.7996999","348440.8505","NA","NA","Sternberg Task","45","29999.370801","47","yes","1024"
"95.8333333333","95.8333333333","638.912552104","638.912552104","black","experiment","psycho","psycho","psycho","0","uniform","1","undefined","0","1","left","47","47","0","0","NA","47","0","47","0","47","47","47","47","0","47","0","NA","10/17/21 18:07:53","","yes","SternbergTask.osexp","C:/Users/mmcel/OneDrive/GRAD SCHOOL/fall 2021/Advanced Quant","no","mono","no","18","no","white","no","yes","768","psycho","35","11","C:/Users/mmcel/OneDrive/GRAD SCHOOL/fall 2021/Advanced Quant/sternberg/MM-Subject-1.csv","psycho","2 4 6 9","Lentiform Loewenfeld","3.3.9","3","y","0","left","right","right","left","left","NA","668.431699974","8776.37300012","871.909300098","17884.2226001","668.431699974","NA","NA","NA","2","legacy","4","1024","2","48000","-16","experiment","1","odd","6","348922.8627","350006.7908","139566.3013","10525.9783","NA","194190.567","10602.3907999","350010.1783","121681.392","352090.6767","354094.362","354763.8565","350886.4071","19379.7996999","354094.1557","NA","NA","Sternberg Task","46","30667.802501","48","yes","1024"
"95.9183673469","95.9183673469","639.582979612","639.582979612","black","experiment","psycho","psycho","psycho","0","uniform","1","undefined","0","1","left","48","48","0","0","NA","48","0","48","0","48","48","48","48","0","48","0","NA","10/17/21 18:07:53","","yes","SternbergTask.osexp","C:/Users/mmcel/OneDrive/GRAD SCHOOL/fall 2021/Advanced Quant","no","mono","no","18","no","white","no","yes","768","psycho","36","11","C:/Users/mmcel/OneDrive/GRAD SCHOOL/fall 2021/Advanced Quant/sternberg/MM-Subject-1.csv","psycho","9 8 4","Lentiform Loewenfeld","3.3.9","1","y","0","left","right","right","left","left","NA","671.763499966","8776.37300012","735.238900175","17884.2226001","671.763499966","NA","NA","NA","2","legacy","3","1024","2","48000","-16","experiment","1","odd","9","354796.6937","355880.6222","139566.3013","10525.9783","NA","194190.567","10602.3907999","355884.0894","121681.392","357827.1332","359831.3101","360504.0517","356623.4843","19379.7996999","359831.1396","NA","NA","Sternberg Task","47","31339.566001","49","yes","1024"
"96","96","635.451110019","635.451110019","black","experiment","psycho","psycho","psycho","0","uniform","1","undefined","1","1","right","49","49","0","0","NA","49","0","49","0","49","49","49","49","0","49","0","NA","10/17/21 18:07:53","","yes","SternbergTask.osexp","C:/Users/mmcel/OneDrive/GRAD SCHOOL/fall 2021/Advanced Quant","no","mono","no","18","no","white","no","yes","768","psycho","37","11","C:/Users/mmcel/OneDrive/GRAD SCHOOL/fall 2021/Advanced Quant/sternberg/MM-Subject-1.csv","psycho","6 9 4 5 2","Lentiform Loewenfeld","3.3.9","0","n","0","right","right","right","left","right","NA","432.989499997","8776.37300012","576.173699927","17884.2226001","432.989499997","NA","NA","NA","2","legacy","5","1024","2","48000","-16","experiment","1","odd","1","360530.1446","361610.2299","139566.3013","10525.9783","NA","194190.567","10602.3907999","361613.7307","121681.392","363397.3976","365400.773","365835.5185","362194.2495","19379.7996999","365400.5935","NA","NA","Sternberg Task","48","31772.555501","50","yes","1024"
"96.0784313725","96.0784313725","632.885135313","632.885135313","black","experiment","psycho","psycho","psycho","0","uniform","1","undefined","1","1","right","50","50","0","0","NA","50","0","50","0","50","50","50","50","0","50","0","NA","10/17/21 18:07:53","","yes","SternbergTask.osexp","C:/Users/mmcel/OneDrive/GRAD SCHOOL/fall 2021/Advanced Quant","no","mono","no","18","no","white","no","yes","768","psycho","38","11","C:/Users/mmcel/OneDrive/GRAD SCHOOL/fall 2021/Advanced Quant/sternberg/MM-Subject-1.csv","psycho","2 8 6 3 1","Lentiform Loewenfeld","3.3.9","0","n","0","right","right","right","left","right","NA","504.586399999","8776.37300012","585.213600192","17884.2226001","504.586399999","NA","NA","NA","2","legacy","5","1024","2","48000","-16","experiment","1","odd","7","365863.2108","366941.1422","139566.3013","10525.9783","NA","194190.567","10602.3907999","366944.6201","121681.392","368736.568","370741.1818","371246.9407","367534.0679","19379.7996999","370740.9954","NA","NA","Sternberg Task","49","32277.141901","51","yes","1024"
"96.1538461538","96.1538461538","631.904421173","631.904421173","black","experiment","psycho","psycho","psycho","0","uniform","1","undefined","0","1","left","51","51","0","0","NA","51","0","51","0","51","51","51","51","0","51","0","NA","10/17/21 18:07:53","","yes","SternbergTask.osexp","C:/Users/mmcel/OneDrive/GRAD SCHOOL/fall 2021/Advanced Quant","no","mono","no","18","no","white","no","yes","768","psycho","39","11","C:/Users/mmcel/OneDrive/GRAD SCHOOL/fall 2021/Advanced Quant/sternberg/MM-Subject-1.csv","psycho","6 1 2","Lentiform Loewenfeld","3.3.9","3","y","0","left","right","right","left","left","NA","581.888000015","8776.37300012","785.560300108","17884.2226001","581.888000015","NA","NA","NA","2","legacy","3","1024","2","48000","-16","experiment","1","odd","2","371275.1333","372354.2203","139566.3013","10525.9783","NA","194190.567","10602.3907999","372357.4694","121681.392","374350.7093","376354.278","376937.3043","373147.9685","19379.7996999","376354.0098","NA","NA","Sternberg Task","50","32859.029901","52","yes","1024"
"96.2264150943","96.2264150943","629.008575488","629.008575488","black","experiment","psycho","psycho","psycho","0","uniform","1","undefined","1","1","right","52","52","0","0","NA","52","0","52","0","52","52","52","52","0","52","0","NA","10/17/21 18:07:53","","yes","SternbergTask.osexp","C:/Users/mmcel/OneDrive/GRAD SCHOOL/fall 2021/Advanced Quant","no","mono","no","18","no","white","no","yes","768","psycho","40","11","C:/Users/mmcel/OneDrive/GRAD SCHOOL/fall 2021/Advanced Quant/sternberg/MM-Subject-1.csv","psycho","1 7 5 2 9","Lentiform Loewenfeld","3.3.9","0","n","0","right","right","right","left","right","NA","478.42459986","8776.37300012","433.657699963","17884.2226001","478.42459986","NA","NA","NA","2","legacy","5","1024","2","48000","-16","experiment","1","odd","3","377034.7207","378115.0581","139566.3013","10525.9783","NA","194190.567","10602.3907999","378118.4528","121681.392","379760.0201","381764.1679","382243.5864","378556.642","19379.7996999","381763.98","NA","NA","Sternberg Task","51","33337.4545008","53","yes","1024"
"96.2962962963","96.2962962963","628.645309273","628.645309273","black","experiment","psycho","psycho","psycho","0","uniform","1","undefined","1","1","right","53","53","0","0","NA","53","0","53","0","53","53","53","53","0","53","0","NA","10/17/21 18:07:53","","yes","SternbergTask.osexp","C:/Users/mmcel/OneDrive/GRAD SCHOOL/fall 2021/Advanced Quant","no","mono","no","18","no","white","no","yes","768","psycho","41","11","C:/Users/mmcel/OneDrive/GRAD SCHOOL/fall 2021/Advanced Quant/sternberg/MM-Subject-1.csv","psycho","1 4 3 6 5","Lentiform Loewenfeld","3.3.9","0","n","0","right","right","right","left","right","NA","609.392199898","8776.37300012","623.094399925","17884.2226001","609.392199898","NA","NA","NA","2","legacy","5","1024","2","48000","-16","experiment","1","odd","8","382323.5218","383407.6667","139566.3013","10525.9783","NA","194190.567","10602.3907999","383411.3399","121681.392","385241.4342","387245.112","387855.5442","384038.6992","19379.7996999","387244.9408","NA","NA","Sternberg Task","52","33946.8467007","54","yes","1024"
"96.3636363636","96.3636363636","626.217934557","626.217934557","black","experiment","psycho","psycho","psycho","0","uniform","1","undefined","1","1","right","54","54","0","0","NA","54","0","54","0","54","54","54","54","0","54","0","NA","10/17/21 18:07:53","","yes","SternbergTask.osexp","C:/Users/mmcel/OneDrive/GRAD SCHOOL/fall 2021/Advanced Quant","no","mono","no","18","no","white","no","yes","768","psycho","42","11","C:/Users/mmcel/OneDrive/GRAD SCHOOL/fall 2021/Advanced Quant/sternberg/MM-Subject-1.csv","psycho","3 9 8 1 6 4","Lentiform Loewenfeld","3.3.9","0","n","0","right","right","right","left","right","NA","495.139699895","8776.37300012","395.800800063","17884.2226001","495.139699895","NA","NA","NA","2","legacy","6","1024","2","48000","-16","experiment","1","odd","7","387887.8599","388968.3891","139566.3013","10525.9783","NA","194190.567","10602.3907999","388971.7916","121681.392","390574.6262","392578.6138","393074.8224","389371.8176","19379.7996999","392578.4222","NA","NA","Sternberg Task","53","34441.9864006","55","yes","1024"
"96.4285714286","96.4285714286","621.823725012","621.823725012","black","experiment","psycho","psycho","psycho","0","uniform","1","undefined","1","1","right","55","55","0","0","NA","55","0","55","0","55","55","55","55","0","55","0","NA","10/17/21 18:07:53","","yes","SternbergTask.osexp","C:/Users/mmcel/OneDrive/GRAD SCHOOL/fall 2021/Advanced Quant","no","mono","no","18","no","white","no","yes","768","psycho","43","11","C:/Users/mmcel/OneDrive/GRAD SCHOOL/fall 2021/Advanced Quant/sternberg/MM-Subject-1.csv","psycho","5 7 3","Lentiform Loewenfeld","3.3.9","0","n","0","right","right","right","left","right","NA","380.14220004","8776.37300012","368.23579995","17884.2226001","380.14220004","NA","NA","NA","2","legacy","3","1024","2","48000","-16","experiment","1","odd","9","393112.1706","394195.4308","139566.3013","10525.9783","NA","194190.567","10602.3907999","394198.9185","121681.392","395775.1805","397779.5054","398160.7465","394571.6598","19379.7996999","397779.3135","NA","NA","Sternberg Task","54","34822.1286007","56","yes","1024"
"96.4912280702","96.4912280702","618.438508782","618.438508782","black","experiment","psycho","psycho","psycho","0","uniform","1","undefined","0","1","left","56","56","0","0","NA","56","0","56","0","56","56","56","56","0","56","0","NA","10/17/21 18:07:53","","yes","SternbergTask.osexp","C:/Users/mmcel/OneDrive/GRAD SCHOOL/fall 2021/Advanced Quant","no","mono","no","18","no","white","no","yes","768","psycho","44","11","C:/Users/mmcel/OneDrive/GRAD SCHOOL/fall 2021/Advanced Quant/sternberg/MM-Subject-1.csv","psycho","2 3","Lentiform Loewenfeld","3.3.9","1","y","0","left","right","right","left","left","NA","428.866399918","8776.37300012","527.717399877","17884.2226001","428.866399918","NA","NA","NA","2","legacy","2","1024","2","48000","-16","experiment","1","odd","2","398199.4501","399279.0426","139566.3013","10525.9783","NA","194190.567","10602.3907999","399282.4589","121681.392","401017.7739","403021.0404","403451.1916","399814.578","19379.7996999","403020.8595","NA","NA","Sternberg Task","55","35250.9950006","57","yes","1024"
"96.5517241379","96.5517241379","616.163822425","616.163822425","black","experiment","psycho","psycho","psycho","0","uniform","1","undefined","0","1","left","57","57","0","0","NA","57","0","57","0","57","57","57","57","0","57","0","NA","10/17/21 18:07:53","","yes","SternbergTask.osexp","C:/Users/mmcel/OneDrive/GRAD SCHOOL/fall 2021/Advanced Quant","no","mono","no","18","no","white","no","yes","768","psycho","45","11","C:/Users/mmcel/OneDrive/GRAD SCHOOL/fall 2021/Advanced Quant/sternberg/MM-Subject-1.csv","psycho","2 6 1 7 4","Lentiform Loewenfeld","3.3.9","2","y","0","left","right","right","left","left","NA","486.50670005","8776.37300012","746.918499935","17884.2226001","486.50670005","NA","NA","NA","2","legacy","5","1024","2","48000","-16","experiment","1","odd","6","403546.7103","404624.5993","139566.3013","10525.9783","NA","194190.567","10602.3907999","404628.2515","121681.392","406583.5195","408587.6024","409075.1993","405380.2248","19379.7996999","408587.3974","NA","NA","Sternberg Task","56","35737.5017006","58","yes","1024"
"94.9152542373","94.9152542373","612.049632212","612.049632212","black","experiment","psycho","psycho","psycho","0","uniform","0","undefined","0","0","left","58","58","0","0","NA","58","0","58","0","58","58","58","58","0","58","0","NA","10/17/21 18:07:53","","yes","SternbergTask.osexp","C:/Users/mmcel/OneDrive/GRAD SCHOOL/fall 2021/Advanced Quant","no","mono","no","18","no","white","no","yes","768","psycho","46","11","C:/Users/mmcel/OneDrive/GRAD SCHOOL/fall 2021/Advanced Quant/sternberg/MM-Subject-1.csv","psycho","7","Lentiform Loewenfeld","3.3.9","1","y","0","right","right","right","left","right","NA","373.426599894","8776.37300012","574.649600079","17884.2226001","373.426599894","NA","NA","NA","2","legacy","1","1024","2","48000","-16","experiment","1","odd","7","409146.9252","410225.0221","139566.3013","10525.9783","NA","194190.567","10602.3907999","410228.666","121681.392","412013.2064","414016.4035","414391.0449","410809.2059","19379.7996999","414016.224","NA","NA","Sternberg Task","56","36110.9283005","59","yes","1024"
"95","95","613.438016677","613.438016677","black","experiment","psycho","psycho","psycho","0","uniform","1","undefined","0","1","left","59","59","0","0","NA","59","0","59","0","59","59","59","59","0","59","0","NA","10/17/21 18:07:53","","yes","SternbergTask.osexp","C:/Users/mmcel/OneDrive/GRAD SCHOOL/fall 2021/Advanced Quant","no","mono","no","18","no","white","no","yes","768","psycho","47","11","C:/Users/mmcel/OneDrive/GRAD SCHOOL/fall 2021/Advanced Quant/sternberg/MM-Subject-1.csv","psycho","8 9 5 7 1 6","Lentiform Loewenfeld","3.3.9","4","y","0","left","right","right","left","left","NA","695.352700073","8776.37300012","593.161399942","17884.2226001","695.352700073","NA","NA","NA","2","legacy","6","1024","2","48000","-16","experiment","1","odd","7","409146.9252","415519.3092","139566.3013","10525.9783","NA","414432.9725","10602.3907999","415522.7652","121681.392","417323.7004","419327.5081","420023.9648","416120.2476","19379.7996999","419327.311","NA","NA","Sternberg Task","57","36806.2810006","60","yes","1024"
"95.0819672131","95.0819672131","610.861795092","610.861795092","black","experiment","psycho","psycho","psycho","0","uniform","1","undefined","0","1","left","60","60","0","0","NA","60","0","60","0","60","60","60","60","0","60","0","NA","10/17/21 18:07:53","","yes","SternbergTask.osexp","C:/Users/mmcel/OneDrive/GRAD SCHOOL/fall 2021/Advanced Quant","no","mono","no","18","no","white","no","yes","768","psycho","48","11","C:/Users/mmcel/OneDrive/GRAD SCHOOL/fall 2021/Advanced Quant/sternberg/MM-Subject-1.csv","psycho","9 1 7 2","Lentiform Loewenfeld","3.3.9","2","y","0","left","right","right","left","left","NA","456.28849999","8776.37300012","690.071400022","17884.2226001","456.28849999","NA","NA","NA","2","legacy","4","1024","2","48000","-16","experiment","1","odd","1","420055.1739","421136.2675","139566.3013","10525.9783","NA","414432.9725","10602.3907999","421139.7503","121681.392","423038.1647","425041.5978","425499.1909","421834.3438","19379.7996999","425041.4084","NA","NA","Sternberg Task","58","37262.5695006","61","yes","1024"
"95.1612903226","95.1612903226","608.899708075","608.899708075","black","experiment","psycho","psycho","psycho","0","uniform","1","undefined","0","1","left","61","61","0","0","NA","61","0","61","0","61","61","61","61","0","61","0","NA","10/17/21 18:07:53","","yes","SternbergTask.osexp","C:/Users/mmcel/OneDrive/GRAD SCHOOL/fall 2021/Advanced Quant","no","mono","no","18","no","white","no","yes","768","psycho","49","11","C:/Users/mmcel/OneDrive/GRAD SCHOOL/fall 2021/Advanced Quant/sternberg/MM-Subject-1.csv","psycho","9 3 1 2 5","Lentiform Loewenfeld","3.3.9","4","y","0","left","right","right","left","left","NA","489.212400047","8776.37300012","375.945799984","17884.2226001","489.212400047","NA","NA","NA","2","legacy","5","1024","2","48000","-16","experiment","1","odd","2","425533.321","426629.1729","139566.3013","10525.9783","NA","414432.9725","10602.3907999","426632.5259","121681.392","428215.5722","430220.0874","430710.413","427012.6351","19379.7996999","430219.914","NA","NA","Sternberg Task","59","37751.7819006","62","yes","1024"
"95.2380952381","95.2380952381","605.02345874","605.02345874","black","experiment","psycho","psycho","psycho","0","uniform","1","undefined","0","1","left","62","62","0","0","NA","62","0","62","0","62","62","62","62","0","62","0","NA","10/17/21 18:07:53","","yes","SternbergTask.osexp","C:/Users/mmcel/OneDrive/GRAD SCHOOL/fall 2021/Advanced Quant","no","mono","no","18","no","white","no","yes","768","psycho","50","11","C:/Users/mmcel/OneDrive/GRAD SCHOOL/fall 2021/Advanced Quant/sternberg/MM-Subject-1.csv","psycho","8","Lentiform Loewenfeld","3.3.9","1","y","0","left","right","right","left","left","NA","364.696000004","8776.37300012","537.785300054","17884.2226001","364.696000004","NA","NA","NA","2","legacy","1","1024","2","48000","-16","experiment","1","odd","8","430782.5866","431860.7431","139566.3013","10525.9783","NA","414432.9725","10602.3907999","431864.2156","121681.392","433609.1654","435612.9935","435978.8593","432406.2544","19379.7996999","435612.8184","NA","NA","Sternberg Task","60","38116.4779007","63","yes","1024"
"95.3125","95.3125","608.1695297","608.1695297","black","experiment","psycho","psycho","psycho","0","uniform","1","undefined","0","1","left","63","63","0","0","NA","63","0","63","0","63","63","63","63","0","63","0","NA","10/17/21 18:07:53","","yes","SternbergTask.osexp","C:/Users/mmcel/OneDrive/GRAD SCHOOL/fall 2021/Advanced Quant","no","mono","no","18","no","white","no","yes","768","psycho","51","11","C:/Users/mmcel/OneDrive/GRAD SCHOOL/fall 2021/Advanced Quant/sternberg/MM-Subject-1.csv","psycho","6 9 7 4 5 1","Lentiform Loewenfeld","3.3.9","2","y","0","left","right","right","left","left","NA","806.372000137","8776.37300012","617.728899932","17884.2226001","806.372000137","NA","NA","NA","2","legacy","6","1024","2","48000","-16","experiment","1","odd","9","436011.3914","437094.7582","139566.3013","10525.9783","NA","414432.9725","10602.3907999","437098.2942","121681.392","438924.1545","440928.2502","441735.8228","437720.5933","19379.7996999","440928.0273","NA","NA","Sternberg Task","61","38922.8499008","64","yes","1024"
"95.3846153846","95.3846153846","607.884707703","607.884707703","black","experiment","psycho","psycho","psycho","0","uniform","1","undefined","0","1","right","64","64","0","0","NA","64","0","64","0","64","64","64","64","0","64","0","NA","10/17/21 18:07:53","","yes","SternbergTask.osexp","C:/Users/mmcel/OneDrive/GRAD SCHOOL/fall 2021/Advanced Quant","no","mono","no","18","no","white","no","yes","768","psycho","52","11","C:/Users/mmcel/OneDrive/GRAD SCHOOL/fall 2021/Advanced Quant/sternberg/MM-Subject-1.csv","psycho","6 9 5","Lentiform Loewenfeld","3.3.9","0","n","0","right","right","left","left","right","NA","589.65609991","8776.37300012","424.963400001","17884.2226001","589.65609991","NA","NA","NA","2","legacy","3","1024","2","48000","-16","experiment","1","odd","8","441778.6404","442860.1352","139566.3013","10525.9783","NA","414432.9725","10602.3907999","442863.2766","121681.392","444495.8356","446499.639","447090.4558","443292.896","19379.7996999","446499.4769","NA","NA","Sternberg Task","62","39512.5060007","65","yes","1024"
"95.4545454545","95.4545454545","606.714931828","606.714931828","black","experiment","psycho","psycho","psycho","0","uniform","1","undefined","0","1","left","65","65","0","0","NA","65","0","65","0","65","65","65","65","0","65","0","NA","10/17/21 18:07:53","","yes","SternbergTask.osexp","C:/Users/mmcel/OneDrive/GRAD SCHOOL/fall 2021/Advanced Quant","no","mono","no","18","no","white","no","yes","768","psycho","53","11","C:/Users/mmcel/OneDrive/GRAD SCHOOL/fall 2021/Advanced Quant/sternberg/MM-Subject-1.csv","psycho","8 5 4 7 3 1","Lentiform Loewenfeld","3.3.9","2","y","0","left","right","right","left","left","NA","530.679499963","8776.37300012","585.398599971","17884.2226001","530.679499963","NA","NA","NA","2","legacy","6","1024","2","48000","-16","experiment","1","odd","5","447118.8054","448198.9989","139566.3013","10525.9783","NA","414432.9725","10602.3907999","448202.4413","121681.392","449995.2711","451999.3896","452531.3355","448792.2643","19379.7996999","451999.2268","NA","NA","Sternberg Task","63","40043.1855007","66","yes","1024"
"95.5223880597","95.5223880597","605.186519411","605.186519411","black","experiment","psycho","psycho","psycho","0","uniform","1","undefined","1","1","right","66","66","0","0","NA","66","0","66","0","66","66","66","66","0","66","0","NA","10/17/21 18:07:53","","yes","SternbergTask.osexp","C:/Users/mmcel/OneDrive/GRAD SCHOOL/fall 2021/Advanced Quant","no","mono","no","18","no","white","no","yes","768","psycho","54","11","C:/Users/mmcel/OneDrive/GRAD SCHOOL/fall 2021/Advanced Quant/sternberg/MM-Subject-1.csv","psycho","8 5 4 2 9 6","Lentiform Loewenfeld","3.3.9","0","n","0","right","right","right","left","right","NA","504.311299883","8776.37300012","568.254799815","17884.2226001","504.311299883","NA","NA","NA","2","legacy","6","1024","2","48000","-16","experiment","1","odd","3","452608.4504","453692.9315","139566.3013","10525.9783","NA","414432.9725","10602.3907999","453696.462","121681.392","455473.0531","457476.2056","457982.0638","454269.27","19379.7996999","457475.9929","NA","NA","Sternberg Task","64","40547.4968005","67","yes","1024"
"95.5882352941","95.5882352941","604.604738244","604.604738244","black","experiment","psycho","psycho","psycho","0","uniform","1","undefined","1","1","right","67","67","0","0","NA","67","0","67","0","67","67","67","67","0","67","0","NA","10/17/21 18:07:53","","yes","SternbergTask.osexp","C:/Users/mmcel/OneDrive/GRAD SCHOOL/fall 2021/Advanced Quant","no","mono","no","18","no","white","no","yes","768","psycho","55","11","C:/Users/mmcel/OneDrive/GRAD SCHOOL/fall 2021/Advanced Quant/sternberg/MM-Subject-1.csv","psycho","2 7 5","Lentiform Loewenfeld","3.3.9","0","n","0","right","right","right","left","right","NA","565.62540005","8776.37300012","666.7839","17884.2226001","565.62540005","NA","NA","NA","2","legacy","3","1024","2","48000","-16","experiment","1","odd","8","458030.8312","459115.4575","139566.3013","10525.9783","NA","414432.9725","10602.3907999","459118.8487","121681.392","460993.3375","462996.6162","463563.7806","459790.0117","19379.7996999","462996.4406","NA","NA","Sternberg Task","65","41113.1222006","68","yes","1024"
"95.652173913","95.652173913","603.310498561","603.310498561","black","experiment","psycho","psycho","psycho","0","uniform","1","undefined","1","1","right","68","68","0","0","NA","68","0","68","0","68","68","68","68","0","68","0","NA","10/17/21 18:07:53","","yes","SternbergTask.osexp","C:/Users/mmcel/OneDrive/GRAD SCHOOL/fall 2021/Advanced Quant","no","mono","no","18","no","white","no","yes","768","psycho","56","11","C:/Users/mmcel/OneDrive/GRAD SCHOOL/fall 2021/Advanced Quant/sternberg/MM-Subject-1.csv","psycho","8 6 3 4 7","Lentiform Loewenfeld","3.3.9","0","n","0","right","right","right","left","right","NA","515.302200103","8776.37300012","745.516800089","17884.2226001","515.302200103","NA","NA","NA","2","legacy","5","1024","2","48000","-16","experiment","1","odd","1","463628.2457","464708.8406","139566.3013","10525.9783","NA","414432.9725","10602.3907999","464712.1622","121681.392","466665.7373","468669.0786","469185.5718","465462.0871","19379.7996999","468668.9358","NA","NA","Sternberg Task","66","41628.4244007","69","yes","1024"
"95.7142857143","95.7142857143","602.751265726","602.751265726","black","experiment","psycho","psycho","psycho","0","uniform","1","undefined","1","1","right","69","69","0","0","NA","69","0","69","0","69","69","69","69","0","69","0","NA","10/17/21 18:07:53","","yes","SternbergTask.osexp","C:/Users/mmcel/OneDrive/GRAD SCHOOL/fall 2021/Advanced Quant","no","mono","no","18","no","white","no","yes","768","psycho","57","11","C:/Users/mmcel/OneDrive/GRAD SCHOOL/fall 2021/Advanced Quant/sternberg/MM-Subject-1.csv","psycho","2 5 1 4","Lentiform Loewenfeld","3.3.9","0","n","0","right","right","right","left","right","NA","564.164200099","8776.37300012","490.212399978","17884.2226001","564.164200099","NA","NA","NA","2","legacy","4","1024","2","48000","-16","experiment","1","odd","6","469237.3961","470319.0979","139566.3013","10525.9783","NA","414432.9725","10602.3907999","470322.6164","121681.392","472020.7901","474024.5734","474589.8521","470817.5045","19379.7996999","474024.3894","NA","NA","Sternberg Task","67","42192.5886008","70","yes","1024"
"95.7746478873","95.7746478873","602.713836629","602.713836629","black","experiment","psycho","psycho","psycho","0","uniform","1","undefined","0","1","left","70","70","0","0","NA","70","0","70","0","70","70","70","70","0","70","0","NA","10/17/21 18:07:53","","yes","SternbergTask.osexp","C:/Users/mmcel/OneDrive/GRAD SCHOOL/fall 2021/Advanced Quant","no","mono","no","18","no","white","no","yes","768","psycho","58","11","C:/Users/mmcel/OneDrive/GRAD SCHOOL/fall 2021/Advanced Quant/sternberg/MM-Subject-1.csv","psycho","2 3 7 4","Lentiform Loewenfeld","3.3.9","1","y","0","left","right","right","left","left","NA","600.093799876","8776.37300012","502.208600054","17884.2226001","600.093799876","NA","NA","NA","2","legacy","4","1024","2","48000","-16","experiment","1","odd","2","474620.3867","475700.8975","139566.3013","10525.9783","NA","414432.9725","10602.3907999","475704.2549","121681.392","477414.611","479418.272","480019.6168","476210.9889","19379.7996999","479418.0879","NA","NA","Sternberg Task","68","42792.6824007","71","yes","1024"
"95.8333333333","95.8333333333","601.123081954","601.123081954","black","experiment","psycho","psycho","psycho","0","uniform","1","undefined","0","1","left","71","71","0","0","NA","71","0","71","0","71","71","71","71","0","71","0","NA","10/17/21 18:07:53","","yes","SternbergTask.osexp","C:/Users/mmcel/OneDrive/GRAD SCHOOL/fall 2021/Advanced Quant","no","mono","no","18","no","white","no","yes","768","psycho","59","11","C:/Users/mmcel/OneDrive/GRAD SCHOOL/fall 2021/Advanced Quant/sternberg/MM-Subject-1.csv","psycho","3 5 4 7","Lentiform Loewenfeld","3.3.9","1","y","0","left","right","right","left","left","NA","488.179499982","8776.37300012","505.625199992","17884.2226001","488.179499982","NA","NA","NA","2","legacy","4","1024","2","48000","-16","experiment","1","odd","3","480094.3114","481174.2207","139566.3013","10525.9783","NA","414432.9725","10602.3907999","481177.73","121681.392","482891.7832","484895.3389","485384.6966","481688.1868","19379.7996999","484895.1732","NA","NA","Sternberg Task","69","43280.8619007","72","yes","1024"
"95.8904109589","95.8904109589","600.176002751","600.176002751","black","experiment","psycho","psycho","psycho","0","uniform","1","undefined","1","1","right","72","72","0","0","NA","72","0","72","0","72","72","72","72","0","72","0","NA","10/17/21 18:07:53","","yes","SternbergTask.osexp","C:/Users/mmcel/OneDrive/GRAD SCHOOL/fall 2021/Advanced Quant","no","mono","no","18","no","white","no","yes","768","psycho","60","11","C:/Users/mmcel/OneDrive/GRAD SCHOOL/fall 2021/Advanced Quant/sternberg/MM-Subject-1.csv","psycho","1 7 8 3 9","Lentiform Loewenfeld","3.3.9","0","n","0","right","right","right","left","right","NA","531.986300135","8776.37300012","525.529100094","17884.2226001","531.986300135","NA","NA","NA","2","legacy","5","1024","2","48000","-16","experiment","1","odd","2","485484.3362","486574.5398","139566.3013","10525.9783","NA","414432.9725","10602.3907999","486578.2111","121681.392","488311.59","490314.8165","490848.1721","487107.9955","19379.7996999","490314.5928","NA","NA","Sternberg Task","70","43812.8482008","73","yes","1024"
"95.9459459459","95.9459459459","598.067860821","598.067860821","black","experiment","psycho","psycho","psycho","0","uniform","1","undefined","1","1","right","73","73","0","0","NA","73","0","73","0","73","73","73","73","0","73","0","NA","10/17/21 18:07:53","","yes","SternbergTask.osexp","C:/Users/mmcel/OneDrive/GRAD SCHOOL/fall 2021/Advanced Quant","no","mono","no","18","no","white","no","yes","768","psycho","61","11","C:/Users/mmcel/OneDrive/GRAD SCHOOL/fall 2021/Advanced Quant/sternberg/MM-Subject-1.csv","psycho","7 8 6 1","Lentiform Loewenfeld","3.3.9","0","n","0","right","right","right","left","right","NA","444.173499942","8776.37300012","389.991400065","17884.2226001","444.173499942","NA","NA","NA","2","legacy","4","1024","2","48000","-16","experiment","1","odd","3","490963.5769","492049.2271","139566.3013","10525.9783","NA","414432.9725","10602.3907999","492052.5754","121681.392","493651.9881","495655.015","496100.4213","492448.489","19379.7996999","495654.8236","NA","NA","Sternberg Task","71","44257.0217007","74","yes","1024"
"96","96","595.156869342","595.156869342","black","experiment","psycho","psycho","psycho","0","uniform","1","undefined","1","1","right","74","74","0","0","NA","74","0","74","0","74","74","74","74","0","74","0","NA","10/17/21 18:07:53","","yes","SternbergTask.osexp","C:/Users/mmcel/OneDrive/GRAD SCHOOL/fall 2021/Advanced Quant","no","mono","no","18","no","white","no","yes","768","psycho","62","11","C:/Users/mmcel/OneDrive/GRAD SCHOOL/fall 2021/Advanced Quant/sternberg/MM-Subject-1.csv","psycho","6 8 4","Lentiform Loewenfeld","3.3.9","0","n","0","right","right","right","left","right","NA","379.743499914","8776.37300012","4096.67950007","17884.2226001","379.743499914","NA","NA","NA","2","legacy","3","1024","2","48000","-16","experiment","1","odd","1","496137.2944","497220.6708","139566.3013","10525.9783","NA","414432.9725","10602.3907999","497224.2549","121681.392","502528.8314","504532.112","504913.3786","501325.1787","19379.7996999","504531.9187","NA","NA","Sternberg Task","72","44636.7652006","75","yes","1024"
"96.0526315789","96.0526315789","592.779473693","592.779473693","black","experiment","psycho","psycho","psycho","0","uniform","1","undefined","0","1","left","75","75","0","0","NA","75","0","75","0","75","75","75","75","0","75","0","NA","10/17/21 18:07:53","","yes","SternbergTask.osexp","C:/Users/mmcel/OneDrive/GRAD SCHOOL/fall 2021/Advanced Quant","no","mono","no","18","no","white","no","yes","768","psycho","63","11","C:/Users/mmcel/OneDrive/GRAD SCHOOL/fall 2021/Advanced Quant/sternberg/MM-Subject-1.csv","psycho","5 2 6","Lentiform Loewenfeld","3.3.9","2","y","0","left","right","right","left","left","NA","414.474799996","8776.37300012","476.881299866","17884.2226001","414.474799996","NA","NA","NA","2","legacy","3","1024","2","48000","-16","experiment","1","odd","2","504996.1421","506077.079","139566.3013","10525.9783","NA","414432.9725","10602.3907999","506080.3634","121681.392","507764.8643","509768.229","510183.9446","506561.8695","19379.7996999","509768.0458","NA","NA","Sternberg Task","73","45051.2400006","76","yes","1024"
"96.1038961039","96.1038961039","590.677611696","590.677611696","black","experiment","psycho","psycho","psycho","0","uniform","1","undefined","1","1","right","76","76","0","0","NA","76","0","76","0","76","76","76","76","0","76","0","NA","10/17/21 18:07:53","","yes","SternbergTask.osexp","C:/Users/mmcel/OneDrive/GRAD SCHOOL/fall 2021/Advanced Quant","no","mono","no","18","no","white","no","yes","768","psycho","64","11","C:/Users/mmcel/OneDrive/GRAD SCHOOL/fall 2021/Advanced Quant/sternberg/MM-Subject-1.csv","psycho","7 1 5 6 3","Lentiform Loewenfeld","3.3.9","0","n","0","right","right","right","left","right","NA","430.936099961","8776.37300012","480.504400097","17884.2226001","430.936099961","NA","NA","NA","2","legacy","5","1024","2","48000","-16","experiment","1","odd","8","510240.7317","511324.5026","139566.3013","10525.9783","NA","414432.9725","10602.3907999","511328.0865","121681.392","513017.0833","515020.3356","515452.565","511813.228","19379.7996999","515020.1576","NA","NA","Sternberg Task","74","45482.1761006","77","yes","1024"
"96.1538461538","96.1538461538","588.235457699","588.235457699","black","experiment","psycho","psycho","psycho","0","uniform","1","undefined","1","1","right","77","77","0","0","NA","77","0","77","0","77","77","77","77","0","77","0","NA","10/17/21 18:07:53","","yes","SternbergTask.osexp","C:/Users/mmcel/OneDrive/GRAD SCHOOL/fall 2021/Advanced Quant","no","mono","no","18","no","white","no","yes","768","psycho","65","11","C:/Users/mmcel/OneDrive/GRAD SCHOOL/fall 2021/Advanced Quant/sternberg/MM-Subject-1.csv","psycho","6 9 4 5 3 2","Lentiform Loewenfeld","3.3.9","0","n","0","right","right","right","left","right","NA","400.189599954","8776.37300012","463.420100044","17884.2226001","400.189599954","NA","NA","NA","2","legacy","6","1024","2","48000","-16","experiment","1","odd","8","515518.943","516599.6523","139566.3013","10525.9783","NA","414432.9725","10602.3907999","516603.1925","121681.392","518274.0341","520277.3292","520678.7212","517070.9065","19379.7996999","520277.1237","NA","NA","Sternberg Task","75","45882.3657006","78","yes","1024"
"96.2025316456","96.2025316456","587.128956967","587.128956967","black","experiment","psycho","psycho","psycho","0","uniform","1","undefined","0","1","left","78","78","0","0","NA","78","0","78","0","78","78","78","78","0","78","0","NA","10/17/21 18:07:53","","yes","SternbergTask.osexp","C:/Users/mmcel/OneDrive/GRAD SCHOOL/fall 2021/Advanced Quant","no","mono","no","18","no","white","no","yes","768","psycho","66","11","C:/Users/mmcel/OneDrive/GRAD SCHOOL/fall 2021/Advanced Quant/sternberg/MM-Subject-1.csv","psycho","9 3 8 2 1 4","Lentiform Loewenfeld","3.3.9","3","y","0","left","right","right","left","left","NA","500.821899856","8776.37300012","584.972799988","17884.2226001","500.821899856","NA","NA","NA","2","legacy","6","1024","2","48000","-16","experiment","1","odd","8","520716.8344","521800.6853","139566.3013","10525.9783","NA","414432.9725","10602.3907999","521804.1546","121681.392","523596.4679","525600.6453","526103.0102","522393.4554","19379.7996999","525600.4025","NA","NA","Sternberg Task","76","46383.1876004","79","yes","1024"
"96.25","96.25","588.834815004","588.834815004","black","experiment","psycho","psycho","psycho","0","uniform","1","undefined","1","1","right","79","79","0","0","NA","79","0","79","0","79","79","79","79","0","79","0","NA","10/17/21 18:07:53","","yes","SternbergTask.osexp","C:/Users/mmcel/OneDrive/GRAD SCHOOL/fall 2021/Advanced Quant","no","mono","no","18","no","white","no","yes","768","psycho","67","11","C:/Users/mmcel/OneDrive/GRAD SCHOOL/fall 2021/Advanced Quant/sternberg/MM-Subject-1.csv","psycho","2 8 9","Lentiform Loewenfeld","3.3.9","0","n","0","right","right","right","left","right","NA","723.597599892","8776.37300012","597.403499996","17884.2226001","723.597599892","NA","NA","NA","2","legacy","3","1024","2","48000","-16","experiment","1","odd","6","526150.1849","527231.0611","139566.3013","10525.9783","NA","414432.9725","10602.3907999","527234.4665","121681.392","529039.7753","531043.3344","531768.1768","527836.894","19379.7996999","531043.1462","NA","NA","Sternberg Task","77","47106.7852003","80","yes","1024"
"96.2962962963","96.2962962963","588.233762967","588.233762967","black","experiment","psycho","psycho","psycho","0","uniform","1","undefined","0","1","left","80","80","0","0","NA","80","0","80","0","80","80","80","80","0","80","0","NA","10/17/21 18:07:53","","yes","SternbergTask.osexp","C:/Users/mmcel/OneDrive/GRAD SCHOOL/fall 2021/Advanced Quant","no","mono","no","18","no","white","no","yes","768","psycho","68","11","C:/Users/mmcel/OneDrive/GRAD SCHOOL/fall 2021/Advanced Quant/sternberg/MM-Subject-1.csv","psycho","8 1 6","Lentiform Loewenfeld","3.3.9","3","y","0","left","right","right","left","left","NA","540.149600012","8776.37300012","276.704499964","17884.2226001","540.149600012","NA","NA","NA","2","legacy","3","1024","2","48000","-16","experiment","1","odd","6","531802.2958","532900.8972","139566.3013","10525.9783","NA","414432.9725","10602.3907999","532904.6142","121681.392","534389.7524","536393.4161","536935.9648","533186.1181","19379.7996999","536393.2424","NA","NA","Sternberg Task","78","47646.9348003","81","yes","1024"
"96.3414634146","96.3414634146","587.432903664","587.432903664","black","experiment","psycho","psycho","psycho","0","uniform","1","undefined","1","1","right","81","81","0","0","NA","81","0","81","0","81","81","81","81","0","81","0","NA","10/17/21 18:07:53","","yes","SternbergTask.osexp","C:/Users/mmcel/OneDrive/GRAD SCHOOL/fall 2021/Advanced Quant","no","mono","no","18","no","white","no","yes","768","psycho","69","11","C:/Users/mmcel/OneDrive/GRAD SCHOOL/fall 2021/Advanced Quant/sternberg/MM-Subject-1.csv","psycho","3 4 9 6 7 8","Lentiform Loewenfeld","3.3.9","0","n","0","right","right","right","left","right","NA","522.563300095","8776.37300012","3077.30380003","17884.2226001","522.563300095","NA","NA","NA","2","legacy","6","1024","2","48000","-16","experiment","1","odd","2","536972.5059","538075.6578","139566.3013","10525.9783","NA","414432.9725","10602.3907999","538078.9956","121681.392","542364.3397","544368.3794","544892.5336","541160.4916","19379.7996999","544368.2065","NA","NA","Sternberg Task","79","48169.4981004","82","yes","1024"
"96.3855421687","96.3855421687","585.400232535","585.400232535","black","experiment","psycho","psycho","psycho","0","uniform","1","undefined","1","1","right","82","82","0","0","NA","82","0","82","0","82","82","82","82","0","82","0","NA","10/17/21 18:07:53","","yes","SternbergTask.osexp","C:/Users/mmcel/OneDrive/GRAD SCHOOL/fall 2021/Advanced Quant","no","mono","no","18","no","white","no","yes","768","psycho","70","11","C:/Users/mmcel/OneDrive/GRAD SCHOOL/fall 2021/Advanced Quant/sternberg/MM-Subject-1.csv","psycho","6 7 5 9","Lentiform Loewenfeld","3.3.9","0","n","0","right","right","right","left","right","NA","418.721199967","8776.37300012","337.066800101","17884.2226001","418.721199967","NA","NA","NA","2","legacy","4","1024","2","48000","-16","experiment","1","odd","2","544928.2673","546007.816","139566.3013","10525.9783","NA","414432.9725","10602.3907999","546011.3512","121681.392","547556.5968","549559.8684","549981.2048","546352.8956","19379.7996999","549559.6655","NA","NA","Sternberg Task","80","48588.2193004","83","yes","1024"
"96.4285714286","96.4285714286","586.89471786","586.89471786","black","experiment","psycho","psycho","psycho","0","uniform","1","undefined","0","1","left","83","83","0","0","NA","83","0","83","0","83","83","83","83","0","83","0","NA","10/17/21 18:07:53","","yes","SternbergTask.osexp","C:/Users/mmcel/OneDrive/GRAD SCHOOL/fall 2021/Advanced Quant","no","mono","no","18","no","white","no","yes","768","psycho","71","11","C:/Users/mmcel/OneDrive/GRAD SCHOOL/fall 2021/Advanced Quant/sternberg/MM-Subject-1.csv","psycho","5 7 8 2 3 8","Lentiform Loewenfeld","3.3.9","5","y","0","left","right","right","left","left","NA","710.93699988","8776.37300012","1057.59500014","17884.2226001","710.93699988","NA","NA","NA","2","legacy","6","1024","2","48000","-16","experiment","1","odd","3","550051.9741","551135.2773","139566.3013","10525.9783","NA","414432.9725","10602.3907999","551139.0983","121681.392","553404.7501","555408.514","556120.7981","552201.3182","19379.7996999","555408.2802","NA","NA","Sternberg Task","81","49299.1563003","84","yes","1024"
"96.4705882353","96.4705882353","588.969129417","588.969129417","black","experiment","psycho","psycho","psycho","0","uniform","1","undefined","1","1","right","84","84","0","0","NA","84","0","84","0","84","84","84","84","0","84","0","NA","10/17/21 18:07:53","","yes","SternbergTask.osexp","C:/Users/mmcel/OneDrive/GRAD SCHOOL/fall 2021/Advanced Quant","no","mono","no","18","no","white","no","yes","768","psycho","72","11","C:/Users/mmcel/OneDrive/GRAD SCHOOL/fall 2021/Advanced Quant/sternberg/MM-Subject-1.csv","psycho","8 5 7 3 6","Lentiform Loewenfeld","3.3.9","0","n","0","right","right","right","left","right","NA","763.219700195","8776.37300012","351.391100092","17884.2226001","763.219700195","NA","NA","NA","2","legacy","5","1024","2","48000","-16","experiment","1","odd","9","556164.8462","557246.0603","139566.3013","10525.9783","NA","414432.9725","10602.3907999","557249.4322","121681.392","558808.3459","560811.1809","561575.7502","557604.9472","19379.7996999","560811.0173","NA","NA","Sternberg Task","82","50062.3760005","85","yes","1024"
"96.511627907","96.511627907","587.606062796","587.606062796","black","experiment","psycho","psycho","psycho","0","uniform","1","undefined","0","1","left","85","85","0","0","NA","85","0","85","0","85","85","85","85","0","85","0","NA","10/17/21 18:07:53","","yes","SternbergTask.osexp","C:/Users/mmcel/OneDrive/GRAD SCHOOL/fall 2021/Advanced Quant","no","mono","no","18","no","white","no","yes","768","psycho","73","11","C:/Users/mmcel/OneDrive/GRAD SCHOOL/fall 2021/Advanced Quant/sternberg/MM-Subject-1.csv","psycho","8 5 1 3 9","Lentiform Loewenfeld","3.3.9","4","y","0","left","right","right","left","left","NA","471.745399991","8776.37300012","513.145999983","17884.2226001","471.745399991","NA","NA","NA","2","legacy","5","1024","2","48000","-16","experiment","1","odd","3","561591.7521","562676.745","139566.3013","10525.9783","NA","414432.9725","10602.3907999","562680.2078","121681.392","564402.2426","566405.8958","566878.9938","563198.2257","19379.7996999","566405.7041","NA","NA","Sternberg Task","83","50534.1214004","86","yes","1024"
"96.5517241379","96.5517241379","586.365562074","586.365562074","black","experiment","psycho","psycho","psycho","0","uniform","1","undefined","1","1","right","86","86","0","0","NA","86","0","86","0","86","86","86","86","0","86","0","NA","10/17/21 18:07:53","","yes","SternbergTask.osexp","C:/Users/mmcel/OneDrive/GRAD SCHOOL/fall 2021/Advanced Quant","no","mono","no","18","no","white","no","yes","768","psycho","74","11","C:/Users/mmcel/OneDrive/GRAD SCHOOL/fall 2021/Advanced Quant/sternberg/MM-Subject-1.csv","psycho","1","Lentiform Loewenfeld","3.3.9","0","n","0","right","right","right","left","right","NA","479.682500008","8776.37300012","1827.54720002","17884.2226001","479.682500008","NA","NA","NA","2","legacy","1","1024","2","48000","-16","experiment","1","odd","7","566918.2195","567996.6871","139566.3013","10525.9783","NA","414432.9725","10602.3907999","568000.1742","121681.392","571034.5745","573038.3541","573520.2019","569832.1892","19379.7996999","573038.1798","NA","NA","Sternberg Task","84","51013.8039005","87","yes","1024"
"96.5909090909","96.5909090909","586.468305687","586.468305687","black","experiment","psycho","psycho","psycho","0","uniform","1","undefined","1","1","right","87","87","0","0","NA","87","0","87","0","87","87","87","87","0","87","0","NA","10/17/21 18:07:53","","yes","SternbergTask.osexp","C:/Users/mmcel/OneDrive/GRAD SCHOOL/fall 2021/Advanced Quant","no","mono","no","18","no","white","no","yes","768","psycho","75","11","C:/Users/mmcel/OneDrive/GRAD SCHOOL/fall 2021/Advanced Quant/sternberg/MM-Subject-1.csv","psycho","4 8 1 2","Lentiform Loewenfeld","3.3.9","0","n","0","right","right","right","left","right","NA","595.407000044","8776.37300012","1053.58790001","17884.2226001","595.407000044","NA","NA","NA","2","legacy","4","1024","2","48000","-16","experiment","1","odd","7","573562.9898","574657.8283","139566.3013","10525.9783","NA","414432.9725","10602.3907999","574661.5068","121681.392","576923.4023","578927.1481","579523.9409","575720.0914","19379.7996999","578926.973","NA","NA","Sternberg Task","85","51609.2109005","88","yes","1024"
"96.6292134831","96.6292134831","588.23363596","588.23363596","black","experiment","psycho","psycho","psycho","0","uniform","1","undefined","0","1","left","88","88","0","0","NA","88","0","88","0","88","88","88","88","0","88","0","NA","10/17/21 18:07:53","","yes","SternbergTask.osexp","C:/Users/mmcel/OneDrive/GRAD SCHOOL/fall 2021/Advanced Quant","no","mono","no","18","no","white","no","yes","768","psycho","76","11","C:/Users/mmcel/OneDrive/GRAD SCHOOL/fall 2021/Advanced Quant/sternberg/MM-Subject-1.csv","psycho","6 7 8 5","Lentiform Loewenfeld","3.3.9","3","y","0","left","right","right","left","left","NA","743.582699914","8776.37300012","643.32410018","17884.2226001","743.582699914","NA","NA","NA","2","legacy","4","1024","2","48000","-16","experiment","1","odd","8","579564.6617","580645.0644","139566.3013","10525.9783","NA","414432.9725","10602.3907999","580648.5055","121681.392","582499.9226","584504.002","585249.1177","581296.7203","19379.7996999","584503.7817","NA","NA","Sternberg Task","86","52352.7936004","89","yes","1024"
"96.6666666667","96.6666666667","587.064898894","587.064898894","black","experiment","psycho","psycho","psycho","0","uniform","1","undefined","1","1","right","89","89","0","0","NA","89","0","89","0","89","89","89","89","0","89","0","NA","10/17/21 18:07:53","","yes","SternbergTask.osexp","C:/Users/mmcel/OneDrive/GRAD SCHOOL/fall 2021/Advanced Quant","no","mono","no","18","no","white","no","yes","768","psycho","77","11","C:/Users/mmcel/OneDrive/GRAD SCHOOL/fall 2021/Advanced Quant/sternberg/MM-Subject-1.csv","psycho","2 8 7 9 5 3","Lentiform Loewenfeld","3.3.9","0","n","0","right","right","right","left","right","NA","483.047300018","8776.37300012","342.645399971","17884.2226001","483.047300018","NA","NA","NA","2","legacy","6","1024","2","48000","-16","experiment","1","odd","6","585300.4199","586378.9061","139566.3013","10525.9783","NA","414432.9725","10602.3907999","586382.4852","121681.392","587933.1779","589937.1187","590421.6877","586730.0256","19379.7996999","589936.9334","NA","NA","Sternberg Task","87","52835.8409004","90","yes","1024"
"96.7032967033","96.7032967033","585.576182421","585.576182421","black","experiment","psycho","psycho","psycho","0","uniform","1","undefined","0","1","left","90","90","0","0","NA","90","0","90","0","90","90","90","90","0","90","0","NA","10/17/21 18:07:53","","yes","SternbergTask.osexp","C:/Users/mmcel/OneDrive/GRAD SCHOOL/fall 2021/Advanced Quant","no","mono","no","18","no","white","no","yes","768","psycho","78","11","C:/Users/mmcel/OneDrive/GRAD SCHOOL/fall 2021/Advanced Quant/sternberg/MM-Subject-1.csv","psycho","6 5","Lentiform Loewenfeld","3.3.9","2","y","0","left","right","right","left","left","NA","451.59169985","8776.37300012","477.959699929","17884.2226001","451.59169985","NA","NA","NA","2","legacy","2","1024","2","48000","-16","experiment","1","odd","5","590464.6866","591547.9293","139566.3013","10525.9783","NA","414432.9725","10602.3907999","591551.2081","121681.392","593237.4411","595241.2053","595694.2111","592033.8655","19379.7996999","595241.0206","NA","NA","Sternberg Task","88","53287.4326003","91","yes","1024"
"96.7391304348","96.7391304348","584.414088048","584.414088048","black","experiment","psycho","psycho","psycho","0","uniform","1","undefined","1","1","right","91","91","0","0","NA","91","0","91","0","91","91","91","91","0","91","0","NA","10/17/21 18:07:53","","yes","SternbergTask.osexp","C:/Users/mmcel/OneDrive/GRAD SCHOOL/fall 2021/Advanced Quant","no","mono","no","18","no","white","no","yes","768","psycho","79","11","C:/Users/mmcel/OneDrive/GRAD SCHOOL/fall 2021/Advanced Quant/sternberg/MM-Subject-1.csv","psycho","6 2 9 3 8 4","Lentiform Loewenfeld","3.3.9","0","n","0","right","right","right","left","right","NA","478.663500166","8776.37300012","1583.97130016","17884.2226001","478.663500166","NA","NA","NA","2","legacy","6","1024","2","48000","-16","experiment","1","odd","1","595812.1656","596904.1878","139566.3013","10525.9783","NA","414432.9725","10602.3907999","596907.6173","121681.392","599699.1593","601702.4028","602182.5246","598496.3283","19379.7996999","601702.2209","NA","NA","Sternberg Task","89","53766.0961004","92","yes","1024"
"96.7741935484","96.7741935484","583.694446241","583.694446241","black","experiment","psycho","psycho","psycho","0","uniform","1","undefined","0","1","left","92","92","0","0","NA","92","0","92","0","92","92","92","92","0","92","0","NA","10/17/21 18:07:53","","yes","SternbergTask.osexp","C:/Users/mmcel/OneDrive/GRAD SCHOOL/fall 2021/Advanced Quant","no","mono","no","18","no","white","no","yes","768","psycho","80","11","C:/Users/mmcel/OneDrive/GRAD SCHOOL/fall 2021/Advanced Quant/sternberg/MM-Subject-1.csv","psycho","1 4 9 3 2 5","Lentiform Loewenfeld","3.3.9","3","y","0","left","right","right","left","left","NA","517.487399979","8776.37300012","375.034600031","17884.2226001","517.487399979","NA","NA","NA","2","legacy","6","1024","2","48000","-16","experiment","1","odd","9","602220.6577","603304.038","139566.3013","10525.9783","NA","414432.9725","10602.3907999","603307.5079","121681.392","604890.5158","606894.2838","607413.5304","603687.5603","19379.7996999","606894.1334","NA","NA","Sternberg Task","90","54283.5835004","93","yes","1024"
"96.8085106383","96.8085106383","582.210813832","582.210813832","black","experiment","psycho","psycho","psycho","0","uniform","1","undefined","0","1","left","93","93","0","0","NA","93","0","93","0","93","93","93","93","0","93","0","NA","10/17/21 18:07:53","","yes","SternbergTask.osexp","C:/Users/mmcel/OneDrive/GRAD SCHOOL/fall 2021/Advanced Quant","no","mono","no","18","no","white","no","yes","768","psycho","81","11","C:/Users/mmcel/OneDrive/GRAD SCHOOL/fall 2021/Advanced Quant/sternberg/MM-Subject-1.csv","psycho","7 4 2 6 3 5","Lentiform Loewenfeld","3.3.9","6","y","0","left","right","right","left","left","NA","444.232999813","8776.37300012","795.921399957","17884.2226001","444.232999813","NA","NA","NA","2","legacy","6","1024","2","48000","-16","experiment","1","odd","5","607455.0511","608536.9051","139566.3013","10525.9783","NA","414432.9725","10602.3907999","608540.3437","121681.392","610544.9289","612548.6997","612994.4051","609341.1814","19379.7996999","612548.4445","NA","NA","Sternberg Task","91","54727.8165002","94","yes","1024"
