"acc","accuracy","average_response_time","avg_rt","background","block","canvas_backend","clock_backend","color_backend","compensation","coordinates","correct","correct_instructions1","correct_keyboard_response","correct_response","count_ISI","count_PracticeLoop","count_correctFeedback","count_expSequence","count_experiment","count_experimentLoop","count_fixation","count_incorrectFeedback","count_instructions1","count_instructions2","count_keyboard_response","count_memorySet","count_new_logger","count_new_loop","count_probe","count_thankYou","datetime","description","disable_garbage_collection","empty_column","experiment_file","experiment_path","font_bold","font_family","font_italic","font_size","font_underline","foreground","form_clicks","fullscreen","height","keyboard_backend","live_row","live_row_PracticeLoop","logfile","mouse_backend","numberSet","opensesame_codename","opensesame_version","posInSet","present","repeat_cycle","response","response_instructions1","response_instructions2","response_keyboard_response","response_thankYou","response_time","response_time_instructions1","response_time_instructions2","response_time_keyboard_response","response_time_thankYou","round_decimals","sampler_backend","setSize","sound_buf_size","sound_channels","sound_freq","sound_sample_size","start","subject_nr","subject_parity","target","time_ISI","time_PracticeLoop","time_correctFeedback","time_expSequence","time_experiment","time_experimentLoop","time_fixation","time_incorrectFeedback","time_instructions1","time_instructions2","time_keyboard_response","time_memorySet","time_new_logger","time_new_loop","time_probe","time_thankYou","title","total_correct","total_response_time","total_responses","uniform_coordinates","width"
"0","0","2000","2000","black","practice","legacy","legacy","legacy","0","uniform","0","undefined","0","right","0","0","0","0","0","0","0","0","0","0","0","0","0","NA","0","0","Sun Oct 25 14:14:30 2020","The main experiment item","yes","NA","SternbergTask.osexp","/Users/kaylaredder/Desktop/Tarleton /AdvancedQuant/Lab3","no","mono","no","18","no","white","no","yes","768","legacy","0","0","/Users/kaylaredder/Desktop/Tarleton /AdvancedQuant/Lab3/MR-subject-4.csv","legacy","5","Lentiform Loewenfeld","3.3.5","0","n","0","None","right","NA","None","NA","2000","17086","NA","2000","NA","2","legacy","1","1024","2","48000","-16","experiment","4","even","3","21525","19134","NA","19283","2026","NA","19296","NA","2041","NA","23539","20310","25539","NA","23539","NA","Sternberg Task ","0","2000","1","yes","1024"
"0","0","1529.5","1529.5","black","practice","legacy","legacy","legacy","0","uniform","0","undefined","0","right","1","0","1","1","0","0","1","1","0","0","1","1","1","NA","1","0","Sun Oct 25 14:14:30 2020","The main experiment item","yes","NA","SternbergTask.osexp","/Users/kaylaredder/Desktop/Tarleton /AdvancedQuant/Lab3","no","mono","no","18","no","white","no","yes","768","legacy","1","1","/Users/kaylaredder/Desktop/Tarleton /AdvancedQuant/Lab3/MR-subject-4.csv","legacy","4 1 5","Lentiform Loewenfeld","3.3.5","0","n","0","left","right","NA","left","NA","1059","17086","NA","1059","NA","2","legacy","3","1024","2","48000","-16","experiment","4","even","2","28893","19134","NA","26651","2026","NA","26663","25584","2041","NA","30907","27677","31967","NA","30907","NA","Sternberg Task ","0","3059","2","yes","1024"
"33.333333333333336","33.333333333333336","1587.3333333333333","1587.3333333333333","black","practice","legacy","legacy","legacy","0","uniform","1","undefined","1","right","2","0","2","2","0","0","2","2","0","0","2","2","2","NA","2","0","Sun Oct 25 14:14:30 2020","The main experiment item","yes","NA","SternbergTask.osexp","/Users/kaylaredder/Desktop/Tarleton /AdvancedQuant/Lab3","no","mono","no","18","no","white","no","yes","768","legacy","2","2","/Users/kaylaredder/Desktop/Tarleton /AdvancedQuant/Lab3/MR-subject-4.csv","legacy","9 6 7 4 5","Lentiform Loewenfeld","3.3.5","0","n","0","right","right","NA","right","NA","1703","17086","NA","1703","NA","2","legacy","5","1024","2","48000","-16","experiment","4","even","3","35292","19134","NA","33043","2026","NA","33057","31986","2041","NA","37306","34075","39010","NA","37306","NA","Sternberg Task ","1","4762","3","yes","1024"
"25","25","1556","1556","black","practice","legacy","legacy","legacy","0","uniform","0","undefined","0","left","3","0","3","3","0","0","3","3","0","0","3","3","3","NA","3","0","Sun Oct 25 14:14:30 2020","The main experiment item","yes","NA","SternbergTask.osexp","/Users/kaylaredder/Desktop/Tarleton /AdvancedQuant/Lab3","no","mono","no","18","no","white","no","yes","768","legacy","3","3","/Users/kaylaredder/Desktop/Tarleton /AdvancedQuant/Lab3/MR-subject-4.csv","legacy","6","Lentiform Loewenfeld","3.3.5","1","y","0","right","right","NA","right","NA","1462","17086","NA","1462","NA","2","legacy","1","1024","2","48000","-16","experiment","4","even","6","42322","19134","39023","40079","2026","NA","40092","31986","2041","NA","44336","41106","45799","NA","44336","NA","Sternberg Task ","1","6224","4","yes","1024"
"20","20","1644.8","1644.8","black","practice","legacy","legacy","legacy","0","uniform","0","undefined","0","left","4","0","4","4","0","0","4","4","0","0","4","4","4","NA","4","0","Sun Oct 25 14:14:30 2020","The main experiment item","yes","NA","SternbergTask.osexp","/Users/kaylaredder/Desktop/Tarleton /AdvancedQuant/Lab3","no","mono","no","18","no","white","no","yes","768","legacy","4","4","/Users/kaylaredder/Desktop/Tarleton /AdvancedQuant/Lab3/MR-subject-4.csv","legacy","1 7 9 8 5","Lentiform Loewenfeld","3.3.5","4","y","0","None","right","NA","None","NA","2000","17086","NA","2000","NA","2","legacy","5","1024","2","48000","-16","experiment","4","even","8","49118","19134","39023","46875","2026","NA","46889","45820","2041","NA","51131","47903","53131","NA","51131","NA","Sternberg Task ","1","8224","5","yes","1024"
"33.333333333333336","33.333333333333336","1553.1666666666667","1553.1666666666667","black","practice","legacy","legacy","legacy","0","uniform","1","undefined","1","right","5","0","5","5","0","0","5","5","0","0","5","5","5","NA","5","0","Sun Oct 25 14:14:30 2020","The main experiment item","yes","NA","SternbergTask.osexp","/Users/kaylaredder/Desktop/Tarleton /AdvancedQuant/Lab3","no","mono","no","18","no","white","no","yes","768","legacy","5","5","/Users/kaylaredder/Desktop/Tarleton /AdvancedQuant/Lab3/MR-subject-4.csv","legacy","2 1","Lentiform Loewenfeld","3.3.5","0","n","0","right","right","NA","right","NA","1095","17086","NA","1095","NA","2","legacy","2","1024","2","48000","-16","experiment","4","even","5","56449","19134","39023","54207","2026","NA","54219","53152","2041","NA","58462","55233","59558","NA","58462","NA","Sternberg Task ","2","9319","6","yes","1024"
"42.857142857142854","42.857142857142854","1486.7142857142858","1486.7142857142858","black","practice","legacy","legacy","legacy","0","uniform","1","undefined","1","left","6","0","6","6","0","0","6","6","0","0","6","6","6","NA","6","0","Sun Oct 25 14:14:30 2020","The main experiment item","yes","NA","SternbergTask.osexp","/Users/kaylaredder/Desktop/Tarleton /AdvancedQuant/Lab3","no","mono","no","18","no","white","no","yes","768","legacy","6","6","/Users/kaylaredder/Desktop/Tarleton /AdvancedQuant/Lab3/MR-subject-4.csv","legacy","1 5 2 9","Lentiform Loewenfeld","3.3.5","2","y","0","left","right","NA","left","NA","1088","17086","NA","1088","NA","2","legacy","4","1024","2","48000","-16","experiment","4","even","5","62882","19134","59582","60637","2026","NA","60650","53152","2041","NA","64897","61665","65986","NA","64896","NA","Sternberg Task ","3","10407","7","yes","1024"
"50","50","1449.25","1449.25","black","practice","legacy","legacy","legacy","0","uniform","1","undefined","1","left","7","0","7","7","0","0","7","7","0","0","7","7","7","NA","7","0","Sun Oct 25 14:14:30 2020","The main experiment item","yes","NA","SternbergTask.osexp","/Users/kaylaredder/Desktop/Tarleton /AdvancedQuant/Lab3","no","mono","no","18","no","white","no","yes","768","legacy","7","7","/Users/kaylaredder/Desktop/Tarleton /AdvancedQuant/Lab3/MR-subject-4.csv","legacy","4 3 1 7 9 8","Lentiform Loewenfeld","3.3.5","1","y","0","left","right","NA","left","NA","1187","17086","NA","1187","NA","2","legacy","6","1024","2","48000","-16","experiment","4","even","4","69307","19134","66007","67062","2026","NA","67075","53152","2041","NA","71321","68090","72508","NA","71321","NA","Sternberg Task ","4","11594","8","yes","1024"
"55.55555555555556","55.55555555555556","1385.5555555555557","1385.5555555555557","black","practice","legacy","legacy","legacy","0","uniform","1","undefined","1","right","8","0","8","8","0","0","8","8","0","0","8","8","8","NA","8","0","Sun Oct 25 14:14:30 2020","The main experiment item","yes","NA","SternbergTask.osexp","/Users/kaylaredder/Desktop/Tarleton /AdvancedQuant/Lab3","no","mono","no","18","no","white","no","yes","768","legacy","8","8","/Users/kaylaredder/Desktop/Tarleton /AdvancedQuant/Lab3/MR-subject-4.csv","legacy","5 7 8 4 1 2","Lentiform Loewenfeld","3.3.5","0","n","0","right","right","NA","right","NA","876","17086","NA","876","NA","2","legacy","6","1024","2","48000","-16","experiment","4","even","6","75828","19134","72529","73584","2026","NA","73597","53152","2041","NA","77842","74612","78718","NA","77842","NA","Sternberg Task ","5","12470","9","yes","1024"
"50","50","1447","1447","black","practice","legacy","legacy","legacy","0","uniform","0","undefined","0","left","9","0","9","9","0","0","9","9","0","0","9","9","9","NA","9","0","Sun Oct 25 14:14:30 2020","The main experiment item","yes","NA","SternbergTask.osexp","/Users/kaylaredder/Desktop/Tarleton /AdvancedQuant/Lab3","no","mono","no","18","no","white","no","yes","768","legacy","9","9","/Users/kaylaredder/Desktop/Tarleton /AdvancedQuant/Lab3/MR-subject-4.csv","legacy","4 8","Lentiform Loewenfeld","3.3.5","1","y","0","None","right","NA","None","NA","2000","17086","NA","2000","NA","2","legacy","2","1024","2","48000","-16","experiment","4","even","4","82037","19134","78739","79794","2026","NA","79806","53152","2041","NA","84051","80821","86051","NA","84051","NA","Sternberg Task ","5","14470","10","yes","1024"
"54.54545454545455","54.54545454545455","1435.090909090909","1435.090909090909","black","practice","legacy","legacy","legacy","0","uniform","1","undefined","1","left","10","0","10","10","0","0","10","10","0","0","10","10","10","NA","10","0","Sun Oct 25 14:14:30 2020","The main experiment item","yes","NA","SternbergTask.osexp","/Users/kaylaredder/Desktop/Tarleton /AdvancedQuant/Lab3","no","mono","no","18","no","white","no","yes","768","legacy","10","10","/Users/kaylaredder/Desktop/Tarleton /AdvancedQuant/Lab3/MR-subject-4.csv","legacy","2 9 4","Lentiform Loewenfeld","3.3.5","3","y","0","left","right","NA","left","NA","1316","17086","NA","1316","NA","2","legacy","3","1024","2","48000","-16","experiment","4","even","4","89371","19134","78739","87128","2026","NA","87140","86072","2041","NA","91385","88154","92702","NA","91384","NA","Sternberg Task ","6","15786","11","yes","1024"
"58.333333333333336","58.333333333333336","1401.6666666666667","1401.6666666666667","black","practice","legacy","legacy","legacy","0","uniform","1","undefined","1","right","11","0","11","11","0","0","11","11","0","0","11","11","11","NA","11","0","Sun Oct 25 14:14:30 2020","The main experiment item","yes","NA","SternbergTask.osexp","/Users/kaylaredder/Desktop/Tarleton /AdvancedQuant/Lab3","no","mono","no","18","no","white","no","yes","768","legacy","11","11","/Users/kaylaredder/Desktop/Tarleton /AdvancedQuant/Lab3/MR-subject-4.csv","legacy","3 1 9 4","Lentiform Loewenfeld","3.3.5","0","n","0","right","right","NA","right","NA","1034","17086","NA","1034","NA","2","legacy","4","1024","2","48000","-16","experiment","4","even","6","96016","19134","92720","93775","2026","NA","93787","86072","2041","NA","98031","94802","99066","NA","98031","NA","Sternberg Task ","7","16820","12","yes","1024"
"61.53846153846154","61.53846153846154","1387.3846153846155","1387.3846153846155","black","experiment","legacy","legacy","legacy","0","uniform","1","undefined","1","right","12","0","12","12","0","0","12","12","0","0","12","12","12","NA","12","0","Sun Oct 25 14:14:30 2020","The main experiment item","yes","NA","SternbergTask.osexp","/Users/kaylaredder/Desktop/Tarleton /AdvancedQuant/Lab3","no","mono","no","18","no","white","no","yes","768","legacy","0","11","/Users/kaylaredder/Desktop/Tarleton /AdvancedQuant/Lab3/MR-subject-4.csv","legacy","3 4 2","Lentiform Loewenfeld","3.3.5","0","n","0","right","right","right","right","NA","1216","17086","12065","1216","NA","2","legacy","3","1024","2","48000","-16","experiment","4","even","5","114482","19134","99088","112238","2026","112193","112251","86072","2041","100127","116496","113266","117713","NA","116496","NA","Sternberg Task ","8","18036","13","yes","1024"
"64.28571428571429","64.28571428571429","1340.5714285714287","1340.5714285714287","black","experiment","legacy","legacy","legacy","0","uniform","1","undefined","1","left","13","0","13","13","0","0","13","13","0","0","13","13","13","NA","13","0","Sun Oct 25 14:14:30 2020","The main experiment item","yes","NA","SternbergTask.osexp","/Users/kaylaredder/Desktop/Tarleton /AdvancedQuant/Lab3","no","mono","no","18","no","white","no","yes","768","legacy","1","11","/Users/kaylaredder/Desktop/Tarleton /AdvancedQuant/Lab3/MR-subject-4.csv","legacy","7 1 3","Lentiform Loewenfeld","3.3.5","2","y","0","left","right","right","left","NA","732","17086","12065","732","NA","2","legacy","3","1024","2","48000","-16","experiment","4","even","1","121033","19134","117734","118790","2026","112193","118802","86072","2041","100127","123047","119817","123780","NA","123047","NA","Sternberg Task ","9","18768","14","yes","1024"
"66.66666666666667","66.66666666666667","1325.3333333333333","1325.3333333333333","black","experiment","legacy","legacy","legacy","0","uniform","1","undefined","1","left","14","0","14","14","0","0","14","14","0","0","14","14","14","NA","14","0","Sun Oct 25 14:14:30 2020","The main experiment item","yes","NA","SternbergTask.osexp","/Users/kaylaredder/Desktop/Tarleton /AdvancedQuant/Lab3","no","mono","no","18","no","white","no","yes","768","legacy","2","11","/Users/kaylaredder/Desktop/Tarleton /AdvancedQuant/Lab3/MR-subject-4.csv","legacy","2 4 6 9","Lentiform Loewenfeld","3.3.5","3","y","0","left","right","right","left","NA","1112","17086","12065","1112","NA","2","legacy","4","1024","2","48000","-16","experiment","4","even","6","127102","19134","123804","124859","2026","112193","124872","86072","2041","100127","129116","125887","130228","NA","129116","NA","Sternberg Task ","10","19880","15","yes","1024"
"68.75","68.75","1287.1875","1287.1875","black","experiment","legacy","legacy","legacy","0","uniform","1","undefined","1","left","15","0","15","15","0","0","15","15","0","0","15","15","15","NA","15","0","Sun Oct 25 14:14:30 2020","The main experiment item","yes","NA","SternbergTask.osexp","/Users/kaylaredder/Desktop/Tarleton /AdvancedQuant/Lab3","no","mono","no","18","no","white","no","yes","768","legacy","3","11","/Users/kaylaredder/Desktop/Tarleton /AdvancedQuant/Lab3/MR-subject-4.csv","legacy","3 5 4 7","Lentiform Loewenfeld","3.3.5","1","y","0","left","right","right","left","NA","715","17086","12065","715","NA","2","legacy","4","1024","2","48000","-16","experiment","4","even","3","133548","19134","130250","131304","2026","112193","131317","86072","2041","100127","135562","132332","136277","NA","135562","NA","Sternberg Task ","11","20595","16","yes","1024"
"70.58823529411765","70.58823529411765","1304.9411764705883","1304.9411764705883","black","experiment","legacy","legacy","legacy","0","uniform","1","undefined","1","right","16","0","16","16","0","0","16","16","0","0","16","16","16","NA","16","0","Sun Oct 25 14:14:30 2020","The main experiment item","yes","NA","SternbergTask.osexp","/Users/kaylaredder/Desktop/Tarleton /AdvancedQuant/Lab3","no","mono","no","18","no","white","no","yes","768","legacy","4","11","/Users/kaylaredder/Desktop/Tarleton /AdvancedQuant/Lab3/MR-subject-4.csv","legacy","6 9 7 3 8 2","Lentiform Loewenfeld","3.3.5","0","n","0","right","right","right","right","NA","1589","17086","12065","1589","NA","2","legacy","6","1024","2","48000","-16","experiment","4","even","5","139597","19134","136298","137353","2026","112193","137366","86072","2041","100127","141611","138381","143201","NA","141611","NA","Sternberg Task ","12","22184","17","yes","1024"
"66.66666666666667","66.66666666666667","1343.5555555555557","1343.5555555555557","black","experiment","legacy","legacy","legacy","0","uniform","0","undefined","0","right","17","0","17","17","0","0","17","17","0","0","17","17","17","NA","17","0","Sun Oct 25 14:14:30 2020","The main experiment item","yes","NA","SternbergTask.osexp","/Users/kaylaredder/Desktop/Tarleton /AdvancedQuant/Lab3","no","mono","no","18","no","white","no","yes","768","legacy","5","11","/Users/kaylaredder/Desktop/Tarleton /AdvancedQuant/Lab3/MR-subject-4.csv","legacy","2 8 6 3 1","Lentiform Loewenfeld","3.3.5","0","n","0","None","right","right","None","NA","2000","17086","12065","2000","NA","2","legacy","5","1024","2","48000","-16","experiment","4","even","7","146522","19134","143223","144278","2026","112193","144291","86072","2041","100127","148536","145305","150536","NA","148536","NA","Sternberg Task ","12","24184","18","yes","1024"
"68.42105263157895","68.42105263157895","1341.157894736842","1341.157894736842","black","experiment","legacy","legacy","legacy","0","uniform","1","undefined","1","right","18","0","18","18","0","0","18","18","0","0","18","18","18","NA","18","0","Sun Oct 25 14:14:30 2020","The main experiment item","yes","NA","SternbergTask.osexp","/Users/kaylaredder/Desktop/Tarleton /AdvancedQuant/Lab3","no","mono","no","18","no","white","no","yes","768","legacy","6","11","/Users/kaylaredder/Desktop/Tarleton /AdvancedQuant/Lab3/MR-subject-4.csv","legacy","4 8 1 2","Lentiform Loewenfeld","3.3.5","0","n","0","right","right","right","right","NA","1298","17086","12065","1298","NA","2","legacy","4","1024","2","48000","-16","experiment","4","even","7","153856","19134","143223","151613","2026","112193","151626","150558","2041","100127","155870","152641","157169","NA","155870","NA","Sternberg Task ","13","25482","19","yes","1024"
"70","70","1324.7","1324.7","black","experiment","legacy","legacy","legacy","0","uniform","1","undefined","1","right","19","0","19","19","0","0","19","19","0","0","19","19","19","NA","19","0","Sun Oct 25 14:14:30 2020","The main experiment item","yes","NA","SternbergTask.osexp","/Users/kaylaredder/Desktop/Tarleton /AdvancedQuant/Lab3","no","mono","no","18","no","white","no","yes","768","legacy","7","11","/Users/kaylaredder/Desktop/Tarleton /AdvancedQuant/Lab3/MR-subject-4.csv","legacy","5 3 8 7 2 4","Lentiform Loewenfeld","3.3.5","0","n","0","right","right","right","right","NA","1012","17086","12065","1012","NA","2","legacy","6","1024","2","48000","-16","experiment","4","even","9","160490","19134","157191","158246","2026","112193","158259","150558","2041","100127","162503","159274","163516","NA","162503","NA","Sternberg Task ","14","26494","20","yes","1024"
"71.42857142857143","71.42857142857143","1328.904761904762","1328.904761904762","black","experiment","legacy","legacy","legacy","0","uniform","1","undefined","1","left","20","0","20","20","0","0","20","20","0","0","20","20","20","NA","20","0","Sun Oct 25 14:14:30 2020","The main experiment item","yes","NA","SternbergTask.osexp","/Users/kaylaredder/Desktop/Tarleton /AdvancedQuant/Lab3","no","mono","no","18","no","white","no","yes","768","legacy","8","11","/Users/kaylaredder/Desktop/Tarleton /AdvancedQuant/Lab3/MR-subject-4.csv","legacy","7 8 6 3 1","Lentiform Loewenfeld","3.3.5","5","y","0","left","right","right","left","NA","1413","17086","12065","1413","NA","2","legacy","5","1024","2","48000","-16","experiment","4","even","1","166836","19134","163537","164592","2026","112193","164605","150558","2041","100127","168850","165620","170264","NA","168850","NA","Sternberg Task ","15","27907","21","yes","1024"
"72.72727272727273","72.72727272727273","1338.0454545454545","1338.0454545454545","black","experiment","legacy","legacy","legacy","0","uniform","1","undefined","1","right","21","0","21","21","0","0","21","21","0","0","21","21","21","NA","21","0","Sun Oct 25 14:14:30 2020","The main experiment item","yes","NA","SternbergTask.osexp","/Users/kaylaredder/Desktop/Tarleton /AdvancedQuant/Lab3","no","mono","no","18","no","white","no","yes","768","legacy","9","11","/Users/kaylaredder/Desktop/Tarleton /AdvancedQuant/Lab3/MR-subject-4.csv","legacy","2 8 7 9 5 3","Lentiform Loewenfeld","3.3.5","0","n","0","right","right","right","right","NA","1530","17086","12065","1530","NA","2","legacy","6","1024","2","48000","-16","experiment","4","even","6","173584","19134","170285","171340","2026","112193","171353","150558","2041","100127","175598","172367","177129","NA","175598","NA","Sternberg Task ","16","29437","22","yes","1024"
"73.91304347826087","73.91304347826087","1328.304347826087","1328.304347826087","black","experiment","legacy","legacy","legacy","0","uniform","1","undefined","1","right","22","0","22","22","0","0","22","22","0","0","22","22","22","NA","22","0","Sun Oct 25 14:14:30 2020","The main experiment item","yes","NA","SternbergTask.osexp","/Users/kaylaredder/Desktop/Tarleton /AdvancedQuant/Lab3","no","mono","no","18","no","white","no","yes","768","legacy","10","11","/Users/kaylaredder/Desktop/Tarleton /AdvancedQuant/Lab3/MR-subject-4.csv","legacy","6 9 4 5 2","Lentiform Loewenfeld","3.3.5","0","n","0","right","right","right","right","NA","1114","17086","12065","1114","NA","2","legacy","5","1024","2","48000","-16","experiment","4","even","1","180452","19134","177151","178208","2026","112193","178221","150558","2041","100127","182466","179236","183580","NA","182466","NA","Sternberg Task ","17","30551","23","yes","1024"
"75","75","1323.0833333333333","1323.0833333333333","black","experiment","legacy","legacy","legacy","0","uniform","1","undefined","1","left","23","0","23","23","0","0","23","23","0","0","23","23","23","NA","23","0","Sun Oct 25 14:14:30 2020","The main experiment item","yes","NA","SternbergTask.osexp","/Users/kaylaredder/Desktop/Tarleton /AdvancedQuant/Lab3","no","mono","no","18","no","white","no","yes","768","legacy","11","11","/Users/kaylaredder/Desktop/Tarleton /AdvancedQuant/Lab3/MR-subject-4.csv","legacy","8 1 6","Lentiform Loewenfeld","3.3.5","3","y","0","left","right","right","left","NA","1203","17086","12065","1203","NA","2","legacy","3","1024","2","48000","-16","experiment","4","even","6","186899","19134","183601","184656","2026","112193","184668","150558","2041","100127","188913","185683","190116","NA","188913","NA","Sternberg Task ","18","31754","24","yes","1024"
"76","76","1318.4","1318.4","black","experiment","legacy","legacy","legacy","0","uniform","1","undefined","1","right","24","0","24","24","0","0","24","24","0","0","24","24","24","NA","24","0","Sun Oct 25 14:14:30 2020","The main experiment item","yes","NA","SternbergTask.osexp","/Users/kaylaredder/Desktop/Tarleton /AdvancedQuant/Lab3","no","mono","no","18","no","white","no","yes","768","legacy","12","11","/Users/kaylaredder/Desktop/Tarleton /AdvancedQuant/Lab3/MR-subject-4.csv","legacy","7 1 5 6 3","Lentiform Loewenfeld","3.3.5","0","n","0","right","right","right","right","NA","1206","17086","12065","1206","NA","2","legacy","5","1024","2","48000","-16","experiment","4","even","8","193437","19134","190137","191193","2026","112193","191206","150558","2041","100127","195451","192221","196657","NA","195451","NA","Sternberg Task ","19","32960","25","yes","1024"
"76.92307692307692","76.92307692307692","1325.5","1325.5","black","experiment","legacy","legacy","legacy","0","uniform","1","undefined","1","left","25","0","25","25","0","0","25","25","0","0","25","25","25","NA","25","0","Sun Oct 25 14:14:30 2020","The main experiment item","yes","NA","SternbergTask.osexp","/Users/kaylaredder/Desktop/Tarleton /AdvancedQuant/Lab3","no","mono","no","18","no","white","no","yes","768","legacy","13","11","/Users/kaylaredder/Desktop/Tarleton /AdvancedQuant/Lab3/MR-subject-4.csv","legacy","8 9 5 7 1 6","Lentiform Loewenfeld","3.3.5","4","y","0","left","right","right","left","NA","1503","17086","12065","1503","NA","2","legacy","6","1024","2","48000","-16","experiment","4","even","7","199977","19134","196678","197733","2026","112193","197746","150558","2041","100127","201991","198761","203495","NA","201991","NA","Sternberg Task ","20","34463","26","yes","1024"
"77.77777777777777","77.77777777777777","1317.7777777777778","1317.7777777777778","black","experiment","legacy","legacy","legacy","0","uniform","1","undefined","1","left","26","0","26","26","0","0","26","26","0","0","26","26","26","NA","26","0","Sun Oct 25 14:14:30 2020","The main experiment item","yes","NA","SternbergTask.osexp","/Users/kaylaredder/Desktop/Tarleton /AdvancedQuant/Lab3","no","mono","no","18","no","white","no","yes","768","legacy","14","11","/Users/kaylaredder/Desktop/Tarleton /AdvancedQuant/Lab3/MR-subject-4.csv","legacy","7 8 4 6 9 5","Lentiform Loewenfeld","3.3.5","4","y","0","left","right","right","left","NA","1117","17086","12065","1117","NA","2","legacy","6","1024","2","48000","-16","experiment","4","even","6","206816","19134","203517","204573","2026","112193","204585","150558","2041","100127","208830","205600","209948","NA","208830","NA","Sternberg Task ","21","35580","27","yes","1024"
"78.57142857142857","78.57142857142857","1303.0714285714287","1303.0714285714287","black","experiment","legacy","legacy","legacy","0","uniform","1","undefined","1","right","27","0","27","27","0","0","27","27","0","0","27","27","27","NA","27","0","Sun Oct 25 14:14:30 2020","The main experiment item","yes","NA","SternbergTask.osexp","/Users/kaylaredder/Desktop/Tarleton /AdvancedQuant/Lab3","no","mono","no","18","no","white","no","yes","768","legacy","15","11","/Users/kaylaredder/Desktop/Tarleton /AdvancedQuant/Lab3/MR-subject-4.csv","legacy","7 1","Lentiform Loewenfeld","3.3.5","0","n","0","right","right","right","right","NA","906","17086","12065","906","NA","2","legacy","2","1024","2","48000","-16","experiment","4","even","8","213268","19134","209969","211024","2026","112193","211037","150558","2041","100127","215282","212052","216188","NA","215282","NA","Sternberg Task ","22","36486","28","yes","1024"
"79.3103448275862","79.3103448275862","1289.4827586206898","1289.4827586206898","black","experiment","legacy","legacy","legacy","0","uniform","1","undefined","1","right","28","0","28","28","0","0","28","28","0","0","28","28","28","NA","28","0","Sun Oct 25 14:14:30 2020","The main experiment item","yes","NA","SternbergTask.osexp","/Users/kaylaredder/Desktop/Tarleton /AdvancedQuant/Lab3","no","mono","no","18","no","white","no","yes","768","legacy","16","11","/Users/kaylaredder/Desktop/Tarleton /AdvancedQuant/Lab3/MR-subject-4.csv","legacy","1 4 9 3","Lentiform Loewenfeld","3.3.5","0","n","0","right","right","right","right","NA","909","17086","12065","909","NA","2","legacy","4","1024","2","48000","-16","experiment","4","even","5","219508","19134","216209","217264","2026","112193","217277","150558","2041","100127","221522","218292","222432","NA","221522","NA","Sternberg Task ","23","37395","29","yes","1024"
"80","80","1279.4666666666667","1279.4666666666667","black","experiment","legacy","legacy","legacy","0","uniform","1","undefined","1","right","29","0","29","29","0","0","29","29","0","0","29","29","29","NA","29","0","Sun Oct 25 14:14:30 2020","The main experiment item","yes","NA","SternbergTask.osexp","/Users/kaylaredder/Desktop/Tarleton /AdvancedQuant/Lab3","no","mono","no","18","no","white","no","yes","768","legacy","17","11","/Users/kaylaredder/Desktop/Tarleton /AdvancedQuant/Lab3/MR-subject-4.csv","legacy","1 6 4","Lentiform Loewenfeld","3.3.5","0","n","0","right","right","right","right","NA","989","17086","12065","989","NA","2","legacy","3","1024","2","48000","-16","experiment","4","even","7","225752","19134","222454","223509","2026","112193","223521","150558","2041","100127","227766","224536","228756","NA","227766","NA","Sternberg Task ","24","38384","30","yes","1024"
"80.64516129032258","80.64516129032258","1264.967741935484","1264.967741935484","black","experiment","legacy","legacy","legacy","0","uniform","1","undefined","1","left","30","0","30","30","0","0","30","30","0","0","30","30","30","NA","30","0","Sun Oct 25 14:14:30 2020","The main experiment item","yes","NA","SternbergTask.osexp","/Users/kaylaredder/Desktop/Tarleton /AdvancedQuant/Lab3","no","mono","no","18","no","white","no","yes","768","legacy","18","11","/Users/kaylaredder/Desktop/Tarleton /AdvancedQuant/Lab3/MR-subject-4.csv","legacy","8 9 5 6 7","Lentiform Loewenfeld","3.3.5","1","y","0","left","right","right","left","NA","830","17086","12065","830","NA","2","legacy","5","1024","2","48000","-16","experiment","4","even","8","232073","19134","228776","229831","2026","112193","229843","150558","2041","100127","234087","230857","234918","NA","234087","NA","Sternberg Task ","25","39214","31","yes","1024"
"81.25","81.25","1269.21875","1269.21875","black","experiment","legacy","legacy","legacy","0","uniform","1","undefined","1","left","31","0","31","31","0","0","31","31","0","0","31","31","31","NA","31","0","Sun Oct 25 14:14:30 2020","The main experiment item","yes","NA","SternbergTask.osexp","/Users/kaylaredder/Desktop/Tarleton /AdvancedQuant/Lab3","no","mono","no","18","no","white","no","yes","768","legacy","19","11","/Users/kaylaredder/Desktop/Tarleton /AdvancedQuant/Lab3/MR-subject-4.csv","legacy","7 4 2 6 3 5","Lentiform Loewenfeld","3.3.5","6","y","0","left","right","right","left","NA","1401","17086","12065","1401","NA","2","legacy","6","1024","2","48000","-16","experiment","4","even","5","238238","19134","234939","235994","2026","112193","236006","150558","2041","100127","240252","237021","241653","NA","240252","NA","Sternberg Task ","26","40615","32","yes","1024"
"81.81818181818181","81.81818181818181","1263.4848484848485","1263.4848484848485","black","experiment","legacy","legacy","legacy","0","uniform","1","undefined","1","left","32","0","32","32","0","0","32","32","0","0","32","32","32","NA","32","0","Sun Oct 25 14:14:30 2020","The main experiment item","yes","NA","SternbergTask.osexp","/Users/kaylaredder/Desktop/Tarleton /AdvancedQuant/Lab3","no","mono","no","18","no","white","no","yes","768","legacy","20","11","/Users/kaylaredder/Desktop/Tarleton /AdvancedQuant/Lab3/MR-subject-4.csv","legacy","9 5 8 1","Lentiform Loewenfeld","3.3.5","2","y","0","left","right","right","left","NA","1080","17086","12065","1080","NA","2","legacy","4","1024","2","48000","-16","experiment","4","even","5","244972","19134","241674","242729","2026","112193","242741","150558","2041","100127","246986","243756","248067","NA","246986","NA","Sternberg Task ","27","41695","33","yes","1024"
"82.3529411764706","82.3529411764706","1258","1258","black","experiment","legacy","legacy","legacy","0","uniform","1","undefined","1","left","33","0","33","33","0","0","33","33","0","0","33","33","33","NA","33","0","Sun Oct 25 14:14:30 2020","The main experiment item","yes","NA","SternbergTask.osexp","/Users/kaylaredder/Desktop/Tarleton /AdvancedQuant/Lab3","no","mono","no","18","no","white","no","yes","768","legacy","21","11","/Users/kaylaredder/Desktop/Tarleton /AdvancedQuant/Lab3/MR-subject-4.csv","legacy","6 5","Lentiform Loewenfeld","3.3.5","2","y","0","left","right","right","left","NA","1077","17086","12065","1077","NA","2","legacy","2","1024","2","48000","-16","experiment","4","even","5","251389","19134","248089","249144","2026","112193","249156","150558","2041","100127","253403","250172","254481","NA","253403","NA","Sternberg Task ","28","42772","34","yes","1024"
"82.85714285714286","82.85714285714286","1243.6285714285714","1243.6285714285714","black","experiment","legacy","legacy","legacy","0","uniform","1","undefined","1","left","34","0","34","34","0","0","34","34","0","0","34","34","34","NA","34","0","Sun Oct 25 14:14:30 2020","The main experiment item","yes","NA","SternbergTask.osexp","/Users/kaylaredder/Desktop/Tarleton /AdvancedQuant/Lab3","no","mono","no","18","no","white","no","yes","768","legacy","22","11","/Users/kaylaredder/Desktop/Tarleton /AdvancedQuant/Lab3/MR-subject-4.csv","legacy","4 1 8 7 5","Lentiform Loewenfeld","3.3.5","3","y","0","left","right","right","left","NA","755","17086","12065","755","NA","2","legacy","5","1024","2","48000","-16","experiment","4","even","8","257803","19134","254503","255560","2026","112193","255572","150558","2041","100127","259817","256587","260572","NA","259817","NA","Sternberg Task ","29","43527","35","yes","1024"
"83.33333333333333","83.33333333333333","1255.3333333333333","1255.3333333333333","black","experiment","legacy","legacy","legacy","0","uniform","1","undefined","1","right","35","0","35","35","0","0","35","35","0","0","35","35","35","NA","35","0","Sun Oct 25 14:14:30 2020","The main experiment item","yes","NA","SternbergTask.osexp","/Users/kaylaredder/Desktop/Tarleton /AdvancedQuant/Lab3","no","mono","no","18","no","white","no","yes","768","legacy","23","11","/Users/kaylaredder/Desktop/Tarleton /AdvancedQuant/Lab3/MR-subject-4.csv","legacy","1 5 3 2 8","Lentiform Loewenfeld","3.3.5","0","n","0","right","right","right","right","NA","1665","17086","12065","1665","NA","2","legacy","5","1024","2","48000","-16","experiment","4","even","4","263895","19134","260595","261651","2026","112193","261664","150558","2041","100127","265909","262679","267575","NA","265909","NA","Sternberg Task ","30","45192","36","yes","1024"
"83.78378378378379","83.78378378378379","1258.3513513513512","1258.3513513513512","black","experiment","legacy","legacy","legacy","0","uniform","1","undefined","1","right","36","0","36","36","0","0","36","36","0","0","36","36","36","NA","36","0","Sun Oct 25 14:14:30 2020","The main experiment item","yes","NA","SternbergTask.osexp","/Users/kaylaredder/Desktop/Tarleton /AdvancedQuant/Lab3","no","mono","no","18","no","white","no","yes","768","legacy","24","11","/Users/kaylaredder/Desktop/Tarleton /AdvancedQuant/Lab3/MR-subject-4.csv","legacy","8 4 3 9","Lentiform Loewenfeld","3.3.5","0","n","0","right","right","right","right","NA","1367","17086","12065","1367","NA","2","legacy","4","1024","2","48000","-16","experiment","4","even","5","270896","19134","267597","268652","2026","112193","268665","150558","2041","100127","272910","269680","274277","NA","272910","NA","Sternberg Task ","31","46559","37","yes","1024"
"84.21052631578948","84.21052631578948","1253","1253","black","experiment","legacy","legacy","legacy","0","uniform","1","undefined","1","left","37","0","37","37","0","0","37","37","0","0","37","37","37","NA","37","0","Sun Oct 25 14:14:30 2020","The main experiment item","yes","NA","SternbergTask.osexp","/Users/kaylaredder/Desktop/Tarleton /AdvancedQuant/Lab3","no","mono","no","18","no","white","no","yes","768","legacy","25","11","/Users/kaylaredder/Desktop/Tarleton /AdvancedQuant/Lab3/MR-subject-4.csv","legacy","9 8 4","Lentiform Loewenfeld","3.3.5","1","y","0","left","right","right","left","NA","1055","17086","12065","1055","NA","2","legacy","3","1024","2","48000","-16","experiment","4","even","9","277600","19134","274300","275357","2026","112193","275369","150558","2041","100127","279614","276384","280669","NA","279614","NA","Sternberg Task ","32","47614","38","yes","1024"
"84.61538461538461","84.61538461538461","1251.7692307692307","1251.7692307692307","black","experiment","legacy","legacy","legacy","0","uniform","1","undefined","1","left","38","0","38","38","0","0","38","38","0","0","38","38","38","NA","38","0","Sun Oct 25 14:14:30 2020","The main experiment item","yes","NA","SternbergTask.osexp","/Users/kaylaredder/Desktop/Tarleton /AdvancedQuant/Lab3","no","mono","no","18","no","white","no","yes","768","legacy","26","11","/Users/kaylaredder/Desktop/Tarleton /AdvancedQuant/Lab3/MR-subject-4.csv","legacy","9 6 2 4 1","Lentiform Loewenfeld","3.3.5","4","y","0","left","right","right","left","NA","1205","17086","12065","1205","NA","2","legacy","5","1024","2","48000","-16","experiment","4","even","4","283991","19134","280692","281747","2026","112193","281760","150558","2041","100127","286004","282775","287210","NA","286003","NA","Sternberg Task ","33","48819","39","yes","1024"
"85","85","1243.1","1243.1","black","experiment","legacy","legacy","legacy","0","uniform","1","undefined","1","left","39","0","39","39","0","0","39","39","0","0","39","39","39","NA","39","0","Sun Oct 25 14:14:30 2020","The main experiment item","yes","NA","SternbergTask.osexp","/Users/kaylaredder/Desktop/Tarleton /AdvancedQuant/Lab3","no","mono","no","18","no","white","no","yes","768","legacy","27","11","/Users/kaylaredder/Desktop/Tarleton /AdvancedQuant/Lab3/MR-subject-4.csv","legacy","2 6 1 7 4","Lentiform Loewenfeld","3.3.5","2","y","0","left","right","right","left","NA","905","17086","12065","905","NA","2","legacy","5","1024","2","48000","-16","experiment","4","even","6","290530","19134","287231","288286","2026","112193","288299","150558","2041","100127","292544","289314","293449","NA","292544","NA","Sternberg Task ","34","49724","40","yes","1024"
"85.36585365853658","85.36585365853658","1230.6829268292684","1230.6829268292684","black","experiment","legacy","legacy","legacy","0","uniform","1","undefined","1","left","40","0","40","40","0","0","40","40","0","0","40","40","40","NA","40","0","Sun Oct 25 14:14:30 2020","The main experiment item","yes","NA","SternbergTask.osexp","/Users/kaylaredder/Desktop/Tarleton /AdvancedQuant/Lab3","no","mono","no","18","no","white","no","yes","768","legacy","28","11","/Users/kaylaredder/Desktop/Tarleton /AdvancedQuant/Lab3/MR-subject-4.csv","legacy","9 3 8 2 1 4","Lentiform Loewenfeld","3.3.5","3","y","0","left","right","right","left","NA","734","17086","12065","734","NA","2","legacy","6","1024","2","48000","-16","experiment","4","even","8","296772","19134","293471","294528","2026","112193","294541","150558","2041","100127","298786","295556","299520","NA","298786","NA","Sternberg Task ","35","50458","41","yes","1024"
"85.71428571428571","85.71428571428571","1233.1904761904761","1233.1904761904761","black","experiment","legacy","legacy","legacy","0","uniform","1","undefined","1","right","41","0","41","41","0","0","41","41","0","0","41","41","41","NA","41","0","Sun Oct 25 14:14:30 2020","The main experiment item","yes","NA","SternbergTask.osexp","/Users/kaylaredder/Desktop/Tarleton /AdvancedQuant/Lab3","no","mono","no","18","no","white","no","yes","768","legacy","29","11","/Users/kaylaredder/Desktop/Tarleton /AdvancedQuant/Lab3/MR-subject-4.csv","legacy","3 4 9 6 7 8","Lentiform Loewenfeld","3.3.5","0","n","0","right","right","right","right","NA","1336","17086","12065","1336","NA","2","legacy","6","1024","2","48000","-16","experiment","4","even","2","302841","19134","299542","300597","2026","112193","300610","150558","2041","100127","304855","301625","306191","NA","304855","NA","Sternberg Task ","36","51794","42","yes","1024"
"86.04651162790698","86.04651162790698","1231.7674418604652","1231.7674418604652","black","experiment","legacy","legacy","legacy","0","uniform","1","undefined","1","right","42","0","42","42","0","0","42","42","0","0","42","42","42","NA","42","0","Sun Oct 25 14:14:30 2020","The main experiment item","yes","NA","SternbergTask.osexp","/Users/kaylaredder/Desktop/Tarleton /AdvancedQuant/Lab3","no","mono","no","18","no","white","no","yes","768","legacy","30","11","/Users/kaylaredder/Desktop/Tarleton /AdvancedQuant/Lab3/MR-subject-4.csv","legacy","1 7 8 3 9","Lentiform Loewenfeld","3.3.5","0","n","0","right","right","right","right","NA","1172","17086","12065","1172","NA","2","legacy","5","1024","2","48000","-16","experiment","4","even","2","309512","19134","306213","307268","2026","112193","307281","150558","2041","100127","311525","308296","312698","NA","311525","NA","Sternberg Task ","37","52966","43","yes","1024"
"86.36363636363636","86.36363636363636","1225.25","1225.25","black","experiment","legacy","legacy","legacy","0","uniform","1","undefined","1","right","43","0","43","43","0","0","43","43","0","0","43","43","43","NA","43","0","Sun Oct 25 14:14:30 2020","The main experiment item","yes","NA","SternbergTask.osexp","/Users/kaylaredder/Desktop/Tarleton /AdvancedQuant/Lab3","no","mono","no","18","no","white","no","yes","768","legacy","31","11","/Users/kaylaredder/Desktop/Tarleton /AdvancedQuant/Lab3/MR-subject-4.csv","legacy","5 9 2 3","Lentiform Loewenfeld","3.3.5","0","n","0","right","right","right","right","NA","945","17086","12065","945","NA","2","legacy","4","1024","2","48000","-16","experiment","4","even","8","316018","19134","312719","313775","2026","112193","313788","150558","2041","100127","318032","314802","318978","NA","318032","NA","Sternberg Task ","38","53911","44","yes","1024"
"86.66666666666667","86.66666666666667","1231.5111111111112","1231.5111111111112","black","experiment","legacy","legacy","legacy","0","uniform","1","undefined","1","right","44","0","44","44","0","0","44","44","0","0","44","44","44","NA","44","0","Sun Oct 25 14:14:30 2020","The main experiment item","yes","NA","SternbergTask.osexp","/Users/kaylaredder/Desktop/Tarleton /AdvancedQuant/Lab3","no","mono","no","18","no","white","no","yes","768","legacy","32","11","/Users/kaylaredder/Desktop/Tarleton /AdvancedQuant/Lab3/MR-subject-4.csv","legacy","1 4 3 6 5","Lentiform Loewenfeld","3.3.5","0","n","0","right","right","right","right","NA","1507","17086","12065","1507","NA","2","legacy","5","1024","2","48000","-16","experiment","4","even","8","322297","19134","318999","320053","2026","112193","320065","150558","2041","100127","324310","321081","325818","NA","324310","NA","Sternberg Task ","39","55418","45","yes","1024"
"86.95652173913044","86.95652173913044","1224.195652173913","1224.195652173913","black","experiment","legacy","legacy","legacy","0","uniform","1","undefined","1","right","45","0","45","45","0","0","45","45","0","0","45","45","45","NA","45","0","Sun Oct 25 14:14:30 2020","The main experiment item","yes","NA","SternbergTask.osexp","/Users/kaylaredder/Desktop/Tarleton /AdvancedQuant/Lab3","no","mono","no","18","no","white","no","yes","768","legacy","33","11","/Users/kaylaredder/Desktop/Tarleton /AdvancedQuant/Lab3/MR-subject-4.csv","legacy","1 8 7","Lentiform Loewenfeld","3.3.5","0","n","0","right","right","right","right","NA","895","17086","12065","895","NA","2","legacy","3","1024","2","48000","-16","experiment","4","even","4","329142","19134","325840","326897","2026","112193","326911","150558","2041","100127","331157","327927","332052","NA","331157","NA","Sternberg Task ","40","56313","46","yes","1024"
"87.23404255319149","87.23404255319149","1216.8297872340424","1216.8297872340424","black","experiment","legacy","legacy","legacy","0","uniform","1","undefined","1","right","46","0","46","46","0","0","46","46","0","0","46","46","46","NA","46","0","Sun Oct 25 14:14:30 2020","The main experiment item","yes","NA","SternbergTask.osexp","/Users/kaylaredder/Desktop/Tarleton /AdvancedQuant/Lab3","no","mono","no","18","no","white","no","yes","768","legacy","34","11","/Users/kaylaredder/Desktop/Tarleton /AdvancedQuant/Lab3/MR-subject-4.csv","legacy","2 8 9","Lentiform Loewenfeld","3.3.5","0","n","0","right","right","right","right","NA","878","17086","12065","878","NA","2","legacy","3","1024","2","48000","-16","experiment","4","even","6","335372","19134","332073","333129","2026","112193","333141","150558","2041","100127","337386","334156","338265","NA","337386","NA","Sternberg Task ","41","57191","47","yes","1024"
"87.5","87.5","1210.3541666666667","1210.3541666666667","black","experiment","legacy","legacy","legacy","0","uniform","1","undefined","1","left","47","0","47","47","0","0","47","47","0","0","47","47","47","NA","47","0","Sun Oct 25 14:14:30 2020","The main experiment item","yes","NA","SternbergTask.osexp","/Users/kaylaredder/Desktop/Tarleton /AdvancedQuant/Lab3","no","mono","no","18","no","white","no","yes","768","legacy","35","11","/Users/kaylaredder/Desktop/Tarleton /AdvancedQuant/Lab3/MR-subject-4.csv","legacy","3 4 9 6 2 9","Lentiform Loewenfeld","3.3.5","5","y","0","left","right","right","left","NA","906","17086","12065","906","NA","2","legacy","6","1024","2","48000","-16","experiment","4","even","2","341585","19134","338286","339341","2026","112193","339354","150558","2041","100127","343599","340369","344505","NA","343599","NA","Sternberg Task ","42","58097","48","yes","1024"
"87.75510204081633","87.75510204081633","1204.5102040816328","1204.5102040816328","black","experiment","legacy","legacy","legacy","0","uniform","1","undefined","1","right","48","0","48","48","0","0","48","48","0","0","48","48","48","NA","48","0","Sun Oct 25 14:14:30 2020","The main experiment item","yes","NA","SternbergTask.osexp","/Users/kaylaredder/Desktop/Tarleton /AdvancedQuant/Lab3","no","mono","no","18","no","white","no","yes","768","legacy","36","11","/Users/kaylaredder/Desktop/Tarleton /AdvancedQuant/Lab3/MR-subject-4.csv","legacy","1 7 5 2 9","Lentiform Loewenfeld","3.3.5","0","n","0","right","right","right","right","NA","924","17086","12065","924","NA","2","legacy","5","1024","2","48000","-16","experiment","4","even","3","347829","19134","344528","345585","2026","112193","345598","150558","2041","100127","349843","346613","350768","NA","349843","NA","Sternberg Task ","43","59021","49","yes","1024"
"88","88","1197.84","1197.84","black","experiment","legacy","legacy","legacy","0","uniform","1","undefined","1","right","49","0","49","49","0","0","49","49","0","0","49","49","49","NA","49","0","Sun Oct 25 14:14:30 2020","The main experiment item","yes","NA","SternbergTask.osexp","/Users/kaylaredder/Desktop/Tarleton /AdvancedQuant/Lab3","no","mono","no","18","no","white","no","yes","768","legacy","37","11","/Users/kaylaredder/Desktop/Tarleton /AdvancedQuant/Lab3/MR-subject-4.csv","legacy","8 5 7 3 6","Lentiform Loewenfeld","3.3.5","0","n","0","right","right","right","right","NA","871","17086","12065","871","NA","2","legacy","5","1024","2","48000","-16","experiment","4","even","9","354089","19134","350788","351845","2026","112193","351858","150558","2041","100127","356103","352873","356975","NA","356103","NA","Sternberg Task ","44","59892","50","yes","1024"
"88.23529411764706","88.23529411764706","1200.7450980392157","1200.7450980392157","black","experiment","legacy","legacy","legacy","0","uniform","1","undefined","1","left","50","0","50","50","0","0","50","50","0","0","50","50","50","NA","50","0","Sun Oct 25 14:14:30 2020","The main experiment item","yes","NA","SternbergTask.osexp","/Users/kaylaredder/Desktop/Tarleton /AdvancedQuant/Lab3","no","mono","no","18","no","white","no","yes","768","legacy","38","11","/Users/kaylaredder/Desktop/Tarleton /AdvancedQuant/Lab3/MR-subject-4.csv","legacy","2 5 4 8 7","Lentiform Loewenfeld","3.3.5","3","y","0","left","right","right","left","NA","1346","17086","12065","1346","NA","2","legacy","5","1024","2","48000","-16","experiment","4","even","4","360295","19134","356996","358050","2026","112193","358063","150558","2041","100127","362309","359078","363656","NA","362308","NA","Sternberg Task ","45","61238","51","yes","1024"
"88.46153846153847","88.46153846153847","1191.0961538461538","1191.0961538461538","black","experiment","legacy","legacy","legacy","0","uniform","1","undefined","1","left","51","0","51","51","0","0","51","51","0","0","51","51","51","NA","51","0","Sun Oct 25 14:14:30 2020","The main experiment item","yes","NA","SternbergTask.osexp","/Users/kaylaredder/Desktop/Tarleton /AdvancedQuant/Lab3","no","mono","no","18","no","white","no","yes","768","legacy","39","11","/Users/kaylaredder/Desktop/Tarleton /AdvancedQuant/Lab3/MR-subject-4.csv","legacy","3 5 9 6 2 4","Lentiform Loewenfeld","3.3.5","1","y","0","left","right","right","left","NA","699","17086","12065","699","NA","2","legacy","6","1024","2","48000","-16","experiment","4","even","3","366977","19134","363678","364733","2026","112193","364746","150558","2041","100127","368991","365761","369690","NA","368991","NA","Sternberg Task ","46","61937","52","yes","1024"
"88.67924528301887","88.67924528301887","1181.7735849056603","1181.7735849056603","black","experiment","legacy","legacy","legacy","0","uniform","1","undefined","1","left","52","0","52","52","0","0","52","52","0","0","52","52","52","NA","52","0","Sun Oct 25 14:14:30 2020","The main experiment item","yes","NA","SternbergTask.osexp","/Users/kaylaredder/Desktop/Tarleton /AdvancedQuant/Lab3","no","mono","no","18","no","white","no","yes","768","legacy","40","11","/Users/kaylaredder/Desktop/Tarleton /AdvancedQuant/Lab3/MR-subject-4.csv","legacy","4 3 2 5 8","Lentiform Loewenfeld","3.3.5","2","y","0","left","right","right","left","NA","697","17086","12065","697","NA","2","legacy","5","1024","2","48000","-16","experiment","4","even","3","373008","19134","369711","370766","2026","112193","370779","150558","2041","100127","375022","371793","375720","NA","375022","NA","Sternberg Task ","47","62634","53","yes","1024"
"88.88888888888889","88.88888888888889","1177.3333333333333","1177.3333333333333","black","experiment","legacy","legacy","legacy","0","uniform","1","undefined","1","right","53","0","53","53","0","0","53","53","0","0","53","53","53","NA","53","0","Sun Oct 25 14:14:30 2020","The main experiment item","yes","NA","SternbergTask.osexp","/Users/kaylaredder/Desktop/Tarleton /AdvancedQuant/Lab3","no","mono","no","18","no","white","no","yes","768","legacy","41","11","/Users/kaylaredder/Desktop/Tarleton /AdvancedQuant/Lab3/MR-subject-4.csv","legacy","2 3 8 5 6 7","Lentiform Loewenfeld","3.3.5","0","n","0","right","right","right","right","NA","942","17086","12065","942","NA","2","legacy","6","1024","2","48000","-16","experiment","4","even","1","379038","19134","375741","376795","2026","112193","376808","150558","2041","100127","381052","377822","381994","NA","381052","NA","Sternberg Task ","48","63576","54","yes","1024"
"89.0909090909091","89.0909090909091","1173.909090909091","1173.909090909091","black","experiment","legacy","legacy","legacy","0","uniform","1","undefined","1","right","54","0","54","54","0","0","54","54","0","0","54","54","54","NA","54","0","Sun Oct 25 14:14:30 2020","The main experiment item","yes","NA","SternbergTask.osexp","/Users/kaylaredder/Desktop/Tarleton /AdvancedQuant/Lab3","no","mono","no","18","no","white","no","yes","768","legacy","42","11","/Users/kaylaredder/Desktop/Tarleton /AdvancedQuant/Lab3/MR-subject-4.csv","legacy","8 2 1 4 5 9","Lentiform Loewenfeld","3.3.5","0","n","0","right","right","right","right","NA","989","17086","12065","989","NA","2","legacy","6","1024","2","48000","-16","experiment","4","even","7","385314","19134","382014","383070","2026","112193","383083","150558","2041","100127","387328","384098","388317","NA","387328","NA","Sternberg Task ","49","64565","55","yes","1024"
"89.28571428571429","89.28571428571429","1175.9642857142858","1175.9642857142858","black","experiment","legacy","legacy","legacy","0","uniform","1","undefined","1","left","55","0","55","55","0","0","55","55","0","0","55","55","55","NA","55","0","Sun Oct 25 14:14:30 2020","The main experiment item","yes","NA","SternbergTask.osexp","/Users/kaylaredder/Desktop/Tarleton /AdvancedQuant/Lab3","no","mono","no","18","no","white","no","yes","768","legacy","43","11","/Users/kaylaredder/Desktop/Tarleton /AdvancedQuant/Lab3/MR-subject-4.csv","legacy","5 2 6","Lentiform Loewenfeld","3.3.5","2","y","0","left","right","right","left","NA","1289","17086","12065","1289","NA","2","legacy","3","1024","2","48000","-16","experiment","4","even","2","391640","19134","388340","389396","2026","112193","389409","150558","2041","100127","393654","390424","394944","NA","393654","NA","Sternberg Task ","50","65854","56","yes","1024"
"89.47368421052632","89.47368421052632","1175.4561403508771","1175.4561403508771","black","experiment","legacy","legacy","legacy","0","uniform","1","undefined","1","left","56","0","56","56","0","0","56","56","0","0","56","56","56","NA","56","0","Sun Oct 25 14:14:30 2020","The main experiment item","yes","NA","SternbergTask.osexp","/Users/kaylaredder/Desktop/Tarleton /AdvancedQuant/Lab3","no","mono","no","18","no","white","no","yes","768","legacy","44","11","/Users/kaylaredder/Desktop/Tarleton /AdvancedQuant/Lab3/MR-subject-4.csv","legacy","8","Lentiform Loewenfeld","3.3.5","1","y","0","left","right","right","left","NA","1147","17086","12065","1147","NA","2","legacy","1","1024","2","48000","-16","experiment","4","even","8","398264","19134","394966","396020","2026","112193","396032","150558","2041","100127","400278","397047","401425","NA","400278","NA","Sternberg Task ","51","67001","57","yes","1024"
"89.65517241379311","89.65517241379311","1177.0862068965516","1177.0862068965516","black","experiment","legacy","legacy","legacy","0","uniform","1","undefined","1","right","57","0","57","57","0","0","57","57","0","0","57","57","57","NA","57","0","Sun Oct 25 14:14:30 2020","The main experiment item","yes","NA","SternbergTask.osexp","/Users/kaylaredder/Desktop/Tarleton /AdvancedQuant/Lab3","no","mono","no","18","no","white","no","yes","768","legacy","45","11","/Users/kaylaredder/Desktop/Tarleton /AdvancedQuant/Lab3/MR-subject-4.csv","legacy","9 8 2 7 4","Lentiform Loewenfeld","3.3.5","0","n","0","right","right","right","right","NA","1270","17086","12065","1270","NA","2","legacy","5","1024","2","48000","-16","experiment","4","even","5","404745","19134","401446","402501","2026","112193","402514","150558","2041","100127","406759","403528","408029","NA","406759","NA","Sternberg Task ","52","68271","58","yes","1024"
"89.83050847457628","89.83050847457628","1173.9322033898304","1173.9322033898304","black","experiment","legacy","legacy","legacy","0","uniform","1","undefined","1","right","58","0","58","58","0","0","58","58","0","0","58","58","58","NA","58","0","Sun Oct 25 14:14:30 2020","The main experiment item","yes","NA","SternbergTask.osexp","/Users/kaylaredder/Desktop/Tarleton /AdvancedQuant/Lab3","no","mono","no","18","no","white","no","yes","768","legacy","46","11","/Users/kaylaredder/Desktop/Tarleton /AdvancedQuant/Lab3/MR-subject-4.csv","legacy","7 8 6 1","Lentiform Loewenfeld","3.3.5","0","n","0","right","right","right","right","NA","991","17086","12065","991","NA","2","legacy","4","1024","2","48000","-16","experiment","4","even","3","411355","19134","408054","409110","2026","112193","409123","150558","2041","100127","413369","410138","414361","NA","413369","NA","Sternberg Task ","53","69262","59","yes","1024"
"90","90","1167.3","1167.3","black","experiment","legacy","legacy","legacy","0","uniform","1","undefined","1","right","59","0","59","59","0","0","59","59","0","0","59","59","59","NA","59","0","Sun Oct 25 14:14:30 2020","The main experiment item","yes","NA","SternbergTask.osexp","/Users/kaylaredder/Desktop/Tarleton /AdvancedQuant/Lab3","no","mono","no","18","no","white","no","yes","768","legacy","47","11","/Users/kaylaredder/Desktop/Tarleton /AdvancedQuant/Lab3/MR-subject-4.csv","legacy","7 9","Lentiform Loewenfeld","3.3.5","0","n","0","right","right","right","right","NA","776","17086","12065","776","NA","2","legacy","2","1024","2","48000","-16","experiment","4","even","1","417681","19134","414382","415437","2026","112193","415450","150558","2041","100127","419695","416465","420472","NA","419695","NA","Sternberg Task ","54","70038","60","yes","1024"
"90.1639344262295","90.1639344262295","1163.5245901639344","1163.5245901639344","black","experiment","legacy","legacy","legacy","0","uniform","1","undefined","1","left","60","0","60","60","0","0","60","60","0","0","60","60","60","NA","60","0","Sun Oct 25 14:14:30 2020","The main experiment item","yes","NA","SternbergTask.osexp","/Users/kaylaredder/Desktop/Tarleton /AdvancedQuant/Lab3","no","mono","no","18","no","white","no","yes","768","legacy","48","11","/Users/kaylaredder/Desktop/Tarleton /AdvancedQuant/Lab3/MR-subject-4.csv","legacy","8 3","Lentiform Loewenfeld","3.3.5","2","y","0","left","right","right","left","NA","937","17086","12065","937","NA","2","legacy","2","1024","2","48000","-16","experiment","4","even","3","423788","19134","420490","421545","2026","112193","421557","150558","2041","100127","425801","422572","426739","NA","425801","NA","Sternberg Task ","55","70975","61","yes","1024"
"90.3225806451613","90.3225806451613","1161.467741935484","1161.467741935484","black","experiment","legacy","legacy","legacy","0","uniform","1","undefined","1","right","61","0","61","61","0","0","61","61","0","0","61","61","61","NA","61","0","Sun Oct 25 14:14:30 2020","The main experiment item","yes","NA","SternbergTask.osexp","/Users/kaylaredder/Desktop/Tarleton /AdvancedQuant/Lab3","no","mono","no","18","no","white","no","yes","768","legacy","49","11","/Users/kaylaredder/Desktop/Tarleton /AdvancedQuant/Lab3/MR-subject-4.csv","legacy","5","Lentiform Loewenfeld","3.3.5","0","n","0","right","right","right","right","NA","1036","17086","12065","1036","NA","2","legacy","1","1024","2","48000","-16","experiment","4","even","8","430058","19134","426759","427815","2026","112193","427828","150558","2041","100127","432073","428843","433110","NA","432073","NA","Sternberg Task ","56","72011","62","yes","1024"
"88.88888888888889","88.88888888888889","1174.7777777777778","1174.7777777777778","black","experiment","legacy","legacy","legacy","0","uniform","0","undefined","0","left","62","0","62","62","0","0","62","62","0","0","62","62","62","NA","62","0","Sun Oct 25 14:14:30 2020","The main experiment item","yes","NA","SternbergTask.osexp","/Users/kaylaredder/Desktop/Tarleton /AdvancedQuant/Lab3","no","mono","no","18","no","white","no","yes","768","legacy","50","11","/Users/kaylaredder/Desktop/Tarleton /AdvancedQuant/Lab3/MR-subject-4.csv","legacy","8 5 4 7 3 1","Lentiform Loewenfeld","3.3.5","2","y","0","None","right","right","None","NA","2000","17086","12065","2000","NA","2","legacy","6","1024","2","48000","-16","experiment","4","even","5","436432","19134","433133","434189","2026","112193","434202","150558","2041","100127","438446","435216","440446","NA","438446","NA","Sternberg Task ","56","74011","63","yes","1024"
"89.0625","89.0625","1174.71875","1174.71875","black","experiment","legacy","legacy","legacy","0","uniform","1","undefined","1","right","63","0","63","63","0","0","63","63","0","0","63","63","63","NA","63","0","Sun Oct 25 14:14:30 2020","The main experiment item","yes","NA","SternbergTask.osexp","/Users/kaylaredder/Desktop/Tarleton /AdvancedQuant/Lab3","no","mono","no","18","no","white","no","yes","768","legacy","51","11","/Users/kaylaredder/Desktop/Tarleton /AdvancedQuant/Lab3/MR-subject-4.csv","legacy","6 2 9 3 8 4","Lentiform Loewenfeld","3.3.5","0","n","0","right","right","right","right","NA","1171","17086","12065","1171","NA","2","legacy","6","1024","2","48000","-16","experiment","4","even","1","443768","19134","433133","441524","2026","112193","441537","440468","2041","100127","445782","442551","446954","NA","445782","NA","Sternberg Task ","57","75182","64","yes","1024"
"89.23076923076923","89.23076923076923","1172.8615384615384","1172.8615384615384","black","experiment","legacy","legacy","legacy","0","uniform","1","undefined","1","right","64","0","64","64","0","0","64","64","0","0","64","64","64","NA","64","0","Sun Oct 25 14:14:30 2020","The main experiment item","yes","NA","SternbergTask.osexp","/Users/kaylaredder/Desktop/Tarleton /AdvancedQuant/Lab3","no","mono","no","18","no","white","no","yes","768","legacy","52","11","/Users/kaylaredder/Desktop/Tarleton /AdvancedQuant/Lab3/MR-subject-4.csv","legacy","7 9 1 6","Lentiform Loewenfeld","3.3.5","0","n","0","right","right","right","right","NA","1054","17086","12065","1054","NA","2","legacy","4","1024","2","48000","-16","experiment","4","even","4","450276","19134","446977","448032","2026","112193","448045","440468","2041","100127","452289","449059","453344","NA","452289","NA","Sternberg Task ","58","76236","65","yes","1024"
"89.39393939393939","89.39393939393939","1168.5151515151515","1168.5151515151515","black","experiment","legacy","legacy","legacy","0","uniform","1","undefined","1","right","65","0","65","65","0","0","65","65","0","0","65","65","65","NA","65","0","Sun Oct 25 14:14:30 2020","The main experiment item","yes","NA","SternbergTask.osexp","/Users/kaylaredder/Desktop/Tarleton /AdvancedQuant/Lab3","no","mono","no","18","no","white","no","yes","768","legacy","53","11","/Users/kaylaredder/Desktop/Tarleton /AdvancedQuant/Lab3/MR-subject-4.csv","legacy","5 2","Lentiform Loewenfeld","3.3.5","0","n","0","right","right","right","right","NA","886","17086","12065","886","NA","2","legacy","2","1024","2","48000","-16","experiment","4","even","7","456665","19134","453366","454421","2026","112193","454434","440468","2041","100127","458679","455449","459566","NA","458679","NA","Sternberg Task ","59","77122","66","yes","1024"
"89.55223880597015","89.55223880597015","1163.1194029850747","1163.1194029850747","black","experiment","legacy","legacy","legacy","0","uniform","1","undefined","1","left","66","0","66","66","0","0","66","66","0","0","66","66","66","NA","66","0","Sun Oct 25 14:14:30 2020","The main experiment item","yes","NA","SternbergTask.osexp","/Users/kaylaredder/Desktop/Tarleton /AdvancedQuant/Lab3","no","mono","no","18","no","white","no","yes","768","legacy","54","11","/Users/kaylaredder/Desktop/Tarleton /AdvancedQuant/Lab3/MR-subject-4.csv","legacy","5 7 3 6 2","Lentiform Loewenfeld","3.3.5","5","y","0","left","right","right","left","NA","807","17086","12065","807","NA","2","legacy","5","1024","2","48000","-16","experiment","4","even","2","462889","19134","459588","460645","2026","112193","460658","440468","2041","100127","464903","461673","465710","NA","464903","NA","Sternberg Task ","60","77929","67","yes","1024"
"89.70588235294117","89.70588235294117","1156.8235294117646","1156.8235294117646","black","experiment","legacy","legacy","legacy","0","uniform","1","undefined","1","right","67","0","67","67","0","0","67","67","0","0","67","67","67","NA","67","0","Sun Oct 25 14:14:30 2020","The main experiment item","yes","NA","SternbergTask.osexp","/Users/kaylaredder/Desktop/Tarleton /AdvancedQuant/Lab3","no","mono","no","18","no","white","no","yes","768","legacy","55","11","/Users/kaylaredder/Desktop/Tarleton /AdvancedQuant/Lab3/MR-subject-4.csv","legacy","5 7 3","Lentiform Loewenfeld","3.3.5","0","n","0","right","right","right","right","NA","735","17086","12065","735","NA","2","legacy","3","1024","2","48000","-16","experiment","4","even","9","469031","19134","465731","466787","2026","112193","466800","440468","2041","100127","471045","467815","471781","NA","471045","NA","Sternberg Task ","61","78664","68","yes","1024"
"89.85507246376811","89.85507246376811","1152.8695652173913","1152.8695652173913","black","experiment","legacy","legacy","legacy","0","uniform","1","undefined","1","right","68","0","68","68","0","0","68","68","0","0","68","68","68","NA","68","0","Sun Oct 25 14:14:30 2020","The main experiment item","yes","NA","SternbergTask.osexp","/Users/kaylaredder/Desktop/Tarleton /AdvancedQuant/Lab3","no","mono","no","18","no","white","no","yes","768","legacy","56","11","/Users/kaylaredder/Desktop/Tarleton /AdvancedQuant/Lab3/MR-subject-4.csv","legacy","7 3 2 8","Lentiform Loewenfeld","3.3.5","0","n","0","right","right","right","right","NA","884","17086","12065","884","NA","2","legacy","4","1024","2","48000","-16","experiment","4","even","4","475101","19134","471802","472858","2026","112193","472870","440468","2041","100127","477115","473885","478000","NA","477115","NA","Sternberg Task ","62","79548","69","yes","1024"
"90","90","1151.5","1151.5","black","experiment","legacy","legacy","legacy","0","uniform","1","undefined","1","left","69","0","69","69","0","0","69","69","0","0","69","69","69","NA","69","0","Sun Oct 25 14:14:30 2020","The main experiment item","yes","NA","SternbergTask.osexp","/Users/kaylaredder/Desktop/Tarleton /AdvancedQuant/Lab3","no","mono","no","18","no","white","no","yes","768","legacy","57","11","/Users/kaylaredder/Desktop/Tarleton /AdvancedQuant/Lab3/MR-subject-4.csv","legacy","7 2 3","Lentiform Loewenfeld","3.3.5","3","y","0","left","right","right","left","NA","1057","17086","12065","1057","NA","2","legacy","3","1024","2","48000","-16","experiment","4","even","3","481317","19134","478015","479072","2026","112193","479085","440468","2041","100127","483331","480100","484389","NA","483330","NA","Sternberg Task ","63","80605","70","yes","1024"
"90.14084507042253","90.14084507042253","1145.1267605633802","1145.1267605633802","black","experiment","legacy","legacy","legacy","0","uniform","1","undefined","1","left","70","0","70","70","0","0","70","70","0","0","70","70","70","NA","70","0","Sun Oct 25 14:14:30 2020","The main experiment item","yes","NA","SternbergTask.osexp","/Users/kaylaredder/Desktop/Tarleton /AdvancedQuant/Lab3","no","mono","no","18","no","white","no","yes","768","legacy","58","11","/Users/kaylaredder/Desktop/Tarleton /AdvancedQuant/Lab3/MR-subject-4.csv","legacy","6 8 9 3 4 9","Lentiform Loewenfeld","3.3.5","5","y","0","left","right","right","left","NA","699","17086","12065","699","NA","2","legacy","6","1024","2","48000","-16","experiment","4","even","4","487710","19134","484411","485467","2026","112193","485479","440468","2041","100127","489724","486494","490424","NA","489724","NA","Sternberg Task ","64","81304","71","yes","1024"
"90.27777777777777","90.27777777777777","1150.5277777777778","1150.5277777777778","black","experiment","legacy","legacy","legacy","0","uniform","1","undefined","1","right","71","0","71","71","0","0","71","71","0","0","71","71","71","NA","71","0","Sun Oct 25 14:14:30 2020","The main experiment item","yes","NA","SternbergTask.osexp","/Users/kaylaredder/Desktop/Tarleton /AdvancedQuant/Lab3","no","mono","no","18","no","white","no","yes","768","legacy","59","11","/Users/kaylaredder/Desktop/Tarleton /AdvancedQuant/Lab3/MR-subject-4.csv","legacy","5 3 2 6 9 8","Lentiform Loewenfeld","3.3.5","0","n","0","right","right","right","right","NA","1534","17086","12065","1534","NA","2","legacy","6","1024","2","48000","-16","experiment","4","even","4","493744","19134","490445","491500","2026","112193","491513","440468","2041","100127","495758","492528","497293","NA","495758","NA","Sternberg Task ","65","82838","72","yes","1024"
"90.41095890410959","90.41095890410959","1146.3972602739725","1146.3972602739725","black","experiment","legacy","legacy","legacy","0","uniform","1","undefined","1","left","72","0","72","72","0","0","72","72","0","0","72","72","72","NA","72","0","Sun Oct 25 14:14:30 2020","The main experiment item","yes","NA","SternbergTask.osexp","/Users/kaylaredder/Desktop/Tarleton /AdvancedQuant/Lab3","no","mono","no","18","no","white","no","yes","768","legacy","60","11","/Users/kaylaredder/Desktop/Tarleton /AdvancedQuant/Lab3/MR-subject-4.csv","legacy","1 4 9 3 2 5","Lentiform Loewenfeld","3.3.5","3","y","0","left","right","right","left","NA","849","17086","12065","849","NA","2","legacy","6","1024","2","48000","-16","experiment","4","even","9","500614","19134","497314","498370","2026","112193","498383","440468","2041","100127","502674","499398","503524","NA","502674","NA","Sternberg Task ","66","83687","73","yes","1024"
"90.54054054054055","90.54054054054055","1151.337837837838","1151.337837837838","black","experiment","legacy","legacy","legacy","0","uniform","1","undefined","1","right","73","0","73","73","0","0","73","73","0","0","73","73","73","NA","73","0","Sun Oct 25 14:14:30 2020","The main experiment item","yes","NA","SternbergTask.osexp","/Users/kaylaredder/Desktop/Tarleton /AdvancedQuant/Lab3","no","mono","no","18","no","white","no","yes","768","legacy","61","11","/Users/kaylaredder/Desktop/Tarleton /AdvancedQuant/Lab3/MR-subject-4.csv","legacy","6 9 4 5 3 2","Lentiform Loewenfeld","3.3.5","0","n","0","right","right","right","right","NA","1512","17086","12065","1512","NA","2","legacy","6","1024","2","48000","-16","experiment","4","even","8","506845","19134","503546","504601","2026","112193","504614","440468","2041","100127","508860","505629","510373","NA","508859","NA","Sternberg Task ","67","85199","74","yes","1024"
"90.66666666666667","90.66666666666667","1147.04","1147.04","black","experiment","legacy","legacy","legacy","0","uniform","1","undefined","1","left","74","0","74","74","0","0","74","74","0","0","74","74","74","NA","74","0","Sun Oct 25 14:14:30 2020","The main experiment item","yes","NA","SternbergTask.osexp","/Users/kaylaredder/Desktop/Tarleton /AdvancedQuant/Lab3","no","mono","no","18","no","white","no","yes","768","legacy","62","11","/Users/kaylaredder/Desktop/Tarleton /AdvancedQuant/Lab3/MR-subject-4.csv","legacy","9 4 2","Lentiform Loewenfeld","3.3.5","1","y","0","left","right","right","left","NA","829","17086","12065","829","NA","2","legacy","3","1024","2","48000","-16","experiment","4","even","9","513693","19134","510395","511450","2026","112193","511462","440468","2041","100127","515707","512477","516537","NA","515707","NA","Sternberg Task ","68","86028","75","yes","1024"
"90.78947368421052","90.78947368421052","1145.921052631579","1145.921052631579","black","experiment","legacy","legacy","legacy","0","uniform","1","undefined","1","left","75","0","75","75","0","0","75","75","0","0","75","75","75","NA","75","0","Sun Oct 25 14:14:30 2020","The main experiment item","yes","NA","SternbergTask.osexp","/Users/kaylaredder/Desktop/Tarleton /AdvancedQuant/Lab3","no","mono","no","18","no","white","no","yes","768","legacy","63","11","/Users/kaylaredder/Desktop/Tarleton /AdvancedQuant/Lab3/MR-subject-4.csv","legacy","3 9 6 2","Lentiform Loewenfeld","3.3.5","4","y","0","left","right","right","left","NA","1062","17086","12065","1062","NA","2","legacy","4","1024","2","48000","-16","experiment","4","even","2","519857","19134","516556","517612","2026","112193","517625","440468","2041","100127","521871","518640","522934","NA","521871","NA","Sternberg Task ","69","87090","76","yes","1024"
"90.9090909090909","90.9090909090909","1145.4155844155844","1145.4155844155844","black","experiment","legacy","legacy","legacy","0","uniform","1","undefined","1","right","76","0","76","76","0","0","76","76","0","0","76","76","76","NA","76","0","Sun Oct 25 14:14:30 2020","The main experiment item","yes","NA","SternbergTask.osexp","/Users/kaylaredder/Desktop/Tarleton /AdvancedQuant/Lab3","no","mono","no","18","no","white","no","yes","768","legacy","64","11","/Users/kaylaredder/Desktop/Tarleton /AdvancedQuant/Lab3/MR-subject-4.csv","legacy","8 5 4 2 9 6","Lentiform Loewenfeld","3.3.5","0","n","0","right","right","right","right","NA","1107","17086","12065","1107","NA","2","legacy","6","1024","2","48000","-16","experiment","4","even","3","526254","19134","522955","524009","2026","112193","524022","440468","2041","100127","528268","525037","529376","NA","528268","NA","Sternberg Task ","70","88197","77","yes","1024"
"91.02564102564102","91.02564102564102","1142.9102564102564","1142.9102564102564","black","experiment","legacy","legacy","legacy","0","uniform","1","undefined","1","left","77","0","77","77","0","0","77","77","0","0","77","77","77","NA","77","0","Sun Oct 25 14:14:30 2020","The main experiment item","yes","NA","SternbergTask.osexp","/Users/kaylaredder/Desktop/Tarleton /AdvancedQuant/Lab3","no","mono","no","18","no","white","no","yes","768","legacy","65","11","/Users/kaylaredder/Desktop/Tarleton /AdvancedQuant/Lab3/MR-subject-4.csv","legacy","7","Lentiform Loewenfeld","3.3.5","1","y","0","left","right","right","left","NA","950","17086","12065","950","NA","2","legacy","1","1024","2","48000","-16","experiment","4","even","7","532696","19134","529397","530452","2026","112193","530465","440468","2041","100127","534709","531479","535660","NA","534709","NA","Sternberg Task ","71","89147","78","yes","1024"
"91.13924050632912","91.13924050632912","1143.1772151898733","1143.1772151898733","black","experiment","legacy","legacy","legacy","0","uniform","1","undefined","1","right","78","0","78","78","0","0","78","78","0","0","78","78","78","NA","78","0","Sun Oct 25 14:14:30 2020","The main experiment item","yes","NA","SternbergTask.osexp","/Users/kaylaredder/Desktop/Tarleton /AdvancedQuant/Lab3","no","mono","no","18","no","white","no","yes","768","legacy","66","11","/Users/kaylaredder/Desktop/Tarleton /AdvancedQuant/Lab3/MR-subject-4.csv","legacy","1 7 5 2","Lentiform Loewenfeld","3.3.5","0","n","0","right","right","right","right","NA","1164","17086","12065","1164","NA","2","legacy","4","1024","2","48000","-16","experiment","4","even","3","538981","19134","535682","536737","2026","112193","536750","440468","2041","100127","540995","537764","542160","NA","540995","NA","Sternberg Task ","72","90311","79","yes","1024"
"91.25","91.25","1138.4","1138.4","black","experiment","legacy","legacy","legacy","0","uniform","1","undefined","1","right","79","0","79","79","0","0","79","79","0","0","79","79","79","NA","79","0","Sun Oct 25 14:14:30 2020","The main experiment item","yes","NA","SternbergTask.osexp","/Users/kaylaredder/Desktop/Tarleton /AdvancedQuant/Lab3","no","mono","no","18","no","white","no","yes","768","legacy","67","11","/Users/kaylaredder/Desktop/Tarleton /AdvancedQuant/Lab3/MR-subject-4.csv","legacy","1","Lentiform Loewenfeld","3.3.5","0","n","0","right","right","right","right","NA","761","17086","12065","761","NA","2","legacy","1","1024","2","48000","-16","experiment","4","even","7","545481","19134","542180","543237","2026","112193","543250","440468","2041","100127","547495","544264","548257","NA","547495","NA","Sternberg Task ","73","91072","80","yes","1024"
"91.35802469135803","91.35802469135803","1139.0246913580247","1139.0246913580247","black","experiment","legacy","legacy","legacy","0","uniform","1","undefined","1","right","80","0","80","80","0","0","80","80","0","0","80","80","80","NA","80","0","Sun Oct 25 14:14:30 2020","The main experiment item","yes","NA","SternbergTask.osexp","/Users/kaylaredder/Desktop/Tarleton /AdvancedQuant/Lab3","no","mono","no","18","no","white","no","yes","768","legacy","68","11","/Users/kaylaredder/Desktop/Tarleton /AdvancedQuant/Lab3/MR-subject-4.csv","legacy","2 6 4 3 9","Lentiform Loewenfeld","3.3.5","0","n","0","right","right","right","right","NA","1189","17086","12065","1189","NA","2","legacy","5","1024","2","48000","-16","experiment","4","even","1","551578","19134","548278","549334","2026","112193","549347","440468","2041","100127","553592","550362","554782","NA","553592","NA","Sternberg Task ","74","92261","81","yes","1024"
"91.46341463414635","91.46341463414635","1136.8292682926829","1136.8292682926829","black","experiment","legacy","legacy","legacy","0","uniform","1","undefined","1","right","81","0","81","81","0","0","81","81","0","0","81","81","81","NA","81","0","Sun Oct 25 14:14:30 2020","The main experiment item","yes","NA","SternbergTask.osexp","/Users/kaylaredder/Desktop/Tarleton /AdvancedQuant/Lab3","no","mono","no","18","no","white","no","yes","768","legacy","69","11","/Users/kaylaredder/Desktop/Tarleton /AdvancedQuant/Lab3/MR-subject-4.csv","legacy","6 7 5 9","Lentiform Loewenfeld","3.3.5","0","n","0","right","right","right","right","NA","959","17086","12065","959","NA","2","legacy","4","1024","2","48000","-16","experiment","4","even","2","558102","19134","554804","555859","2026","112193","555872","440468","2041","100127","560116","556887","561076","NA","560116","NA","Sternberg Task ","75","93220","82","yes","1024"
"91.56626506024097","91.56626506024097","1137.3253012048192","1137.3253012048192","black","experiment","legacy","legacy","legacy","0","uniform","1","undefined","1","right","82","0","82","82","0","0","82","82","0","0","82","82","82","NA","82","0","Sun Oct 25 14:14:30 2020","The main experiment item","yes","NA","SternbergTask.osexp","/Users/kaylaredder/Desktop/Tarleton /AdvancedQuant/Lab3","no","mono","no","18","no","white","no","yes","768","legacy","70","11","/Users/kaylaredder/Desktop/Tarleton /AdvancedQuant/Lab3/MR-subject-4.csv","legacy","2 8 9 4 1","Lentiform Loewenfeld","3.3.5","0","n","0","right","right","right","right","NA","1178","17086","12065","1178","NA","2","legacy","5","1024","2","48000","-16","experiment","4","even","5","564397","19134","561097","562152","2026","112193","562164","440468","2041","100127","566411","563180","567590","NA","566411","NA","Sternberg Task ","76","94398","83","yes","1024"
"91.66666666666667","91.66666666666667","1135.7738095238096","1135.7738095238096","black","experiment","legacy","legacy","legacy","0","uniform","1","undefined","1","left","83","0","83","83","0","0","83","83","0","0","83","83","83","NA","83","0","Sun Oct 25 14:14:30 2020","The main experiment item","yes","NA","SternbergTask.osexp","/Users/kaylaredder/Desktop/Tarleton /AdvancedQuant/Lab3","no","mono","no","18","no","white","no","yes","768","legacy","71","11","/Users/kaylaredder/Desktop/Tarleton /AdvancedQuant/Lab3/MR-subject-4.csv","legacy","4 6 2 5 1","Lentiform Loewenfeld","3.3.5","5","y","0","left","right","right","left","NA","1007","17086","12065","1007","NA","2","legacy","5","1024","2","48000","-16","experiment","4","even","1","570910","19134","567611","568666","2026","112193","568679","440468","2041","100127","572924","569694","573931","NA","572924","NA","Sternberg Task ","77","95405","84","yes","1024"
"91.76470588235294","91.76470588235294","1130.8","1130.8","black","experiment","legacy","legacy","legacy","0","uniform","1","undefined","1","left","84","0","84","84","0","0","84","84","0","0","84","84","84","NA","84","0","Sun Oct 25 14:14:30 2020","The main experiment item","yes","NA","SternbergTask.osexp","/Users/kaylaredder/Desktop/Tarleton /AdvancedQuant/Lab3","no","mono","no","18","no","white","no","yes","768","legacy","72","11","/Users/kaylaredder/Desktop/Tarleton /AdvancedQuant/Lab3/MR-subject-4.csv","legacy","9 1 6 7 8","Lentiform Loewenfeld","3.3.5","1","y","0","left","right","right","left","NA","713","17086","12065","713","NA","2","legacy","5","1024","2","48000","-16","experiment","4","even","9","577253","19134","573954","575009","2026","112193","575021","440468","2041","100127","579267","576036","579981","NA","579267","NA","Sternberg Task ","78","96118","85","yes","1024"
"91.86046511627907","91.86046511627907","1126.360465116279","1126.360465116279","black","experiment","legacy","legacy","legacy","0","uniform","1","undefined","1","left","85","0","85","85","0","0","85","85","0","0","85","85","85","NA","85","0","Sun Oct 25 14:14:30 2020","The main experiment item","yes","NA","SternbergTask.osexp","/Users/kaylaredder/Desktop/Tarleton /AdvancedQuant/Lab3","no","mono","no","18","no","white","no","yes","768","legacy","73","11","/Users/kaylaredder/Desktop/Tarleton /AdvancedQuant/Lab3/MR-subject-4.csv","legacy","5 2 9 6 1 7","Lentiform Loewenfeld","3.3.5","3","y","0","left","right","right","left","NA","749","17086","12065","749","NA","2","legacy","6","1024","2","48000","-16","experiment","4","even","9","583301","19134","580001","581057","2026","112193","581069","440468","2041","100127","585315","582084","586065","NA","585315","NA","Sternberg Task ","79","96867","86","yes","1024"
"90.80459770114942","90.80459770114942","1131.4137931034484","1131.4137931034484","black","experiment","legacy","legacy","legacy","0","uniform","0","undefined","0","left","86","0","86","86","0","0","86","86","0","0","86","86","86","NA","86","0","Sun Oct 25 14:14:30 2020","The main experiment item","yes","NA","SternbergTask.osexp","/Users/kaylaredder/Desktop/Tarleton /AdvancedQuant/Lab3","no","mono","no","18","no","white","no","yes","768","legacy","74","11","/Users/kaylaredder/Desktop/Tarleton /AdvancedQuant/Lab3/MR-subject-4.csv","legacy","7 1 8 5 6 2","Lentiform Loewenfeld","3.3.5","2","y","0","right","right","right","right","NA","1566","17086","12065","1566","NA","2","legacy","6","1024","2","48000","-16","experiment","4","even","1","589386","19134","586086","587142","2026","112193","587154","440468","2041","100127","591400","588169","592967","NA","591400","NA","Sternberg Task ","79","98433","87","yes","1024"
"90.9090909090909","90.9090909090909","1133.2386363636363","1133.2386363636363","black","experiment","legacy","legacy","legacy","0","uniform","1","undefined","1","left","87","0","87","87","0","0","87","87","0","0","87","87","87","NA","87","0","Sun Oct 25 14:14:30 2020","The main experiment item","yes","NA","SternbergTask.osexp","/Users/kaylaredder/Desktop/Tarleton /AdvancedQuant/Lab3","no","mono","no","18","no","white","no","yes","768","legacy","75","11","/Users/kaylaredder/Desktop/Tarleton /AdvancedQuant/Lab3/MR-subject-4.csv","legacy","4 7 6 8 2 3","Lentiform Loewenfeld","3.3.5","6","y","0","left","right","right","left","NA","1292","17086","12065","1292","NA","2","legacy","6","1024","2","48000","-16","experiment","4","even","3","596289","19134","586086","594044","2026","112193","594057","592989","2041","100127","598303","595072","599596","NA","598303","NA","Sternberg Task ","80","99725","88","yes","1024"
"91.01123595505618","91.01123595505618","1130.112359550562","1130.112359550562","black","experiment","legacy","legacy","legacy","0","uniform","1","undefined","1","right","88","0","88","88","0","0","88","88","0","0","88","88","88","NA","88","0","Sun Oct 25 14:14:30 2020","The main experiment item","yes","NA","SternbergTask.osexp","/Users/kaylaredder/Desktop/Tarleton /AdvancedQuant/Lab3","no","mono","no","18","no","white","no","yes","768","legacy","76","11","/Users/kaylaredder/Desktop/Tarleton /AdvancedQuant/Lab3/MR-subject-4.csv","legacy","6 8","Lentiform Loewenfeld","3.3.5","0","n","0","right","right","right","right","NA","855","17086","12065","855","NA","2","legacy","2","1024","2","48000","-16","experiment","4","even","9","602908","19134","599610","600664","2026","112193","600677","592989","2041","100127","604922","601692","605778","NA","604922","NA","Sternberg Task ","81","100580","89","yes","1024"
"91.11111111111111","91.11111111111111","1124.8333333333333","1124.8333333333333","black","experiment","legacy","legacy","legacy","0","uniform","1","undefined","1","left","89","0","89","89","0","0","89","89","0","0","89","89","89","NA","89","0","Sun Oct 25 14:14:30 2020","The main experiment item","yes","NA","SternbergTask.osexp","/Users/kaylaredder/Desktop/Tarleton /AdvancedQuant/Lab3","no","mono","no","18","no","white","no","yes","768","legacy","77","11","/Users/kaylaredder/Desktop/Tarleton /AdvancedQuant/Lab3/MR-subject-4.csv","legacy","2 3 7 4","Lentiform Loewenfeld","3.3.5","1","y","0","left","right","right","left","NA","655","17086","12065","655","NA","2","legacy","4","1024","2","48000","-16","experiment","4","even","2","609099","19134","605799","606856","2026","112193","606869","592989","2041","100127","611113","607883","611769","NA","611113","NA","Sternberg Task ","82","101235","90","yes","1024"
"91.20879120879121","91.20879120879121","1121.9120879120878","1121.9120879120878","black","experiment","legacy","legacy","legacy","0","uniform","1","undefined","1","left","90","0","90","90","0","0","90","90","0","0","90","90","90","NA","90","0","Sun Oct 25 14:14:30 2020","The main experiment item","yes","NA","SternbergTask.osexp","/Users/kaylaredder/Desktop/Tarleton /AdvancedQuant/Lab3","no","mono","no","18","no","white","no","yes","768","legacy","78","11","/Users/kaylaredder/Desktop/Tarleton /AdvancedQuant/Lab3/MR-subject-4.csv","legacy","9 5 3 8 4","Lentiform Loewenfeld","3.3.5","1","y","0","left","right","right","left","NA","859","17086","12065","859","NA","2","legacy","5","1024","2","48000","-16","experiment","4","even","9","615090","19134","611791","612847","2026","112193","612859","592989","2041","100127","617104","613874","617965","NA","617104","NA","Sternberg Task ","83","102094","91","yes","1024"
"91.30434782608695","91.30434782608695","1121.445652173913","1121.445652173913","black","experiment","legacy","legacy","legacy","0","uniform","1","undefined","1","right","91","0","91","91","0","0","91","91","0","0","91","91","91","NA","91","0","Sun Oct 25 14:14:30 2020","The main experiment item","yes","NA","SternbergTask.osexp","/Users/kaylaredder/Desktop/Tarleton /AdvancedQuant/Lab3","no","mono","no","18","no","white","no","yes","768","legacy","79","11","/Users/kaylaredder/Desktop/Tarleton /AdvancedQuant/Lab3/MR-subject-4.csv","legacy","2 5 1 4","Lentiform Loewenfeld","3.3.5","0","n","0","right","right","right","right","NA","1079","17086","12065","1079","NA","2","legacy","4","1024","2","48000","-16","experiment","4","even","6","621285","19134","617986","619040","2026","112193","619052","592989","2041","100127","623299","620068","624379","NA","623299","NA","Sternberg Task ","84","103173","92","yes","1024"
"91.39784946236558","91.39784946236558","1122.2043010752689","1122.2043010752689","black","experiment","legacy","legacy","legacy","0","uniform","1","undefined","1","right","92","0","92","92","0","0","92","92","0","0","92","92","92","NA","92","0","Sun Oct 25 14:14:30 2020","The main experiment item","yes","NA","SternbergTask.osexp","/Users/kaylaredder/Desktop/Tarleton /AdvancedQuant/Lab3","no","mono","no","18","no","white","no","yes","768","legacy","80","11","/Users/kaylaredder/Desktop/Tarleton /AdvancedQuant/Lab3/MR-subject-4.csv","legacy","3 9 8 1 6 4","Lentiform Loewenfeld","3.3.5","0","n","0","right","right","right","right","NA","1192","17086","12065","1192","NA","2","legacy","6","1024","2","48000","-16","experiment","4","even","7","627699","19134","624400","625455","2026","112193","625468","592989","2041","100127","629713","626483","630906","NA","629713","NA","Sternberg Task ","85","104365","93","yes","1024"
"91.48936170212765","91.48936170212765","1117.3297872340424","1117.3297872340424","black","experiment","legacy","legacy","legacy","0","uniform","1","undefined","1","left","93","0","93","93","0","0","93","93","0","0","93","93","93","NA","93","0","Sun Oct 25 14:14:30 2020","The main experiment item","yes","NA","SternbergTask.osexp","/Users/kaylaredder/Desktop/Tarleton /AdvancedQuant/Lab3","no","mono","no","18","no","white","no","yes","768","legacy","81","11","/Users/kaylaredder/Desktop/Tarleton /AdvancedQuant/Lab3/MR-subject-4.csv","legacy","2 4 8 5 1 3","Lentiform Loewenfeld","3.3.5","1","y","0","left","right","right","left","NA","664","17086","12065","664","NA","2","legacy","6","1024","2","48000","-16","experiment","4","even","2","634225","19134","630925","631982","2026","112193","631995","592989","2041","100127","636239","633009","636904","NA","636239","NA","Sternberg Task ","86","105029","94","yes","1024"
"91.57894736842105","91.57894736842105","1118.6315789473683","1118.6315789473683","black","experiment","legacy","legacy","legacy","0","uniform","1","undefined","1","left","94","0","94","94","0","0","94","94","0","0","94","94","94","NA","94","0","Sun Oct 25 14:14:30 2020","The main experiment item","yes","NA","SternbergTask.osexp","/Users/kaylaredder/Desktop/Tarleton /AdvancedQuant/Lab3","no","mono","no","18","no","white","no","yes","768","legacy","82","11","/Users/kaylaredder/Desktop/Tarleton /AdvancedQuant/Lab3/MR-subject-4.csv","legacy","4 6 5 8","Lentiform Loewenfeld","3.3.5","1","y","0","left","right","right","left","NA","1241","17086","12065","1241","NA","2","legacy","4","1024","2","48000","-16","experiment","4","even","4","640225","19134","636925","637980","2026","112193","637993","592989","2041","100127","642241","639008","643483","NA","642241","NA","Sternberg Task ","87","106270","95","yes","1024"
"91.66666666666667","91.66666666666667","1115.6979166666667","1115.6979166666667","black","experiment","legacy","legacy","legacy","0","uniform","1","undefined","1","right","95","0","95","95","0","0","95","95","0","0","95","95","95","NA","95","0","Sun Oct 25 14:14:30 2020","The main experiment item","yes","NA","SternbergTask.osexp","/Users/kaylaredder/Desktop/Tarleton /AdvancedQuant/Lab3","no","mono","no","18","no","white","no","yes","768","legacy","83","11","/Users/kaylaredder/Desktop/Tarleton /AdvancedQuant/Lab3/MR-subject-4.csv","legacy","8 6 3 4 7","Lentiform Loewenfeld","3.3.5","0","n","0","right","right","right","right","NA","837","17086","12065","837","NA","2","legacy","5","1024","2","48000","-16","experiment","4","even","1","646804","19134","643504","644560","2026","112193","644573","592989","2041","100127","648818","645587","649656","NA","648818","NA","Sternberg Task ","88","107107","96","yes","1024"
"91.75257731958763","91.75257731958763","1115.4845360824743","1115.4845360824743","black","experiment","legacy","legacy","legacy","0","uniform","1","undefined","1","right","96","0","96","96","0","0","96","96","0","0","96","96","96","NA","96","0","Sun Oct 25 14:14:30 2020","The main experiment item","yes","NA","SternbergTask.osexp","/Users/kaylaredder/Desktop/Tarleton /AdvancedQuant/Lab3","no","mono","no","18","no","white","no","yes","768","legacy","84","11","/Users/kaylaredder/Desktop/Tarleton /AdvancedQuant/Lab3/MR-subject-4.csv","legacy","1 4 9 2 5","Lentiform Loewenfeld","3.3.5","0","n","0","right","right","right","right","NA","1095","17086","12065","1095","NA","2","legacy","5","1024","2","48000","-16","experiment","4","even","7","652975","19134","649676","650733","2026","112193","650745","592989","2041","100127","654990","651760","656086","NA","654990","NA","Sternberg Task ","89","108202","97","yes","1024"
"91.83673469387755","91.83673469387755","1113.3979591836735","1113.3979591836735","black","experiment","legacy","legacy","legacy","0","uniform","1","undefined","1","right","97","0","97","97","0","0","97","97","0","0","97","97","97","NA","97","0","Sun Oct 25 14:14:30 2020","The main experiment item","yes","NA","SternbergTask.osexp","/Users/kaylaredder/Desktop/Tarleton /AdvancedQuant/Lab3","no","mono","no","18","no","white","no","yes","768","legacy","85","11","/Users/kaylaredder/Desktop/Tarleton /AdvancedQuant/Lab3/MR-subject-4.csv","legacy","9 5 3 2 8 6","Lentiform Loewenfeld","3.3.5","0","n","0","right","right","right","right","NA","911","17086","12065","911","NA","2","legacy","6","1024","2","48000","-16","experiment","4","even","7","659407","19134","656107","657162","2026","112193","657175","592989","2041","100127","661421","658191","662333","NA","661420","NA","Sternberg Task ","90","109113","98","yes","1024"
"91.91919191919192","91.91919191919192","1111.3030303030303","1111.3030303030303","black","experiment","legacy","legacy","legacy","0","uniform","1","undefined","1","left","98","0","98","98","0","0","98","98","0","0","98","98","98","NA","98","0","Sun Oct 25 14:14:30 2020","The main experiment item","yes","NA","SternbergTask.osexp","/Users/kaylaredder/Desktop/Tarleton /AdvancedQuant/Lab3","no","mono","no","18","no","white","no","yes","768","legacy","86","11","/Users/kaylaredder/Desktop/Tarleton /AdvancedQuant/Lab3/MR-subject-4.csv","legacy","8 7 3","Lentiform Loewenfeld","3.3.5","1","y","0","left","right","right","left","NA","906","17086","12065","906","NA","2","legacy","3","1024","2","48000","-16","experiment","4","even","8","665653","19134","662355","663410","2026","112193","663423","592989","2041","100127","667667","664437","668574","NA","667667","NA","Sternberg Task ","91","110019","99","yes","1024"
"92","92","1110.07","1110.07","black","experiment","legacy","legacy","legacy","0","uniform","1","undefined","1","right","99","0","99","99","0","0","99","99","0","0","99","99","99","NA","99","0","Sun Oct 25 14:14:30 2020","The main experiment item","yes","NA","SternbergTask.osexp","/Users/kaylaredder/Desktop/Tarleton /AdvancedQuant/Lab3","no","mono","no","18","no","white","no","yes","768","legacy","87","11","/Users/kaylaredder/Desktop/Tarleton /AdvancedQuant/Lab3/MR-subject-4.csv","legacy","3 9 1","Lentiform Loewenfeld","3.3.5","0","n","0","right","right","right","right","NA","988","17086","12065","988","NA","2","legacy","3","1024","2","48000","-16","experiment","4","even","7","671893","19134","668595","669650","2026","112193","669663","592989","2041","100127","673907","670677","674896","NA","673907","NA","Sternberg Task ","92","111007","100","yes","1024"
"92.07920792079207","92.07920792079207","1108.3564356435643","1108.3564356435643","black","experiment","legacy","legacy","legacy","0","uniform","1","undefined","1","left","100","0","100","100","0","0","100","100","0","0","100","100","100","NA","100","0","Sun Oct 25 14:14:30 2020","The main experiment item","yes","NA","SternbergTask.osexp","/Users/kaylaredder/Desktop/Tarleton /AdvancedQuant/Lab3","no","mono","no","18","no","white","no","yes","768","legacy","88","11","/Users/kaylaredder/Desktop/Tarleton /AdvancedQuant/Lab3/MR-subject-4.csv","legacy","6 2","Lentiform Loewenfeld","3.3.5","1","y","0","left","right","right","left","NA","937","17086","12065","937","NA","2","legacy","2","1024","2","48000","-16","experiment","4","even","6","678215","19134","674917","675973","2026","112193","675985","592989","2041","100127","680229","677000","681167","NA","680229","NA","Sternberg Task ","93","111944","101","yes","1024"
"91.17647058823529","91.17647058823529","1114.8235294117646","1114.8235294117646","black","experiment","legacy","legacy","legacy","0","uniform","0","undefined","0","left","101","0","101","101","0","0","101","101","0","0","101","101","101","NA","101","0","Sun Oct 25 14:14:30 2020","The main experiment item","yes","NA","SternbergTask.osexp","/Users/kaylaredder/Desktop/Tarleton /AdvancedQuant/Lab3","no","mono","no","18","no","white","no","yes","768","legacy","89","11","/Users/kaylaredder/Desktop/Tarleton /AdvancedQuant/Lab3/MR-subject-4.csv","legacy","6 9 7 4 5 1","Lentiform Loewenfeld","3.3.5","2","y","0","right","right","right","right","NA","1768","17086","12065","1768","NA","2","legacy","6","1024","2","48000","-16","experiment","4","even","9","684488","19134","681189","682244","2026","112193","682257","592989","2041","100127","686502","683272","688272","NA","686502","NA","Sternberg Task ","93","113712","102","yes","1024"
"91.2621359223301","91.2621359223301","1113.9320388349515","1113.9320388349515","black","experiment","legacy","legacy","legacy","0","uniform","1","undefined","1","right","102","0","102","102","0","0","102","102","0","0","102","102","102","NA","102","0","Sun Oct 25 14:14:30 2020","The main experiment item","yes","NA","SternbergTask.osexp","/Users/kaylaredder/Desktop/Tarleton /AdvancedQuant/Lab3","no","mono","no","18","no","white","no","yes","768","legacy","90","11","/Users/kaylaredder/Desktop/Tarleton /AdvancedQuant/Lab3/MR-subject-4.csv","legacy","2 7 5","Lentiform Loewenfeld","3.3.5","0","n","0","right","right","right","right","NA","1023","17086","12065","1023","NA","2","legacy","3","1024","2","48000","-16","experiment","4","even","8","691593","19134","681189","689349","2026","112193","689361","688294","2041","100127","693606","690376","694630","NA","693606","NA","Sternberg Task ","94","114735","103","yes","1024"
"91.34615384615384","91.34615384615384","1114.1538461538462","1114.1538461538462","black","experiment","legacy","legacy","legacy","0","uniform","1","undefined","1","right","103","0","103","103","0","0","103","103","0","0","103","103","103","NA","103","0","Sun Oct 25 14:14:30 2020","The main experiment item","yes","NA","SternbergTask.osexp","/Users/kaylaredder/Desktop/Tarleton /AdvancedQuant/Lab3","no","mono","no","18","no","white","no","yes","768","legacy","91","11","/Users/kaylaredder/Desktop/Tarleton /AdvancedQuant/Lab3/MR-subject-4.csv","legacy","6 3 1 7 9 8","Lentiform Loewenfeld","3.3.5","0","n","0","right","right","right","right","NA","1137","17086","12065","1137","NA","2","legacy","6","1024","2","48000","-16","experiment","4","even","4","697948","19134","694650","695704","2026","112193","695717","688294","2041","100127","699962","696732","701100","NA","699962","NA","Sternberg Task ","95","115872","104","yes","1024"
"91.42857142857143","91.42857142857143","1116.3333333333333","1116.3333333333333","black","experiment","legacy","legacy","legacy","0","uniform","1","undefined","1","right","104","0","104","104","0","0","104","104","0","0","104","104","104","NA","104","0","Sun Oct 25 14:14:30 2020","The main experiment item","yes","NA","SternbergTask.osexp","/Users/kaylaredder/Desktop/Tarleton /AdvancedQuant/Lab3","no","mono","no","18","no","white","no","yes","768","legacy","92","11","/Users/kaylaredder/Desktop/Tarleton /AdvancedQuant/Lab3/MR-subject-4.csv","legacy","1 6 4 3 9 7","Lentiform Loewenfeld","3.3.5","0","n","0","right","right","right","right","NA","1343","17086","12065","1343","NA","2","legacy","6","1024","2","48000","-16","experiment","4","even","8","704420","19134","701121","702177","2026","112193","702191","688294","2041","100127","706434","703206","707778","NA","706433","NA","Sternberg Task ","96","117215","105","yes","1024"
"91.50943396226415","91.50943396226415","1112.5188679245282","1112.5188679245282","black","experiment","legacy","legacy","legacy","0","uniform","1","undefined","1","left","105","0","105","105","0","0","105","105","0","0","105","105","105","NA","105","0","Sun Oct 25 14:14:30 2020","The main experiment item","yes","NA","SternbergTask.osexp","/Users/kaylaredder/Desktop/Tarleton /AdvancedQuant/Lab3","no","mono","no","18","no","white","no","yes","768","legacy","93","11","/Users/kaylaredder/Desktop/Tarleton /AdvancedQuant/Lab3/MR-subject-4.csv","legacy","9 1 7 2","Lentiform Loewenfeld","3.3.5","2","y","0","left","right","right","left","NA","712","17086","12065","712","NA","2","legacy","4","1024","2","48000","-16","experiment","4","even","1","711099","19134","707800","708855","2026","112193","708868","688294","2041","100127","713113","709883","713826","NA","713113","NA","Sternberg Task ","97","117927","106","yes","1024"
"91.58878504672897","91.58878504672897","1109.9158878504672","1109.9158878504672","black","experiment","legacy","legacy","legacy","0","uniform","1","undefined","1","left","106","0","106","106","0","0","106","106","0","0","106","106","106","NA","106","0","Sun Oct 25 14:14:30 2020","The main experiment item","yes","NA","SternbergTask.osexp","/Users/kaylaredder/Desktop/Tarleton /AdvancedQuant/Lab3","no","mono","no","18","no","white","no","yes","768","legacy","94","11","/Users/kaylaredder/Desktop/Tarleton /AdvancedQuant/Lab3/MR-subject-4.csv","legacy","3 4","Lentiform Loewenfeld","3.3.5","1","y","0","left","right","right","left","NA","834","17086","12065","834","NA","2","legacy","2","1024","2","48000","-16","experiment","4","even","3","717148","19134","713849","714905","2026","112193","714917","688294","2041","100127","719162","715932","719997","NA","719162","NA","Sternberg Task ","98","118761","107","yes","1024"
"91.66666666666667","91.66666666666667","1108.9722222222222","1108.9722222222222","black","experiment","legacy","legacy","legacy","0","uniform","1","undefined","1","right","107","0","107","107","0","0","107","107","0","0","107","107","107","NA","107","0","Sun Oct 25 14:14:30 2020","The main experiment item","yes","NA","SternbergTask.osexp","/Users/kaylaredder/Desktop/Tarleton /AdvancedQuant/Lab3","no","mono","no","18","no","white","no","yes","768","legacy","95","11","/Users/kaylaredder/Desktop/Tarleton /AdvancedQuant/Lab3/MR-subject-4.csv","legacy","4 2 7 6 1 3","Lentiform Loewenfeld","3.3.5","0","n","0","right","right","right","right","NA","1008","17086","12065","1008","NA","2","legacy","6","1024","2","48000","-16","experiment","4","even","8","723317","19134","720018","721073","2026","112193","721086","688294","2041","100127","725332","722101","726340","NA","725332","NA","Sternberg Task ","99","119769","108","yes","1024"
