"acc","accuracy","average_response_time","avg_rt","background","block","canvas_backend","clock_backend","color_backend","compensation","coordinates","correct","correct_instruction1","correct_keyboard_response","correct_response","count_ISI","count_correctFeedback","count_expSequence","count_experiment","count_experimentLoop","count_fixation","count_incorrectFeedback","count_instruction1","count_instruction2","count_keyboard_response","count_logger","count_memorySet","count_practiceLoop","count_probe","count_thankYou","datetime","description","disable_garbage_collection","experiment_file","experiment_path","font_bold","font_family","font_italic","font_size","font_underline","foreground","form_clicks","fullscreen","height","keyboard_backend","live_row","live_row_practiceLoop","logfile","mouse_backend","numberSet","opensesame_codename","opensesame_version","posInSet","present","repeat_cycle","response","response_instruction1","response_instruction2","response_keyboard_response","response_thankYou","response_time","response_time_instruction1","response_time_instruction2","response_time_keyboard_response","response_time_thankYou","round_decimals","sampler_backend","setSize","sound_buf_size","sound_channels","sound_freq","sound_sample_size","start","subject_nr","subject_parity","target","time_ISI","time_correctFeedback","time_expSequence","time_experiment","time_experimentLoop","time_fixation","time_incorrectFeedback","time_instruction1","time_instruction2","time_keyboard_response","time_logger","time_memorySet","time_practiceLoop","time_probe","time_thankYou","title","total_correct","total_response_time","total_responses","uniform_coordinates","width"
"0","0","2000","2000","black","practice","legacy","legacy","legacy","0","uniform","0","undefined","0","right","0","0","0","0","0","0","0","0","0","0","0","0","0","0","0","Sun Oct 16 20:54:20 2022","The main experiment item","yes","SternbergTask.osexp","/Users/alexisparrish/Documents/Advanced Quant. Methods/Lab 3/Lab 3.1","no","mono","no","18","no","white","no","yes","768","legacy","0","0","/Users/alexisparrish/Documents/Advanced Quant. Methods/Lab 3/Lab 3.2/AP-subject-2.csv","legacy","5","Lentiform Loewenfeld","3.3.12","0","n","0","None","caps lock","NA","None","NA","2000","108760","NA","2000","NA","2","legacy","1","1024","2","48000","-16","experiment","2","even","3","115244","NA","113030","3941","NA","113035","NA","3958","NA","117248","119248","114040","112720","117248","NA","Sternberg Task","0","2000","1","yes","1024"
"50","50","1400","1400","black","practice","legacy","legacy","legacy","0","uniform","1","undefined","1","right","1","1","1","0","0","1","1","0","0","1","1","1","0","1","0","Sun Oct 16 20:54:20 2022","The main experiment item","yes","SternbergTask.osexp","/Users/alexisparrish/Documents/Advanced Quant. Methods/Lab 3/Lab 3.1","no","mono","no","18","no","white","no","yes","768","legacy","1","1","/Users/alexisparrish/Documents/Advanced Quant. Methods/Lab 3/Lab 3.2/AP-subject-2.csv","legacy","2 1","Lentiform Loewenfeld","3.3.12","0","n","0","right","caps lock","NA","right","NA","800","108760","NA","800","NA","2","legacy","2","1024","2","48000","-16","experiment","2","even","5","122577","NA","120364","3941","NA","120368","119291","3958","NA","124581","125411","121372","112720","124581","NA","Sternberg Task","1","2800","2","yes","1024"
"66.66666666666667","66.66666666666667","1285.3333333333333","1285.3333333333333","black","practice","legacy","legacy","legacy","0","uniform","1","undefined","1","left","2","2","2","0","0","2","2","0","0","2","2","2","0","2","0","Sun Oct 16 20:54:20 2022","The main experiment item","yes","SternbergTask.osexp","/Users/alexisparrish/Documents/Advanced Quant. Methods/Lab 3/Lab 3.1","no","mono","no","18","no","white","no","yes","768","legacy","2","2","/Users/alexisparrish/Documents/Advanced Quant. Methods/Lab 3/Lab 3.2/AP-subject-2.csv","legacy","1 7 9 8 5","Lentiform Loewenfeld","3.3.12","4","y","0","left","caps lock","NA","left","NA","1056","108760","NA","1056","NA","2","legacy","5","1024","2","48000","-16","experiment","2","even","8","128693","125416","126480","3941","NA","126484","119291","3958","NA","130697","131754","127488","112720","130697","NA","Sternberg Task","2","3856","3","yes","1024"
"75","75","1144.75","1144.75","black","practice","legacy","legacy","legacy","0","uniform","1","undefined","1","right","3","3","3","0","0","3","3","0","0","3","3","3","0","3","0","Sun Oct 16 20:54:20 2022","The main experiment item","yes","SternbergTask.osexp","/Users/alexisparrish/Documents/Advanced Quant. Methods/Lab 3/Lab 3.1","no","mono","no","18","no","white","no","yes","768","legacy","3","3","/Users/alexisparrish/Documents/Advanced Quant. Methods/Lab 3/Lab 3.2/AP-subject-2.csv","legacy","9 6 7 4 5","Lentiform Loewenfeld","3.3.12","0","n","0","right","caps lock","NA","right","NA","723","108760","NA","723","NA","2","legacy","5","1024","2","48000","-16","experiment","2","even","3","135047","131767","132834","3941","NA","132838","119291","3958","NA","137051","137775","133842","112720","137051","NA","Sternberg Task","3","4579","4","yes","1024"
"80","80","1035.8","1035.8","black","practice","legacy","legacy","legacy","0","uniform","1","undefined","1","left","4","4","4","0","0","4","4","0","0","4","4","4","0","4","0","Sun Oct 16 20:54:20 2022","The main experiment item","yes","SternbergTask.osexp","/Users/alexisparrish/Documents/Advanced Quant. Methods/Lab 3/Lab 3.1","no","mono","no","18","no","white","no","yes","768","legacy","4","4","/Users/alexisparrish/Documents/Advanced Quant. Methods/Lab 3/Lab 3.2/AP-subject-2.csv","legacy","4 8","Lentiform Loewenfeld","3.3.12","1","y","0","left","caps lock","NA","left","NA","600","108760","NA","600","NA","2","legacy","2","1024","2","48000","-16","experiment","2","even","4","141067","137786","138853","3941","NA","138858","119291","3958","NA","143071","143672","139862","112720","143071","NA","Sternberg Task","4","5179","5","yes","1024"
"83.33333333333333","83.33333333333333","986.1666666666666","986.1666666666666","black","practice","legacy","legacy","legacy","0","uniform","1","undefined","1","left","5","5","5","0","0","5","5","0","0","5","5","5","0","5","0","Sun Oct 16 20:54:20 2022","The main experiment item","yes","SternbergTask.osexp","/Users/alexisparrish/Documents/Advanced Quant. Methods/Lab 3/Lab 3.1","no","mono","no","18","no","white","no","yes","768","legacy","5","5","/Users/alexisparrish/Documents/Advanced Quant. Methods/Lab 3/Lab 3.2/AP-subject-2.csv","legacy","4 3 1 7 9 8","Lentiform Loewenfeld","3.3.12","1","y","0","left","caps lock","NA","left","NA","738","108760","NA","738","NA","2","legacy","6","1024","2","48000","-16","experiment","2","even","4","146955","143679","144741","3941","NA","144746","119291","3958","NA","148959","149707","145750","112720","148959","NA","Sternberg Task","5","5917","6","yes","1024"
"85.71428571428571","85.71428571428571","949","949","black","practice","legacy","legacy","legacy","0","uniform","1","undefined","1","right","6","6","6","0","0","6","6","0","0","6","6","6","0","6","0","Sun Oct 16 20:54:20 2022","The main experiment item","yes","SternbergTask.osexp","/Users/alexisparrish/Documents/Advanced Quant. Methods/Lab 3/Lab 3.1","no","mono","no","18","no","white","no","yes","768","legacy","6","6","/Users/alexisparrish/Documents/Advanced Quant. Methods/Lab 3/Lab 3.2/AP-subject-2.csv","legacy","4 1 5","Lentiform Loewenfeld","3.3.12","0","n","0","right","caps lock","NA","right","NA","726","108760","NA","726","NA","2","legacy","3","1024","2","48000","-16","experiment","2","even","2","152988","149712","150774","3941","NA","150779","119291","3958","NA","154996","155722","151783","112720","154996","NA","Sternberg Task","6","6643","7","yes","1024"
"87.5","87.5","917.75","917.75","black","practice","legacy","legacy","legacy","0","uniform","1","undefined","1","right","7","7","7","0","0","7","7","0","0","7","7","7","0","7","0","Sun Oct 16 20:54:20 2022","The main experiment item","yes","SternbergTask.osexp","/Users/alexisparrish/Documents/Advanced Quant. Methods/Lab 3/Lab 3.1","no","mono","no","18","no","white","no","yes","768","legacy","7","7","/Users/alexisparrish/Documents/Advanced Quant. Methods/Lab 3/Lab 3.2/AP-subject-2.csv","legacy","5 7 8 4 1 2","Lentiform Loewenfeld","3.3.12","0","n","0","right","caps lock","NA","right","NA","699","108760","NA","699","NA","2","legacy","6","1024","2","48000","-16","experiment","2","even","6","159010","155733","156795","3941","NA","156800","119291","3958","NA","161014","161714","157805","112720","161014","NA","Sternberg Task","7","7342","8","yes","1024"
"88.88888888888889","88.88888888888889","906.6666666666666","906.6666666666666","black","practice","legacy","legacy","legacy","0","uniform","1","undefined","1","right","8","8","8","0","0","8","8","0","0","8","8","8","0","8","0","Sun Oct 16 20:54:20 2022","The main experiment item","yes","SternbergTask.osexp","/Users/alexisparrish/Documents/Advanced Quant. Methods/Lab 3/Lab 3.1","no","mono","no","18","no","white","no","yes","768","legacy","8","8","/Users/alexisparrish/Documents/Advanced Quant. Methods/Lab 3/Lab 3.2/AP-subject-2.csv","legacy","3 1 9 4","Lentiform Loewenfeld","3.3.12","0","n","0","right","caps lock","NA","right","NA","818","108760","NA","818","NA","2","legacy","4","1024","2","48000","-16","experiment","2","even","6","165009","161727","162795","3941","NA","162800","119291","3958","NA","167013","167831","163804","112720","167013","NA","Sternberg Task","8","8160","9","yes","1024"
"90","90","894.3","894.3","black","practice","legacy","legacy","legacy","0","uniform","1","undefined","1","left","9","9","9","0","0","9","9","0","0","9","9","9","0","9","0","Sun Oct 16 20:54:20 2022","The main experiment item","yes","SternbergTask.osexp","/Users/alexisparrish/Documents/Advanced Quant. Methods/Lab 3/Lab 3.1","no","mono","no","18","no","white","no","yes","768","legacy","9","9","/Users/alexisparrish/Documents/Advanced Quant. Methods/Lab 3/Lab 3.2/AP-subject-2.csv","legacy","1 5 2 9","Lentiform Loewenfeld","3.3.12","2","y","0","left","caps lock","NA","left","NA","783","108760","NA","783","NA","2","legacy","4","1024","2","48000","-16","experiment","2","even","5","171118","167843","168904","3941","NA","168909","119291","3958","NA","173122","173905","169913","112720","173122","NA","Sternberg Task","9","8943","10","yes","1024"
"81.81818181818181","81.81818181818181","876.2727272727273","876.2727272727273","black","practice","legacy","legacy","legacy","0","uniform","0","undefined","0","left","10","10","10","0","0","10","10","0","0","10","10","10","0","10","0","Sun Oct 16 20:54:20 2022","The main experiment item","yes","SternbergTask.osexp","/Users/alexisparrish/Documents/Advanced Quant. Methods/Lab 3/Lab 3.1","no","mono","no","18","no","white","no","yes","768","legacy","10","10","/Users/alexisparrish/Documents/Advanced Quant. Methods/Lab 3/Lab 3.2/AP-subject-2.csv","legacy","2 9 4","Lentiform Loewenfeld","3.3.12","3","y","0","right","caps lock","NA","right","NA","696","108760","NA","696","NA","2","legacy","3","1024","2","48000","-16","experiment","2","even","4","177197","173917","174983","3941","NA","174988","119291","3958","NA","179201","179898","175992","112720","179201","NA","Sternberg Task","9","9639","11","yes","1024"
"83.33333333333333","83.33333333333333","850.3333333333334","850.3333333333334","black","practice","legacy","legacy","legacy","0","uniform","1","undefined","1","left","11","11","11","0","0","11","11","0","0","11","11","11","0","11","0","Sun Oct 16 20:54:20 2022","The main experiment item","yes","SternbergTask.osexp","/Users/alexisparrish/Documents/Advanced Quant. Methods/Lab 3/Lab 3.1","no","mono","no","18","no","white","no","yes","768","legacy","11","11","/Users/alexisparrish/Documents/Advanced Quant. Methods/Lab 3/Lab 3.2/AP-subject-2.csv","legacy","6","Lentiform Loewenfeld","3.3.12","1","y","0","left","caps lock","NA","left","NA","565","108760","NA","565","NA","2","legacy","1","1024","2","48000","-16","experiment","2","even","6","183186","173917","180973","3941","NA","180977","179910","3958","NA","185190","185756","181981","112720","185190","NA","Sternberg Task","10","10204","12","yes","1024"
"84.61538461538461","84.61538461538461","833","833","black","experiment","legacy","legacy","legacy","0","uniform","1","undefined","1","left","12","12","12","0","0","12","12","0","0","12","12","12","0","12","0","Sun Oct 16 20:54:20 2022","The main experiment item","yes","SternbergTask.osexp","/Users/alexisparrish/Documents/Advanced Quant. Methods/Lab 3/Lab 3.1","no","mono","no","18","no","white","no","yes","768","legacy","0","11","/Users/alexisparrish/Documents/Advanced Quant. Methods/Lab 3/Lab 3.2/AP-subject-2.csv","legacy","3 4 9 6 2 9","Lentiform Loewenfeld","3.3.12","5","y","0","left","caps lock","left","left","NA","625","108760","29149","625","NA","2","legacy","6","1024","2","48000","-16","experiment","2","even","2","218224","185767","216010","3941","215947","216014","179910","3958","186797","220228","220854","217019","112720","220228","NA","Sternberg Task","11","10829","13","yes","1024"
"85.71428571428571","85.71428571428571","810.0714285714286","810.0714285714286","black","experiment","legacy","legacy","legacy","0","uniform","1","undefined","1","right","13","13","13","0","0","13","13","0","0","13","13","13","0","13","0","Sun Oct 16 20:54:20 2022","The main experiment item","yes","SternbergTask.osexp","/Users/alexisparrish/Documents/Advanced Quant. Methods/Lab 3/Lab 3.1","no","mono","no","18","no","white","no","yes","768","legacy","1","11","/Users/alexisparrish/Documents/Advanced Quant. Methods/Lab 3/Lab 3.2/AP-subject-2.csv","legacy","1 8 7","Lentiform Loewenfeld","3.3.12","0","n","0","right","caps lock","left","right","NA","512","108760","29149","512","NA","2","legacy","3","1024","2","48000","-16","experiment","2","even","4","224146","220865","221933","3941","215947","221937","179910","3958","186797","226150","226663","222941","112720","226150","NA","Sternberg Task","12","11341","14","yes","1024"
"80","80","805.7333333333333","805.7333333333333","black","experiment","legacy","legacy","legacy","0","uniform","0","undefined","0","left","14","14","14","0","0","14","14","0","0","14","14","14","0","14","0","Sun Oct 16 20:54:20 2022","The main experiment item","yes","SternbergTask.osexp","/Users/alexisparrish/Documents/Advanced Quant. Methods/Lab 3/Lab 3.1","no","mono","no","18","no","white","no","yes","768","legacy","2","11","/Users/alexisparrish/Documents/Advanced Quant. Methods/Lab 3/Lab 3.2/AP-subject-2.csv","legacy","8 5 1 3 9","Lentiform Loewenfeld","3.3.12","4","y","0","right","caps lock","left","right","NA","745","108760","29149","745","NA","2","legacy","5","1024","2","48000","-16","experiment","2","even","3","229952","226674","227738","3941","215947","227743","179910","3958","186797","231956","232702","228747","112720","231956","NA","Sternberg Task","12","12086","15","yes","1024"
"75","75","880.375","880.375","black","experiment","legacy","legacy","legacy","0","uniform","0","undefined","0","right","15","15","15","0","0","15","15","0","0","15","15","15","0","15","0","Sun Oct 16 20:54:20 2022","The main experiment item","yes","SternbergTask.osexp","/Users/alexisparrish/Documents/Advanced Quant. Methods/Lab 3/Lab 3.1","no","mono","no","18","no","white","no","yes","768","legacy","3","11","/Users/alexisparrish/Documents/Advanced Quant. Methods/Lab 3/Lab 3.2/AP-subject-2.csv","legacy","1","Lentiform Loewenfeld","3.3.12","0","n","0","None","caps lock","left","None","NA","2000","108760","29149","2000","NA","2","legacy","1","1024","2","48000","-16","experiment","2","even","7","235990","226674","233776","3941","215947","233781","232713","3958","186797","237994","239994","234785","112720","237994","NA","Sternberg Task","12","14086","16","yes","1024"
"76.47058823529412","76.47058823529412","865.0588235294117","865.0588235294117","black","experiment","legacy","legacy","legacy","0","uniform","1","undefined","1","left","16","16","16","0","0","16","16","0","0","16","16","16","0","16","0","Sun Oct 16 20:54:20 2022","The main experiment item","yes","SternbergTask.osexp","/Users/alexisparrish/Documents/Advanced Quant. Methods/Lab 3/Lab 3.1","no","mono","no","18","no","white","no","yes","768","legacy","4","11","/Users/alexisparrish/Documents/Advanced Quant. Methods/Lab 3/Lab 3.2/AP-subject-2.csv","legacy","9 1 7 2","Lentiform Loewenfeld","3.3.12","2","y","0","left","caps lock","left","left","NA","620","108760","29149","620","NA","2","legacy","4","1024","2","48000","-16","experiment","2","even","1","243280","226674","241067","3941","215947","241071","240004","3958","186797","245284","245905","242075","112720","245284","NA","Sternberg Task","13","14706","17","yes","1024"
"72.22222222222223","72.22222222222223","850.9444444444445","850.9444444444445","black","experiment","legacy","legacy","legacy","0","uniform","0","undefined","0","right","17","17","17","0","0","17","17","0","0","17","17","17","0","17","0","Sun Oct 16 20:54:20 2022","The main experiment item","yes","SternbergTask.osexp","/Users/alexisparrish/Documents/Advanced Quant. Methods/Lab 3/Lab 3.1","no","mono","no","18","no","white","no","yes","768","legacy","5","11","/Users/alexisparrish/Documents/Advanced Quant. Methods/Lab 3/Lab 3.2/AP-subject-2.csv","legacy","8 5 4 2 9 6","Lentiform Loewenfeld","3.3.12","0","n","0","left","caps lock","left","left","NA","611","108760","29149","611","NA","2","legacy","6","1024","2","48000","-16","experiment","2","even","3","249189","245912","246975","3941","215947","246980","240004","3958","186797","251193","251805","247984","112720","251193","NA","Sternberg Task","13","15317","18","yes","1024"
"73.6842105263158","73.6842105263158","841.4736842105264","841.4736842105264","black","experiment","legacy","legacy","legacy","0","uniform","1","undefined","1","right","18","18","18","0","0","18","18","0","0","18","18","18","0","18","0","Sun Oct 16 20:54:20 2022","The main experiment item","yes","SternbergTask.osexp","/Users/alexisparrish/Documents/Advanced Quant. Methods/Lab 3/Lab 3.1","no","mono","no","18","no","white","no","yes","768","legacy","6","11","/Users/alexisparrish/Documents/Advanced Quant. Methods/Lab 3/Lab 3.2/AP-subject-2.csv","legacy","8 9","Lentiform Loewenfeld","3.3.12","0","n","0","right","caps lock","left","right","NA","671","108760","29149","671","NA","2","legacy","2","1024","2","48000","-16","experiment","2","even","5","255089","245912","252876","3941","215947","252880","251817","3958","186797","257093","257765","253884","112720","257093","NA","Sternberg Task","14","15988","19","yes","1024"
"75","75","833.2","833.2","black","experiment","legacy","legacy","legacy","0","uniform","1","undefined","1","left","19","19","19","0","0","19","19","0","0","19","19","19","0","19","0","Sun Oct 16 20:54:20 2022","The main experiment item","yes","SternbergTask.osexp","/Users/alexisparrish/Documents/Advanced Quant. Methods/Lab 3/Lab 3.1","no","mono","no","18","no","white","no","yes","768","legacy","7","11","/Users/alexisparrish/Documents/Advanced Quant. Methods/Lab 3/Lab 3.2/AP-subject-2.csv","legacy","8 9 5 6 7","Lentiform Loewenfeld","3.3.12","1","y","0","left","caps lock","left","left","NA","676","108760","29149","676","NA","2","legacy","5","1024","2","48000","-16","experiment","2","even","8","261052","257776","258838","3941","215947","258842","251817","3958","186797","263056","263733","259847","112720","263056","NA","Sternberg Task","15","16664","20","yes","1024"
"76.19047619047619","76.19047619047619","819","819","black","experiment","legacy","legacy","legacy","0","uniform","1","undefined","1","left","20","20","20","0","0","20","20","0","0","20","20","20","0","20","0","Sun Oct 16 20:54:20 2022","The main experiment item","yes","SternbergTask.osexp","/Users/alexisparrish/Documents/Advanced Quant. Methods/Lab 3/Lab 3.1","no","mono","no","18","no","white","no","yes","768","legacy","8","11","/Users/alexisparrish/Documents/Advanced Quant. Methods/Lab 3/Lab 3.2/AP-subject-2.csv","legacy","2 3","Lentiform Loewenfeld","3.3.12","1","y","0","left","caps lock","left","left","NA","535","108760","29149","535","NA","2","legacy","2","1024","2","48000","-16","experiment","2","even","2","267018","263745","264804","3941","215947","264808","251817","3958","186797","269022","269558","265813","112720","269022","NA","Sternberg Task","16","17199","21","yes","1024"
"77.27272727272727","77.27272727272727","809.0454545454545","809.0454545454545","black","experiment","legacy","legacy","legacy","0","uniform","1","undefined","1","left","21","21","21","0","0","21","21","0","0","21","21","21","0","21","0","Sun Oct 16 20:54:20 2022","The main experiment item","yes","SternbergTask.osexp","/Users/alexisparrish/Documents/Advanced Quant. Methods/Lab 3/Lab 3.1","no","mono","no","18","no","white","no","yes","768","legacy","9","11","/Users/alexisparrish/Documents/Advanced Quant. Methods/Lab 3/Lab 3.2/AP-subject-2.csv","legacy","5 7 8 2 3 8","Lentiform Loewenfeld","3.3.12","5","y","0","left","caps lock","left","left","NA","600","108760","29149","600","NA","2","legacy","6","1024","2","48000","-16","experiment","2","even","3","272851","269570","270638","3941","215947","270642","251817","3958","186797","274855","275456","271646","112720","274855","NA","Sternberg Task","17","17799","22","yes","1024"
"78.26086956521739","78.26086956521739","795.6086956521739","795.6086956521739","black","experiment","legacy","legacy","legacy","0","uniform","1","undefined","1","left","22","22","22","0","0","22","22","0","0","22","22","22","0","22","0","Sun Oct 16 20:54:20 2022","The main experiment item","yes","SternbergTask.osexp","/Users/alexisparrish/Documents/Advanced Quant. Methods/Lab 3/Lab 3.1","no","mono","no","18","no","white","no","yes","768","legacy","10","11","/Users/alexisparrish/Documents/Advanced Quant. Methods/Lab 3/Lab 3.2/AP-subject-2.csv","legacy","3 4","Lentiform Loewenfeld","3.3.12","1","y","0","left","caps lock","left","left","NA","500","108760","29149","500","NA","2","legacy","2","1024","2","48000","-16","experiment","2","even","3","278745","275468","276532","3941","215947","276536","251817","3958","186797","280749","281250","277540","112720","280749","NA","Sternberg Task","18","18299","23","yes","1024"
"75","75","792.1666666666666","792.1666666666666","black","experiment","legacy","legacy","legacy","0","uniform","0","undefined","0","right","23","23","23","0","0","23","23","0","0","23","23","23","0","23","0","Sun Oct 16 20:54:20 2022","The main experiment item","yes","SternbergTask.osexp","/Users/alexisparrish/Documents/Advanced Quant. Methods/Lab 3/Lab 3.1","no","mono","no","18","no","white","no","yes","768","legacy","11","11","/Users/alexisparrish/Documents/Advanced Quant. Methods/Lab 3/Lab 3.2/AP-subject-2.csv","legacy","8 4 3 9","Lentiform Loewenfeld","3.3.12","0","n","0","left","caps lock","left","left","NA","713","108760","29149","713","NA","2","legacy","4","1024","2","48000","-16","experiment","2","even","5","284538","281260","282324","3941","215947","282329","251817","3958","186797","286542","287256","283333","112720","286542","NA","Sternberg Task","18","19012","24","yes","1024"
"76","76","783.04","783.04","black","experiment","legacy","legacy","legacy","0","uniform","1","undefined","1","right","24","24","24","0","0","24","24","0","0","24","24","24","0","24","0","Sun Oct 16 20:54:20 2022","The main experiment item","yes","SternbergTask.osexp","/Users/alexisparrish/Documents/Advanced Quant. Methods/Lab 3/Lab 3.1","no","mono","no","18","no","white","no","yes","768","legacy","12","11","/Users/alexisparrish/Documents/Advanced Quant. Methods/Lab 3/Lab 3.2/AP-subject-2.csv","legacy","2 7 5","Lentiform Loewenfeld","3.3.12","0","n","0","right","caps lock","left","right","NA","564","108760","29149","564","NA","2","legacy","3","1024","2","48000","-16","experiment","2","even","8","290548","281260","288335","3941","215947","288339","287268","3958","186797","292552","293117","289343","112720","292552","NA","Sternberg Task","19","19576","25","yes","1024"
"73.07692307692308","73.07692307692308","772.4230769230769","772.4230769230769","black","experiment","legacy","legacy","legacy","0","uniform","0","undefined","0","left","25","25","25","0","0","25","25","0","0","25","25","25","0","25","0","Sun Oct 16 20:54:20 2022","The main experiment item","yes","SternbergTask.osexp","/Users/alexisparrish/Documents/Advanced Quant. Methods/Lab 3/Lab 3.1","no","mono","no","18","no","white","no","yes","768","legacy","13","11","/Users/alexisparrish/Documents/Advanced Quant. Methods/Lab 3/Lab 3.2/AP-subject-2.csv","legacy","1 4 9 3 2 5","Lentiform Loewenfeld","3.3.12","3","y","0","right","caps lock","left","right","NA","507","108760","29149","507","NA","2","legacy","6","1024","2","48000","-16","experiment","2","even","9","296410","293128","294197","3941","215947","294201","287268","3958","186797","298414","298922","295205","112720","298414","NA","Sternberg Task","19","20083","26","yes","1024"
"70.37037037037037","70.37037037037037","763.7407407407408","763.7407407407408","black","experiment","legacy","legacy","legacy","0","uniform","0","undefined","0","right","26","26","26","0","0","26","26","0","0","26","26","26","0","26","0","Sun Oct 16 20:54:20 2022","The main experiment item","yes","SternbergTask.osexp","/Users/alexisparrish/Documents/Advanced Quant. Methods/Lab 3/Lab 3.1","no","mono","no","18","no","white","no","yes","768","legacy","14","11","/Users/alexisparrish/Documents/Advanced Quant. Methods/Lab 3/Lab 3.2/AP-subject-2.csv","legacy","2 6 4 3 9","Lentiform Loewenfeld","3.3.12","0","n","0","left","caps lock","left","left","NA","538","108760","29149","538","NA","2","legacy","5","1024","2","48000","-16","experiment","2","even","1","302214","293128","300000","3941","215947","300004","298934","3958","186797","304218","304757","301009","112720","304218","NA","Sternberg Task","19","20621","27","yes","1024"
"71.42857142857143","71.42857142857143","752.7857142857143","752.7857142857143","black","experiment","legacy","legacy","legacy","0","uniform","1","undefined","1","right","27","27","27","0","0","27","27","0","0","27","27","27","0","27","0","Sun Oct 16 20:54:20 2022","The main experiment item","yes","SternbergTask.osexp","/Users/alexisparrish/Documents/Advanced Quant. Methods/Lab 3/Lab 3.1","no","mono","no","18","no","white","no","yes","768","legacy","15","11","/Users/alexisparrish/Documents/Advanced Quant. Methods/Lab 3/Lab 3.2/AP-subject-2.csv","legacy","5 2","Lentiform Loewenfeld","3.3.12","0","n","0","right","caps lock","left","right","NA","457","108760","29149","457","NA","2","legacy","2","1024","2","48000","-16","experiment","2","even","7","308049","293128","305834","3941","215947","305840","304767","3958","186797","310053","310511","306844","112720","310053","NA","Sternberg Task","20","21078","28","yes","1024"
"68.96551724137932","68.96551724137932","750.3448275862069","750.3448275862069","black","experiment","legacy","legacy","legacy","0","uniform","0","undefined","0","left","28","28","28","0","0","28","28","0","0","28","28","28","0","28","0","Sun Oct 16 20:54:20 2022","The main experiment item","yes","SternbergTask.osexp","/Users/alexisparrish/Documents/Advanced Quant. Methods/Lab 3/Lab 3.1","no","mono","no","18","no","white","no","yes","768","legacy","16","11","/Users/alexisparrish/Documents/Advanced Quant. Methods/Lab 3/Lab 3.2/AP-subject-2.csv","legacy","5 2 6","Lentiform Loewenfeld","3.3.12","2","y","0","right","caps lock","left","right","NA","682","108760","29149","682","NA","2","legacy","3","1024","2","48000","-16","experiment","2","even","2","313826","310522","311613","3941","215947","311617","304767","3958","186797","315830","316513","312621","112720","315830","NA","Sternberg Task","20","21760","29","yes","1024"
"70","70","747.8333333333334","747.8333333333334","black","experiment","legacy","legacy","legacy","0","uniform","1","undefined","1","right","29","29","29","0","0","29","29","0","0","29","29","29","0","29","0","Sun Oct 16 20:54:20 2022","The main experiment item","yes","SternbergTask.osexp","/Users/alexisparrish/Documents/Advanced Quant. Methods/Lab 3/Lab 3.1","no","mono","no","18","no","white","no","yes","768","legacy","17","11","/Users/alexisparrish/Documents/Advanced Quant. Methods/Lab 3/Lab 3.2/AP-subject-2.csv","legacy","5 3 8 7 2 4","Lentiform Loewenfeld","3.3.12","0","n","0","right","caps lock","left","right","NA","675","108760","29149","675","NA","2","legacy","6","1024","2","48000","-16","experiment","2","even","9","319805","310522","317592","3941","215947","317596","316523","3958","186797","321809","322485","318600","112720","321809","NA","Sternberg Task","21","22435","30","yes","1024"
"70.96774193548387","70.96774193548387","737.9677419354839","737.9677419354839","black","experiment","legacy","legacy","legacy","0","uniform","1","undefined","1","left","30","30","30","0","0","30","30","0","0","30","30","30","0","30","0","Sun Oct 16 20:54:20 2022","The main experiment item","yes","SternbergTask.osexp","/Users/alexisparrish/Documents/Advanced Quant. Methods/Lab 3/Lab 3.1","no","mono","no","18","no","white","no","yes","768","legacy","18","11","/Users/alexisparrish/Documents/Advanced Quant. Methods/Lab 3/Lab 3.2/AP-subject-2.csv","legacy","7 8 6 3 1","Lentiform Loewenfeld","3.3.12","5","y","0","left","caps lock","left","left","NA","442","108760","29149","442","NA","2","legacy","5","1024","2","48000","-16","experiment","2","even","1","325777","322496","323564","3941","215947","323568","316523","3958","186797","327781","328224","324572","112720","327781","NA","Sternberg Task","22","22877","31","yes","1024"
"71.875","71.875","733.96875","733.96875","black","experiment","legacy","legacy","legacy","0","uniform","1","undefined","1","right","31","31","31","0","0","31","31","0","0","31","31","31","0","31","0","Sun Oct 16 20:54:20 2022","The main experiment item","yes","SternbergTask.osexp","/Users/alexisparrish/Documents/Advanced Quant. Methods/Lab 3/Lab 3.1","no","mono","no","18","no","white","no","yes","768","legacy","19","11","/Users/alexisparrish/Documents/Advanced Quant. Methods/Lab 3/Lab 3.2/AP-subject-2.csv","legacy","2 8 9 4 1","Lentiform Loewenfeld","3.3.12","0","n","0","right","caps lock","left","right","NA","610","108760","29149","610","NA","2","legacy","5","1024","2","48000","-16","experiment","2","even","5","331518","328236","329304","3941","215947","329309","316523","3958","186797","333522","334133","330313","112720","333522","NA","Sternberg Task","23","23487","32","yes","1024"
"72.72727272727273","72.72727272727273","738.7575757575758","738.7575757575758","black","experiment","legacy","legacy","legacy","0","uniform","1","undefined","1","left","32","32","32","0","0","32","32","0","0","32","32","32","0","32","0","Sun Oct 16 20:54:20 2022","The main experiment item","yes","SternbergTask.osexp","/Users/alexisparrish/Documents/Advanced Quant. Methods/Lab 3/Lab 3.1","no","mono","no","18","no","white","no","yes","768","legacy","20","11","/Users/alexisparrish/Documents/Advanced Quant. Methods/Lab 3/Lab 3.2/AP-subject-2.csv","legacy","3 9 6 2","Lentiform Loewenfeld","3.3.12","4","y","0","left","caps lock","left","left","NA","892","108760","29149","892","NA","2","legacy","4","1024","2","48000","-16","experiment","2","even","2","337428","334145","335215","3941","215947","335219","316523","3958","186797","339432","340325","336223","112720","339432","NA","Sternberg Task","24","24379","33","yes","1024"
"73.52941176470588","73.52941176470588","734.1176470588235","734.1176470588235","black","experiment","legacy","legacy","legacy","0","uniform","1","undefined","1","right","33","33","33","0","0","33","33","0","0","33","33","33","0","33","0","Sun Oct 16 20:54:20 2022","The main experiment item","yes","SternbergTask.osexp","/Users/alexisparrish/Documents/Advanced Quant. Methods/Lab 3/Lab 3.1","no","mono","no","18","no","white","no","yes","768","legacy","21","11","/Users/alexisparrish/Documents/Advanced Quant. Methods/Lab 3/Lab 3.2/AP-subject-2.csv","legacy","7 9","Lentiform Loewenfeld","3.3.12","0","n","0","right","caps lock","left","right","NA","581","108760","29149","581","NA","2","legacy","2","1024","2","48000","-16","experiment","2","even","1","343617","340336","341403","3941","215947","341408","316523","3958","186797","345621","346203","342412","112720","345621","NA","Sternberg Task","25","24960","34","yes","1024"
"74.28571428571429","74.28571428571429","731.4","731.4","black","experiment","legacy","legacy","legacy","0","uniform","1","undefined","1","left","34","34","34","0","0","34","34","0","0","34","34","34","0","34","0","Sun Oct 16 20:54:20 2022","The main experiment item","yes","SternbergTask.osexp","/Users/alexisparrish/Documents/Advanced Quant. Methods/Lab 3/Lab 3.1","no","mono","no","18","no","white","no","yes","768","legacy","22","11","/Users/alexisparrish/Documents/Advanced Quant. Methods/Lab 3/Lab 3.2/AP-subject-2.csv","legacy","9 6 2 4 1","Lentiform Loewenfeld","3.3.12","4","y","0","left","caps lock","left","left","NA","639","108760","29149","639","NA","2","legacy","5","1024","2","48000","-16","experiment","2","even","4","349494","346214","347281","3941","215947","347285","316523","3958","186797","351498","352138","348289","112720","351498","NA","Sternberg Task","26","25599","35","yes","1024"
"75","75","722.8888888888889","722.8888888888889","black","experiment","legacy","legacy","legacy","0","uniform","1","undefined","1","right","35","35","35","0","0","35","35","0","0","35","35","35","0","35","0","Sun Oct 16 20:54:20 2022","The main experiment item","yes","SternbergTask.osexp","/Users/alexisparrish/Documents/Advanced Quant. Methods/Lab 3/Lab 3.1","no","mono","no","18","no","white","no","yes","768","legacy","23","11","/Users/alexisparrish/Documents/Advanced Quant. Methods/Lab 3/Lab 3.2/AP-subject-2.csv","legacy","2 5 1 4","Lentiform Loewenfeld","3.3.12","0","n","0","right","caps lock","left","right","NA","425","108760","29149","425","NA","2","legacy","4","1024","2","48000","-16","experiment","2","even","6","355429","352148","353215","3941","215947","353220","316523","3958","186797","357433","357859","354224","112720","357433","NA","Sternberg Task","27","26024","36","yes","1024"
"75.67567567567568","75.67567567567568","718.7567567567568","718.7567567567568","black","experiment","legacy","legacy","legacy","0","uniform","1","undefined","1","left","36","36","36","0","0","36","36","0","0","36","36","36","0","36","0","Sun Oct 16 20:54:20 2022","The main experiment item","yes","SternbergTask.osexp","/Users/alexisparrish/Documents/Advanced Quant. Methods/Lab 3/Lab 3.1","no","mono","no","18","no","white","no","yes","768","legacy","24","11","/Users/alexisparrish/Documents/Advanced Quant. Methods/Lab 3/Lab 3.2/AP-subject-2.csv","legacy","6 2","Lentiform Loewenfeld","3.3.12","1","y","0","left","caps lock","left","left","NA","570","108760","29149","570","NA","2","legacy","2","1024","2","48000","-16","experiment","2","even","6","361148","357870","358935","3941","215947","358939","316523","3958","186797","363152","363723","359943","112720","363152","NA","Sternberg Task","28","26594","37","yes","1024"
"76.3157894736842","76.3157894736842","713.3684210526316","713.3684210526316","black","experiment","legacy","legacy","legacy","0","uniform","1","undefined","1","right","37","37","37","0","0","37","37","0","0","37","37","37","0","37","0","Sun Oct 16 20:54:20 2022","The main experiment item","yes","SternbergTask.osexp","/Users/alexisparrish/Documents/Advanced Quant. Methods/Lab 3/Lab 3.1","no","mono","no","18","no","white","no","yes","768","legacy","25","11","/Users/alexisparrish/Documents/Advanced Quant. Methods/Lab 3/Lab 3.2/AP-subject-2.csv","legacy","1 4 3 6 5","Lentiform Loewenfeld","3.3.12","0","n","0","right","caps lock","left","right","NA","514","108760","29149","514","NA","2","legacy","5","1024","2","48000","-16","experiment","2","even","8","367015","363734","364802","3941","215947","364806","316523","3958","186797","369019","369534","365810","112720","369019","NA","Sternberg Task","29","27108","38","yes","1024"
"76.92307692307692","76.92307692307692","710.7692307692307","710.7692307692307","black","experiment","legacy","legacy","legacy","0","uniform","1","undefined","1","right","38","38","38","0","0","38","38","0","0","38","38","38","0","38","0","Sun Oct 16 20:54:20 2022","The main experiment item","yes","SternbergTask.osexp","/Users/alexisparrish/Documents/Advanced Quant. Methods/Lab 3/Lab 3.1","no","mono","no","18","no","white","no","yes","768","legacy","26","11","/Users/alexisparrish/Documents/Advanced Quant. Methods/Lab 3/Lab 3.2/AP-subject-2.csv","legacy","3 9 8 1 6 4","Lentiform Loewenfeld","3.3.12","0","n","0","right","caps lock","left","right","NA","612","108760","29149","612","NA","2","legacy","6","1024","2","48000","-16","experiment","2","even","7","372824","369545","370610","3941","215947","370615","316523","3958","186797","374828","375440","371619","112720","374828","NA","Sternberg Task","30","27720","39","yes","1024"
"77.5","77.5","713.55","713.55","black","experiment","legacy","legacy","legacy","0","uniform","1","undefined","1","left","39","39","39","0","0","39","39","0","0","39","39","39","0","39","0","Sun Oct 16 20:54:20 2022","The main experiment item","yes","SternbergTask.osexp","/Users/alexisparrish/Documents/Advanced Quant. Methods/Lab 3/Lab 3.1","no","mono","no","18","no","white","no","yes","768","legacy","27","11","/Users/alexisparrish/Documents/Advanced Quant. Methods/Lab 3/Lab 3.2/AP-subject-2.csv","legacy","4 1 8 7 5","Lentiform Loewenfeld","3.3.12","3","y","0","left","caps lock","left","left","NA","822","108760","29149","822","NA","2","legacy","5","1024","2","48000","-16","experiment","2","even","8","378728","375452","376515","3941","215947","376519","316523","3958","186797","380732","381555","377523","112720","380732","NA","Sternberg Task","31","28542","40","yes","1024"
"78.04878048780488","78.04878048780488","713.4634146341464","713.4634146341464","black","experiment","legacy","legacy","legacy","0","uniform","1","undefined","1","right","40","40","40","0","0","40","40","0","0","40","40","40","0","40","0","Sun Oct 16 20:54:20 2022","The main experiment item","yes","SternbergTask.osexp","/Users/alexisparrish/Documents/Advanced Quant. Methods/Lab 3/Lab 3.1","no","mono","no","18","no","white","no","yes","768","legacy","28","11","/Users/alexisparrish/Documents/Advanced Quant. Methods/Lab 3/Lab 3.2/AP-subject-2.csv","legacy","7 6 4 8 1 2","Lentiform Loewenfeld","3.3.12","0","n","0","right","caps lock","left","right","NA","710","108760","29149","710","NA","2","legacy","6","1024","2","48000","-16","experiment","2","even","9","384847","381566","382633","3941","215947","382637","316523","3958","186797","386851","387562","383642","112720","386851","NA","Sternberg Task","32","29252","41","yes","1024"
"76.19047619047619","76.19047619047619","712.1428571428571","712.1428571428571","black","experiment","legacy","legacy","legacy","0","uniform","0","undefined","0","right","41","41","41","0","0","41","41","0","0","41","41","41","0","41","0","Sun Oct 16 20:54:20 2022","The main experiment item","yes","SternbergTask.osexp","/Users/alexisparrish/Documents/Advanced Quant. Methods/Lab 3/Lab 3.1","no","mono","no","18","no","white","no","yes","768","legacy","29","11","/Users/alexisparrish/Documents/Advanced Quant. Methods/Lab 3/Lab 3.2/AP-subject-2.csv","legacy","8 4 3 5","Lentiform Loewenfeld","3.3.12","0","n","0","left","caps lock","left","left","NA","658","108760","29149","658","NA","2","legacy","4","1024","2","48000","-16","experiment","2","even","6","390853","387573","388640","3941","215947","388644","316523","3958","186797","392857","393515","389648","112720","392857","NA","Sternberg Task","32","29910","42","yes","1024"
"74.4186046511628","74.4186046511628","707.3488372093024","707.3488372093024","black","experiment","legacy","legacy","legacy","0","uniform","0","undefined","0","left","42","42","42","0","0","42","42","0","0","42","42","42","0","42","0","Sun Oct 16 20:54:20 2022","The main experiment item","yes","SternbergTask.osexp","/Users/alexisparrish/Documents/Advanced Quant. Methods/Lab 3/Lab 3.1","no","mono","no","18","no","white","no","yes","768","legacy","30","11","/Users/alexisparrish/Documents/Advanced Quant. Methods/Lab 3/Lab 3.2/AP-subject-2.csv","legacy","3 9 7 6 4","Lentiform Loewenfeld","3.3.12","3","y","0","right","caps lock","left","right","NA","506","108760","29149","506","NA","2","legacy","5","1024","2","48000","-16","experiment","2","even","7","396808","387573","394594","3941","215947","394599","393527","3958","186797","398812","399319","395603","112720","398812","NA","Sternberg Task","32","30416","43","yes","1024"
"72.72727272727273","72.72727272727273","705.7045454545455","705.7045454545455","black","experiment","legacy","legacy","legacy","0","uniform","0","undefined","0","left","43","43","43","0","0","43","43","0","0","43","43","43","0","43","0","Sun Oct 16 20:54:20 2022","The main experiment item","yes","SternbergTask.osexp","/Users/alexisparrish/Documents/Advanced Quant. Methods/Lab 3/Lab 3.1","no","mono","no","18","no","white","no","yes","768","legacy","31","11","/Users/alexisparrish/Documents/Advanced Quant. Methods/Lab 3/Lab 3.2/AP-subject-2.csv","legacy","5 7 3 6 2","Lentiform Loewenfeld","3.3.12","5","y","0","right","caps lock","left","right","NA","635","108760","29149","635","NA","2","legacy","5","1024","2","48000","-16","experiment","2","even","2","402611","387573","400398","3941","215947","400402","399331","3958","186797","404615","405251","401406","112720","404615","NA","Sternberg Task","32","31051","44","yes","1024"
"73.33333333333333","73.33333333333333","697.4222222222222","697.4222222222222","black","experiment","legacy","legacy","legacy","0","uniform","1","undefined","1","left","44","44","44","0","0","44","44","0","0","44","44","44","0","44","0","Sun Oct 16 20:54:20 2022","The main experiment item","yes","SternbergTask.osexp","/Users/alexisparrish/Documents/Advanced Quant. Methods/Lab 3/Lab 3.1","no","mono","no","18","no","white","no","yes","768","legacy","32","11","/Users/alexisparrish/Documents/Advanced Quant. Methods/Lab 3/Lab 3.2/AP-subject-2.csv","legacy","6 8 9 3 4 9","Lentiform Loewenfeld","3.3.12","5","y","0","left","caps lock","left","left","NA","333","108760","29149","333","NA","2","legacy","6","1024","2","48000","-16","experiment","2","even","4","408543","387573","406330","3941","215947","406334","405262","3958","186797","410547","410881","407338","112720","410547","NA","Sternberg Task","33","31384","45","yes","1024"
"73.91304347826087","73.91304347826087","696.2608695652174","696.2608695652174","black","experiment","legacy","legacy","legacy","0","uniform","1","undefined","1","right","45","45","45","0","0","45","45","0","0","45","45","45","0","45","0","Sun Oct 16 20:54:20 2022","The main experiment item","yes","SternbergTask.osexp","/Users/alexisparrish/Documents/Advanced Quant. Methods/Lab 3/Lab 3.1","no","mono","no","18","no","white","no","yes","768","legacy","33","11","/Users/alexisparrish/Documents/Advanced Quant. Methods/Lab 3/Lab 3.2/AP-subject-2.csv","legacy","7 1 5 6 3","Lentiform Loewenfeld","3.3.12","0","n","0","right","caps lock","left","right","NA","644","108760","29149","644","NA","2","legacy","5","1024","2","48000","-16","experiment","2","even","8","414169","410892","411956","3941","215947","411960","405262","3958","186797","416173","416818","412964","112720","416173","NA","Sternberg Task","34","32028","46","yes","1024"
"74.46808510638297","74.46808510638297","699.4468085106383","699.4468085106383","black","experiment","legacy","legacy","legacy","0","uniform","1","undefined","1","right","46","46","46","0","0","46","46","0","0","46","46","46","0","46","0","Sun Oct 16 20:54:20 2022","The main experiment item","yes","SternbergTask.osexp","/Users/alexisparrish/Documents/Advanced Quant. Methods/Lab 3/Lab 3.1","no","mono","no","18","no","white","no","yes","768","legacy","34","11","/Users/alexisparrish/Documents/Advanced Quant. Methods/Lab 3/Lab 3.2/AP-subject-2.csv","legacy","2 8 6 3 1","Lentiform Loewenfeld","3.3.12","0","n","0","right","caps lock","left","right","NA","846","108760","29149","846","NA","2","legacy","5","1024","2","48000","-16","experiment","2","even","7","420106","416830","417893","3941","215947","417897","405262","3958","186797","422110","422957","418901","112720","422110","NA","Sternberg Task","35","32874","47","yes","1024"
"75","75","695.25","695.25","black","experiment","legacy","legacy","legacy","0","uniform","1","undefined","1","left","47","47","47","0","0","47","47","0","0","47","47","47","0","47","0","Sun Oct 16 20:54:20 2022","The main experiment item","yes","SternbergTask.osexp","/Users/alexisparrish/Documents/Advanced Quant. Methods/Lab 3/Lab 3.1","no","mono","no","18","no","white","no","yes","768","legacy","35","11","/Users/alexisparrish/Documents/Advanced Quant. Methods/Lab 3/Lab 3.2/AP-subject-2.csv","legacy","6 5","Lentiform Loewenfeld","3.3.12","2","y","0","left","caps lock","left","left","NA","498","108760","29149","498","NA","2","legacy","2","1024","2","48000","-16","experiment","2","even","5","426248","422968","424034","3941","215947","424039","405262","3958","186797","428252","428751","425043","112720","428252","NA","Sternberg Task","36","33372","48","yes","1024"
"75.51020408163265","75.51020408163265","691.3061224489796","691.3061224489796","black","experiment","legacy","legacy","legacy","0","uniform","1","undefined","1","left","48","48","48","0","0","48","48","0","0","48","48","48","0","48","0","Sun Oct 16 20:54:20 2022","The main experiment item","yes","SternbergTask.osexp","/Users/alexisparrish/Documents/Advanced Quant. Methods/Lab 3/Lab 3.1","no","mono","no","18","no","white","no","yes","768","legacy","36","11","/Users/alexisparrish/Documents/Advanced Quant. Methods/Lab 3/Lab 3.2/AP-subject-2.csv","legacy","2 3 7 4","Lentiform Loewenfeld","3.3.12","1","y","0","left","caps lock","left","left","NA","502","108760","29149","502","NA","2","legacy","4","1024","2","48000","-16","experiment","2","even","2","432043","428762","429830","3941","215947","429834","405262","3958","186797","434047","434550","430838","112720","434047","NA","Sternberg Task","37","33874","49","yes","1024"
"76","76","687.16","687.16","black","experiment","legacy","legacy","legacy","0","uniform","1","undefined","1","left","49","49","49","0","0","49","49","0","0","49","49","49","0","49","0","Sun Oct 16 20:54:20 2022","The main experiment item","yes","SternbergTask.osexp","/Users/alexisparrish/Documents/Advanced Quant. Methods/Lab 3/Lab 3.1","no","mono","no","18","no","white","no","yes","768","legacy","37","11","/Users/alexisparrish/Documents/Advanced Quant. Methods/Lab 3/Lab 3.2/AP-subject-2.csv","legacy","4 1 5","Lentiform Loewenfeld","3.3.12","2","y","0","left","caps lock","left","left","NA","484","108760","29149","484","NA","2","legacy","3","1024","2","48000","-16","experiment","2","even","1","437843","434562","435630","3941","215947","435634","405262","3958","186797","439847","440332","436638","112720","439847","NA","Sternberg Task","38","34358","50","yes","1024"
"74.50980392156863","74.50980392156863","683.2941176470588","683.2941176470588","black","experiment","legacy","legacy","legacy","0","uniform","0","undefined","0","right","50","50","50","0","0","50","50","0","0","50","50","50","0","50","0","Sun Oct 16 20:54:20 2022","The main experiment item","yes","SternbergTask.osexp","/Users/alexisparrish/Documents/Advanced Quant. Methods/Lab 3/Lab 3.1","no","mono","no","18","no","white","no","yes","768","legacy","38","11","/Users/alexisparrish/Documents/Advanced Quant. Methods/Lab 3/Lab 3.2/AP-subject-2.csv","legacy","1 3 2 6 9","Lentiform Loewenfeld","3.3.12","0","n","0","left","caps lock","left","left","NA","490","108760","29149","490","NA","2","legacy","5","1024","2","48000","-16","experiment","2","even","5","443625","440343","441411","3941","215947","441416","405262","3958","186797","445629","446120","442420","112720","445629","NA","Sternberg Task","38","34848","51","yes","1024"
"75","75","680.75","680.75","black","experiment","legacy","legacy","legacy","0","uniform","1","undefined","1","left","51","51","51","0","0","51","51","0","0","51","51","51","0","51","0","Sun Oct 16 20:54:20 2022","The main experiment item","yes","SternbergTask.osexp","/Users/alexisparrish/Documents/Advanced Quant. Methods/Lab 3/Lab 3.1","no","mono","no","18","no","white","no","yes","768","legacy","39","11","/Users/alexisparrish/Documents/Advanced Quant. Methods/Lab 3/Lab 3.2/AP-subject-2.csv","legacy","9 4 2","Lentiform Loewenfeld","3.3.12","1","y","0","left","caps lock","left","left","NA","551","108760","29149","551","NA","2","legacy","3","1024","2","48000","-16","experiment","2","even","9","449411","440343","447197","3941","215947","447202","446130","3958","186797","451415","451967","448206","112720","451415","NA","Sternberg Task","39","35399","52","yes","1024"
"73.58490566037736","73.58490566037736","678.1132075471698","678.1132075471698","black","experiment","legacy","legacy","legacy","0","uniform","0","undefined","0","left","52","52","52","0","0","52","52","0","0","52","52","52","0","52","0","Sun Oct 16 20:54:20 2022","The main experiment item","yes","SternbergTask.osexp","/Users/alexisparrish/Documents/Advanced Quant. Methods/Lab 3/Lab 3.1","no","mono","no","18","no","white","no","yes","768","legacy","40","11","/Users/alexisparrish/Documents/Advanced Quant. Methods/Lab 3/Lab 3.2/AP-subject-2.csv","legacy","7 6","Lentiform Loewenfeld","3.3.12","2","y","0","right","caps lock","left","right","NA","541","108760","29149","541","NA","2","legacy","2","1024","2","48000","-16","experiment","2","even","6","455264","451979","453045","3941","215947","453050","446130","3958","186797","457268","457810","454054","112720","457268","NA","Sternberg Task","39","35940","53","yes","1024"
"74.07407407407408","74.07407407407408","676.0370370370371","676.0370370370371","black","experiment","legacy","legacy","legacy","0","uniform","1","undefined","1","right","53","53","53","0","0","53","53","0","0","53","53","53","0","53","0","Sun Oct 16 20:54:20 2022","The main experiment item","yes","SternbergTask.osexp","/Users/alexisparrish/Documents/Advanced Quant. Methods/Lab 3/Lab 3.1","no","mono","no","18","no","white","no","yes","768","legacy","41","11","/Users/alexisparrish/Documents/Advanced Quant. Methods/Lab 3/Lab 3.2/AP-subject-2.csv","legacy","4 1","Lentiform Loewenfeld","3.3.12","0","n","0","right","caps lock","left","right","NA","566","108760","29149","566","NA","2","legacy","2","1024","2","48000","-16","experiment","2","even","6","461102","451979","458889","3941","215947","458893","457822","3958","186797","463106","463673","459897","112720","463106","NA","Sternberg Task","40","36506","54","yes","1024"
"72.72727272727273","72.72727272727273","679.4545454545455","679.4545454545455","black","experiment","legacy","legacy","legacy","0","uniform","0","undefined","0","right","54","54","54","0","0","54","54","0","0","54","54","54","0","54","0","Sun Oct 16 20:54:20 2022","The main experiment item","yes","SternbergTask.osexp","/Users/alexisparrish/Documents/Advanced Quant. Methods/Lab 3/Lab 3.1","no","mono","no","18","no","white","no","yes","768","legacy","42","11","/Users/alexisparrish/Documents/Advanced Quant. Methods/Lab 3/Lab 3.2/AP-subject-2.csv","legacy","7 4 2 8 1 9","Lentiform Loewenfeld","3.3.12","0","n","0","left","caps lock","left","left","NA","864","108760","29149","864","NA","2","legacy","6","1024","2","48000","-16","experiment","2","even","5","466966","463685","464752","3941","215947","464756","457822","3958","186797","468977","469842","465761","112720","468977","NA","Sternberg Task","40","37370","55","yes","1024"
"73.21428571428571","73.21428571428571","678.3392857142857","678.3392857142857","black","experiment","legacy","legacy","legacy","0","uniform","1","undefined","1","left","55","55","55","0","0","55","55","0","0","55","55","55","0","55","0","Sun Oct 16 20:54:20 2022","The main experiment item","yes","SternbergTask.osexp","/Users/alexisparrish/Documents/Advanced Quant. Methods/Lab 3/Lab 3.1","no","mono","no","18","no","white","no","yes","768","legacy","43","11","/Users/alexisparrish/Documents/Advanced Quant. Methods/Lab 3/Lab 3.2/AP-subject-2.csv","legacy","8 7 3","Lentiform Loewenfeld","3.3.12","1","y","0","left","caps lock","left","left","NA","617","108760","29149","617","NA","2","legacy","3","1024","2","48000","-16","experiment","2","even","8","473131","463685","470918","3941","215947","470922","469854","3958","186797","475135","475753","471926","112720","475135","NA","Sternberg Task","41","37987","56","yes","1024"
"73.6842105263158","73.6842105263158","677.2982456140351","677.2982456140351","black","experiment","legacy","legacy","legacy","0","uniform","1","undefined","1","right","56","56","56","0","0","56","56","0","0","56","56","56","0","56","0","Sun Oct 16 20:54:20 2022","The main experiment item","yes","SternbergTask.osexp","/Users/alexisparrish/Documents/Advanced Quant. Methods/Lab 3/Lab 3.1","no","mono","no","18","no","white","no","yes","768","legacy","44","11","/Users/alexisparrish/Documents/Advanced Quant. Methods/Lab 3/Lab 3.2/AP-subject-2.csv","legacy","1 4 9 3","Lentiform Loewenfeld","3.3.12","0","n","0","right","caps lock","left","right","NA","619","108760","29149","619","NA","2","legacy","4","1024","2","48000","-16","experiment","2","even","5","479040","475765","476827","3941","215947","476831","469854","3958","186797","481044","481664","477835","112720","481044","NA","Sternberg Task","42","38606","57","yes","1024"
"74.13793103448276","74.13793103448276","670.6724137931035","670.6724137931035","black","experiment","legacy","legacy","legacy","0","uniform","1","undefined","1","left","57","57","57","0","0","57","57","0","0","57","57","57","0","57","0","Sun Oct 16 20:54:20 2022","The main experiment item","yes","SternbergTask.osexp","/Users/alexisparrish/Documents/Advanced Quant. Methods/Lab 3/Lab 3.1","no","mono","no","18","no","white","no","yes","768","legacy","45","11","/Users/alexisparrish/Documents/Advanced Quant. Methods/Lab 3/Lab 3.2/AP-subject-2.csv","legacy","3 5 9 6 2 4","Lentiform Loewenfeld","3.3.12","1","y","0","left","caps lock","left","left","NA","293","108760","29149","293","NA","2","legacy","6","1024","2","48000","-16","experiment","2","even","3","484957","481676","482743","3941","215947","482748","469854","3958","186797","486961","487255","483752","112720","486961","NA","Sternberg Task","43","38899","58","yes","1024"
"74.57627118644068","74.57627118644068","668.8813559322034","668.8813559322034","black","experiment","legacy","legacy","legacy","0","uniform","1","undefined","1","right","58","58","58","0","0","58","58","0","0","58","58","58","0","58","0","Sun Oct 16 20:54:20 2022","The main experiment item","yes","SternbergTask.osexp","/Users/alexisparrish/Documents/Advanced Quant. Methods/Lab 3/Lab 3.1","no","mono","no","18","no","white","no","yes","768","legacy","46","11","/Users/alexisparrish/Documents/Advanced Quant. Methods/Lab 3/Lab 3.2/AP-subject-2.csv","legacy","4 2 6 9","Lentiform Loewenfeld","3.3.12","0","n","0","right","caps lock","left","right","NA","565","108760","29149","565","NA","2","legacy","4","1024","2","48000","-16","experiment","2","even","7","490546","487265","488332","3941","215947","488337","469854","3958","186797","492550","493116","489341","112720","492550","NA","Sternberg Task","44","39464","59","yes","1024"
"75","75","671.6166666666667","671.6166666666667","black","experiment","legacy","legacy","legacy","0","uniform","1","undefined","1","right","59","59","59","0","0","59","59","0","0","59","59","59","0","59","0","Sun Oct 16 20:54:20 2022","The main experiment item","yes","SternbergTask.osexp","/Users/alexisparrish/Documents/Advanced Quant. Methods/Lab 3/Lab 3.1","no","mono","no","18","no","white","no","yes","768","legacy","47","11","/Users/alexisparrish/Documents/Advanced Quant. Methods/Lab 3/Lab 3.2/AP-subject-2.csv","legacy","7 8 6 1","Lentiform Loewenfeld","3.3.12","0","n","0","right","caps lock","left","right","NA","833","108760","29149","833","NA","2","legacy","4","1024","2","48000","-16","experiment","2","even","3","496407","493127","494193","3941","215947","494198","469854","3958","186797","498411","499245","495202","112720","498411","NA","Sternberg Task","45","40297","60","yes","1024"
"75.40983606557377","75.40983606557377","664.8688524590164","664.8688524590164","black","experiment","legacy","legacy","legacy","0","uniform","1","undefined","1","left","60","60","60","0","0","60","60","0","0","60","60","60","0","60","0","Sun Oct 16 20:54:20 2022","The main experiment item","yes","SternbergTask.osexp","/Users/alexisparrish/Documents/Advanced Quant. Methods/Lab 3/Lab 3.1","no","mono","no","18","no","white","no","yes","768","legacy","48","11","/Users/alexisparrish/Documents/Advanced Quant. Methods/Lab 3/Lab 3.2/AP-subject-2.csv","legacy","8 5 4 7 3 1","Lentiform Loewenfeld","3.3.12","2","y","0","left","caps lock","left","left","NA","260","108760","29149","260","NA","2","legacy","6","1024","2","48000","-16","experiment","2","even","5","502534","499257","500321","3941","215947","500325","469854","3958","186797","504538","504799","501329","112720","504538","NA","Sternberg Task","46","40557","61","yes","1024"
"75.80645161290323","75.80645161290323","661.9677419354839","661.9677419354839","black","experiment","legacy","legacy","legacy","0","uniform","1","undefined","1","left","61","61","61","0","0","61","61","0","0","61","61","61","0","61","0","Sun Oct 16 20:54:20 2022","The main experiment item","yes","SternbergTask.osexp","/Users/alexisparrish/Documents/Advanced Quant. Methods/Lab 3/Lab 3.1","no","mono","no","18","no","white","no","yes","768","legacy","49","11","/Users/alexisparrish/Documents/Advanced Quant. Methods/Lab 3/Lab 3.2/AP-subject-2.csv","legacy","8 9 6 1","Lentiform Loewenfeld","3.3.12","2","y","0","left","caps lock","left","left","NA","485","108760","29149","485","NA","2","legacy","4","1024","2","48000","-16","experiment","2","even","9","508092","504811","505879","3941","215947","505883","469854","3958","186797","510096","510582","506887","112720","510096","NA","Sternberg Task","47","41042","62","yes","1024"
"74.60317460317461","74.60317460317461","651.5079365079365","651.5079365079365","black","experiment","legacy","legacy","legacy","0","uniform","0","undefined","0","right","62","62","62","0","0","62","62","0","0","62","62","62","0","62","0","Sun Oct 16 20:54:20 2022","The main experiment item","yes","SternbergTask.osexp","/Users/alexisparrish/Documents/Advanced Quant. Methods/Lab 3/Lab 3.1","no","mono","no","18","no","white","no","yes","768","legacy","50","11","/Users/alexisparrish/Documents/Advanced Quant. Methods/Lab 3/Lab 3.2/AP-subject-2.csv","legacy","2 8 7 9 5 3","Lentiform Loewenfeld","3.3.12","0","n","0","left","caps lock","left","left","NA","3","108760","29149","3","NA","2","legacy","6","1024","2","48000","-16","experiment","2","even","6","513874","510593","511661","3941","215947","511665","469854","3958","186797","515878","515882","512669","112720","515878","NA","Sternberg Task","47","41045","63","yes","1024"
"73.4375","73.4375","645.46875","645.46875","black","experiment","legacy","legacy","legacy","0","uniform","0","undefined","0","right","63","63","63","0","0","63","63","0","0","63","63","63","0","63","0","Sun Oct 16 20:54:20 2022","The main experiment item","yes","SternbergTask.osexp","/Users/alexisparrish/Documents/Advanced Quant. Methods/Lab 3/Lab 3.1","no","mono","no","18","no","white","no","yes","768","legacy","51","11","/Users/alexisparrish/Documents/Advanced Quant. Methods/Lab 3/Lab 3.2/AP-subject-2.csv","legacy","6 2 9 3 8 4","Lentiform Loewenfeld","3.3.12","0","n","0","left","caps lock","left","left","NA","265","108760","29149","265","NA","2","legacy","6","1024","2","48000","-16","experiment","2","even","1","519174","510593","516960","3941","215947","516965","515893","3958","186797","521178","521445","517969","112720","521178","NA","Sternberg Task","47","41310","64","yes","1024"
"73.84615384615384","73.84615384615384","639.5692307692308","639.5692307692308","black","experiment","legacy","legacy","legacy","0","uniform","1","undefined","1","left","64","64","64","0","0","64","64","0","0","64","64","64","0","64","0","Sun Oct 16 20:54:20 2022","The main experiment item","yes","SternbergTask.osexp","/Users/alexisparrish/Documents/Advanced Quant. Methods/Lab 3/Lab 3.1","no","mono","no","18","no","white","no","yes","768","legacy","52","11","/Users/alexisparrish/Documents/Advanced Quant. Methods/Lab 3/Lab 3.2/AP-subject-2.csv","legacy","4 3 2 5 8","Lentiform Loewenfeld","3.3.12","2","y","0","left","caps lock","left","left","NA","262","108760","29149","262","NA","2","legacy","5","1024","2","48000","-16","experiment","2","even","3","524735","510593","522522","3941","215947","522526","521455","3958","186797","526739","527002","523530","112720","526739","NA","Sternberg Task","48","41572","65","yes","1024"
"74.24242424242425","74.24242424242425","633.5454545454545","633.5454545454545","black","experiment","legacy","legacy","legacy","0","uniform","1","undefined","1","left","65","65","65","0","0","65","65","0","0","65","65","65","0","65","0","Sun Oct 16 20:54:20 2022","The main experiment item","yes","SternbergTask.osexp","/Users/alexisparrish/Documents/Advanced Quant. Methods/Lab 3/Lab 3.1","no","mono","no","18","no","white","no","yes","768","legacy","53","11","/Users/alexisparrish/Documents/Advanced Quant. Methods/Lab 3/Lab 3.2/AP-subject-2.csv","legacy","7 8 4 6 9 5","Lentiform Loewenfeld","3.3.12","4","y","0","left","caps lock","left","left","NA","242","108760","29149","242","NA","2","legacy","6","1024","2","48000","-16","experiment","2","even","6","530297","527014","528084","3941","215947","528088","521455","3958","186797","532301","532544","529092","112720","532301","NA","Sternberg Task","49","41814","66","yes","1024"
"74.6268656716418","74.6268656716418","630.8358208955224","630.8358208955224","black","experiment","legacy","legacy","legacy","0","uniform","1","undefined","1","left","66","66","66","0","0","66","66","0","0","66","66","66","0","66","0","Sun Oct 16 20:54:20 2022","The main experiment item","yes","SternbergTask.osexp","/Users/alexisparrish/Documents/Advanced Quant. Methods/Lab 3/Lab 3.1","no","mono","no","18","no","white","no","yes","768","legacy","54","11","/Users/alexisparrish/Documents/Advanced Quant. Methods/Lab 3/Lab 3.2/AP-subject-2.csv","legacy","3 5 4 7","Lentiform Loewenfeld","3.3.12","1","y","0","left","caps lock","left","left","NA","452","108760","29149","452","NA","2","legacy","4","1024","2","48000","-16","experiment","2","even","3","535837","532556","533623","3941","215947","533628","521455","3958","186797","537841","538294","534632","112720","537841","NA","Sternberg Task","50","42266","67","yes","1024"
"75","75","630.6176470588235","630.6176470588235","black","experiment","legacy","legacy","legacy","0","uniform","1","undefined","1","left","67","67","67","0","0","67","67","0","0","67","67","67","0","67","0","Sun Oct 16 20:54:20 2022","The main experiment item","yes","SternbergTask.osexp","/Users/alexisparrish/Documents/Advanced Quant. Methods/Lab 3/Lab 3.1","no","mono","no","18","no","white","no","yes","768","legacy","55","11","/Users/alexisparrish/Documents/Advanced Quant. Methods/Lab 3/Lab 3.2/AP-subject-2.csv","legacy","2 8 5 1","Lentiform Loewenfeld","3.3.12","4","y","0","left","caps lock","left","left","NA","616","108760","29149","616","NA","2","legacy","4","1024","2","48000","-16","experiment","2","even","1","541580","538305","539366","3941","215947","539371","521455","3958","186797","543584","544201","540375","112720","543584","NA","Sternberg Task","51","42882","68","yes","1024"
"75.3623188405797","75.3623188405797","627.5797101449275","627.5797101449275","black","experiment","legacy","legacy","legacy","0","uniform","1","undefined","1","right","68","68","68","0","0","68","68","0","0","68","68","68","0","68","0","Sun Oct 16 20:54:20 2022","The main experiment item","yes","SternbergTask.osexp","/Users/alexisparrish/Documents/Advanced Quant. Methods/Lab 3/Lab 3.1","no","mono","no","18","no","white","no","yes","768","legacy","56","11","/Users/alexisparrish/Documents/Advanced Quant. Methods/Lab 3/Lab 3.2/AP-subject-2.csv","legacy","2 8 9","Lentiform Loewenfeld","3.3.12","0","n","0","right","caps lock","left","right","NA","421","108760","29149","421","NA","2","legacy","3","1024","2","48000","-16","experiment","2","even","6","547487","544212","545273","3941","215947","545278","521455","3958","186797","549491","549913","546282","112720","549491","NA","Sternberg Task","52","43303","69","yes","1024"
"75.71428571428571","75.71428571428571","626.7571428571429","626.7571428571429","black","experiment","legacy","legacy","legacy","0","uniform","1","undefined","1","left","69","69","69","0","0","69","69","0","0","69","69","69","0","69","0","Sun Oct 16 20:54:20 2022","The main experiment item","yes","SternbergTask.osexp","/Users/alexisparrish/Documents/Advanced Quant. Methods/Lab 3/Lab 3.1","no","mono","no","18","no","white","no","yes","768","legacy","57","11","/Users/alexisparrish/Documents/Advanced Quant. Methods/Lab 3/Lab 3.2/AP-subject-2.csv","legacy","9 3 1 2 5","Lentiform Loewenfeld","3.3.12","4","y","0","left","caps lock","left","left","NA","570","108760","29149","570","NA","2","legacy","5","1024","2","48000","-16","experiment","2","even","2","553200","549924","550986","3941","215947","550991","521455","3958","186797","555204","555775","551995","112720","555204","NA","Sternberg Task","53","43873","70","yes","1024"
"76.05633802816901","76.05633802816901","625.7605633802817","625.7605633802817","black","experiment","legacy","legacy","legacy","0","uniform","1","undefined","1","right","70","70","70","0","0","70","70","0","0","70","70","70","0","70","0","Sun Oct 16 20:54:20 2022","The main experiment item","yes","SternbergTask.osexp","/Users/alexisparrish/Documents/Advanced Quant. Methods/Lab 3/Lab 3.1","no","mono","no","18","no","white","no","yes","768","legacy","58","11","/Users/alexisparrish/Documents/Advanced Quant. Methods/Lab 3/Lab 3.2/AP-subject-2.csv","legacy","6 7 5 9","Lentiform Loewenfeld","3.3.12","0","n","0","right","caps lock","left","right","NA","556","108760","29149","556","NA","2","legacy","4","1024","2","48000","-16","experiment","2","even","2","559062","555787","556849","3941","215947","556853","521455","3958","186797","561066","561624","557857","112720","561066","NA","Sternberg Task","54","44429","71","yes","1024"
"75","75","624.6666666666666","624.6666666666666","black","experiment","legacy","legacy","legacy","0","uniform","0","undefined","0","left","71","71","71","0","0","71","71","0","0","71","71","71","0","71","0","Sun Oct 16 20:54:20 2022","The main experiment item","yes","SternbergTask.osexp","/Users/alexisparrish/Documents/Advanced Quant. Methods/Lab 3/Lab 3.1","no","mono","no","18","no","white","no","yes","768","legacy","59","11","/Users/alexisparrish/Documents/Advanced Quant. Methods/Lab 3/Lab 3.2/AP-subject-2.csv","legacy","3 5 7 1","Lentiform Loewenfeld","3.3.12","3","y","0","right","caps lock","left","right","NA","547","108760","29149","547","NA","2","legacy","4","1024","2","48000","-16","experiment","2","even","7","564910","561635","562697","3941","215947","562701","521455","3958","186797","566914","567462","563705","112720","566914","NA","Sternberg Task","54","44976","72","yes","1024"
"73.97260273972603","73.97260273972603","623.8082191780821","623.8082191780821","black","experiment","legacy","legacy","legacy","0","uniform","0","undefined","0","left","72","72","72","0","0","72","72","0","0","72","72","72","0","72","0","Sun Oct 16 20:54:20 2022","The main experiment item","yes","SternbergTask.osexp","/Users/alexisparrish/Documents/Advanced Quant. Methods/Lab 3/Lab 3.1","no","mono","no","18","no","white","no","yes","768","legacy","60","11","/Users/alexisparrish/Documents/Advanced Quant. Methods/Lab 3/Lab 3.2/AP-subject-2.csv","legacy","6 9 3 1","Lentiform Loewenfeld","3.3.12","4","y","0","right","caps lock","left","right","NA","562","108760","29149","562","NA","2","legacy","4","1024","2","48000","-16","experiment","2","even","1","570753","561635","568540","3941","215947","568544","567474","3958","186797","572757","573320","569548","112720","572757","NA","Sternberg Task","54","45538","73","yes","1024"
"72.97297297297297","72.97297297297297","621.7162162162163","621.7162162162163","black","experiment","legacy","legacy","legacy","0","uniform","0","undefined","0","right","73","73","73","0","0","73","73","0","0","73","73","73","0","73","0","Sun Oct 16 20:54:20 2022","The main experiment item","yes","SternbergTask.osexp","/Users/alexisparrish/Documents/Advanced Quant. Methods/Lab 3/Lab 3.1","no","mono","no","18","no","white","no","yes","768","legacy","61","11","/Users/alexisparrish/Documents/Advanced Quant. Methods/Lab 3/Lab 3.2/AP-subject-2.csv","legacy","7 9 1 6","Lentiform Loewenfeld","3.3.12","0","n","0","left","caps lock","left","left","NA","469","108760","29149","469","NA","2","legacy","4","1024","2","48000","-16","experiment","2","even","4","576613","561635","574399","3941","215947","574403","573331","3958","186797","578617","579087","575408","112720","578617","NA","Sternberg Task","54","46007","74","yes","1024"
"72","72","617.7333333333333","617.7333333333333","black","experiment","legacy","legacy","legacy","0","uniform","0","undefined","0","right","74","74","74","0","0","74","74","0","0","74","74","74","0","74","0","Sun Oct 16 20:54:20 2022","The main experiment item","yes","SternbergTask.osexp","/Users/alexisparrish/Documents/Advanced Quant. Methods/Lab 3/Lab 3.1","no","mono","no","18","no","white","no","yes","768","legacy","62","11","/Users/alexisparrish/Documents/Advanced Quant. Methods/Lab 3/Lab 3.2/AP-subject-2.csv","legacy","8 5 7 3 6","Lentiform Loewenfeld","3.3.12","0","n","0","left","caps lock","left","left","NA","323","108760","29149","323","NA","2","legacy","5","1024","2","48000","-16","experiment","2","even","9","582377","561635","580164","3941","215947","580168","579099","3958","186797","584381","584706","581172","112720","584381","NA","Sternberg Task","54","46330","75","yes","1024"
"71.05263157894737","71.05263157894737","613.4078947368421","613.4078947368421","black","experiment","legacy","legacy","legacy","0","uniform","0","undefined","0","left","75","75","75","0","0","75","75","0","0","75","75","75","0","75","0","Sun Oct 16 20:54:20 2022","The main experiment item","yes","SternbergTask.osexp","/Users/alexisparrish/Documents/Advanced Quant. Methods/Lab 3/Lab 3.1","no","mono","no","18","no","white","no","yes","768","legacy","63","11","/Users/alexisparrish/Documents/Advanced Quant. Methods/Lab 3/Lab 3.2/AP-subject-2.csv","legacy","7 4 2 6 3 5","Lentiform Loewenfeld","3.3.12","6","y","0","right","caps lock","left","right","NA","289","108760","29149","289","NA","2","legacy","6","1024","2","48000","-16","experiment","2","even","5","587994","561635","585780","3941","215947","585785","584717","3958","186797","589999","590289","586789","112720","589999","NA","Sternberg Task","54","46619","76","yes","1024"
"70.12987012987013","70.12987012987013","611.9480519480519","611.9480519480519","black","experiment","legacy","legacy","legacy","0","uniform","0","undefined","0","right","76","76","76","0","0","76","76","0","0","76","76","76","0","76","0","Sun Oct 16 20:54:20 2022","The main experiment item","yes","SternbergTask.osexp","/Users/alexisparrish/Documents/Advanced Quant. Methods/Lab 3/Lab 3.1","no","mono","no","18","no","white","no","yes","768","legacy","64","11","/Users/alexisparrish/Documents/Advanced Quant. Methods/Lab 3/Lab 3.2/AP-subject-2.csv","legacy","5","Lentiform Loewenfeld","3.3.12","0","n","0","left","caps lock","left","left","NA","501","108760","29149","501","NA","2","legacy","1","1024","2","48000","-16","experiment","2","even","8","593575","561635","591362","3941","215947","591366","590301","3958","186797","595579","596081","592370","112720","595579","NA","Sternberg Task","54","47120","77","yes","1024"
"70.51282051282051","70.51282051282051","610.7179487179487","610.7179487179487","black","experiment","legacy","legacy","legacy","0","uniform","1","undefined","1","right","77","77","77","0","0","77","77","0","0","77","77","77","0","77","0","Sun Oct 16 20:54:20 2022","The main experiment item","yes","SternbergTask.osexp","/Users/alexisparrish/Documents/Advanced Quant. Methods/Lab 3/Lab 3.1","no","mono","no","18","no","white","no","yes","768","legacy","65","11","/Users/alexisparrish/Documents/Advanced Quant. Methods/Lab 3/Lab 3.2/AP-subject-2.csv","legacy","3 9 1","Lentiform Loewenfeld","3.3.12","0","n","0","right","caps lock","left","right","NA","516","108760","29149","516","NA","2","legacy","3","1024","2","48000","-16","experiment","2","even","7","599368","561635","597154","3941","215947","597159","596093","3958","186797","601372","601889","598163","112720","601372","NA","Sternberg Task","55","47636","78","yes","1024"
"70.88607594936708","70.88607594936708","610.8607594936709","610.8607594936709","black","experiment","legacy","legacy","legacy","0","uniform","1","undefined","1","left","78","78","78","0","0","78","78","0","0","78","78","78","0","78","0","Sun Oct 16 20:54:20 2022","The main experiment item","yes","SternbergTask.osexp","/Users/alexisparrish/Documents/Advanced Quant. Methods/Lab 3/Lab 3.1","no","mono","no","18","no","white","no","yes","768","legacy","66","11","/Users/alexisparrish/Documents/Advanced Quant. Methods/Lab 3/Lab 3.2/AP-subject-2.csv","legacy","7 1 3","Lentiform Loewenfeld","3.3.12","2","y","0","left","caps lock","left","left","NA","622","108760","29149","622","NA","2","legacy","3","1024","2","48000","-16","experiment","2","even","1","605174","601901","602961","3941","215947","602966","596093","3958","186797","607179","607802","603970","112720","607179","NA","Sternberg Task","56","48258","79","yes","1024"
"71.25","71.25","609.5125","609.5125","black","experiment","legacy","legacy","legacy","0","uniform","1","undefined","1","left","79","79","79","0","0","79","79","0","0","79","79","79","0","79","0","Sun Oct 16 20:54:20 2022","The main experiment item","yes","SternbergTask.osexp","/Users/alexisparrish/Documents/Advanced Quant. Methods/Lab 3/Lab 3.1","no","mono","no","18","no","white","no","yes","768","legacy","67","11","/Users/alexisparrish/Documents/Advanced Quant. Methods/Lab 3/Lab 3.2/AP-subject-2.csv","legacy","3 2 1 4 7","Lentiform Loewenfeld","3.3.12","2","y","0","left","caps lock","left","left","NA","503","108760","29149","503","NA","2","legacy","5","1024","2","48000","-16","experiment","2","even","2","611093","607812","608880","3941","215947","608884","596093","3958","186797","613097","613601","609888","112720","613097","NA","Sternberg Task","57","48761","80","yes","1024"
"71.60493827160494","71.60493827160494","605.8148148148148","605.8148148148148","black","experiment","legacy","legacy","legacy","0","uniform","1","undefined","1","left","80","80","80","0","0","80","80","0","0","80","80","80","0","80","0","Sun Oct 16 20:54:20 2022","The main experiment item","yes","SternbergTask.osexp","/Users/alexisparrish/Documents/Advanced Quant. Methods/Lab 3/Lab 3.1","no","mono","no","18","no","white","no","yes","768","legacy","68","11","/Users/alexisparrish/Documents/Advanced Quant. Methods/Lab 3/Lab 3.2/AP-subject-2.csv","legacy","6 7 8 5","Lentiform Loewenfeld","3.3.12","3","y","0","left","caps lock","left","left","NA","310","108760","29149","310","NA","2","legacy","4","1024","2","48000","-16","experiment","2","even","8","616894","613613","614680","3941","215947","614684","596093","3958","186797","618898","619209","615689","112720","618898","NA","Sternberg Task","58","49071","81","yes","1024"
"71.95121951219512","71.95121951219512","602.0853658536586","602.0853658536586","black","experiment","legacy","legacy","legacy","0","uniform","1","undefined","1","left","81","81","81","0","0","81","81","0","0","81","81","81","0","81","0","Sun Oct 16 20:54:20 2022","The main experiment item","yes","SternbergTask.osexp","/Users/alexisparrish/Documents/Advanced Quant. Methods/Lab 3/Lab 3.1","no","mono","no","18","no","white","no","yes","768","legacy","69","11","/Users/alexisparrish/Documents/Advanced Quant. Methods/Lab 3/Lab 3.2/AP-subject-2.csv","legacy","9 5 3 8 4","Lentiform Loewenfeld","3.3.12","1","y","0","left","caps lock","left","left","NA","300","108760","29149","300","NA","2","legacy","5","1024","2","48000","-16","experiment","2","even","9","622503","619219","620290","3941","215947","620294","596093","3958","186797","624507","624808","621298","112720","624507","NA","Sternberg Task","59","49371","82","yes","1024"
"72.28915662650603","72.28915662650603","597.9277108433735","597.9277108433735","black","experiment","legacy","legacy","legacy","0","uniform","1","undefined","1","left","82","82","82","0","0","82","82","0","0","82","82","82","0","82","0","Sun Oct 16 20:54:20 2022","The main experiment item","yes","SternbergTask.osexp","/Users/alexisparrish/Documents/Advanced Quant. Methods/Lab 3/Lab 3.1","no","mono","no","18","no","white","no","yes","768","legacy","70","11","/Users/alexisparrish/Documents/Advanced Quant. Methods/Lab 3/Lab 3.2/AP-subject-2.csv","legacy","9 1 6 7 8","Lentiform Loewenfeld","3.3.12","1","y","0","left","caps lock","left","left","NA","257","108760","29149","257","NA","2","legacy","5","1024","2","48000","-16","experiment","2","even","9","628102","624820","625889","3941","215947","625893","596093","3958","186797","630106","630364","626897","112720","630106","NA","Sternberg Task","60","49628","83","yes","1024"
"72.61904761904762","72.61904761904762","592.1190476190476","592.1190476190476","black","experiment","legacy","legacy","legacy","0","uniform","1","undefined","1","left","83","83","83","0","0","83","83","0","0","83","83","83","0","83","0","Sun Oct 16 20:54:20 2022","The main experiment item","yes","SternbergTask.osexp","/Users/alexisparrish/Documents/Advanced Quant. Methods/Lab 3/Lab 3.1","no","mono","no","18","no","white","no","yes","768","legacy","71","11","/Users/alexisparrish/Documents/Advanced Quant. Methods/Lab 3/Lab 3.2/AP-subject-2.csv","legacy","8 5 3 7 4 6","Lentiform Loewenfeld","3.3.12","6","y","0","left","caps lock","left","left","NA","110","108760","29149","110","NA","2","legacy","6","1024","2","48000","-16","experiment","2","even","6","633657","630375","631444","3941","215947","631448","596093","3958","186797","635661","635772","632452","112720","635661","NA","Sternberg Task","61","49738","84","yes","1024"
"72.94117647058823","72.94117647058823","590.0941176470589","590.0941176470589","black","experiment","legacy","legacy","legacy","0","uniform","1","undefined","1","right","84","84","84","0","0","84","84","0","0","84","84","84","0","84","0","Sun Oct 16 20:54:20 2022","The main experiment item","yes","SternbergTask.osexp","/Users/alexisparrish/Documents/Advanced Quant. Methods/Lab 3/Lab 3.1","no","mono","no","18","no","white","no","yes","768","legacy","72","11","/Users/alexisparrish/Documents/Advanced Quant. Methods/Lab 3/Lab 3.2/AP-subject-2.csv","legacy","9","Lentiform Loewenfeld","3.3.12","0","n","0","right","caps lock","left","right","NA","420","108760","29149","420","NA","2","legacy","1","1024","2","48000","-16","experiment","2","even","6","639063","635784","636850","3941","215947","636854","596093","3958","186797","641067","641489","637858","112720","641067","NA","Sternberg Task","62","50158","85","yes","1024"
"73.25581395348837","73.25581395348837","588.8023255813954","588.8023255813954","black","experiment","legacy","legacy","legacy","0","uniform","1","undefined","1","left","85","85","85","0","0","85","85","0","0","85","85","85","0","85","0","Sun Oct 16 20:54:20 2022","The main experiment item","yes","SternbergTask.osexp","/Users/alexisparrish/Documents/Advanced Quant. Methods/Lab 3/Lab 3.1","no","mono","no","18","no","white","no","yes","768","legacy","73","11","/Users/alexisparrish/Documents/Advanced Quant. Methods/Lab 3/Lab 3.2/AP-subject-2.csv","legacy","9 8 4","Lentiform Loewenfeld","3.3.12","1","y","0","left","caps lock","left","left","NA","479","108760","29149","479","NA","2","legacy","3","1024","2","48000","-16","experiment","2","even","9","644774","641494","642561","3941","215947","642565","596093","3958","186797","646778","647259","643569","112720","646778","NA","Sternberg Task","63","50637","86","yes","1024"
"73.5632183908046","73.5632183908046","591.7241379310345","591.7241379310345","black","experiment","legacy","legacy","legacy","0","uniform","1","undefined","1","right","86","86","86","0","0","86","86","0","0","86","86","86","0","86","0","Sun Oct 16 20:54:20 2022","The main experiment item","yes","SternbergTask.osexp","/Users/alexisparrish/Documents/Advanced Quant. Methods/Lab 3/Lab 3.1","no","mono","no","18","no","white","no","yes","768","legacy","74","11","/Users/alexisparrish/Documents/Advanced Quant. Methods/Lab 3/Lab 3.2/AP-subject-2.csv","legacy","1 4 9 2 5","Lentiform Loewenfeld","3.3.12","0","n","0","right","caps lock","left","right","NA","843","108760","29149","843","NA","2","legacy","5","1024","2","48000","-16","experiment","2","even","7","650551","647269","648337","3941","215947","648342","596093","3958","186797","652555","653400","649346","112720","652555","NA","Sternberg Task","64","51480","87","yes","1024"
"72.72727272727273","72.72727272727273","593.8863636363636","593.8863636363636","black","experiment","legacy","legacy","legacy","0","uniform","0","undefined","0","right","87","87","87","0","0","87","87","0","0","87","87","87","0","87","0","Sun Oct 16 20:54:20 2022","The main experiment item","yes","SternbergTask.osexp","/Users/alexisparrish/Documents/Advanced Quant. Methods/Lab 3/Lab 3.1","no","mono","no","18","no","white","no","yes","768","legacy","75","11","/Users/alexisparrish/Documents/Advanced Quant. Methods/Lab 3/Lab 3.2/AP-subject-2.csv","legacy","1 7 5 2","Lentiform Loewenfeld","3.3.12","0","n","0","left","caps lock","left","left","NA","782","108760","29149","782","NA","2","legacy","4","1024","2","48000","-16","experiment","2","even","3","656692","653411","654478","3941","215947","654483","596093","3958","186797","658696","659479","655487","112720","658696","NA","Sternberg Task","64","52262","88","yes","1024"
"73.03370786516854","73.03370786516854","589.8426966292135","589.8426966292135","black","experiment","legacy","legacy","legacy","0","uniform","1","undefined","1","left","88","88","88","0","0","88","88","0","0","88","88","88","0","88","0","Sun Oct 16 20:54:20 2022","The main experiment item","yes","SternbergTask.osexp","/Users/alexisparrish/Documents/Advanced Quant. Methods/Lab 3/Lab 3.1","no","mono","no","18","no","white","no","yes","768","legacy","76","11","/Users/alexisparrish/Documents/Advanced Quant. Methods/Lab 3/Lab 3.2/AP-subject-2.csv","legacy","4 7 6 8 2 3","Lentiform Loewenfeld","3.3.12","6","y","0","left","caps lock","left","left","NA","234","108760","29149","234","NA","2","legacy","6","1024","2","48000","-16","experiment","2","even","3","662768","653411","660554","3941","215947","660559","659491","3958","186797","664772","665007","661563","112720","664772","NA","Sternberg Task","65","52496","89","yes","1024"
"73.33333333333333","73.33333333333333","587.1222222222223","587.1222222222223","black","experiment","legacy","legacy","legacy","0","uniform","1","undefined","1","right","89","89","89","0","0","89","89","0","0","89","89","89","0","89","0","Sun Oct 16 20:54:20 2022","The main experiment item","yes","SternbergTask.osexp","/Users/alexisparrish/Documents/Advanced Quant. Methods/Lab 3/Lab 3.1","no","mono","no","18","no","white","no","yes","768","legacy","77","11","/Users/alexisparrish/Documents/Advanced Quant. Methods/Lab 3/Lab 3.2/AP-subject-2.csv","legacy","7 1","Lentiform Loewenfeld","3.3.12","0","n","0","right","caps lock","left","right","NA","345","108760","29149","345","NA","2","legacy","2","1024","2","48000","-16","experiment","2","even","8","668293","665019","666080","3941","215947","666084","659491","3958","186797","670297","670643","667088","112720","670297","NA","Sternberg Task","66","52841","90","yes","1024"
"73.62637362637362","73.62637362637362","583.3736263736264","583.3736263736264","black","experiment","legacy","legacy","legacy","0","uniform","1","undefined","1","left","90","90","90","0","0","90","90","0","0","90","90","90","0","90","0","Sun Oct 16 20:54:20 2022","The main experiment item","yes","SternbergTask.osexp","/Users/alexisparrish/Documents/Advanced Quant. Methods/Lab 3/Lab 3.1","no","mono","no","18","no","white","no","yes","768","legacy","78","11","/Users/alexisparrish/Documents/Advanced Quant. Methods/Lab 3/Lab 3.2/AP-subject-2.csv","legacy","2 4 8 5 1 3","Lentiform Loewenfeld","3.3.12","1","y","0","left","caps lock","left","left","NA","246","108760","29149","246","NA","2","legacy","6","1024","2","48000","-16","experiment","2","even","2","673938","670654","671724","3941","215947","671729","659491","3958","186797","675942","676190","672733","112720","675942","NA","Sternberg Task","67","53087","91","yes","1024"
"72.82608695652173","72.82608695652173","581.195652173913","581.195652173913","black","experiment","legacy","legacy","legacy","0","uniform","0","undefined","0","right","91","91","91","0","0","91","91","0","0","91","91","91","0","91","0","Sun Oct 16 20:54:20 2022","The main experiment item","yes","SternbergTask.osexp","/Users/alexisparrish/Documents/Advanced Quant. Methods/Lab 3/Lab 3.1","no","mono","no","18","no","white","no","yes","768","legacy","79","11","/Users/alexisparrish/Documents/Advanced Quant. Methods/Lab 3/Lab 3.2/AP-subject-2.csv","legacy","5 3 2 6 9 8","Lentiform Loewenfeld","3.3.12","0","n","0","left","caps lock","left","left","NA","383","108760","29149","383","NA","2","legacy","6","1024","2","48000","-16","experiment","2","even","4","679481","676201","677267","3941","215947","677272","659491","3958","186797","681485","681870","678276","112720","681485","NA","Sternberg Task","67","53470","92","yes","1024"
"72.04301075268818","72.04301075268818","577.1935483870968","577.1935483870968","black","experiment","legacy","legacy","legacy","0","uniform","0","undefined","0","right","92","92","92","0","0","92","92","0","0","92","92","92","0","92","0","Sun Oct 16 20:54:20 2022","The main experiment item","yes","SternbergTask.osexp","/Users/alexisparrish/Documents/Advanced Quant. Methods/Lab 3/Lab 3.1","no","mono","no","18","no","white","no","yes","768","legacy","80","11","/Users/alexisparrish/Documents/Advanced Quant. Methods/Lab 3/Lab 3.2/AP-subject-2.csv","legacy","1 7 5 2 9","Lentiform Loewenfeld","3.3.12","0","n","0","left","caps lock","left","left","NA","209","108760","29149","209","NA","2","legacy","5","1024","2","48000","-16","experiment","2","even","3","685162","676201","682948","3941","215947","682953","681882","3958","186797","687166","687377","683957","112720","687166","NA","Sternberg Task","67","53679","93","yes","1024"
"71.27659574468085","71.27659574468085","575.2127659574468","575.2127659574468","black","experiment","legacy","legacy","legacy","0","uniform","0","undefined","0","left","93","93","93","0","0","93","93","0","0","93","93","93","0","93","0","Sun Oct 16 20:54:20 2022","The main experiment item","yes","SternbergTask.osexp","/Users/alexisparrish/Documents/Advanced Quant. Methods/Lab 3/Lab 3.1","no","mono","no","18","no","white","no","yes","768","legacy","81","11","/Users/alexisparrish/Documents/Advanced Quant. Methods/Lab 3/Lab 3.2/AP-subject-2.csv","legacy","8 3","Lentiform Loewenfeld","3.3.12","2","y","0","right","caps lock","left","right","NA","391","108760","29149","391","NA","2","legacy","2","1024","2","48000","-16","experiment","2","even","3","690666","676201","688453","3941","215947","688457","687387","3958","186797","692670","693062","689461","112720","692670","NA","Sternberg Task","67","54070","94","yes","1024"
"70.52631578947368","70.52631578947368","571.578947368421","571.578947368421","black","experiment","legacy","legacy","legacy","0","uniform","0","undefined","0","right","94","94","94","0","0","94","94","0","0","94","94","94","0","94","0","Sun Oct 16 20:54:20 2022","The main experiment item","yes","SternbergTask.osexp","/Users/alexisparrish/Documents/Advanced Quant. Methods/Lab 3/Lab 3.1","no","mono","no","18","no","white","no","yes","768","legacy","82","11","/Users/alexisparrish/Documents/Advanced Quant. Methods/Lab 3/Lab 3.2/AP-subject-2.csv","legacy","9 5 3 2 8 6","Lentiform Loewenfeld","3.3.12","0","n","0","left","caps lock","left","left","NA","230","108760","29149","230","NA","2","legacy","6","1024","2","48000","-16","experiment","2","even","7","696355","676201","694142","3941","215947","694146","693074","3958","186797","698359","698590","695150","112720","698359","NA","Sternberg Task","67","54300","95","yes","1024"
"70.83333333333333","70.83333333333333","567.9791666666666","567.9791666666666","black","experiment","legacy","legacy","legacy","0","uniform","1","undefined","1","left","95","95","95","0","0","95","95","0","0","95","95","95","0","95","0","Sun Oct 16 20:54:20 2022","The main experiment item","yes","SternbergTask.osexp","/Users/alexisparrish/Documents/Advanced Quant. Methods/Lab 3/Lab 3.1","no","mono","no","18","no","white","no","yes","768","legacy","83","11","/Users/alexisparrish/Documents/Advanced Quant. Methods/Lab 3/Lab 3.2/AP-subject-2.csv","legacy","2 6 1 7 4","Lentiform Loewenfeld","3.3.12","2","y","0","left","caps lock","left","left","NA","226","108760","29149","226","NA","2","legacy","5","1024","2","48000","-16","experiment","2","even","6","701883","676201","699670","3941","215947","699675","698601","3958","186797","703888","704115","700679","112720","703888","NA","Sternberg Task","68","54526","96","yes","1024"
"70.10309278350516","70.10309278350516","565.1340206185567","565.1340206185567","black","experiment","legacy","legacy","legacy","0","uniform","0","undefined","0","right","96","96","96","0","0","96","96","0","0","96","96","96","0","96","0","Sun Oct 16 20:54:20 2022","The main experiment item","yes","SternbergTask.osexp","/Users/alexisparrish/Documents/Advanced Quant. Methods/Lab 3/Lab 3.1","no","mono","no","18","no","white","no","yes","768","legacy","84","11","/Users/alexisparrish/Documents/Advanced Quant. Methods/Lab 3/Lab 3.2/AP-subject-2.csv","legacy","5 9 2 3","Lentiform Loewenfeld","3.3.12","0","n","0","left","caps lock","left","left","NA","292","108760","29149","292","NA","2","legacy","4","1024","2","48000","-16","experiment","2","even","8","707400","704126","705187","3941","215947","705191","698601","3958","186797","709404","709697","706195","112720","709404","NA","Sternberg Task","68","54818","97","yes","1024"
"69.38775510204081","69.38775510204081","562.1428571428571","562.1428571428571","black","experiment","legacy","legacy","legacy","0","uniform","0","undefined","0","right","97","97","97","0","0","97","97","0","0","97","97","97","0","97","0","Sun Oct 16 20:54:20 2022","The main experiment item","yes","SternbergTask.osexp","/Users/alexisparrish/Documents/Advanced Quant. Methods/Lab 3/Lab 3.1","no","mono","no","18","no","white","no","yes","768","legacy","85","11","/Users/alexisparrish/Documents/Advanced Quant. Methods/Lab 3/Lab 3.2/AP-subject-2.csv","legacy","6 9 4 5 3 2","Lentiform Loewenfeld","3.3.12","0","n","0","left","caps lock","left","left","NA","272","108760","29149","272","NA","2","legacy","6","1024","2","48000","-16","experiment","2","even","8","712981","704126","710768","3941","215947","710772","709707","3958","186797","714985","715258","711776","112720","714985","NA","Sternberg Task","68","55090","98","yes","1024"
"68.68686868686869","68.68686868686869","558.8383838383838","558.8383838383838","black","experiment","legacy","legacy","legacy","0","uniform","0","undefined","0","right","98","98","98","0","0","98","98","0","0","98","98","98","0","98","0","Sun Oct 16 20:54:20 2022","The main experiment item","yes","SternbergTask.osexp","/Users/alexisparrish/Documents/Advanced Quant. Methods/Lab 3/Lab 3.1","no","mono","no","18","no","white","no","yes","768","legacy","86","11","/Users/alexisparrish/Documents/Advanced Quant. Methods/Lab 3/Lab 3.2/AP-subject-2.csv","legacy","1 6 4 3 9 7","Lentiform Loewenfeld","3.3.12","0","n","0","left","caps lock","left","left","NA","235","108760","29149","235","NA","2","legacy","6","1024","2","48000","-16","experiment","2","even","8","718544","704126","716331","3941","215947","716335","715269","3958","186797","720548","720784","717339","112720","720548","NA","Sternberg Task","68","55325","99","yes","1024"
"68","68","556.02","556.02","black","experiment","legacy","legacy","legacy","0","uniform","0","undefined","0","right","99","99","99","0","0","99","99","0","0","99","99","99","0","99","0","Sun Oct 16 20:54:20 2022","The main experiment item","yes","SternbergTask.osexp","/Users/alexisparrish/Documents/Advanced Quant. Methods/Lab 3/Lab 3.1","no","mono","no","18","no","white","no","yes","768","legacy","87","11","/Users/alexisparrish/Documents/Advanced Quant. Methods/Lab 3/Lab 3.2/AP-subject-2.csv","legacy","4 2 7 6 1 3","Lentiform Loewenfeld","3.3.12","0","n","0","left","caps lock","left","left","NA","277","108760","29149","277","NA","2","legacy","6","1024","2","48000","-16","experiment","2","even","8","724073","704126","721860","3941","215947","721864","720796","3958","186797","726077","726355","722868","112720","726077","NA","Sternberg Task","68","55602","100","yes","1024"
"67.32673267326733","67.32673267326733","561.6138613861386","561.6138613861386","black","experiment","legacy","legacy","legacy","0","uniform","0","undefined","0","left","100","100","100","0","0","100","100","0","0","100","100","100","0","100","0","Sun Oct 16 20:54:20 2022","The main experiment item","yes","SternbergTask.osexp","/Users/alexisparrish/Documents/Advanced Quant. Methods/Lab 3/Lab 3.1","no","mono","no","18","no","white","no","yes","768","legacy","88","11","/Users/alexisparrish/Documents/Advanced Quant. Methods/Lab 3/Lab 3.2/AP-subject-2.csv","legacy","8 1 6","Lentiform Loewenfeld","3.3.12","3","y","0","right","caps lock","left","right","NA","1121","108760","29149","1121","NA","2","legacy","3","1024","2","48000","-16","experiment","2","even","6","729645","704126","727432","3941","215947","727437","726366","3958","186797","731650","732773","728441","112720","731650","NA","Sternberg Task","68","56723","101","yes","1024"
"67.6470588235294","67.6470588235294","560.5294117647059","560.5294117647059","black","experiment","legacy","legacy","legacy","0","uniform","1","undefined","1","left","101","101","101","0","0","101","101","0","0","101","101","101","0","101","0","Sun Oct 16 20:54:20 2022","The main experiment item","yes","SternbergTask.osexp","/Users/alexisparrish/Documents/Advanced Quant. Methods/Lab 3/Lab 3.1","no","mono","no","18","no","white","no","yes","768","legacy","89","11","/Users/alexisparrish/Documents/Advanced Quant. Methods/Lab 3/Lab 3.2/AP-subject-2.csv","legacy","4 9 7 8 5 3","Lentiform Loewenfeld","3.3.12","4","y","0","left","caps lock","left","left","NA","451","108760","29149","451","NA","2","legacy","6","1024","2","48000","-16","experiment","2","even","8","736059","704126","733847","3941","215947","733851","732783","3958","186797","738063","738516","734855","112720","738063","NA","Sternberg Task","69","57174","102","yes","1024"
"67.96116504854369","67.96116504854369","558.2815533980582","558.2815533980582","black","experiment","legacy","legacy","legacy","0","uniform","1","undefined","1","left","102","102","102","0","0","102","102","0","0","102","102","102","0","102","0","Sun Oct 16 20:54:20 2022","The main experiment item","yes","SternbergTask.osexp","/Users/alexisparrish/Documents/Advanced Quant. Methods/Lab 3/Lab 3.1","no","mono","no","18","no","white","no","yes","768","legacy","90","11","/Users/alexisparrish/Documents/Advanced Quant. Methods/Lab 3/Lab 3.2/AP-subject-2.csv","legacy","7 1 8 5 6 2","Lentiform Loewenfeld","3.3.12","2","y","0","left","caps lock","left","left","NA","329","108760","29149","329","NA","2","legacy","6","1024","2","48000","-16","experiment","2","even","1","741806","738526","739592","3941","215947","739597","732783","3958","186797","743810","744140","740601","112720","743810","NA","Sternberg Task","70","57503","103","yes","1024"
"67.3076923076923","67.3076923076923","555","555","black","experiment","legacy","legacy","legacy","0","uniform","0","undefined","0","right","103","103","103","0","0","103","103","0","0","103","103","103","0","103","0","Sun Oct 16 20:54:20 2022","The main experiment item","yes","SternbergTask.osexp","/Users/alexisparrish/Documents/Advanced Quant. Methods/Lab 3/Lab 3.1","no","mono","no","18","no","white","no","yes","768","legacy","91","11","/Users/alexisparrish/Documents/Advanced Quant. Methods/Lab 3/Lab 3.2/AP-subject-2.csv","legacy","8 6 3 4 7","Lentiform Loewenfeld","3.3.12","0","n","0","left","caps lock","left","left","NA","217","108760","29149","217","NA","2","legacy","5","1024","2","48000","-16","experiment","2","even","1","747428","744150","745214","3941","215947","745219","732783","3958","186797","749432","749650","746223","112720","749432","NA","Sternberg Task","70","57720","104","yes","1024"
"67.61904761904762","67.61904761904762","551.9714285714285","551.9714285714285","black","experiment","legacy","legacy","legacy","0","uniform","1","undefined","1","right","104","104","104","0","0","104","104","0","0","104","104","104","0","104","0","Sun Oct 16 20:54:20 2022","The main experiment item","yes","SternbergTask.osexp","/Users/alexisparrish/Documents/Advanced Quant. Methods/Lab 3/Lab 3.1","no","mono","no","18","no","white","no","yes","768","legacy","92","11","/Users/alexisparrish/Documents/Advanced Quant. Methods/Lab 3/Lab 3.2/AP-subject-2.csv","legacy","3 4 9 6 7 8","Lentiform Loewenfeld","3.3.12","0","n","0","right","caps lock","left","right","NA","237","108760","29149","237","NA","2","legacy","6","1024","2","48000","-16","experiment","2","even","2","752944","744150","750730","3941","215947","750735","749662","3958","186797","754948","755186","751739","112720","754948","NA","Sternberg Task","71","57957","105","yes","1024"
"67.9245283018868","67.9245283018868","553.3490566037735","553.3490566037735","black","experiment","legacy","legacy","legacy","0","uniform","1","undefined","1","right","105","105","105","0","0","105","105","0","0","105","105","105","0","105","0","Sun Oct 16 20:54:20 2022","The main experiment item","yes","SternbergTask.osexp","/Users/alexisparrish/Documents/Advanced Quant. Methods/Lab 3/Lab 3.1","no","mono","no","18","no","white","no","yes","768","legacy","93","11","/Users/alexisparrish/Documents/Advanced Quant. Methods/Lab 3/Lab 3.2/AP-subject-2.csv","legacy","6 9 5","Lentiform Loewenfeld","3.3.12","0","n","0","right","caps lock","left","right","NA","698","108760","29149","698","NA","2","legacy","3","1024","2","48000","-16","experiment","2","even","8","758498","755196","756282","3941","215947","756289","749662","3958","186797","760502","761201","757293","112720","760502","NA","Sternberg Task","72","58655","106","yes","1024"
"68.22429906542057","68.22429906542057","555.4485981308411","555.4485981308411","black","experiment","legacy","legacy","legacy","0","uniform","1","undefined","1","right","106","106","106","0","0","106","106","0","0","106","106","106","0","106","0","Sun Oct 16 20:54:20 2022","The main experiment item","yes","SternbergTask.osexp","/Users/alexisparrish/Documents/Advanced Quant. Methods/Lab 3/Lab 3.1","no","mono","no","18","no","white","no","yes","768","legacy","94","11","/Users/alexisparrish/Documents/Advanced Quant. Methods/Lab 3/Lab 3.2/AP-subject-2.csv","legacy","7 3 2 8","Lentiform Loewenfeld","3.3.12","0","n","0","right","caps lock","left","right","NA","778","108760","29149","778","NA","2","legacy","4","1024","2","48000","-16","experiment","2","even","4","764493","761212","762279","3941","215947","762284","749662","3958","186797","766497","767276","763288","112720","766497","NA","Sternberg Task","73","59433","107","yes","1024"
