"acc","accuracy","average_response_time","avg_rt","background","block","canvas_backend","clock_backend","color_backend","compensation","coordinates","correct","correct_instruction1","correct_keyboard_response","correct_response","count_ISI","count_correctFeedback","count_expSequence","count_experiment","count_experimentLoop","count_fixation","count_incorrectFeedback","count_instruction1","count_instructions2","count_keyboard_response","count_memorySet","count_new_logger","count_practiceLoop","count_probe","count_thankYou","datetime","description","disable_garbage_collection","experiment_file","experiment_path","expyriment_opengl","font_bold","font_family","font_italic","font_size","font_underline","foreground","form_clicks","fullscreen","height","keyboard_backend","live_row","live_row_practiceLoop","logfile","mouse_backend","numberSet","opensesame_codename","opensesame_version","posInSet","present","repeat_cycle","response","response_instruction1","response_instructions2","response_keyboard_response","response_thankYou","response_time","response_time_instruction1","response_time_instructions2","response_time_keyboard_response","response_time_thankYou","round_decimals","sampler_backend","setSize","sound_buf_size","sound_channels","sound_freq","sound_sample_size","start","subject_nr","subject_parity","target","time_ISI","time_correctFeedback","time_expSequence","time_experiment","time_experimentLoop","time_fixation","time_incorrectFeedback","time_instruction1","time_instructions2","time_keyboard_response","time_memorySet","time_new_logger","time_practiceLoop","time_probe","time_thankYou","title","total_correct","total_response_time","total_responses","uniform_coordinates","width"
"100","100","621","621","black","practice","legacy","legacy","legacy","0","uniform","1","undefined","1","left","0","0","0","0","0","0","0","0","0","0","0","0","0","0","0","10/17/21 12:10:18","The main experiment item","yes","Sternbergtask.osexp","C:\Users\Brian\Desktop\College - Graduate\Graduate Work\Advanced Quant","yes","no","mono","no","18","no","white","no","yes","768","legacy","0","0","C:/Users/Brian/Desktop/College - Graduate/Graduate Work/Advanced Quant/Lab 3/subject-0.csv","legacy","6","Kafkaesque Koffka","3.2.8","1","y","0","left","right","NA","left","NA","621","65307","NA","621","NA","2","legacy","1","1024","2","48000","-16","experiment","0","even","6","69832","NA","67624","1784","NA","67626","NA","1794","NA","71833","68629","72455","67102","71833","NA","Sternberg task","1","621","1","yes","1024"
"100","100","663.5","663.5","black","practice","legacy","legacy","legacy","0","uniform","1","undefined","1","right","1","1","1","0","0","1","1","0","0","1","1","1","0","1","0","10/17/21 12:10:18","The main experiment item","yes","Sternbergtask.osexp","C:\Users\Brian\Desktop\College - Graduate\Graduate Work\Advanced Quant","yes","no","mono","no","18","no","white","no","yes","768","legacy","1","1","C:/Users/Brian/Desktop/College - Graduate/Graduate Work/Advanced Quant/Lab 3/subject-0.csv","legacy","9 6 7 4 5","Kafkaesque Koffka","3.2.8","0","n","0","right","right","NA","right","NA","706","65307","NA","706","NA","2","legacy","5","1024","2","48000","-16","experiment","0","even","3","75816","72518","73608","1784","NA","73610","NA","1794","NA","77818","74613","78524","67102","77818","NA","Sternberg task","2","1327","2","yes","1024"
"66.6666666667","66.6666666667","716.333333333","716.333333333","black","practice","legacy","legacy","legacy","0","uniform","0","undefined","0","right","2","2","2","0","0","2","2","0","0","2","2","2","0","2","0","10/17/21 12:10:18","The main experiment item","yes","Sternbergtask.osexp","C:\Users\Brian\Desktop\College - Graduate\Graduate Work\Advanced Quant","yes","no","mono","no","18","no","white","no","yes","768","legacy","2","2","C:/Users/Brian/Desktop/College - Graduate/Graduate Work/Advanced Quant/Lab 3/subject-0.csv","legacy","5","Kafkaesque Koffka","3.2.8","0","n","0","left","right","NA","left","NA","822","65307","NA","822","NA","2","legacy","1","1024","2","48000","-16","experiment","0","even","3","81829","78532","79622","1784","NA","79623","NA","1794","NA","83832","80626","84655","67102","83831","NA","Sternberg task","2","2149","3","yes","1024"
"50","50","746.5","746.5","black","practice","legacy","legacy","legacy","0","uniform","0","undefined","0","left","3","3","3","0","0","3","3","0","0","3","3","3","0","3","0","10/17/21 12:10:18","The main experiment item","yes","Sternbergtask.osexp","C:\Users\Brian\Desktop\College - Graduate\Graduate Work\Advanced Quant","yes","no","mono","no","18","no","white","no","yes","768","legacy","3","3","C:/Users/Brian/Desktop/College - Graduate/Graduate Work/Advanced Quant/Lab 3/subject-0.csv","legacy","1 7 9 8 5","Kafkaesque Koffka","3.2.8","4","y","0","right","right","NA","right","NA","837","65307","NA","837","NA","2","legacy","5","1024","2","48000","-16","experiment","0","even","8","87956","78532","85748","1784","NA","85750","84663","1794","NA","89957","86753","90794","67102","89957","NA","Sternberg task","2","2986","4","yes","1024"
"60","60","735.6","735.6","black","practice","legacy","legacy","legacy","0","uniform","1","undefined","1","left","4","4","4","0","0","4","4","0","0","4","4","4","0","4","0","10/17/21 12:10:18","The main experiment item","yes","Sternbergtask.osexp","C:\Users\Brian\Desktop\College - Graduate\Graduate Work\Advanced Quant","yes","no","mono","no","18","no","white","no","yes","768","legacy","4","4","C:/Users/Brian/Desktop/College - Graduate/Graduate Work/Advanced Quant/Lab 3/subject-0.csv","legacy","4 8","Kafkaesque Koffka","3.2.8","1","y","0","left","right","NA","left","NA","692","65307","NA","692","NA","2","legacy","2","1024","2","48000","-16","experiment","0","even","4","94101","78532","91893","1784","NA","91895","90803","1794","NA","96102","92898","96794","67102","96102","NA","Sternberg task","3","3678","5","yes","1024"
"66.6666666667","66.6666666667","737.333333333","737.333333333","black","practice","legacy","legacy","legacy","0","uniform","1","undefined","1","left","5","5","5","0","0","5","5","0","0","5","5","5","0","5","0","10/17/21 12:10:18","The main experiment item","yes","Sternbergtask.osexp","C:\Users\Brian\Desktop\College - Graduate\Graduate Work\Advanced Quant","yes","no","mono","no","18","no","white","no","yes","768","legacy","5","5","C:/Users/Brian/Desktop/College - Graduate/Graduate Work/Advanced Quant/Lab 3/subject-0.csv","legacy","2 9 4","Kafkaesque Koffka","3.2.8","3","y","0","left","right","NA","left","NA","746","65307","NA","746","NA","2","legacy","3","1024","2","48000","-16","experiment","0","even","4","100101","96803","97892","1784","NA","97894","90803","1794","NA","102103","98897","102850","67102","102103","NA","Sternberg task","4","4424","6","yes","1024"
"71.4285714286","71.4285714286","742.142857143","742.142857143","black","practice","legacy","legacy","legacy","0","uniform","1","undefined","1","right","6","6","6","0","0","6","6","0","0","6","6","6","0","6","0","10/17/21 12:10:18","The main experiment item","yes","Sternbergtask.osexp","C:\Users\Brian\Desktop\College - Graduate\Graduate Work\Advanced Quant","yes","no","mono","no","18","no","white","no","yes","768","legacy","6","6","C:/Users/Brian/Desktop/College - Graduate/Graduate Work/Advanced Quant/Lab 3/subject-0.csv","legacy","3 1 9 4","Kafkaesque Koffka","3.2.8","0","n","0","right","right","NA","right","NA","771","65307","NA","771","NA","2","legacy","4","1024","2","48000","-16","experiment","0","even","6","106155","102858","103947","1784","NA","103949","90803","1794","NA","108158","104952","108930","67102","108158","NA","Sternberg task","5","5195","7","yes","1024"
"75","75","749.625","749.625","black","practice","legacy","legacy","legacy","0","uniform","1","undefined","1","right","7","7","7","0","0","7","7","0","0","7","7","7","0","7","0","10/17/21 12:10:18","The main experiment item","yes","Sternbergtask.osexp","C:\Users\Brian\Desktop\College - Graduate\Graduate Work\Advanced Quant","yes","no","mono","no","18","no","white","no","yes","768","legacy","7","7","C:/Users/Brian/Desktop/College - Graduate/Graduate Work/Advanced Quant/Lab 3/subject-0.csv","legacy","5 7 8 4 1 2","Kafkaesque Koffka","3.2.8","0","n","0","right","right","NA","right","NA","802","65307","NA","802","NA","2","legacy","6","1024","2","48000","-16","experiment","0","even","6","112234","108938","110026","1784","NA","110028","90803","1794","NA","114237","111031","115040","67102","114237","NA","Sternberg task","6","5997","8","yes","1024"
"77.7777777778","77.7777777778","740.444444444","740.444444444","black","practice","legacy","legacy","legacy","0","uniform","1","undefined","1","right","8","8","8","0","0","8","8","0","0","8","8","8","0","8","0","10/17/21 12:10:18","The main experiment item","yes","Sternbergtask.osexp","C:\Users\Brian\Desktop\College - Graduate\Graduate Work\Advanced Quant","yes","no","mono","no","18","no","white","no","yes","768","legacy","8","8","C:/Users/Brian/Desktop/College - Graduate/Graduate Work/Advanced Quant/Lab 3/subject-0.csv","legacy","2 1","Kafkaesque Koffka","3.2.8","0","n","0","right","right","NA","right","NA","667","65307","NA","667","NA","2","legacy","2","1024","2","48000","-16","experiment","0","even","5","118341","115048","116134","1784","NA","116135","90803","1794","NA","120343","117138","121011","67102","120343","NA","Sternberg task","7","6664","9","yes","1024"
"80","80","764","764","black","practice","legacy","legacy","legacy","0","uniform","1","undefined","1","left","9","9","9","0","0","9","9","0","0","9","9","9","0","9","0","10/17/21 12:10:18","The main experiment item","yes","Sternbergtask.osexp","C:\Users\Brian\Desktop\College - Graduate\Graduate Work\Advanced Quant","yes","no","mono","no","18","no","white","no","yes","768","legacy","9","9","C:/Users/Brian/Desktop/College - Graduate/Graduate Work/Advanced Quant/Lab 3/subject-0.csv","legacy","1 5 2 9","Kafkaesque Koffka","3.2.8","2","y","0","left","right","NA","left","NA","976","65307","NA","976","NA","2","legacy","4","1024","2","48000","-16","experiment","0","even","5","124312","121019","122104","1784","NA","122106","90803","1794","NA","126313","123109","127289","67102","126313","NA","Sternberg task","8","7640","10","yes","1024"
"81.8181818182","81.8181818182","744.909090909","744.909090909","black","practice","legacy","legacy","legacy","0","uniform","1","undefined","1","right","10","10","10","0","0","10","10","0","0","10","10","10","0","10","0","10/17/21 12:10:18","The main experiment item","yes","Sternbergtask.osexp","C:\Users\Brian\Desktop\College - Graduate\Graduate Work\Advanced Quant","yes","no","mono","no","18","no","white","no","yes","768","legacy","10","10","C:/Users/Brian/Desktop/College - Graduate/Graduate Work/Advanced Quant/Lab 3/subject-0.csv","legacy","4 1 5","Kafkaesque Koffka","3.2.8","0","n","0","right","right","NA","right","NA","554","65307","NA","554","NA","2","legacy","3","1024","2","48000","-16","experiment","0","even","2","130594","127298","128386","1784","NA","128388","90803","1794","NA","132596","129391","133151","67102","132596","NA","Sternberg task","9","8194","11","yes","1024"
"83.3333333333","83.3333333333","761.416666667","761.416666667","black","practice","legacy","legacy","legacy","0","uniform","1","undefined","1","left","11","11","11","0","0","11","11","0","0","11","11","11","0","11","0","10/17/21 12:10:18","The main experiment item","yes","Sternbergtask.osexp","C:\Users\Brian\Desktop\College - Graduate\Graduate Work\Advanced Quant","yes","no","mono","no","18","no","white","no","yes","768","legacy","11","11","C:/Users/Brian/Desktop/College - Graduate/Graduate Work/Advanced Quant/Lab 3/subject-0.csv","legacy","4 3 1 7 9 8","Kafkaesque Koffka","3.2.8","1","y","0","left","right","NA","left","NA","943","65307","NA","943","NA","2","legacy","6","1024","2","48000","-16","experiment","0","even","4","136454","133159","134247","1784","NA","134248","90803","1794","NA","138457","135251","139401","67102","138457","NA","Sternberg task","10","9137","12","yes","1024"
"84.6153846154","84.6153846154","778.230769231","778.230769231","black","experiment","legacy","legacy","legacy","0","uniform","1","undefined","1","left","12","12","12","0","0","12","12","0","0","12","12","12","0","12","0","10/17/21 12:10:18","The main experiment item","yes","Sternbergtask.osexp","C:\Users\Brian\Desktop\College - Graduate\Graduate Work\Advanced Quant","yes","no","mono","no","18","no","white","no","yes","768","legacy","0","11","C:/Users/Brian/Desktop/College - Graduate/Graduate Work/Advanced Quant/Lab 3/subject-0.csv","legacy","4 6 5 8","Kafkaesque Koffka","3.2.8","1","y","0","left","right","right","left","NA","980","65307","73381","980","NA","2","legacy","4","1024","2","48000","-16","experiment","0","even","4","216126","139409","213918","1784","213809","213920","90803","1794","140428","218128","214923","219108","67102","218128","NA","Sternberg task","11","10117","13","yes","1024"
"85.7142857143","85.7142857143","771.642857143","771.642857143","black","experiment","legacy","legacy","legacy","0","uniform","1","undefined","1","right","13","13","13","0","0","13","13","0","0","13","13","13","0","13","0","10/17/21 12:10:18","The main experiment item","yes","Sternbergtask.osexp","C:\Users\Brian\Desktop\College - Graduate\Graduate Work\Advanced Quant","yes","no","mono","no","18","no","white","no","yes","768","legacy","1","11","C:/Users/Brian/Desktop/College - Graduate/Graduate Work/Advanced Quant/Lab 3/subject-0.csv","legacy","2 8 9","Kafkaesque Koffka","3.2.8","0","n","0","right","right","right","right","NA","686","65307","73381","686","NA","2","legacy","3","1024","2","48000","-16","experiment","0","even","6","222410","219117","220202","1784","213809","220203","90803","1794","140428","224412","221207","225099","67102","224412","NA","Sternberg task","12","10803","14","yes","1024"
"86.6666666667","86.6666666667","766.333333333","766.333333333","black","experiment","legacy","legacy","legacy","0","uniform","1","undefined","1","right","14","14","14","0","0","14","14","0","0","14","14","14","0","14","0","10/17/21 12:10:18","The main experiment item","yes","Sternbergtask.osexp","C:\Users\Brian\Desktop\College - Graduate\Graduate Work\Advanced Quant","yes","no","mono","no","18","no","white","no","yes","768","legacy","2","11","C:/Users/Brian/Desktop/College - Graduate/Graduate Work/Advanced Quant/Lab 3/subject-0.csv","legacy","7 6 4 8 1 2","Kafkaesque Koffka","3.2.8","0","n","0","right","right","right","right","NA","692","65307","73381","692","NA","2","legacy","6","1024","2","48000","-16","experiment","0","even","9","228397","225107","226191","1784","213809","226192","90803","1794","140428","230398","227195","231090","67102","230398","NA","Sternberg task","13","11495","15","yes","1024"
"87.5","87.5","759.6875","759.6875","black","experiment","legacy","legacy","legacy","0","uniform","1","undefined","1","right","15","15","15","0","0","15","15","0","0","15","15","15","0","15","0","10/17/21 12:10:18","The main experiment item","yes","Sternbergtask.osexp","C:\Users\Brian\Desktop\College - Graduate\Graduate Work\Advanced Quant","yes","no","mono","no","18","no","white","no","yes","768","legacy","3","11","C:/Users/Brian/Desktop/College - Graduate/Graduate Work/Advanced Quant/Lab 3/subject-0.csv","legacy","4 2 6 9","Kafkaesque Koffka","3.2.8","0","n","0","right","right","right","right","NA","660","65307","73381","660","NA","2","legacy","4","1024","2","48000","-16","experiment","0","even","7","234395","231098","232187","1784","213809","232188","90803","1794","140428","236397","233192","237057","67102","236397","NA","Sternberg task","14","12155","16","yes","1024"
"88.2352941176","88.2352941176","762.882352941","762.882352941","black","experiment","legacy","legacy","legacy","0","uniform","1","undefined","1","right","16","16","16","0","0","16","16","0","0","16","16","16","0","16","0","10/17/21 12:10:18","The main experiment item","yes","Sternbergtask.osexp","C:\Users\Brian\Desktop\College - Graduate\Graduate Work\Advanced Quant","yes","no","mono","no","18","no","white","no","yes","768","legacy","4","11","C:/Users/Brian/Desktop/College - Graduate/Graduate Work/Advanced Quant/Lab 3/subject-0.csv","legacy","2 8 7 9 5 3","Kafkaesque Koffka","3.2.8","0","n","0","right","right","right","right","NA","814","65307","73381","814","NA","2","legacy","6","1024","2","48000","-16","experiment","0","even","6","240357","237066","238149","1784","213809","238151","90803","1794","140428","242359","239154","243173","67102","242358","NA","Sternberg task","15","12969","17","yes","1024"
"88.8888888889","88.8888888889","754.555555556","754.555555556","black","experiment","legacy","legacy","legacy","0","uniform","1","undefined","1","left","17","17","17","0","0","17","17","0","0","17","17","17","0","17","0","10/17/21 12:10:18","The main experiment item","yes","Sternbergtask.osexp","C:\Users\Brian\Desktop\College - Graduate\Graduate Work\Advanced Quant","yes","no","mono","no","18","no","white","no","yes","768","legacy","5","11","C:/Users/Brian/Desktop/College - Graduate/Graduate Work/Advanced Quant/Lab 3/subject-0.csv","legacy","6 7 9 3 1 2","Kafkaesque Koffka","3.2.8","1","y","0","left","right","right","left","NA","613","65307","73381","613","NA","2","legacy","6","1024","2","48000","-16","experiment","0","even","6","246479","243182","244272","1784","213809","244274","90803","1794","140428","248482","245276","249095","67102","248482","NA","Sternberg task","16","13582","18","yes","1024"
"89.4736842105","89.4736842105","741.631578947","741.631578947","black","experiment","legacy","legacy","legacy","0","uniform","1","undefined","1","right","18","18","18","0","0","18","18","0","0","18","18","18","0","18","0","10/17/21 12:10:18","The main experiment item","yes","Sternbergtask.osexp","C:\Users\Brian\Desktop\College - Graduate\Graduate Work\Advanced Quant","yes","no","mono","no","18","no","white","no","yes","768","legacy","6","11","C:/Users/Brian/Desktop/College - Graduate/Graduate Work/Advanced Quant/Lab 3/subject-0.csv","legacy","8 9","Kafkaesque Koffka","3.2.8","0","n","0","right","right","right","right","NA","509","65307","73381","509","NA","2","legacy","2","1024","2","48000","-16","experiment","0","even","5","252397","249103","250189","1784","213809","250191","90803","1794","140428","254398","251194","254908","67102","254398","NA","Sternberg task","17","14091","19","yes","1024"
"85","85","739.9","739.9","black","experiment","legacy","legacy","legacy","0","uniform","0","undefined","0","left","19","19","19","0","0","19","19","0","0","19","19","19","0","19","0","10/17/21 12:10:18","The main experiment item","yes","Sternbergtask.osexp","C:\Users\Brian\Desktop\College - Graduate\Graduate Work\Advanced Quant","yes","no","mono","no","18","no","white","no","yes","768","legacy","7","11","C:/Users/Brian/Desktop/College - Graduate/Graduate Work/Advanced Quant/Lab 3/subject-0.csv","legacy","9 5 8 1","Kafkaesque Koffka","3.2.8","2","y","0","right","right","right","right","NA","707","65307","73381","707","NA","2","legacy","4","1024","2","48000","-16","experiment","0","even","5","258209","254916","256004","1784","213809","256005","90803","1794","140428","260212","257007","260919","67102","260212","NA","Sternberg task","17","14798","20","yes","1024"
"85.7142857143","85.7142857143","731.047619048","731.047619048","black","experiment","legacy","legacy","legacy","0","uniform","1","undefined","1","left","20","20","20","0","0","20","20","0","0","20","20","20","0","20","0","10/17/21 12:10:18","The main experiment item","yes","Sternbergtask.osexp","C:\Users\Brian\Desktop\College - Graduate\Graduate Work\Advanced Quant","yes","no","mono","no","18","no","white","no","yes","768","legacy","8","11","C:/Users/Brian/Desktop/College - Graduate/Graduate Work/Advanced Quant/Lab 3/subject-0.csv","legacy","8","Kafkaesque Koffka","3.2.8","1","y","0","left","right","right","left","NA","554","65307","73381","554","NA","2","legacy","1","1024","2","48000","-16","experiment","0","even","8","264225","254916","262017","1784","213809","262019","260927","1794","140428","266228","263021","266782","67102","266228","NA","Sternberg task","18","15352","21","yes","1024"
"86.3636363636","86.3636363636","723.5","723.5","black","experiment","legacy","legacy","legacy","0","uniform","1","undefined","1","left","21","21","21","0","0","21","21","0","0","21","21","21","0","21","0","10/17/21 12:10:18","The main experiment item","yes","Sternbergtask.osexp","C:\Users\Brian\Desktop\College - Graduate\Graduate Work\Advanced Quant","yes","no","mono","no","18","no","white","no","yes","768","legacy","9","11","C:/Users/Brian/Desktop/College - Graduate/Graduate Work/Advanced Quant/Lab 3/subject-0.csv","legacy","7","Kafkaesque Koffka","3.2.8","1","y","0","left","right","right","left","NA","565","65307","73381","565","NA","2","legacy","1","1024","2","48000","-16","experiment","0","even","7","270088","266791","267880","1784","213809","267882","260927","1794","140428","272089","268885","272655","67102","272089","NA","Sternberg task","19","15917","22","yes","1024"
"82.6086956522","82.6086956522","716","716","black","experiment","legacy","legacy","legacy","0","uniform","0","undefined","0","left","22","22","22","0","0","22","22","0","0","22","22","22","0","22","0","10/17/21 12:10:18","The main experiment item","yes","Sternbergtask.osexp","C:\Users\Brian\Desktop\College - Graduate\Graduate Work\Advanced Quant","yes","no","mono","no","18","no","white","no","yes","768","legacy","10","11","C:/Users/Brian/Desktop/College - Graduate/Graduate Work/Advanced Quant/Lab 3/subject-0.csv","legacy","7 6","Kafkaesque Koffka","3.2.8","2","y","0","right","right","right","right","NA","551","65307","73381","551","NA","2","legacy","2","1024","2","48000","-16","experiment","0","even","6","275960","272663","273752","1784","213809","273754","260927","1794","140428","277962","274757","278514","67102","277962","NA","Sternberg task","19","16468","23","yes","1024"
"83.3333333333","83.3333333333","724.75","724.75","black","experiment","legacy","legacy","legacy","0","uniform","1","undefined","1","left","23","23","23","0","0","23","23","0","0","23","23","23","0","23","0","10/17/21 12:10:18","The main experiment item","yes","Sternbergtask.osexp","C:\Users\Brian\Desktop\College - Graduate\Graduate Work\Advanced Quant","yes","no","mono","no","18","no","white","no","yes","768","legacy","11","11","C:/Users/Brian/Desktop/College - Graduate/Graduate Work/Advanced Quant/Lab 3/subject-0.csv","legacy","3 5 9 6 2 4","Kafkaesque Koffka","3.2.8","1","y","0","left","right","right","left","NA","926","65307","73381","926","NA","2","legacy","6","1024","2","48000","-16","experiment","0","even","3","281819","272663","279612","1784","213809","279613","278522","1794","140428","283822","280616","284749","67102","283822","NA","Sternberg task","20","17394","24","yes","1024"
"84","84","733.48","733.48","black","experiment","legacy","legacy","legacy","0","uniform","1","undefined","1","left","24","24","24","0","0","24","24","0","0","24","24","24","0","24","0","10/17/21 12:10:18","The main experiment item","yes","Sternbergtask.osexp","C:\Users\Brian\Desktop\College - Graduate\Graduate Work\Advanced Quant","yes","no","mono","no","18","no","white","no","yes","768","legacy","12","11","C:/Users/Brian/Desktop/College - Graduate/Graduate Work/Advanced Quant/Lab 3/subject-0.csv","legacy","4 6 2 5 1","Kafkaesque Koffka","3.2.8","5","y","0","left","right","right","left","NA","943","65307","73381","943","NA","2","legacy","5","1024","2","48000","-16","experiment","0","even","1","288050","284757","285842","1784","213809","285844","278522","1794","140428","290052","286847","290995","67102","290052","NA","Sternberg task","21","18337","25","yes","1024"
"84.6153846154","84.6153846154","739.846153846","739.846153846","black","experiment","legacy","legacy","legacy","0","uniform","1","undefined","1","right","25","25","25","0","0","25","25","0","0","25","25","25","0","25","0","10/17/21 12:10:18","The main experiment item","yes","Sternbergtask.osexp","C:\Users\Brian\Desktop\College - Graduate\Graduate Work\Advanced Quant","yes","no","mono","no","18","no","white","no","yes","768","legacy","13","11","C:/Users/Brian/Desktop/College - Graduate/Graduate Work/Advanced Quant/Lab 3/subject-0.csv","legacy","8 4 3 5","Kafkaesque Koffka","3.2.8","0","n","0","right","right","right","right","NA","899","65307","73381","899","NA","2","legacy","4","1024","2","48000","-16","experiment","0","even","6","294299","291003","292092","1784","213809","292093","278522","1794","140428","296302","293096","297201","67102","296302","NA","Sternberg task","22","19236","26","yes","1024"
"81.4814814815","81.4814814815","744.740740741","744.740740741","black","experiment","legacy","legacy","legacy","0","uniform","0","undefined","0","left","26","26","26","0","0","26","26","0","0","26","26","26","0","26","0","10/17/21 12:10:18","The main experiment item","yes","Sternbergtask.osexp","C:\Users\Brian\Desktop\College - Graduate\Graduate Work\Advanced Quant","yes","no","mono","no","18","no","white","no","yes","768","legacy","14","11","C:/Users/Brian/Desktop/College - Graduate/Graduate Work/Advanced Quant/Lab 3/subject-0.csv","legacy","5 7 3 6 2","Kafkaesque Koffka","3.2.8","5","y","0","right","right","right","right","NA","872","65307","73381","872","NA","2","legacy","5","1024","2","48000","-16","experiment","0","even","2","300506","297210","298298","1784","213809","298300","278522","1794","140428","302507","299303","303379","67102","302507","NA","Sternberg task","22","20108","27","yes","1024"
"82.1428571429","82.1428571429","748.428571429","748.428571429","black","experiment","legacy","legacy","legacy","0","uniform","1","undefined","1","right","27","27","27","0","0","27","27","0","0","27","27","27","0","27","0","10/17/21 12:10:18","The main experiment item","yes","Sternbergtask.osexp","C:\Users\Brian\Desktop\College - Graduate\Graduate Work\Advanced Quant","yes","no","mono","no","18","no","white","no","yes","768","legacy","15","11","C:/Users/Brian/Desktop/College - Graduate/Graduate Work/Advanced Quant/Lab 3/subject-0.csv","legacy","8 5 4 2 9 6","Kafkaesque Koffka","3.2.8","0","n","0","right","right","right","right","NA","848","65307","73381","848","NA","2","legacy","6","1024","2","48000","-16","experiment","0","even","3","306688","297210","304480","1784","213809","304482","303388","1794","140428","308691","305485","309539","67102","308691","NA","Sternberg task","23","20956","28","yes","1024"
"82.7586206897","82.7586206897","739.75862069","739.75862069","black","experiment","legacy","legacy","legacy","0","uniform","1","undefined","1","left","28","28","28","0","0","28","28","0","0","28","28","28","0","28","0","10/17/21 12:10:18","The main experiment item","yes","Sternbergtask.osexp","C:\Users\Brian\Desktop\College - Graduate\Graduate Work\Advanced Quant","yes","no","mono","no","18","no","white","no","yes","768","legacy","16","11","C:/Users/Brian/Desktop/College - Graduate/Graduate Work/Advanced Quant/Lab 3/subject-0.csv","legacy","3 5 4 7","Kafkaesque Koffka","3.2.8","1","y","0","left","right","right","left","NA","497","65307","73381","497","NA","2","legacy","4","1024","2","48000","-16","experiment","0","even","3","312842","309548","310634","1784","213809","310635","303388","1794","140428","314845","311639","315343","67102","314845","NA","Sternberg task","24","21453","29","yes","1024"
"80","80","741.833333333","741.833333333","black","experiment","legacy","legacy","legacy","0","uniform","0","undefined","0","left","29","29","29","0","0","29","29","0","0","29","29","29","0","29","0","10/17/21 12:10:18","The main experiment item","yes","Sternbergtask.osexp","C:\Users\Brian\Desktop\College - Graduate\Graduate Work\Advanced Quant","yes","no","mono","no","18","no","white","no","yes","768","legacy","17","11","C:/Users/Brian/Desktop/College - Graduate/Graduate Work/Advanced Quant/Lab 3/subject-0.csv","legacy","2 4 6 9","Kafkaesque Koffka","3.2.8","3","y","0","right","right","right","right","NA","802","65307","73381","802","NA","2","legacy","4","1024","2","48000","-16","experiment","0","even","6","318649","315352","316441","1784","213809","316443","303388","1794","140428","320651","317446","321454","67102","320651","NA","Sternberg task","24","22255","30","yes","1024"
"80.6451612903","80.6451612903","744.870967742","744.870967742","black","experiment","legacy","legacy","legacy","0","uniform","1","undefined","1","right","30","30","30","0","0","30","30","0","0","30","30","30","0","30","0","10/17/21 12:10:18","The main experiment item","yes","Sternbergtask.osexp","C:\Users\Brian\Desktop\College - Graduate\Graduate Work\Advanced Quant","yes","no","mono","no","18","no","white","no","yes","768","legacy","18","11","C:/Users/Brian/Desktop/College - Graduate/Graduate Work/Advanced Quant/Lab 3/subject-0.csv","legacy","8 2 1 4 5 9","Kafkaesque Koffka","3.2.8","0","n","0","right","right","right","right","NA","836","65307","73381","836","NA","2","legacy","6","1024","2","48000","-16","experiment","0","even","7","324757","315352","322549","1784","213809","322551","321462","1794","140428","326758","323554","327595","67102","326758","NA","Sternberg task","25","23091","31","yes","1024"
"81.25","81.25","745.90625","745.90625","black","experiment","legacy","legacy","legacy","0","uniform","1","undefined","1","right","31","31","31","0","0","31","31","0","0","31","31","31","0","31","0","10/17/21 12:10:18","The main experiment item","yes","Sternbergtask.osexp","C:\Users\Brian\Desktop\College - Graduate\Graduate Work\Advanced Quant","yes","no","mono","no","18","no","white","no","yes","768","legacy","19","11","C:/Users/Brian/Desktop/College - Graduate/Graduate Work/Advanced Quant/Lab 3/subject-0.csv","legacy","7 1 8 4 9 3","Kafkaesque Koffka","3.2.8","0","n","0","right","right","right","right","NA","778","65307","73381","778","NA","2","legacy","6","1024","2","48000","-16","experiment","0","even","6","330900","327603","328692","1784","213809","328694","321462","1794","140428","332903","329697","333682","67102","332903","NA","Sternberg task","26","23869","32","yes","1024"
"81.8181818182","81.8181818182","743.696969697","743.696969697","black","experiment","legacy","legacy","legacy","0","uniform","1","undefined","1","left","32","32","32","0","0","32","32","0","0","32","32","32","0","32","0","10/17/21 12:10:18","The main experiment item","yes","Sternbergtask.osexp","C:\Users\Brian\Desktop\College - Graduate\Graduate Work\Advanced Quant","yes","no","mono","no","18","no","white","no","yes","768","legacy","20","11","C:/Users/Brian/Desktop/College - Graduate/Graduate Work/Advanced Quant/Lab 3/subject-0.csv","legacy","8 7 3","Kafkaesque Koffka","3.2.8","1","y","0","left","right","right","left","NA","673","65307","73381","673","NA","2","legacy","3","1024","2","48000","-16","experiment","0","even","8","336984","333690","334777","1784","213809","334778","321462","1794","140428","338985","335781","339659","67102","338985","NA","Sternberg task","27","24542","33","yes","1024"
"82.3529411765","82.3529411765","742.235294118","742.235294118","black","experiment","legacy","legacy","legacy","0","uniform","1","undefined","1","right","33","33","33","0","0","33","33","0","0","33","33","33","0","33","0","10/17/21 12:10:18","The main experiment item","yes","Sternbergtask.osexp","C:\Users\Brian\Desktop\College - Graduate\Graduate Work\Advanced Quant","yes","no","mono","no","18","no","white","no","yes","768","legacy","21","11","C:/Users/Brian/Desktop/College - Graduate/Graduate Work/Advanced Quant/Lab 3/subject-0.csv","legacy","6 8","Kafkaesque Koffka","3.2.8","0","n","0","right","right","right","right","NA","694","65307","73381","694","NA","2","legacy","2","1024","2","48000","-16","experiment","0","even","9","342964","339667","340756","1784","213809","340758","321462","1794","140428","344966","341761","345661","67102","344966","NA","Sternberg task","28","25236","34","yes","1024"
"82.8571428571","82.8571428571","738.685714286","738.685714286","black","experiment","legacy","legacy","legacy","0","uniform","1","undefined","1","left","34","34","34","0","0","34","34","0","0","34","34","34","0","34","0","10/17/21 12:10:18","The main experiment item","yes","Sternbergtask.osexp","C:\Users\Brian\Desktop\College - Graduate\Graduate Work\Advanced Quant","yes","no","mono","no","18","no","white","no","yes","768","legacy","22","11","C:/Users/Brian/Desktop/College - Graduate/Graduate Work/Advanced Quant/Lab 3/subject-0.csv","legacy","3 4 9 6 2 9","Kafkaesque Koffka","3.2.8","5","y","0","left","right","right","left","NA","618","65307","73381","618","NA","2","legacy","6","1024","2","48000","-16","experiment","0","even","2","348960","345665","346754","1784","213809","346755","321462","1794","140428","350963","347757","351582","67102","350963","NA","Sternberg task","29","25854","35","yes","1024"
"83.3333333333","83.3333333333","742.388888889","742.388888889","black","experiment","legacy","legacy","legacy","0","uniform","1","undefined","1","right","35","35","35","0","0","35","35","0","0","35","35","35","0","35","0","10/17/21 12:10:18","The main experiment item","yes","Sternbergtask.osexp","C:\Users\Brian\Desktop\College - Graduate\Graduate Work\Advanced Quant","yes","no","mono","no","18","no","white","no","yes","768","legacy","23","11","C:/Users/Brian/Desktop/College - Graduate/Graduate Work/Advanced Quant/Lab 3/subject-0.csv","legacy","5 3 2 6 9 8","Kafkaesque Koffka","3.2.8","0","n","0","right","right","right","right","NA","872","65307","73381","872","NA","2","legacy","6","1024","2","48000","-16","experiment","0","even","4","354888","351591","352680","1784","213809","352682","321462","1794","140428","356891","353685","357764","67102","356891","NA","Sternberg task","30","26726","36","yes","1024"
"83.7837837838","83.7837837838","741.432432432","741.432432432","black","experiment","legacy","legacy","legacy","0","uniform","1","undefined","1","left","36","36","36","0","0","36","36","0","0","36","36","36","0","36","0","10/17/21 12:10:18","The main experiment item","yes","Sternbergtask.osexp","C:\Users\Brian\Desktop\College - Graduate\Graduate Work\Advanced Quant","yes","no","mono","no","18","no","white","no","yes","768","legacy","24","11","C:/Users/Brian/Desktop/College - Graduate/Graduate Work/Advanced Quant/Lab 3/subject-0.csv","legacy","6 5","Kafkaesque Koffka","3.2.8","2","y","0","left","right","right","left","NA","707","65307","73381","707","NA","2","legacy","2","1024","2","48000","-16","experiment","0","even","5","361069","357772","358861","1784","213809","358863","321462","1794","140428","363072","359866","363780","67102","363072","NA","Sternberg task","31","27433","37","yes","1024"
"84.2105263158","84.2105263158","745.605263158","745.605263158","black","experiment","legacy","legacy","legacy","0","uniform","1","undefined","1","right","37","37","37","0","0","37","37","0","0","37","37","37","0","37","0","10/17/21 12:10:18","The main experiment item","yes","Sternbergtask.osexp","C:\Users\Brian\Desktop\College - Graduate\Graduate Work\Advanced Quant","yes","no","mono","no","18","no","white","no","yes","768","legacy","25","11","C:/Users/Brian/Desktop/College - Graduate/Graduate Work/Advanced Quant/Lab 3/subject-0.csv","legacy","2 5 1 4","Kafkaesque Koffka","3.2.8","0","n","0","right","right","right","right","NA","900","65307","73381","900","NA","2","legacy","4","1024","2","48000","-16","experiment","0","even","6","367089","363788","364882","1784","213809","364883","321462","1794","140428","369090","365886","369990","67102","369090","NA","Sternberg task","32","28333","38","yes","1024"
"84.6153846154","84.6153846154","742.41025641","742.41025641","black","experiment","legacy","legacy","legacy","0","uniform","1","undefined","1","right","38","38","38","0","0","38","38","0","0","38","38","38","0","38","0","10/17/21 12:10:18","The main experiment item","yes","Sternbergtask.osexp","C:\Users\Brian\Desktop\College - Graduate\Graduate Work\Advanced Quant","yes","no","mono","no","18","no","white","no","yes","768","legacy","26","11","C:/Users/Brian/Desktop/College - Graduate/Graduate Work/Advanced Quant/Lab 3/subject-0.csv","legacy","2 8 6 3 1","Kafkaesque Koffka","3.2.8","0","n","0","right","right","right","right","NA","621","65307","73381","621","NA","2","legacy","5","1024","2","48000","-16","experiment","0","even","7","373293","369999","371087","1784","213809","371088","321462","1794","140428","375296","372091","375918","67102","375296","NA","Sternberg task","33","28954","39","yes","1024"
"85","85","744.35","744.35","black","experiment","legacy","legacy","legacy","0","uniform","1","undefined","1","right","39","39","39","0","0","39","39","0","0","39","39","39","0","39","0","10/17/21 12:10:18","The main experiment item","yes","Sternbergtask.osexp","C:\Users\Brian\Desktop\College - Graduate\Graduate Work\Advanced Quant","yes","no","mono","no","18","no","white","no","yes","768","legacy","27","11","C:/Users/Brian/Desktop/College - Graduate/Graduate Work/Advanced Quant/Lab 3/subject-0.csv","legacy","2 7 5","Kafkaesque Koffka","3.2.8","0","n","0","right","right","right","right","NA","820","65307","73381","820","NA","2","legacy","3","1024","2","48000","-16","experiment","0","even","8","379222","375927","377014","1784","213809","377016","321462","1794","140428","381223","378019","382044","67102","381223","NA","Sternberg task","34","29774","40","yes","1024"
"85.3658536585","85.3658536585","745.317073171","745.317073171","black","experiment","legacy","legacy","legacy","0","uniform","1","undefined","1","left","40","40","40","0","0","40","40","0","0","40","40","40","0","40","0","10/17/21 12:10:18","The main experiment item","yes","Sternbergtask.osexp","C:\Users\Brian\Desktop\College - Graduate\Graduate Work\Advanced Quant","yes","no","mono","no","18","no","white","no","yes","768","legacy","28","11","C:/Users/Brian/Desktop/College - Graduate/Graduate Work/Advanced Quant/Lab 3/subject-0.csv","legacy","2 4 8 5 1 3","Kafkaesque Koffka","3.2.8","1","y","0","left","right","right","left","NA","784","65307","73381","784","NA","2","legacy","6","1024","2","48000","-16","experiment","0","even","2","385349","382052","383142","1784","213809","383143","321462","1794","140428","387352","384146","388136","67102","387352","NA","Sternberg task","35","30558","41","yes","1024"
"85.7142857143","85.7142857143","740.761904762","740.761904762","black","experiment","legacy","legacy","legacy","0","uniform","1","undefined","1","right","41","41","41","0","0","41","41","0","0","41","41","41","0","41","0","10/17/21 12:10:18","The main experiment item","yes","Sternbergtask.osexp","C:\Users\Brian\Desktop\College - Graduate\Graduate Work\Advanced Quant","yes","no","mono","no","18","no","white","no","yes","768","legacy","29","11","C:/Users/Brian/Desktop/College - Graduate/Graduate Work/Advanced Quant/Lab 3/subject-0.csv","legacy","4 1","Kafkaesque Koffka","3.2.8","0","n","0","right","right","right","right","NA","554","65307","73381","554","NA","2","legacy","2","1024","2","48000","-16","experiment","0","even","6","391444","388144","389236","1784","213809","389238","321462","1794","140428","393447","390241","394002","67102","393447","NA","Sternberg task","36","31112","42","yes","1024"
"86.0465116279","86.0465116279","740.255813953","740.255813953","black","experiment","legacy","legacy","legacy","0","uniform","1","undefined","1","left","42","42","42","0","0","42","42","0","0","42","42","42","0","42","0","10/17/21 12:10:18","The main experiment item","yes","Sternbergtask.osexp","C:\Users\Brian\Desktop\College - Graduate\Graduate Work\Advanced Quant","yes","no","mono","no","18","no","white","no","yes","768","legacy","30","11","C:/Users/Brian/Desktop/College - Graduate/Graduate Work/Advanced Quant/Lab 3/subject-0.csv","legacy","8 3","Kafkaesque Koffka","3.2.8","2","y","0","left","right","right","left","NA","719","65307","73381","719","NA","2","legacy","2","1024","2","48000","-16","experiment","0","even","3","397311","394011","395103","1784","213809","395105","321462","1794","140428","399313","396108","400034","67102","399313","NA","Sternberg task","37","31831","43","yes","1024"
"86.3636363636","86.3636363636","739.727272727","739.727272727","black","experiment","legacy","legacy","legacy","0","uniform","1","undefined","1","right","43","43","43","0","0","43","43","0","0","43","43","43","0","43","0","10/17/21 12:10:18","The main experiment item","yes","Sternbergtask.osexp","C:\Users\Brian\Desktop\College - Graduate\Graduate Work\Advanced Quant","yes","no","mono","no","18","no","white","no","yes","768","legacy","31","11","C:/Users/Brian/Desktop/College - Graduate/Graduate Work/Advanced Quant/Lab 3/subject-0.csv","legacy","6 2 9 3 8 4","Kafkaesque Koffka","3.2.8","0","n","0","right","right","right","right","NA","717","65307","73381","717","NA","2","legacy","6","1024","2","48000","-16","experiment","0","even","1","403335","400042","401130","1784","213809","401131","321462","1794","140428","405338","402132","406055","67102","405338","NA","Sternberg task","38","32548","44","yes","1024"
"86.6666666667","86.6666666667","740.977777778","740.977777778","black","experiment","legacy","legacy","legacy","0","uniform","1","undefined","1","right","44","44","44","0","0","44","44","0","0","44","44","44","0","44","0","10/17/21 12:10:18","The main experiment item","yes","Sternbergtask.osexp","C:\Users\Brian\Desktop\College - Graduate\Graduate Work\Advanced Quant","yes","no","mono","no","18","no","white","no","yes","768","legacy","32","11","C:/Users/Brian/Desktop/College - Graduate/Graduate Work/Advanced Quant/Lab 3/subject-0.csv","legacy","7 1 5 6 3","Kafkaesque Koffka","3.2.8","0","n","0","right","right","right","right","NA","796","65307","73381","796","NA","2","legacy","5","1024","2","48000","-16","experiment","0","even","8","409356","406064","407150","1784","213809","407151","321462","1794","140428","411358","408154","412155","67102","411358","NA","Sternberg task","39","33344","45","yes","1024"
"86.9565217391","86.9565217391","739.934782609","739.934782609","black","experiment","legacy","legacy","legacy","0","uniform","1","undefined","1","left","45","45","45","0","0","45","45","0","0","45","45","45","0","45","0","10/17/21 12:10:18","The main experiment item","yes","Sternbergtask.osexp","C:\Users\Brian\Desktop\College - Graduate\Graduate Work\Advanced Quant","yes","no","mono","no","18","no","white","no","yes","768","legacy","33","11","C:/Users/Brian/Desktop/College - Graduate/Graduate Work/Advanced Quant/Lab 3/subject-0.csv","legacy","2 3 7 4","Kafkaesque Koffka","3.2.8","1","y","0","left","right","right","left","NA","693","65307","73381","693","NA","2","legacy","4","1024","2","48000","-16","experiment","0","even","2","415460","412163","413253","1784","213809","413254","321462","1794","140428","417462","414257","418156","67102","417462","NA","Sternberg task","40","34037","46","yes","1024"
"87.2340425532","87.2340425532","737.468085106","737.468085106","black","experiment","legacy","legacy","legacy","0","uniform","1","undefined","1","right","46","46","46","0","0","46","46","0","0","46","46","46","0","46","0","10/17/21 12:10:18","The main experiment item","yes","Sternbergtask.osexp","C:\Users\Brian\Desktop\College - Graduate\Graduate Work\Advanced Quant","yes","no","mono","no","18","no","white","no","yes","768","legacy","34","11","C:/Users/Brian/Desktop/College - Graduate/Graduate Work/Advanced Quant/Lab 3/subject-0.csv","legacy","1 6 4","Kafkaesque Koffka","3.2.8","0","n","0","right","right","right","right","NA","624","65307","73381","624","NA","2","legacy","3","1024","2","48000","-16","experiment","0","even","7","421455","418160","419249","1784","213809","419251","321462","1794","140428","423458","420252","424083","67102","423458","NA","Sternberg task","41","34661","47","yes","1024"
"87.5","87.5","740.5625","740.5625","black","experiment","legacy","legacy","legacy","0","uniform","1","undefined","1","left","47","47","47","0","0","47","47","0","0","47","47","47","0","47","0","10/17/21 12:10:18","The main experiment item","yes","Sternbergtask.osexp","C:\Users\Brian\Desktop\College - Graduate\Graduate Work\Advanced Quant","yes","no","mono","no","18","no","white","no","yes","768","legacy","35","11","C:/Users/Brian/Desktop/College - Graduate/Graduate Work/Advanced Quant/Lab 3/subject-0.csv","legacy","4 1 8 7 5","Kafkaesque Koffka","3.2.8","3","y","0","left","right","right","left","NA","886","65307","73381","886","NA","2","legacy","5","1024","2","48000","-16","experiment","0","even","8","427395","424092","425189","1784","213809","425190","321462","1794","140428","429396","426191","430284","67102","429396","NA","Sternberg task","42","35547","48","yes","1024"
"87.7551020408","87.7551020408","737.734693878","737.734693878","black","experiment","legacy","legacy","legacy","0","uniform","1","undefined","1","right","48","48","48","0","0","48","48","0","0","48","48","48","0","48","0","10/17/21 12:10:18","The main experiment item","yes","Sternbergtask.osexp","C:\Users\Brian\Desktop\College - Graduate\Graduate Work\Advanced Quant","yes","no","mono","no","18","no","white","no","yes","768","legacy","36","11","C:/Users/Brian/Desktop/College - Graduate/Graduate Work/Advanced Quant/Lab 3/subject-0.csv","legacy","5 2","Kafkaesque Koffka","3.2.8","0","n","0","right","right","right","right","NA","602","65307","73381","602","NA","2","legacy","2","1024","2","48000","-16","experiment","0","even","7","433595","430292","431387","1784","213809","431389","321462","1794","140428","435597","432392","436200","67102","435597","NA","Sternberg task","43","36149","49","yes","1024"
"88","88","739.84","739.84","black","experiment","legacy","legacy","legacy","0","uniform","1","undefined","1","right","49","49","49","0","0","49","49","0","0","49","49","49","0","49","0","10/17/21 12:10:18","The main experiment item","yes","Sternbergtask.osexp","C:\Users\Brian\Desktop\College - Graduate\Graduate Work\Advanced Quant","yes","no","mono","no","18","no","white","no","yes","768","legacy","37","11","C:/Users/Brian/Desktop/College - Graduate/Graduate Work/Advanced Quant/Lab 3/subject-0.csv","legacy","6 7 5 9","Kafkaesque Koffka","3.2.8","0","n","0","right","right","right","right","NA","843","65307","73381","843","NA","2","legacy","4","1024","2","48000","-16","experiment","0","even","2","439505","436209","437297","1784","213809","437299","321462","1794","140428","441507","438302","442352","67102","441507","NA","Sternberg task","44","36992","50","yes","1024"
"88.2352941176","88.2352941176","739.647058824","739.647058824","black","experiment","legacy","legacy","legacy","0","uniform","1","undefined","1","right","50","50","50","0","0","50","50","0","0","50","50","50","0","50","0","10/17/21 12:10:18","The main experiment item","yes","Sternbergtask.osexp","C:\Users\Brian\Desktop\College - Graduate\Graduate Work\Advanced Quant","yes","no","mono","no","18","no","white","no","yes","768","legacy","38","11","C:/Users/Brian/Desktop/College - Graduate/Graduate Work/Advanced Quant/Lab 3/subject-0.csv","legacy","5 9 2 3","Kafkaesque Koffka","3.2.8","0","n","0","right","right","right","right","NA","730","65307","73381","730","NA","2","legacy","4","1024","2","48000","-16","experiment","0","even","8","445653","442360","443446","1784","213809","443447","321462","1794","140428","447656","444450","448387","67102","447656","NA","Sternberg task","45","37722","51","yes","1024"
"86.5384615385","86.5384615385","738.346153846","738.346153846","black","experiment","legacy","legacy","legacy","0","uniform","0","undefined","0","right","51","51","51","0","0","51","51","0","0","51","51","51","0","51","0","10/17/21 12:10:18","The main experiment item","yes","Sternbergtask.osexp","C:\Users\Brian\Desktop\College - Graduate\Graduate Work\Advanced Quant","yes","no","mono","no","18","no","white","no","yes","768","legacy","39","11","C:/Users/Brian/Desktop/College - Graduate/Graduate Work/Advanced Quant/Lab 3/subject-0.csv","legacy","6 8 4","Kafkaesque Koffka","3.2.8","0","n","0","left","right","right","left","NA","672","65307","73381","672","NA","2","legacy","3","1024","2","48000","-16","experiment","0","even","1","451692","448396","449485","1784","213809","449486","321462","1794","140428","453695","450489","454368","67102","453695","NA","Sternberg task","45","38394","52","yes","1024"
"86.7924528302","86.7924528302","739.641509434","739.641509434","black","experiment","legacy","legacy","legacy","0","uniform","1","undefined","1","left","52","52","52","0","0","52","52","0","0","52","52","52","0","52","0","10/17/21 12:10:18","The main experiment item","yes","Sternbergtask.osexp","C:\Users\Brian\Desktop\College - Graduate\Graduate Work\Advanced Quant","yes","no","mono","no","18","no","white","no","yes","768","legacy","40","11","C:/Users/Brian/Desktop/College - Graduate/Graduate Work/Advanced Quant/Lab 3/subject-0.csv","legacy","3 9 7 6 4","Kafkaesque Koffka","3.2.8","3","y","0","left","right","right","left","NA","807","65307","73381","807","NA","2","legacy","5","1024","2","48000","-16","experiment","0","even","7","457669","448396","455462","1784","213809","455464","454376","1794","140428","459672","456467","460480","67102","459672","NA","Sternberg task","46","39201","53","yes","1024"
"87.037037037","87.037037037","742.018518519","742.018518519","black","experiment","legacy","legacy","legacy","0","uniform","1","undefined","1","left","53","53","53","0","0","53","53","0","0","53","53","53","0","53","0","10/17/21 12:10:18","The main experiment item","yes","Sternbergtask.osexp","C:\Users\Brian\Desktop\College - Graduate\Graduate Work\Advanced Quant","yes","no","mono","no","18","no","white","no","yes","768","legacy","41","11","C:/Users/Brian/Desktop/College - Graduate/Graduate Work/Advanced Quant/Lab 3/subject-0.csv","legacy","8 5 4 7 3 1","Kafkaesque Koffka","3.2.8","2","y","0","left","right","right","left","NA","868","65307","73381","868","NA","2","legacy","6","1024","2","48000","-16","experiment","0","even","5","463794","460488","461587","1784","213809","461589","454376","1794","140428","465795","462592","466665","67102","465795","NA","Sternberg task","47","40069","54","yes","1024"
"87.2727272727","87.2727272727","738.109090909","738.109090909","black","experiment","legacy","legacy","legacy","0","uniform","1","undefined","1","left","54","54","54","0","0","54","54","0","0","54","54","54","0","54","0","10/17/21 12:10:18","The main experiment item","yes","Sternbergtask.osexp","C:\Users\Brian\Desktop\College - Graduate\Graduate Work\Advanced Quant","yes","no","mono","no","18","no","white","no","yes","768","legacy","42","11","C:/Users/Brian/Desktop/College - Graduate/Graduate Work/Advanced Quant/Lab 3/subject-0.csv","legacy","3 5 7 1","Kafkaesque Koffka","3.2.8","3","y","0","left","right","right","left","NA","527","65307","73381","527","NA","2","legacy","4","1024","2","48000","-16","experiment","0","even","7","469965","466674","467757","1784","213809","467759","454376","1794","140428","471968","468762","472496","67102","471968","NA","Sternberg task","48","40596","55","yes","1024"
"85.7142857143","85.7142857143","743.732142857","743.732142857","black","experiment","legacy","legacy","legacy","0","uniform","0","undefined","0","left","55","55","55","0","0","55","55","0","0","55","55","55","0","55","0","10/17/21 12:10:18","The main experiment item","yes","Sternbergtask.osexp","C:\Users\Brian\Desktop\College - Graduate\Graduate Work\Advanced Quant","yes","no","mono","no","18","no","white","no","yes","768","legacy","43","11","C:/Users/Brian/Desktop/College - Graduate/Graduate Work/Advanced Quant/Lab 3/subject-0.csv","legacy","6 8 9 3 4 9","Kafkaesque Koffka","3.2.8","5","y","0","right","right","right","right","NA","1053","65307","73381","1053","NA","2","legacy","6","1024","2","48000","-16","experiment","0","even","4","475805","472504","473598","1784","213809","473599","454376","1794","140428","477807","474602","478861","67102","477807","NA","Sternberg task","48","41649","56","yes","1024"
"85.9649122807","85.9649122807","744.421052632","744.421052632","black","experiment","legacy","legacy","legacy","0","uniform","1","undefined","1","right","56","56","56","0","0","56","56","0","0","56","56","56","0","56","0","10/17/21 12:10:18","The main experiment item","yes","Sternbergtask.osexp","C:\Users\Brian\Desktop\College - Graduate\Graduate Work\Advanced Quant","yes","no","mono","no","18","no","white","no","yes","768","legacy","44","11","C:/Users/Brian/Desktop/College - Graduate/Graduate Work/Advanced Quant/Lab 3/subject-0.csv","legacy","1 3 2 6 9","Kafkaesque Koffka","3.2.8","0","n","0","right","right","right","right","NA","783","65307","73381","783","NA","2","legacy","5","1024","2","48000","-16","experiment","0","even","5","482160","472504","479953","1784","213809","479955","478865","1794","140428","484163","480957","484947","67102","484163","NA","Sternberg task","49","42432","57","yes","1024"
"86.2068965517","86.2068965517","744.517241379","744.517241379","black","experiment","legacy","legacy","legacy","0","uniform","1","undefined","1","right","57","57","57","0","0","57","57","0","0","57","57","57","0","57","0","10/17/21 12:10:18","The main experiment item","yes","Sternbergtask.osexp","C:\Users\Brian\Desktop\College - Graduate\Graduate Work\Advanced Quant","yes","no","mono","no","18","no","white","no","yes","768","legacy","45","11","C:/Users/Brian/Desktop/College - Graduate/Graduate Work/Advanced Quant/Lab 3/subject-0.csv","legacy","5 3 8 7 2 4","Kafkaesque Koffka","3.2.8","0","n","0","right","right","right","right","NA","750","65307","73381","750","NA","2","legacy","6","1024","2","48000","-16","experiment","0","even","9","488254","484955","486046","1784","213809","486048","478865","1794","140428","490256","487051","491007","67102","490256","NA","Sternberg task","50","43182","58","yes","1024"
"86.4406779661","86.4406779661","745.016949153","745.016949153","black","experiment","legacy","legacy","legacy","0","uniform","1","undefined","1","left","58","58","58","0","0","58","58","0","0","58","58","58","0","58","0","10/17/21 12:10:18","The main experiment item","yes","Sternbergtask.osexp","C:\Users\Brian\Desktop\College - Graduate\Graduate Work\Advanced Quant","yes","no","mono","no","18","no","white","no","yes","768","legacy","46","11","C:/Users/Brian/Desktop/College - Graduate/Graduate Work/Advanced Quant/Lab 3/subject-0.csv","legacy","9 1 6 7 8","Kafkaesque Koffka","3.2.8","1","y","0","left","right","right","left","NA","774","65307","73381","774","NA","2","legacy","5","1024","2","48000","-16","experiment","0","even","9","494316","491016","492108","1784","213809","492110","478865","1794","140428","496318","493113","497094","67102","496318","NA","Sternberg task","51","43956","59","yes","1024"
"86.6666666667","86.6666666667","751.716666667","751.716666667","black","experiment","legacy","legacy","legacy","0","uniform","1","undefined","1","right","59","59","59","0","0","59","59","0","0","59","59","59","0","59","0","10/17/21 12:10:18","The main experiment item","yes","Sternbergtask.osexp","C:\Users\Brian\Desktop\College - Graduate\Graduate Work\Advanced Quant","yes","no","mono","no","18","no","white","no","yes","768","legacy","47","11","C:/Users/Brian/Desktop/College - Graduate/Graduate Work/Advanced Quant/Lab 3/subject-0.csv","legacy","4 2 7 6 1 3","Kafkaesque Koffka","3.2.8","0","n","0","right","right","right","right","NA","1147","65307","73381","1147","NA","2","legacy","6","1024","2","48000","-16","experiment","0","even","8","500401","497102","498195","1784","213809","498197","478865","1794","140428","502404","499198","503553","67102","502404","NA","Sternberg task","52","45103","60","yes","1024"
"86.8852459016","86.8852459016","748.180327869","748.180327869","black","experiment","legacy","legacy","legacy","0","uniform","1","undefined","1","left","60","60","60","0","0","60","60","0","0","60","60","60","0","60","0","10/17/21 12:10:18","The main experiment item","yes","Sternbergtask.osexp","C:\Users\Brian\Desktop\College - Graduate\Graduate Work\Advanced Quant","yes","no","mono","no","18","no","white","no","yes","768","legacy","48","11","C:/Users/Brian/Desktop/College - Graduate/Graduate Work/Advanced Quant/Lab 3/subject-0.csv","legacy","9 6 2 4 1","Kafkaesque Koffka","3.2.8","4","y","0","left","right","right","left","NA","536","65307","73381","536","NA","2","legacy","5","1024","2","48000","-16","experiment","0","even","4","506854","503561","504646","1784","213809","504648","478865","1794","140428","508857","505651","509394","67102","508857","NA","Sternberg task","53","45639","61","yes","1024"
"87.0967741935","87.0967741935","746.612903226","746.612903226","black","experiment","legacy","legacy","legacy","0","uniform","1","undefined","1","right","61","61","61","0","0","61","61","0","0","61","61","61","0","61","0","10/17/21 12:10:18","The main experiment item","yes","Sternbergtask.osexp","C:\Users\Brian\Desktop\College - Graduate\Graduate Work\Advanced Quant","yes","no","mono","no","18","no","white","no","yes","768","legacy","49","11","C:/Users/Brian/Desktop/College - Graduate/Graduate Work/Advanced Quant/Lab 3/subject-0.csv","legacy","2 8 9 4 1","Kafkaesque Koffka","3.2.8","0","n","0","right","right","right","right","NA","651","65307","73381","651","NA","2","legacy","5","1024","2","48000","-16","experiment","0","even","5","512700","509402","510492","1784","213809","510494","478865","1794","140428","514703","511497","515355","67102","514703","NA","Sternberg task","54","46290","62","yes","1024"
"87.3015873016","87.3015873016","745.412698413","745.412698413","black","experiment","legacy","legacy","legacy","0","uniform","1","undefined","1","right","62","62","62","0","0","62","62","0","0","62","62","62","0","62","0","10/17/21 12:10:18","The main experiment item","yes","Sternbergtask.osexp","C:\Users\Brian\Desktop\College - Graduate\Graduate Work\Advanced Quant","yes","no","mono","no","18","no","white","no","yes","768","legacy","50","11","C:/Users/Brian/Desktop/College - Graduate/Graduate Work/Advanced Quant/Lab 3/subject-0.csv","legacy","3 4 9 6 7 8","Kafkaesque Koffka","3.2.8","0","n","0","right","right","right","right","NA","671","65307","73381","671","NA","2","legacy","6","1024","2","48000","-16","experiment","0","even","2","518655","515363","516449","1784","213809","516450","478865","1794","140428","520658","517452","521331","67102","520658","NA","Sternberg task","55","46961","63","yes","1024"
"87.5","87.5","747.515625","747.515625","black","experiment","legacy","legacy","legacy","0","uniform","1","undefined","1","left","63","63","63","0","0","63","63","0","0","63","63","63","0","63","0","10/17/21 12:10:18","The main experiment item","yes","Sternbergtask.osexp","C:\Users\Brian\Desktop\College - Graduate\Graduate Work\Advanced Quant","yes","no","mono","no","18","no","white","no","yes","768","legacy","51","11","C:/Users/Brian/Desktop/College - Graduate/Graduate Work/Advanced Quant/Lab 3/subject-0.csv","legacy","8 9 5 6 7","Kafkaesque Koffka","3.2.8","1","y","0","left","right","right","left","NA","880","65307","73381","880","NA","2","legacy","5","1024","2","48000","-16","experiment","0","even","8","524634","521339","522427","1784","213809","522428","478865","1794","140428","526635","523431","527516","67102","526635","NA","Sternberg task","56","47841","64","yes","1024"
"87.6923076923","87.6923076923","746.738461538","746.738461538","black","experiment","legacy","legacy","legacy","0","uniform","1","undefined","1","left","64","64","64","0","0","64","64","0","0","64","64","64","0","64","0","10/17/21 12:10:18","The main experiment item","yes","Sternbergtask.osexp","C:\Users\Brian\Desktop\College - Graduate\Graduate Work\Advanced Quant","yes","no","mono","no","18","no","white","no","yes","768","legacy","52","11","C:/Users/Brian/Desktop/College - Graduate/Graduate Work/Advanced Quant/Lab 3/subject-0.csv","legacy","8 9 5 7 1 6","Kafkaesque Koffka","3.2.8","4","y","0","left","right","right","left","NA","697","65307","73381","697","NA","2","legacy","6","1024","2","48000","-16","experiment","0","even","7","530821","527524","528614","1784","213809","528616","478865","1794","140428","532824","529618","533522","67102","532824","NA","Sternberg task","57","48538","65","yes","1024"
"87.8787878788","87.8787878788","748.636363636","748.636363636","black","experiment","legacy","legacy","legacy","0","uniform","1","undefined","1","left","65","65","65","0","0","65","65","0","0","65","65","65","0","65","0","10/17/21 12:10:18","The main experiment item","yes","Sternbergtask.osexp","C:\Users\Brian\Desktop\College - Graduate\Graduate Work\Advanced Quant","yes","no","mono","no","18","no","white","no","yes","768","legacy","53","11","C:/Users/Brian/Desktop/College - Graduate/Graduate Work/Advanced Quant/Lab 3/subject-0.csv","legacy","8 5 3 7 4 6","Kafkaesque Koffka","3.2.8","6","y","0","left","right","right","left","NA","872","65307","73381","872","NA","2","legacy","6","1024","2","48000","-16","experiment","0","even","6","536827","533531","534620","1784","213809","534621","478865","1794","140428","538828","535624","539701","67102","538828","NA","Sternberg task","58","49410","66","yes","1024"
"86.5671641791","86.5671641791","749.611940299","749.611940299","black","experiment","legacy","legacy","legacy","0","uniform","0","undefined","0","left","66","66","66","0","0","66","66","0","0","66","66","66","0","66","0","10/17/21 12:10:18","The main experiment item","yes","Sternbergtask.osexp","C:\Users\Brian\Desktop\College - Graduate\Graduate Work\Advanced Quant","yes","no","mono","no","18","no","white","no","yes","768","legacy","54","11","C:/Users/Brian/Desktop/College - Graduate/Graduate Work/Advanced Quant/Lab 3/subject-0.csv","legacy","4 9 7 8 5 3","Kafkaesque Koffka","3.2.8","4","y","0","right","right","right","right","NA","814","65307","73381","814","NA","2","legacy","6","1024","2","48000","-16","experiment","0","even","8","543003","539709","540795","1784","213809","540797","478865","1794","140428","545006","541800","545822","67102","545006","NA","Sternberg task","58","50224","67","yes","1024"
"85.2941176471","85.2941176471","749.632352941","749.632352941","black","experiment","legacy","legacy","legacy","0","uniform","0","undefined","0","right","67","67","67","0","0","67","67","0","0","67","67","67","0","67","0","10/17/21 12:10:18","The main experiment item","yes","Sternbergtask.osexp","C:\Users\Brian\Desktop\College - Graduate\Graduate Work\Advanced Quant","yes","no","mono","no","18","no","white","no","yes","768","legacy","55","11","C:/Users/Brian/Desktop/College - Graduate/Graduate Work/Advanced Quant/Lab 3/subject-0.csv","legacy","1 7 5 2","Kafkaesque Koffka","3.2.8","0","n","0","left","right","right","left","NA","751","65307","73381","751","NA","2","legacy","4","1024","2","48000","-16","experiment","0","even","3","549122","539709","546916","1784","213809","546918","545831","1794","140428","551125","547921","551878","67102","551125","NA","Sternberg task","58","50975","68","yes","1024"
"85.5072463768","85.5072463768","751.84057971","751.84057971","black","experiment","legacy","legacy","legacy","0","uniform","1","undefined","1","left","68","68","68","0","0","68","68","0","0","68","68","68","0","68","0","10/17/21 12:10:18","The main experiment item","yes","Sternbergtask.osexp","C:\Users\Brian\Desktop\College - Graduate\Graduate Work\Advanced Quant","yes","no","mono","no","18","no","white","no","yes","768","legacy","56","11","C:/Users/Brian/Desktop/College - Graduate/Graduate Work/Advanced Quant/Lab 3/subject-0.csv","legacy","9 3 8 2 1 4","Kafkaesque Koffka","3.2.8","3","y","0","left","right","right","left","NA","902","65307","73381","902","NA","2","legacy","6","1024","2","48000","-16","experiment","0","even","8","555181","539709","552975","1784","213809","552976","551887","1794","140428","557184","553978","558087","67102","557184","NA","Sternberg task","59","51877","69","yes","1024"
"85.7142857143","85.7142857143","753.414285714","753.414285714","black","experiment","legacy","legacy","legacy","0","uniform","1","undefined","1","right","69","69","69","0","0","69","69","0","0","69","69","69","0","69","0","10/17/21 12:10:18","The main experiment item","yes","Sternbergtask.osexp","C:\Users\Brian\Desktop\College - Graduate\Graduate Work\Advanced Quant","yes","no","mono","no","18","no","white","no","yes","768","legacy","57","11","C:/Users/Brian/Desktop/College - Graduate/Graduate Work/Advanced Quant/Lab 3/subject-0.csv","legacy","7 3 2 8","Kafkaesque Koffka","3.2.8","0","n","0","right","right","right","right","NA","862","65307","73381","862","NA","2","legacy","4","1024","2","48000","-16","experiment","0","even","4","561392","558095","559186","1784","213809","559188","551887","1794","140428","563395","560189","564258","67102","563395","NA","Sternberg task","60","52739","70","yes","1024"
"84.5070422535","84.5070422535","754.661971831","754.661971831","black","experiment","legacy","legacy","legacy","0","uniform","0","undefined","0","left","70","70","70","0","0","70","70","0","0","70","70","70","0","70","0","10/17/21 12:10:18","The main experiment item","yes","Sternbergtask.osexp","C:\Users\Brian\Desktop\College - Graduate\Graduate Work\Advanced Quant","yes","no","mono","no","18","no","white","no","yes","768","legacy","58","11","C:/Users/Brian/Desktop/College - Graduate/Graduate Work/Advanced Quant/Lab 3/subject-0.csv","legacy","9 3 1 2 5","Kafkaesque Koffka","3.2.8","4","y","0","right","right","right","right","NA","842","65307","73381","842","NA","2","legacy","5","1024","2","48000","-16","experiment","0","even","2","567564","564267","565356","1784","213809","565358","551887","1794","140428","569565","566361","570409","67102","569565","NA","Sternberg task","60","53581","71","yes","1024"
"84.7222222222","84.7222222222","756.388888889","756.388888889","black","experiment","legacy","legacy","legacy","0","uniform","1","undefined","1","left","71","71","71","0","0","71","71","0","0","71","71","71","0","71","0","10/17/21 12:10:18","The main experiment item","yes","Sternbergtask.osexp","C:\Users\Brian\Desktop\College - Graduate\Graduate Work\Advanced Quant","yes","no","mono","no","18","no","white","no","yes","768","legacy","59","11","C:/Users/Brian/Desktop/College - Graduate/Graduate Work/Advanced Quant/Lab 3/subject-0.csv","legacy","5 2 9 6 1 7","Kafkaesque Koffka","3.2.8","3","y","0","left","right","right","left","NA","879","65307","73381","879","NA","2","legacy","6","1024","2","48000","-16","experiment","0","even","9","573711","564267","571503","1784","213809","571505","570417","1794","140428","575713","572508","576593","67102","575712","NA","Sternberg task","61","54460","72","yes","1024"
"84.9315068493","84.9315068493","756.931506849","756.931506849","black","experiment","legacy","legacy","legacy","0","uniform","1","undefined","1","right","72","72","72","0","0","72","72","0","0","72","72","72","0","72","0","10/17/21 12:10:18","The main experiment item","yes","Sternbergtask.osexp","C:\Users\Brian\Desktop\College - Graduate\Graduate Work\Advanced Quant","yes","no","mono","no","18","no","white","no","yes","768","legacy","60","11","C:/Users/Brian/Desktop/College - Graduate/Graduate Work/Advanced Quant/Lab 3/subject-0.csv","legacy","1 4 9 2 5","Kafkaesque Koffka","3.2.8","0","n","0","right","right","right","right","NA","796","65307","73381","796","NA","2","legacy","5","1024","2","48000","-16","experiment","0","even","7","579898","576601","577691","1784","213809","577692","570417","1794","140428","581901","578695","582698","67102","581901","NA","Sternberg task","62","55256","73","yes","1024"
"85.1351351351","85.1351351351","756.675675676","756.675675676","black","experiment","legacy","legacy","legacy","0","uniform","1","undefined","1","left","73","73","73","0","0","73","73","0","0","73","73","73","0","73","0","10/17/21 12:10:18","The main experiment item","yes","Sternbergtask.osexp","C:\Users\Brian\Desktop\College - Graduate\Graduate Work\Advanced Quant","yes","no","mono","no","18","no","white","no","yes","768","legacy","61","11","C:/Users/Brian/Desktop/College - Graduate/Graduate Work/Advanced Quant/Lab 3/subject-0.csv","legacy","8 1 6","Kafkaesque Koffka","3.2.8","3","y","0","left","right","right","left","NA","738","65307","73381","738","NA","2","legacy","3","1024","2","48000","-16","experiment","0","even","6","586006","582706","583799","1784","213809","583801","570417","1794","140428","588009","584803","588748","67102","588009","NA","Sternberg task","63","55994","74","yes","1024"
"85.3333333333","85.3333333333","755.986666667","755.986666667","black","experiment","legacy","legacy","legacy","0","uniform","1","undefined","1","right","74","74","74","0","0","74","74","0","0","74","74","74","0","74","0","10/17/21 12:10:18","The main experiment item","yes","Sternbergtask.osexp","C:\Users\Brian\Desktop\College - Graduate\Graduate Work\Advanced Quant","yes","no","mono","no","18","no","white","no","yes","768","legacy","62","11","C:/Users/Brian/Desktop/College - Graduate/Graduate Work/Advanced Quant/Lab 3/subject-0.csv","legacy","2 6 4 3 9","Kafkaesque Koffka","3.2.8","0","n","0","right","right","right","right","NA","705","65307","73381","705","NA","2","legacy","5","1024","2","48000","-16","experiment","0","even","1","592057","588756","589849","1784","213809","589851","570417","1794","140428","594058","590854","594764","67102","594058","NA","Sternberg task","64","56699","75","yes","1024"
"84.2105263158","84.2105263158","759.631578947","759.631578947","black","experiment","legacy","legacy","legacy","0","uniform","0","undefined","0","left","75","75","75","0","0","75","75","0","0","75","75","75","0","75","0","10/17/21 12:10:18","The main experiment item","yes","Sternbergtask.osexp","C:\Users\Brian\Desktop\College - Graduate\Graduate Work\Advanced Quant","yes","no","mono","no","18","no","white","no","yes","768","legacy","63","11","C:/Users/Brian/Desktop/College - Graduate/Graduate Work/Advanced Quant/Lab 3/subject-0.csv","legacy","4 7 6 8 2 3","Kafkaesque Koffka","3.2.8","6","y","0","right","right","right","right","NA","1033","65307","73381","1033","NA","2","legacy","6","1024","2","48000","-16","experiment","0","even","3","598066","594769","595858","1784","213809","595860","570417","1794","140428","600069","596863","601104","67102","600069","NA","Sternberg task","64","57732","76","yes","1024"
"84.4155844156","84.4155844156","761.896103896","761.896103896","black","experiment","legacy","legacy","legacy","0","uniform","1","undefined","1","right","76","76","76","0","0","76","76","0","0","76","76","76","0","76","0","10/17/21 12:10:18","The main experiment item","yes","Sternbergtask.osexp","C:\Users\Brian\Desktop\College - Graduate\Graduate Work\Advanced Quant","yes","no","mono","no","18","no","white","no","yes","768","legacy","64","11","C:/Users/Brian/Desktop/College - Graduate/Graduate Work/Advanced Quant/Lab 3/subject-0.csv","legacy","7 9 1 6","Kafkaesque Koffka","3.2.8","0","n","0","right","right","right","right","NA","934","65307","73381","934","NA","2","legacy","4","1024","2","48000","-16","experiment","0","even","4","604410","594769","602203","1784","213809","602205","601112","1794","140428","606413","603207","607348","67102","606413","NA","Sternberg task","65","58666","77","yes","1024"
"84.6153846154","84.6153846154","762.846153846","762.846153846","black","experiment","legacy","legacy","legacy","0","uniform","1","undefined","1","left","77","77","77","0","0","77","77","0","0","77","77","77","0","77","0","10/17/21 12:10:18","The main experiment item","yes","Sternbergtask.osexp","C:\Users\Brian\Desktop\College - Graduate\Graduate Work\Advanced Quant","yes","no","mono","no","18","no","white","no","yes","768","legacy","65","11","C:/Users/Brian/Desktop/College - Graduate/Graduate Work/Advanced Quant/Lab 3/subject-0.csv","legacy","7 2 3","Kafkaesque Koffka","3.2.8","3","y","0","left","right","right","left","NA","836","65307","73381","836","NA","2","legacy","3","1024","2","48000","-16","experiment","0","even","3","610654","607357","608446","1784","213809","608448","601112","1794","140428","612656","609451","613493","67102","612656","NA","Sternberg task","66","59502","78","yes","1024"
"84.8101265823","84.8101265823","763.063291139","763.063291139","black","experiment","legacy","legacy","legacy","0","uniform","1","undefined","1","right","78","78","78","0","0","78","78","0","0","78","78","78","0","78","0","10/17/21 12:10:18","The main experiment item","yes","Sternbergtask.osexp","C:\Users\Brian\Desktop\College - Graduate\Graduate Work\Advanced Quant","yes","no","mono","no","18","no","white","no","yes","768","legacy","66","11","C:/Users/Brian/Desktop/College - Graduate/Graduate Work/Advanced Quant/Lab 3/subject-0.csv","legacy","6 9 5","Kafkaesque Koffka","3.2.8","0","n","0","right","right","right","right","NA","780","65307","73381","780","NA","2","legacy","3","1024","2","48000","-16","experiment","0","even","8","616799","613501","614592","1784","213809","614593","601112","1794","140428","618802","615596","619583","67102","618802","NA","Sternberg task","67","60282","79","yes","1024"
"85","85","762.475","762.475","black","experiment","legacy","legacy","legacy","0","uniform","1","undefined","1","right","79","79","79","0","0","79","79","0","0","79","79","79","0","79","0","10/17/21 12:10:18","The main experiment item","yes","Sternbergtask.osexp","C:\Users\Brian\Desktop\College - Graduate\Graduate Work\Advanced Quant","yes","no","mono","no","18","no","white","no","yes","768","legacy","67","11","C:/Users/Brian/Desktop/College - Graduate/Graduate Work/Advanced Quant/Lab 3/subject-0.csv","legacy","3 9 1","Kafkaesque Koffka","3.2.8","0","n","0","right","right","right","right","NA","716","65307","73381","716","NA","2","legacy","3","1024","2","48000","-16","experiment","0","even","7","622886","619591","620678","1784","213809","620680","601112","1794","140428","624887","621683","625604","67102","624887","NA","Sternberg task","68","60998","80","yes","1024"
"85.1851851852","85.1851851852","762.728395062","762.728395062","black","experiment","legacy","legacy","legacy","0","uniform","1","undefined","1","right","80","80","80","0","0","80","80","0","0","80","80","80","0","80","0","10/17/21 12:10:18","The main experiment item","yes","Sternbergtask.osexp","C:\Users\Brian\Desktop\College - Graduate\Graduate Work\Advanced Quant","yes","no","mono","no","18","no","white","no","yes","768","legacy","68","11","C:/Users/Brian/Desktop/College - Graduate/Graduate Work/Advanced Quant/Lab 3/subject-0.csv","legacy","7 8 6 1","Kafkaesque Koffka","3.2.8","0","n","0","right","right","right","right","NA","783","65307","73381","783","NA","2","legacy","4","1024","2","48000","-16","experiment","0","even","3","628907","625610","626700","1784","213809","626701","601112","1794","140428","630910","627704","631694","67102","630910","NA","Sternberg task","69","61781","81","yes","1024"
"85.3658536585","85.3658536585","762.390243902","762.390243902","black","experiment","legacy","legacy","legacy","0","uniform","1","undefined","1","right","81","81","81","0","0","81","81","0","0","81","81","81","0","81","0","10/17/21 12:10:18","The main experiment item","yes","Sternbergtask.osexp","C:\Users\Brian\Desktop\College - Graduate\Graduate Work\Advanced Quant","yes","no","mono","no","18","no","white","no","yes","768","legacy","69","11","C:/Users/Brian/Desktop/College - Graduate/Graduate Work/Advanced Quant/Lab 3/subject-0.csv","legacy","8 5 7 3 6","Kafkaesque Koffka","3.2.8","0","n","0","right","right","right","right","NA","735","65307","73381","735","NA","2","legacy","5","1024","2","48000","-16","experiment","0","even","9","634995","631702","632789","1784","213809","632791","601112","1794","140428","636998","633792","637735","67102","636998","NA","Sternberg task","70","62516","82","yes","1024"
"85.5421686747","85.5421686747","761.759036145","761.759036145","black","experiment","legacy","legacy","legacy","0","uniform","1","undefined","1","left","82","82","82","0","0","82","82","0","0","82","82","82","0","82","0","10/17/21 12:10:18","The main experiment item","yes","Sternbergtask.osexp","C:\Users\Brian\Desktop\College - Graduate\Graduate Work\Advanced Quant","yes","no","mono","no","18","no","white","no","yes","768","legacy","70","11","C:/Users/Brian/Desktop/College - Graduate/Graduate Work/Advanced Quant/Lab 3/subject-0.csv","legacy","6 1 2","Kafkaesque Koffka","3.2.8","3","y","0","left","right","right","left","NA","710","65307","73381","710","NA","2","legacy","3","1024","2","48000","-16","experiment","0","even","2","641040","637743","638833","1784","213809","638834","601112","1794","140428","643043","639836","643755","67102","643043","NA","Sternberg task","71","63226","83","yes","1024"
"85.7142857143","85.7142857143","763.154761905","763.154761905","black","experiment","legacy","legacy","legacy","0","uniform","1","undefined","1","left","83","83","83","0","0","83","83","0","0","83","83","83","0","83","0","10/17/21 12:10:18","The main experiment item","yes","Sternbergtask.osexp","C:\Users\Brian\Desktop\College - Graduate\Graduate Work\Advanced Quant","yes","no","mono","no","18","no","white","no","yes","768","legacy","71","11","C:/Users/Brian/Desktop/College - Graduate/Graduate Work/Advanced Quant/Lab 3/subject-0.csv","legacy","7 4 2 6 3 5","Kafkaesque Koffka","3.2.8","6","y","0","left","right","right","left","NA","879","65307","73381","879","NA","2","legacy","6","1024","2","48000","-16","experiment","0","even","5","647056","643765","644851","1784","213809","644853","601112","1794","140428","649059","645854","649940","67102","649059","NA","Sternberg task","72","64105","84","yes","1024"
"85.8823529412","85.8823529412","763.235294118","763.235294118","black","experiment","legacy","legacy","legacy","0","uniform","1","undefined","1","left","84","84","84","0","0","84","84","0","0","84","84","84","0","84","0","10/17/21 12:10:18","The main experiment item","yes","Sternbergtask.osexp","C:\Users\Brian\Desktop\College - Graduate\Graduate Work\Advanced Quant","yes","no","mono","no","18","no","white","no","yes","768","legacy","72","11","C:/Users/Brian/Desktop/College - Graduate/Graduate Work/Advanced Quant/Lab 3/subject-0.csv","legacy","3 2 1 4 7","Kafkaesque Koffka","3.2.8","2","y","0","left","right","right","left","NA","770","65307","73381","770","NA","2","legacy","5","1024","2","48000","-16","experiment","0","even","2","653242","649949","651034","1784","213809","651036","601112","1794","140428","655244","652039","656015","67102","655244","NA","Sternberg task","73","64875","85","yes","1024"
"86.0465116279","86.0465116279","762.26744186","762.26744186","black","experiment","legacy","legacy","legacy","0","uniform","1","undefined","1","left","85","85","85","0","0","85","85","0","0","85","85","85","0","85","0","10/17/21 12:10:18","The main experiment item","yes","Sternbergtask.osexp","C:\Users\Brian\Desktop\College - Graduate\Graduate Work\Advanced Quant","yes","no","mono","no","18","no","white","no","yes","768","legacy","73","11","C:/Users/Brian/Desktop/College - Graduate/Graduate Work/Advanced Quant/Lab 3/subject-0.csv","legacy","5 7 8 2 3 8","Kafkaesque Koffka","3.2.8","5","y","0","left","right","right","left","NA","680","65307","73381","680","NA","2","legacy","6","1024","2","48000","-16","experiment","0","even","3","659311","656019","657105","1784","213809","657106","601112","1794","140428","661314","658108","661995","67102","661314","NA","Sternberg task","74","65555","86","yes","1024"
"86.2068965517","86.2068965517","763.482758621","763.482758621","black","experiment","legacy","legacy","legacy","0","uniform","1","undefined","1","left","86","86","86","0","0","86","86","0","0","86","86","86","0","86","0","10/17/21 12:10:18","The main experiment item","yes","Sternbergtask.osexp","C:\Users\Brian\Desktop\College - Graduate\Graduate Work\Advanced Quant","yes","no","mono","no","18","no","white","no","yes","768","legacy","74","11","C:/Users/Brian/Desktop/College - Graduate/Graduate Work/Advanced Quant/Lab 3/subject-0.csv","legacy","2 6 1 7 4","Kafkaesque Koffka","3.2.8","2","y","0","left","right","right","left","NA","868","65307","73381","868","NA","2","legacy","5","1024","2","48000","-16","experiment","0","even","6","665296","662003","663090","1784","213809","663092","601112","1794","140428","667299","664093","668168","67102","667299","NA","Sternberg task","75","66423","87","yes","1024"
"86.3636363636","86.3636363636","763.602272727","763.602272727","black","experiment","legacy","legacy","legacy","0","uniform","1","undefined","1","right","87","87","87","0","0","87","87","0","0","87","87","87","0","87","0","10/17/21 12:10:18","The main experiment item","yes","Sternbergtask.osexp","C:\Users\Brian\Desktop\College - Graduate\Graduate Work\Advanced Quant","yes","no","mono","no","18","no","white","no","yes","768","legacy","75","11","C:/Users/Brian/Desktop/College - Graduate/Graduate Work/Advanced Quant/Lab 3/subject-0.csv","legacy","3 9 8 1 6 4","Kafkaesque Koffka","3.2.8","0","n","0","right","right","right","right","NA","774","65307","73381","774","NA","2","legacy","6","1024","2","48000","-16","experiment","0","even","7","671471","668177","669263","1784","213809","669265","601112","1794","140428","673474","670268","674249","67102","673474","NA","Sternberg task","76","67197","88","yes","1024"
"86.5168539326","86.5168539326","760.91011236","760.91011236","black","experiment","legacy","legacy","legacy","0","uniform","1","undefined","1","left","88","88","88","0","0","88","88","0","0","88","88","88","0","88","0","10/17/21 12:10:18","The main experiment item","yes","Sternbergtask.osexp","C:\Users\Brian\Desktop\College - Graduate\Graduate Work\Advanced Quant","yes","no","mono","no","18","no","white","no","yes","768","legacy","76","11","C:/Users/Brian/Desktop/College - Graduate/Graduate Work/Advanced Quant/Lab 3/subject-0.csv","legacy","2 3","Kafkaesque Koffka","3.2.8","1","y","0","left","right","right","left","NA","524","65307","73381","524","NA","2","legacy","2","1024","2","48000","-16","experiment","0","even","2","677553","674257","675346","1784","213809","675347","601112","1794","140428","679555","676350","680080","67102","679555","NA","Sternberg task","77","67721","89","yes","1024"
"86.6666666667","86.6666666667","759.255555556","759.255555556","black","experiment","legacy","legacy","legacy","0","uniform","1","undefined","1","left","89","89","89","0","0","89","89","0","0","89","89","89","0","89","0","10/17/21 12:10:18","The main experiment item","yes","Sternbergtask.osexp","C:\Users\Brian\Desktop\College - Graduate\Graduate Work\Advanced Quant","yes","no","mono","no","18","no","white","no","yes","768","legacy","77","11","C:/Users/Brian/Desktop/College - Graduate/Graduate Work/Advanced Quant/Lab 3/subject-0.csv","legacy","4","Kafkaesque Koffka","3.2.8","1","y","0","left","right","right","left","NA","612","65307","73381","612","NA","2","legacy","1","1024","2","48000","-16","experiment","0","even","4","683385","680089","681178","1784","213809","681180","601112","1794","140428","685388","682182","686002","67102","685388","NA","Sternberg task","78","68333","90","yes","1024"
"86.8131868132","86.8131868132","759.153846154","759.153846154","black","experiment","legacy","legacy","legacy","0","uniform","1","undefined","1","left","90","90","90","0","0","90","90","0","0","90","90","90","0","90","0","10/17/21 12:10:18","The main experiment item","yes","Sternbergtask.osexp","C:\Users\Brian\Desktop\College - Graduate\Graduate Work\Advanced Quant","yes","no","mono","no","18","no","white","no","yes","768","legacy","78","11","C:/Users/Brian/Desktop/College - Graduate/Graduate Work/Advanced Quant/Lab 3/subject-0.csv","legacy","6 7 8 5","Kafkaesque Koffka","3.2.8","3","y","0","left","right","right","left","NA","750","65307","73381","750","NA","2","legacy","4","1024","2","48000","-16","experiment","0","even","8","689304","686011","687097","1784","213809","687098","601112","1794","140428","691305","688101","692056","67102","691305","NA","Sternberg task","79","69083","91","yes","1024"
"86.9565217391","86.9565217391","759.25","759.25","black","experiment","legacy","legacy","legacy","0","uniform","1","undefined","1","right","91","91","91","0","0","91","91","0","0","91","91","91","0","91","0","10/17/21 12:10:18","The main experiment item","yes","Sternbergtask.osexp","C:\Users\Brian\Desktop\College - Graduate\Graduate Work\Advanced Quant","yes","no","mono","no","18","no","white","no","yes","768","legacy","79","11","C:/Users/Brian/Desktop/College - Graduate/Graduate Work/Advanced Quant/Lab 3/subject-0.csv","legacy","5 7 3","Kafkaesque Koffka","3.2.8","0","n","0","right","right","right","right","NA","768","65307","73381","768","NA","2","legacy","3","1024","2","48000","-16","experiment","0","even","9","695360","692065","693152","1784","213809","693154","601112","1794","140428","697362","694157","698131","67102","697362","NA","Sternberg task","80","69851","92","yes","1024"
"87.0967741935","87.0967741935","759.946236559","759.946236559","black","experiment","legacy","legacy","legacy","0","uniform","1","undefined","1","right","92","92","92","0","0","92","92","0","0","92","92","92","0","92","0","10/17/21 12:10:18","The main experiment item","yes","Sternbergtask.osexp","C:\Users\Brian\Desktop\College - Graduate\Graduate Work\Advanced Quant","yes","no","mono","no","18","no","white","no","yes","768","legacy","80","11","C:/Users/Brian/Desktop/College - Graduate/Graduate Work/Advanced Quant/Lab 3/subject-0.csv","legacy","6 3 1 7 9 8","Kafkaesque Koffka","3.2.8","0","n","0","right","right","right","right","NA","824","65307","73381","824","NA","2","legacy","6","1024","2","48000","-16","experiment","0","even","4","701434","698139","699226","1784","213809","699228","601112","1794","140428","703436","700231","704261","67102","703436","NA","Sternberg task","81","70675","93","yes","1024"
"87.2340425532","87.2340425532","759.734042553","759.734042553","black","experiment","legacy","legacy","legacy","0","uniform","1","undefined","1","left","93","93","93","0","0","93","93","0","0","93","93","93","0","93","0","10/17/21 12:10:18","The main experiment item","yes","Sternbergtask.osexp","C:\Users\Brian\Desktop\College - Graduate\Graduate Work\Advanced Quant","yes","no","mono","no","18","no","white","no","yes","768","legacy","81","11","C:/Users/Brian/Desktop/College - Graduate/Graduate Work/Advanced Quant/Lab 3/subject-0.csv","legacy","8 9 6 1","Kafkaesque Koffka","3.2.8","2","y","0","left","right","right","left","NA","740","65307","73381","740","NA","2","legacy","4","1024","2","48000","-16","experiment","0","even","9","707566","704270","705360","1784","213809","705361","601112","1794","140428","709569","706363","710310","67102","709569","NA","Sternberg task","82","71415","94","yes","1024"
"87.3684210526","87.3684210526","757.326315789","757.326315789","black","experiment","legacy","legacy","legacy","0","uniform","1","undefined","1","right","94","94","94","0","0","94","94","0","0","94","94","94","0","94","0","10/17/21 12:10:18","The main experiment item","yes","Sternbergtask.osexp","C:\Users\Brian\Desktop\College - Graduate\Graduate Work\Advanced Quant","yes","no","mono","no","18","no","white","no","yes","768","legacy","82","11","C:/Users/Brian/Desktop/College - Graduate/Graduate Work/Advanced Quant/Lab 3/subject-0.csv","legacy","9","Kafkaesque Koffka","3.2.8","0","n","0","right","right","right","right","NA","531","65307","73381","531","NA","2","legacy","1","1024","2","48000","-16","experiment","0","even","6","713618","710318","711411","1784","213809","711412","601112","1794","140428","715619","712415","716152","67102","715619","NA","Sternberg task","83","71946","95","yes","1024"
"87.5","87.5","757.072916667","757.072916667","black","experiment","legacy","legacy","legacy","0","uniform","1","undefined","1","left","95","95","95","0","0","95","95","0","0","95","95","95","0","95","0","10/17/21 12:10:18","The main experiment item","yes","Sternbergtask.osexp","C:\Users\Brian\Desktop\College - Graduate\Graduate Work\Advanced Quant","yes","no","mono","no","18","no","white","no","yes","768","legacy","83","11","C:/Users/Brian/Desktop/College - Graduate/Graduate Work/Advanced Quant/Lab 3/subject-0.csv","legacy","3 9 6 2","Kafkaesque Koffka","3.2.8","4","y","0","left","right","right","left","NA","733","65307","73381","733","NA","2","legacy","4","1024","2","48000","-16","experiment","0","even","2","719459","716160","717252","1784","213809","717254","601112","1794","140428","721462","718256","722197","67102","721462","NA","Sternberg task","84","72679","96","yes","1024"
"87.6288659794","87.6288659794","755.546391753","755.546391753","black","experiment","legacy","legacy","legacy","0","uniform","1","undefined","1","right","96","96","96","0","0","96","96","0","0","96","96","96","0","96","0","10/17/21 12:10:18","The main experiment item","yes","Sternbergtask.osexp","C:\Users\Brian\Desktop\College - Graduate\Graduate Work\Advanced Quant","yes","no","mono","no","18","no","white","no","yes","768","legacy","84","11","C:/Users/Brian/Desktop/College - Graduate/Graduate Work/Advanced Quant/Lab 3/subject-0.csv","legacy","4 8 1 2","Kafkaesque Koffka","3.2.8","0","n","0","right","right","right","right","NA","609","65307","73381","609","NA","2","legacy","4","1024","2","48000","-16","experiment","0","even","7","725500","722205","723293","1784","213809","723294","601112","1794","140428","727501","724297","728112","67102","727501","NA","Sternberg task","85","73288","97","yes","1024"
"86.7346938776","86.7346938776","757.510204082","757.510204082","black","experiment","legacy","legacy","legacy","0","uniform","0","undefined","0","left","97","97","97","0","0","97","97","0","0","97","97","97","0","97","0","10/17/21 12:10:18","The main experiment item","yes","Sternbergtask.osexp","C:\Users\Brian\Desktop\College - Graduate\Graduate Work\Advanced Quant","yes","no","mono","no","18","no","white","no","yes","768","legacy","85","11","C:/Users/Brian/Desktop/College - Graduate/Graduate Work/Advanced Quant/Lab 3/subject-0.csv","legacy","7 8 6 3 1","Kafkaesque Koffka","3.2.8","5","y","0","right","right","right","right","NA","948","65307","73381","948","NA","2","legacy","5","1024","2","48000","-16","experiment","0","even","1","731419","728121","729211","1784","213809","729213","601112","1794","140428","733421","730216","734371","67102","733421","NA","Sternberg task","85","74236","98","yes","1024"
"86.8686868687","86.8686868687","756.454545455","756.454545455","black","experiment","legacy","legacy","legacy","0","uniform","1","undefined","1","right","98","98","98","0","0","98","98","0","0","98","98","98","0","98","0","10/17/21 12:10:18","The main experiment item","yes","Sternbergtask.osexp","C:\Users\Brian\Desktop\College - Graduate\Graduate Work\Advanced Quant","yes","no","mono","no","18","no","white","no","yes","768","legacy","86","11","C:/Users/Brian/Desktop/College - Graduate/Graduate Work/Advanced Quant/Lab 3/subject-0.csv","legacy","5","Kafkaesque Koffka","3.2.8","0","n","0","right","right","right","right","NA","653","65307","73381","653","NA","2","legacy","1","1024","2","48000","-16","experiment","0","even","8","737674","728121","735466","1784","213809","735467","734380","1794","140428","739677","736471","740331","67102","739677","NA","Sternberg task","86","74889","99","yes","1024"
"87","87","757.09","757.09","black","experiment","legacy","legacy","legacy","0","uniform","1","undefined","1","left","99","99","99","0","0","99","99","0","0","99","99","99","0","99","0","10/17/21 12:10:18","The main experiment item","yes","Sternbergtask.osexp","C:\Users\Brian\Desktop\College - Graduate\Graduate Work\Advanced Quant","yes","no","mono","no","18","no","white","no","yes","768","legacy","87","11","C:/Users/Brian/Desktop/College - Graduate/Graduate Work/Advanced Quant/Lab 3/subject-0.csv","legacy","9 4 2","Kafkaesque Koffka","3.2.8","1","y","0","left","right","right","left","NA","820","65307","73381","820","NA","2","legacy","3","1024","2","48000","-16","experiment","0","even","9","743635","740339","741428","1784","213809","741430","734380","1794","140428","745639","742433","746461","67102","745639","NA","Sternberg task","87","75709","100","yes","1024"
"87.1287128713","87.1287128713","758.217821782","758.217821782","black","experiment","legacy","legacy","legacy","0","uniform","1","undefined","1","left","100","100","100","0","0","100","100","0","0","100","100","100","0","100","0","10/17/21 12:10:18","The main experiment item","yes","Sternbergtask.osexp","C:\Users\Brian\Desktop\College - Graduate\Graduate Work\Advanced Quant","yes","no","mono","no","18","no","white","no","yes","768","legacy","88","11","C:/Users/Brian/Desktop/College - Graduate/Graduate Work/Advanced Quant/Lab 3/subject-0.csv","legacy","4 3 2 5 8","Kafkaesque Koffka","3.2.8","2","y","0","left","right","right","left","NA","871","65307","73381","871","NA","2","legacy","5","1024","2","48000","-16","experiment","0","even","3","749760","746469","747555","1784","213809","747556","734380","1794","140428","751763","748557","752636","67102","751763","NA","Sternberg task","88","76580","101","yes","1024"
"87.2549019608","87.2549019608","756.931372549","756.931372549","black","experiment","legacy","legacy","legacy","0","uniform","1","undefined","1","left","101","101","101","0","0","101","101","0","0","101","101","101","0","101","0","10/17/21 12:10:18","The main experiment item","yes","Sternbergtask.osexp","C:\Users\Brian\Desktop\College - Graduate\Graduate Work\Advanced Quant","yes","no","mono","no","18","no","white","no","yes","768","legacy","89","11","C:/Users/Brian/Desktop/College - Graduate/Graduate Work/Advanced Quant/Lab 3/subject-0.csv","legacy","4 1 5","Kafkaesque Koffka","3.2.8","2","y","0","left","right","right","left","NA","627","65307","73381","627","NA","2","legacy","3","1024","2","48000","-16","experiment","0","even","1","755939","752645","753732","1784","213809","753734","734380","1794","140428","757942","754736","758571","67102","757942","NA","Sternberg task","89","77207","102","yes","1024"
"87.3786407767","87.3786407767","755.038834951","755.038834951","black","experiment","legacy","legacy","legacy","0","uniform","1","undefined","1","left","102","102","102","0","0","102","102","0","0","102","102","102","0","102","0","10/17/21 12:10:18","The main experiment item","yes","Sternbergtask.osexp","C:\Users\Brian\Desktop\College - Graduate\Graduate Work\Advanced Quant","yes","no","mono","no","18","no","white","no","yes","768","legacy","90","11","C:/Users/Brian/Desktop/College - Graduate/Graduate Work/Advanced Quant/Lab 3/subject-0.csv","legacy","7 1 3","Kafkaesque Koffka","3.2.8","2","y","0","left","right","right","left","NA","562","65307","73381","562","NA","2","legacy","3","1024","2","48000","-16","experiment","0","even","1","761875","758579","759668","1784","213809","759669","734380","1794","140428","763876","760672","764440","67102","763876","NA","Sternberg task","90","77769","103","yes","1024"
"87.5","87.5","751.990384615","751.990384615","black","experiment","legacy","legacy","legacy","0","uniform","1","undefined","1","right","103","103","103","0","0","103","103","0","0","103","103","103","0","103","0","10/17/21 12:10:18","The main experiment item","yes","Sternbergtask.osexp","C:\Users\Brian\Desktop\College - Graduate\Graduate Work\Advanced Quant","yes","no","mono","no","18","no","white","no","yes","768","legacy","91","11","C:/Users/Brian/Desktop/College - Graduate/Graduate Work/Advanced Quant/Lab 3/subject-0.csv","legacy","7 1","Kafkaesque Koffka","3.2.8","0","n","0","right","right","right","right","NA","438","65307","73381","438","NA","2","legacy","2","1024","2","48000","-16","experiment","0","even","8","767744","764448","765537","1784","213809","765538","734380","1794","140428","769747","766541","770187","67102","769747","NA","Sternberg task","91","78207","104","yes","1024"
"87.619047619","87.619047619","752.914285714","752.914285714","black","experiment","legacy","legacy","legacy","0","uniform","1","undefined","1","right","104","104","104","0","0","104","104","0","0","104","104","104","0","104","0","10/17/21 12:10:18","The main experiment item","yes","Sternbergtask.osexp","C:\Users\Brian\Desktop\College - Graduate\Graduate Work\Advanced Quant","yes","no","mono","no","18","no","white","no","yes","768","legacy","92","11","C:/Users/Brian/Desktop/College - Graduate/Graduate Work/Advanced Quant/Lab 3/subject-0.csv","legacy","9 7 4 5 8","Kafkaesque Koffka","3.2.8","0","n","0","right","right","right","right","NA","849","65307","73381","849","NA","2","legacy","5","1024","2","48000","-16","experiment","0","even","6","773494","770196","771287","1784","213809","771288","734380","1794","140428","775496","772291","776347","67102","775496","NA","Sternberg task","92","79056","105","yes","1024"
"87.7358490566","87.7358490566","751.047169811","751.047169811","black","experiment","legacy","legacy","legacy","0","uniform","1","undefined","1","right","105","105","105","0","0","105","105","0","0","105","105","105","0","105","0","10/17/21 12:10:18","The main experiment item","yes","Sternbergtask.osexp","C:\Users\Brian\Desktop\College - Graduate\Graduate Work\Advanced Quant","yes","no","mono","no","18","no","white","no","yes","768","legacy","93","11","C:/Users/Brian/Desktop/College - Graduate/Graduate Work/Advanced Quant/Lab 3/subject-0.csv","legacy","1","Kafkaesque Koffka","3.2.8","0","n","0","right","right","right","right","NA","555","65307","73381","555","NA","2","legacy","1","1024","2","48000","-16","experiment","0","even","7","779649","776355","777441","1784","213809","777442","734380","1794","140428","781650","778446","782207","67102","781650","NA","Sternberg task","93","79611","106","yes","1024"
"87.8504672897","87.8504672897","750.794392523","750.794392523","black","experiment","legacy","legacy","legacy","0","uniform","1","undefined","1","right","106","106","106","0","0","106","106","0","0","106","106","106","0","106","0","10/17/21 12:10:18","The main experiment item","yes","Sternbergtask.osexp","C:\Users\Brian\Desktop\College - Graduate\Graduate Work\Advanced Quant","yes","no","mono","no","18","no","white","no","yes","768","legacy","94","11","C:/Users/Brian/Desktop/College - Graduate/Graduate Work/Advanced Quant/Lab 3/subject-0.csv","legacy","9 5 3 2 8 6","Kafkaesque Koffka","3.2.8","0","n","0","right","right","right","right","NA","724","65307","73381","724","NA","2","legacy","6","1024","2","48000","-16","experiment","0","even","7","785515","782215","783307","1784","213809","783309","734380","1794","140428","787516","784312","788242","67102","787516","NA","Sternberg task","94","80335","107","yes","1024"
"87.962962963","87.962962963","750.740740741","750.740740741","black","experiment","legacy","legacy","legacy","0","uniform","1","undefined","1","left","107","107","107","0","0","107","107","0","0","107","107","107","0","107","0","10/17/21 12:10:18","The main experiment item","yes","Sternbergtask.osexp","C:\Users\Brian\Desktop\College - Graduate\Graduate Work\Advanced Quant","yes","no","mono","no","18","no","white","no","yes","768","legacy","95","11","C:/Users/Brian/Desktop/College - Graduate/Graduate Work/Advanced Quant/Lab 3/subject-0.csv","legacy","8 5 1 3 9","Kafkaesque Koffka","3.2.8","4","y","0","left","right","right","left","NA","745","65307","73381","745","NA","2","legacy","5","1024","2","48000","-16","experiment","0","even","3","791543","788251","789336","1784","213809","789337","734380","1794","140428","793544","790340","794291","67102","793544","NA","Sternberg task","95","81080","108","yes","1024"
