"acc","accuracy","average_response_time","avg_rt","background","block","canvas_backend","clock_backend","color_backend","correct","correct_instruction1","correct_keyboard_response","correct_response","count_ISI","count_correctFeedback","count_expSequence","count_experiment","count_experimentLoop","count_fixation","count_incorrectFeedback","count_instruction1","count_instructions2","count_keyboard_response","count_logger","count_memorySet","count_practiceLoop","count_probe","count_thankYou","datetime","description","disable_garbage_collection","experiment_file","experiment_path","font_bold","font_family","font_italic","font_size","font_underline","foreground","form_clicks","fullscreen","height","keyboard_backend","live_row","live_row_practiceLoop","logfile","mouse_backend","numberSet","opensesame_codename","opensesame_version","posInSet","present","repeat_cycle","response","response_instruction1","response_instructions2","response_keyboard_response","response_thankYou","response_time","response_time_instruction1","response_time_instructions2","response_time_keyboard_response","response_time_thankYou","round_decimals","sampler_backend","setSize","sound_buf_size","sound_channels","sound_freq","sound_sample_size","start","subject_nr","subject_parity","target","time_ISI","time_correctFeedback","time_expSequence","time_experiment","time_experimentLoop","time_fixation","time_incorrectFeedback","time_instruction1","time_instructions2","time_keyboard_response","time_logger","time_memorySet","time_practiceLoop","time_probe","time_thankYou","title","total_correct","total_response_time","total_responses","width"
"100","100","783","783","#000000","practice","legacy","legacy","legacy","1","undefined","1","left","0","0","0","0","0","0","0","0","0","0","0","0","0","0","0","Tue Oct 17 15:42:51 2023","The main experiment item","False","SternbergTask.osexp","C:\Users\Simone\Desktop","False","mono","False","18","no","white","no","yes","768","legacy","0","0","C:/Users/Simone/Documents/SD-subject-4.csv","legacy","2 9 4","Melodramatic Milgram","4.0.5","3","y","0","left","right","NA","left","NA","783.0","12957","NA","783","NA","2","legacy","3","1024","2","48000","-16","experiment","4","even","4","17282","NA","15079","1802","NA","15080","NA","1803","NA","19284","20068","16081","14761","19283","NA","Sternberg Task","1","783.0","1","1024"
"100","100","652","652","#000000","practice","legacy","legacy","legacy","1","undefined","1","right","1","1","1","0","0","1","1","0","0","1","1","1","0","1","0","Tue Oct 17 15:42:51 2023","The main experiment item","False","SternbergTask.osexp","C:\Users\Simone\Desktop","False","mono","False","18","no","white","no","yes","768","legacy","1","1","C:/Users/Simone/Documents/SD-subject-4.csv","legacy","5","Melodramatic Milgram","4.0.5","0","n","0","right","right","NA","right","NA","522.0","12957","NA","522","NA","2","legacy","1","1024","2","48000","-16","experiment","4","even","3","23344","20104","21140","1802","NA","21142","NA","1803","NA","25347","25869","22143","14761","25346","NA","Sternberg Task","2","1305.0","2","1024"
"100","100","645","645","#000000","practice","legacy","legacy","legacy","1","undefined","1","right","2","2","2","0","0","2","2","0","0","2","2","2","0","2","0","Tue Oct 17 15:42:51 2023","The main experiment item","False","SternbergTask.osexp","C:\Users\Simone\Desktop","False","mono","False","18","no","white","no","yes","768","legacy","2","2","C:/Users/Simone/Documents/SD-subject-4.csv","legacy","9 6 7 4 5","Melodramatic Milgram","4.0.5","0","n","0","right","right","NA","right","NA","630.0","12957","NA","630","NA","2","legacy","5","1024","2","48000","-16","experiment","4","even","3","29121","25873","26916","1802","NA","26918","NA","1803","NA","31123","31754","27920","14761","31123","NA","Sternberg Task","3","1935.0","3","1024"
"100","100","626","626","#000000","practice","legacy","legacy","legacy","1","undefined","1","right","3","3","3","0","0","3","3","0","0","3","3","3","0","3","0","Tue Oct 17 15:42:51 2023","The main experiment item","False","SternbergTask.osexp","C:\Users\Simone\Desktop","False","mono","False","18","no","white","no","yes","768","legacy","3","3","C:/Users/Simone/Documents/SD-subject-4.csv","legacy","2 1","Melodramatic Milgram","4.0.5","0","n","0","right","right","NA","right","NA","572.0","12957","NA","572","NA","2","legacy","2","1024","2","48000","-16","experiment","4","even","5","34997","31757","32792","1802","NA","32793","NA","1803","NA","36998","37570","33795","14761","36998","NA","Sternberg Task","4","2507.0","4","1024"
"100","100","617","617","#000000","practice","legacy","legacy","legacy","1","undefined","1","right","4","4","4","0","0","4","4","0","0","4","4","4","0","4","0","Tue Oct 17 15:42:51 2023","The main experiment item","False","SternbergTask.osexp","C:\Users\Simone\Desktop","False","mono","False","18","no","white","no","yes","768","legacy","4","4","C:/Users/Simone/Documents/SD-subject-4.csv","legacy","5 7 8 4 1 2","Melodramatic Milgram","4.0.5","0","n","0","right","right","NA","right","NA","582.0","12957","NA","582","NA","2","legacy","6","1024","2","48000","-16","experiment","4","even","6","40820","37575","38616","1802","NA","38618","NA","1803","NA","42821","43403","39619","14761","42821","NA","Sternberg Task","5","3089.0","5","1024"
"100","100","623","623","#000000","practice","legacy","legacy","legacy","1","undefined","1","right","5","5","5","0","0","5","5","0","0","5","5","5","0","5","0","Tue Oct 17 15:42:51 2023","The main experiment item","False","SternbergTask.osexp","C:\Users\Simone\Desktop","False","mono","False","18","no","white","no","yes","768","legacy","5","5","C:/Users/Simone/Documents/SD-subject-4.csv","legacy","4 1 5","Melodramatic Milgram","4.0.5","0","n","0","right","right","NA","right","NA","654.0","12957","NA","654","NA","2","legacy","3","1024","2","48000","-16","experiment","4","even","2","46658","43407","44454","1802","NA","44455","NA","1803","NA","48659","49314","45456","14761","48659","NA","Sternberg Task","6","3743.0","6","1024"
"100","100","625","625","#000000","practice","legacy","legacy","legacy","1","undefined","1","left","6","6","6","0","0","6","6","0","0","6","6","6","0","6","0","Tue Oct 17 15:42:51 2023","The main experiment item","False","SternbergTask.osexp","C:\Users\Simone\Desktop","False","mono","False","18","no","white","no","yes","768","legacy","6","6","C:/Users/Simone/Documents/SD-subject-4.csv","legacy","6","Melodramatic Milgram","4.0.5","1","y","0","left","right","NA","left","NA","633.0","12957","NA","633","NA","2","legacy","1","1024","2","48000","-16","experiment","4","even","6","52559","49318","50354","1802","NA","50355","NA","1803","NA","54562","55196","51358","14761","54561","NA","Sternberg Task","7","4376.0","7","1024"
"100","100","616","616","#000000","practice","legacy","legacy","legacy","1","undefined","1","left","7","7","7","0","0","7","7","0","0","7","7","7","0","7","0","Tue Oct 17 15:42:51 2023","The main experiment item","False","SternbergTask.osexp","C:\Users\Simone\Desktop","False","mono","False","18","no","white","no","yes","768","legacy","7","7","C:/Users/Simone/Documents/SD-subject-4.csv","legacy","4 3 1 7 9 8","Melodramatic Milgram","4.0.5","1","y","0","left","right","NA","left","NA","558.0","12957","NA","558","NA","2","legacy","6","1024","2","48000","-16","experiment","4","even","4","58455","55201","56251","1802","NA","56253","NA","1803","NA","60456","61015","57254","14761","60456","NA","Sternberg Task","8","4934.0","8","1024"
"100","100","609","609","#000000","practice","legacy","legacy","legacy","1","undefined","1","left","8","8","8","0","0","8","8","0","0","8","8","8","0","8","0","Tue Oct 17 15:42:51 2023","The main experiment item","False","SternbergTask.osexp","C:\Users\Simone\Desktop","False","mono","False","18","no","white","no","yes","768","legacy","8","8","C:/Users/Simone/Documents/SD-subject-4.csv","legacy","1 5 2 9","Melodramatic Milgram","4.0.5","2","y","0","left","right","NA","left","NA","550.0","12957","NA","550","NA","2","legacy","4","1024","2","48000","-16","experiment","4","even","5","64270","61019","62066","1802","NA","62068","NA","1803","NA","66271","66821","63069","14761","66271","NA","Sternberg Task","9","5484.0","9","1024"
"100","100","599","599","#000000","practice","legacy","legacy","legacy","1","undefined","1","right","9","9","9","0","0","9","9","0","0","9","9","9","0","9","0","Tue Oct 17 15:42:51 2023","The main experiment item","False","SternbergTask.osexp","C:\Users\Simone\Desktop","False","mono","False","18","no","white","no","yes","768","legacy","9","9","C:/Users/Simone/Documents/SD-subject-4.csv","legacy","3 1 9 4","Melodramatic Milgram","4.0.5","0","n","0","right","right","NA","right","NA","508.0","12957","NA","508","NA","2","legacy","4","1024","2","48000","-16","experiment","4","even","6","70075","66826","67871","1802","NA","67872","NA","1803","NA","72077","72585","68874","14761","72076","NA","Sternberg Task","10","5992.0","10","1024"
"100","100","580","580","#000000","practice","legacy","legacy","legacy","1","undefined","1","left","10","10","10","0","0","10","10","0","0","10","10","10","0","10","0","Tue Oct 17 15:42:51 2023","The main experiment item","False","SternbergTask.osexp","C:\Users\Simone\Desktop","False","mono","False","18","no","white","no","yes","768","legacy","10","10","C:/Users/Simone/Documents/SD-subject-4.csv","legacy","4 8","Melodramatic Milgram","4.0.5","1","y","0","left","right","NA","left","NA","389.0","12957","NA","389","NA","2","legacy","2","1024","2","48000","-16","experiment","4","even","4","75830","72590","73625","1802","NA","73626","NA","1803","NA","77831","78221","74628","14761","77831","NA","Sternberg Task","11","6381.0","11","1024"
"100","100","602","602","#000000","practice","legacy","legacy","legacy","1","undefined","1","left","11","11","11","0","0","11","11","0","0","11","11","11","0","11","0","Tue Oct 17 15:42:51 2023","The main experiment item","False","SternbergTask.osexp","C:\Users\Simone\Desktop","False","mono","False","18","no","white","no","yes","768","legacy","11","11","C:/Users/Simone/Documents/SD-subject-4.csv","legacy","1 7 9 8 5","Melodramatic Milgram","4.0.5","4","y","0","left","right","NA","left","NA","846.0","12957","NA","846","NA","2","legacy","5","1024","2","48000","-16","experiment","4","even","8","81463","78225","79260","1802","NA","79261","NA","1803","NA","83464","84311","80262","14761","83464","NA","Sternberg Task","12","7227.0","12","1024"
"100","100","604","604","#000000","experiment","legacy","legacy","legacy","1","undefined","1","right","12","12","12","0","0","12","12","0","0","12","12","12","0","12","0","Tue Oct 17 15:42:51 2023","The main experiment item","False","SternbergTask.osexp","C:\Users\Simone\Desktop","False","mono","False","18","no","white","no","yes","768","legacy","0","11","C:/Users/Simone/Documents/SD-subject-4.csv","legacy","1 6 4 3 9 7","Melodramatic Milgram","4.0.5","0","n","0","right","right","left","right","NA","630.0","12957","1117","630","NA","2","legacy","6","1024","2","48000","-16","experiment","4","even","8","88748","84316","86543","1802","86437","86544","NA","1803","85320","90750","91381","87545","14761","90749","NA","Sternberg Task","13","7857.0","13","1024"
"100","100","610","610","#000000","experiment","legacy","legacy","legacy","1","undefined","1","left","13","13","13","0","0","13","13","0","0","13","13","13","0","13","0","Tue Oct 17 15:42:51 2023","The main experiment item","False","SternbergTask.osexp","C:\Users\Simone\Desktop","False","mono","False","18","no","white","no","yes","768","legacy","1","11","C:/Users/Simone/Documents/SD-subject-4.csv","legacy","7 2 3","Melodramatic Milgram","4.0.5","3","y","0","left","right","left","left","NA","687.0","12957","1117","687","NA","2","legacy","3","1024","2","48000","-16","experiment","4","even","3","94635","91386","92432","1802","86437","92433","NA","1803","85320","96636","97324","93434","14761","96636","NA","Sternberg Task","14","8544.0","14","1024"
"100","100","618","618","#000000","experiment","legacy","legacy","legacy","1","undefined","1","right","14","14","14","0","0","14","14","0","0","14","14","14","0","14","0","Tue Oct 17 15:42:51 2023","The main experiment item","False","SternbergTask.osexp","C:\Users\Simone\Desktop","False","mono","False","18","no","white","no","yes","768","legacy","2","11","C:/Users/Simone/Documents/SD-subject-4.csv","legacy","7 3 2 8","Melodramatic Milgram","4.0.5","0","n","0","right","right","left","right","NA","731.0","12957","1117","731","NA","2","legacy","4","1024","2","48000","-16","experiment","4","even","4","100575","97328","98371","1802","86437","98372","NA","1803","85320","102576","103308","99374","14761","102576","NA","Sternberg Task","15","9275.0","15","1024"
"100","100","626","626","#000000","experiment","legacy","legacy","legacy","1","undefined","1","left","15","15","15","0","0","15","15","0","0","15","15","15","0","15","0","Tue Oct 17 15:42:51 2023","The main experiment item","False","SternbergTask.osexp","C:\Users\Simone\Desktop","False","mono","False","18","no","white","no","yes","768","legacy","3","11","C:/Users/Simone/Documents/SD-subject-4.csv","legacy","1 4 9 3 2 5","Melodramatic Milgram","4.0.5","3","y","0","left","right","left","left","NA","748.0","12957","1117","748","NA","2","legacy","6","1024","2","48000","-16","experiment","4","even","9","106560","103313","104356","1802","86437","104357","NA","1803","85320","108562","109310","105358","14761","108561","NA","Sternberg Task","16","10023.0","16","1024"
"100","100","636","636","#000000","experiment","legacy","legacy","legacy","1","undefined","1","left","16","16","16","0","0","16","16","0","0","16","16","16","0","16","0","Tue Oct 17 15:42:51 2023","The main experiment item","False","SternbergTask.osexp","C:\Users\Simone\Desktop","False","mono","False","18","no","white","no","yes","768","legacy","4","11","C:/Users/Simone/Documents/SD-subject-4.csv","legacy","4 3 2 5 8","Melodramatic Milgram","4.0.5","2","y","0","left","right","left","left","NA","797.0","12957","1117","797","NA","2","legacy","5","1024","2","48000","-16","experiment","4","even","3","112564","109315","110360","1802","86437","110361","NA","1803","85320","114565","115362","111362","14761","114565","NA","Sternberg Task","17","10820.0","17","1024"
"100","100","626","626","#000000","experiment","legacy","legacy","legacy","1","undefined","1","left","17","17","17","0","0","17","17","0","0","17","17","17","0","17","0","Tue Oct 17 15:42:51 2023","The main experiment item","False","SternbergTask.osexp","C:\Users\Simone\Desktop","False","mono","False","18","no","white","no","yes","768","legacy","5","11","C:/Users/Simone/Documents/SD-subject-4.csv","legacy","9 5 8 1","Melodramatic Milgram","4.0.5","2","y","0","left","right","left","left","NA","449.0","12957","1117","449","NA","2","legacy","4","1024","2","48000","-16","experiment","4","even","5","118615","115367","116411","1802","86437","116413","NA","1803","85320","120616","121066","117414","14761","120616","NA","Sternberg Task","18","11269.0","18","1024"
"100","100","627","627","#000000","experiment","legacy","legacy","legacy","1","undefined","1","right","18","18","18","0","0","18","18","0","0","18","18","18","0","18","0","Tue Oct 17 15:42:51 2023","The main experiment item","False","SternbergTask.osexp","C:\Users\Simone\Desktop","False","mono","False","18","no","white","no","yes","768","legacy","6","11","C:/Users/Simone/Documents/SD-subject-4.csv","legacy","7 6 4 8 1 2","Melodramatic Milgram","4.0.5","0","n","0","right","right","left","right","NA","653.0","12957","1117","653","NA","2","legacy","6","1024","2","48000","-16","experiment","4","even","9","124315","121071","122111","1802","86437","122112","NA","1803","85320","126316","126969","123114","14761","126316","NA","Sternberg Task","19","11922.0","19","1024"
"100","100","627","627","#000000","experiment","legacy","legacy","legacy","1","undefined","1","right","19","19","19","0","0","19","19","0","0","19","19","19","0","19","0","Tue Oct 17 15:42:51 2023","The main experiment item","False","SternbergTask.osexp","C:\Users\Simone\Desktop","False","mono","False","18","no","white","no","yes","768","legacy","7","11","C:/Users/Simone/Documents/SD-subject-4.csv","legacy","5 7 3","Melodramatic Milgram","4.0.5","0","n","0","right","right","left","right","NA","624.0","12957","1117","624","NA","2","legacy","3","1024","2","48000","-16","experiment","4","even","9","130223","126974","128020","1802","86437","128021","NA","1803","85320","132225","132849","129022","14761","132224","NA","Sternberg Task","20","12546.0","20","1024"
"100","100","626","626","#000000","experiment","legacy","legacy","legacy","1","undefined","1","left","20","20","20","0","0","20","20","0","0","20","20","20","0","20","0","Tue Oct 17 15:42:51 2023","The main experiment item","False","SternbergTask.osexp","C:\Users\Simone\Desktop","False","mono","False","18","no","white","no","yes","768","legacy","8","11","C:/Users/Simone/Documents/SD-subject-4.csv","legacy","7 8 6 3 1","Melodramatic Milgram","4.0.5","5","y","0","left","right","left","left","NA","620.0","12957","1117","620","NA","2","legacy","5","1024","2","48000","-16","experiment","4","even","1","136108","132854","133904","1802","86437","133905","NA","1803","85320","138110","138731","134906","14761","138110","NA","Sternberg Task","21","13166.0","21","1024"
"100","100","626","626","#000000","experiment","legacy","legacy","legacy","1","undefined","1","right","21","21","21","0","0","21","21","0","0","21","21","21","0","21","0","Tue Oct 17 15:42:51 2023","The main experiment item","False","SternbergTask.osexp","C:\Users\Simone\Desktop","False","mono","False","18","no","white","no","yes","768","legacy","9","11","C:/Users/Simone/Documents/SD-subject-4.csv","legacy","2 8 9 4 1","Melodramatic Milgram","4.0.5","0","n","0","right","right","left","right","NA","613.0","12957","1117","613","NA","2","legacy","5","1024","2","48000","-16","experiment","4","even","5","141981","138736","139776","1802","86437","139778","NA","1803","85320","143982","144595","140779","14761","143982","NA","Sternberg Task","22","13779.0","22","1024"
"100","100","626","626","#000000","experiment","legacy","legacy","legacy","1","undefined","1","right","22","22","22","0","0","22","22","0","0","22","22","22","0","22","0","Tue Oct 17 15:42:51 2023","The main experiment item","False","SternbergTask.osexp","C:\Users\Simone\Desktop","False","mono","False","18","no","white","no","yes","768","legacy","10","11","C:/Users/Simone/Documents/SD-subject-4.csv","legacy","1 8 7","Melodramatic Milgram","4.0.5","0","n","0","right","right","left","right","NA","632.0","12957","1117","632","NA","2","legacy","3","1024","2","48000","-16","experiment","4","even","4","147855","144601","145651","1802","86437","145653","NA","1803","85320","149857","150489","146654","14761","149857","NA","Sternberg Task","23","14411.0","23","1024"
"100","100","621","621","#000000","experiment","legacy","legacy","legacy","1","undefined","1","right","23","23","23","0","0","23","23","0","0","23","23","23","0","23","0","Tue Oct 17 15:42:51 2023","The main experiment item","False","SternbergTask.osexp","C:\Users\Simone\Desktop","False","mono","False","18","no","white","no","yes","768","legacy","11","11","C:/Users/Simone/Documents/SD-subject-4.csv","legacy","4 2 6 9","Melodramatic Milgram","4.0.5","0","n","0","right","right","left","right","NA","499.0","12957","1117","499","NA","2","legacy","4","1024","2","48000","-16","experiment","4","even","7","153754","150500","151550","1802","86437","151551","NA","1803","85320","155756","156255","152552","14761","155756","NA","Sternberg Task","24","14910.0","24","1024"
"100","100","624","624","#000000","experiment","legacy","legacy","legacy","1","undefined","1","right","24","24","24","0","0","24","24","0","0","24","24","24","0","24","0","Tue Oct 17 15:42:51 2023","The main experiment item","False","SternbergTask.osexp","C:\Users\Simone\Desktop","False","mono","False","18","no","white","no","yes","768","legacy","12","11","C:/Users/Simone/Documents/SD-subject-4.csv","legacy","3 9 1","Melodramatic Milgram","4.0.5","0","n","0","right","right","left","right","NA","701.0","12957","1117","701","NA","2","legacy","3","1024","2","48000","-16","experiment","4","even","7","159500","156261","157297","1802","86437","157298","NA","1803","85320","161501","162202","158299","14761","161501","NA","Sternberg Task","25","15611.0","25","1024"
"100","100","623","623","#000000","experiment","legacy","legacy","legacy","1","undefined","1","left","25","25","25","0","0","25","25","0","0","25","25","25","0","25","0","Tue Oct 17 15:42:51 2023","The main experiment item","False","SternbergTask.osexp","C:\Users\Simone\Desktop","False","mono","False","18","no","white","no","yes","768","legacy","13","11","C:/Users/Simone/Documents/SD-subject-4.csv","legacy","9 4 2","Melodramatic Milgram","4.0.5","1","y","0","left","right","left","left","NA","600.0","12957","1117","600","NA","2","legacy","3","1024","2","48000","-16","experiment","4","even","9","165446","162207","163242","1802","86437","163243","NA","1803","85320","167447","168047","164244","14761","167447","NA","Sternberg Task","26","16211.0","26","1024"
"100","100","621","621","#000000","experiment","legacy","legacy","legacy","1","undefined","1","right","26","26","26","0","0","26","26","0","0","26","26","26","0","26","0","Tue Oct 17 15:42:51 2023","The main experiment item","False","SternbergTask.osexp","C:\Users\Simone\Desktop","False","mono","False","18","no","white","no","yes","768","legacy","14","11","C:/Users/Simone/Documents/SD-subject-4.csv","legacy","2 8 6 3 1","Melodramatic Milgram","4.0.5","0","n","0","right","right","left","right","NA","562.0","12957","1117","562","NA","2","legacy","5","1024","2","48000","-16","experiment","4","even","7","171297","168052","169091","1802","86437","169093","NA","1803","85320","173298","173861","170095","14761","173298","NA","Sternberg Task","27","16773.0","27","1024"
"100","100","618","618","#000000","experiment","legacy","legacy","legacy","1","undefined","1","left","27","27","27","0","0","27","27","0","0","27","27","27","0","27","0","Tue Oct 17 15:42:51 2023","The main experiment item","False","SternbergTask.osexp","C:\Users\Simone\Desktop","False","mono","False","18","no","white","no","yes","768","legacy","15","11","C:/Users/Simone/Documents/SD-subject-4.csv","legacy","2 6 1 7 4","Melodramatic Milgram","4.0.5","2","y","0","left","right","left","left","NA","534.0","12957","1117","534","NA","2","legacy","5","1024","2","48000","-16","experiment","4","even","6","177104","173865","174901","1802","86437","174902","NA","1803","85320","179105","179639","175903","14761","179105","NA","Sternberg Task","28","17307.0","28","1024"
"100","100","614","614","#000000","experiment","legacy","legacy","legacy","1","undefined","1","right","28","28","28","0","0","28","28","0","0","28","28","28","0","28","0","Tue Oct 17 15:42:51 2023","The main experiment item","False","SternbergTask.osexp","C:\Users\Simone\Desktop","False","mono","False","18","no","white","no","yes","768","legacy","16","11","C:/Users/Simone/Documents/SD-subject-4.csv","legacy","1 6 4","Melodramatic Milgram","4.0.5","0","n","0","right","right","left","right","NA","507.0","12957","1117","507","NA","2","legacy","3","1024","2","48000","-16","experiment","4","even","7","182889","179644","180685","1802","86437","180687","NA","1803","85320","184891","185398","181688","14761","184891","NA","Sternberg Task","29","17814.0","29","1024"
"100","100","610","610","#000000","experiment","legacy","legacy","legacy","1","undefined","1","right","29","29","29","0","0","29","29","0","0","29","29","29","0","29","0","Tue Oct 17 15:42:51 2023","The main experiment item","False","SternbergTask.osexp","C:\Users\Simone\Desktop","False","mono","False","18","no","white","no","yes","768","legacy","17","11","C:/Users/Simone/Documents/SD-subject-4.csv","legacy","5","Melodramatic Milgram","4.0.5","0","n","0","right","right","left","right","NA","502.0","12957","1117","502","NA","2","legacy","1","1024","2","48000","-16","experiment","4","even","8","188659","185403","186455","1802","86437","186456","NA","1803","85320","190660","191162","187458","14761","190660","NA","Sternberg Task","30","18316.0","30","1024"
"100","100","608","608","#000000","experiment","legacy","legacy","legacy","1","undefined","1","left","30","30","30","0","0","30","30","0","0","30","30","30","0","30","0","Tue Oct 17 15:42:51 2023","The main experiment item","False","SternbergTask.osexp","C:\Users\Simone\Desktop","False","mono","False","18","no","white","no","yes","768","legacy","18","11","C:/Users/Simone/Documents/SD-subject-4.csv","legacy","3 9 7 6 4","Melodramatic Milgram","4.0.5","3","y","0","left","right","left","left","NA","562.0","12957","1117","562","NA","2","legacy","5","1024","2","48000","-16","experiment","4","even","7","194415","191166","192210","1802","86437","192211","NA","1803","85320","196417","196980","193212","14761","196416","NA","Sternberg Task","31","18878.0","31","1024"
"100","100","608","608","#000000","experiment","legacy","legacy","legacy","1","undefined","1","right","31","31","31","0","0","31","31","0","0","31","31","31","0","31","0","Tue Oct 17 15:42:51 2023","The main experiment item","False","SternbergTask.osexp","C:\Users\Simone\Desktop","False","mono","False","18","no","white","no","yes","768","legacy","19","11","C:/Users/Simone/Documents/SD-subject-4.csv","legacy","8 5 4 2 9 6","Melodramatic Milgram","4.0.5","0","n","0","right","right","left","right","NA","592.0","12957","1117","592","NA","2","legacy","6","1024","2","48000","-16","experiment","4","even","3","200237","196984","198033","1802","86437","198034","NA","1803","85320","202238","202830","199035","14761","202238","NA","Sternberg Task","32","19470.0","32","1024"
"100","100","610","610","#000000","experiment","legacy","legacy","legacy","1","undefined","1","right","32","32","32","0","0","32","32","0","0","32","32","32","0","32","0","Tue Oct 17 15:42:51 2023","The main experiment item","False","SternbergTask.osexp","C:\Users\Simone\Desktop","False","mono","False","18","no","white","no","yes","768","legacy","20","11","C:/Users/Simone/Documents/SD-subject-4.csv","legacy","3 4 9 6 7 8","Melodramatic Milgram","4.0.5","0","n","0","right","right","left","right","NA","673.0","12957","1117","673","NA","2","legacy","6","1024","2","48000","-16","experiment","4","even","2","206079","202835","203875","1802","86437","203876","NA","1803","85320","208081","208755","204878","14761","208081","NA","Sternberg Task","33","20143.0","33","1024"
"100","100","609","609","#000000","experiment","legacy","legacy","legacy","1","undefined","1","right","33","33","33","0","0","33","33","0","0","33","33","33","0","33","0","Tue Oct 17 15:42:51 2023","The main experiment item","False","SternbergTask.osexp","C:\Users\Simone\Desktop","False","mono","False","18","no","white","no","yes","768","legacy","21","11","C:/Users/Simone/Documents/SD-subject-4.csv","legacy","9","Melodramatic Milgram","4.0.5","0","n","0","right","right","left","right","NA","575.0","12957","1117","575","NA","2","legacy","1","1024","2","48000","-16","experiment","4","even","6","212004","208760","209799","1802","86437","209801","NA","1803","85320","214006","214582","210802","14761","214005","NA","Sternberg Task","34","20718.0","34","1024"
"100","100","612","612","#000000","experiment","legacy","legacy","legacy","1","undefined","1","right","34","34","34","0","0","34","34","0","0","34","34","34","0","34","0","Tue Oct 17 15:42:51 2023","The main experiment item","False","SternbergTask.osexp","C:\Users\Simone\Desktop","False","mono","False","18","no","white","no","yes","768","legacy","22","11","C:/Users/Simone/Documents/SD-subject-4.csv","legacy","4 1","Melodramatic Milgram","4.0.5","0","n","0","right","right","left","right","NA","724.0","12957","1117","724","NA","2","legacy","2","1024","2","48000","-16","experiment","4","even","6","217833","214593","215629","1802","86437","215631","NA","1803","85320","219835","220560","216632","14761","219835","NA","Sternberg Task","35","21442.0","35","1024"
"100","100","612","612","#000000","experiment","legacy","legacy","legacy","1","undefined","1","right","35","35","35","0","0","35","35","0","0","35","35","35","0","35","0","Tue Oct 17 15:42:51 2023","The main experiment item","False","SternbergTask.osexp","C:\Users\Simone\Desktop","False","mono","False","18","no","white","no","yes","768","legacy","23","11","C:/Users/Simone/Documents/SD-subject-4.csv","legacy","7 1 8 4 9 3","Melodramatic Milgram","4.0.5","0","n","0","right","right","left","right","NA","603.0","12957","1117","603","NA","2","legacy","6","1024","2","48000","-16","experiment","4","even","6","223810","220564","221606","1802","86437","221607","NA","1803","85320","225811","226415","222608","14761","225811","NA","Sternberg Task","36","22045.0","36","1024"
"100","100","611","611","#000000","experiment","legacy","legacy","legacy","1","undefined","1","right","36","36","36","0","0","36","36","0","0","36","36","36","0","36","0","Tue Oct 17 15:42:51 2023","The main experiment item","False","SternbergTask.osexp","C:\Users\Simone\Desktop","False","mono","False","18","no","white","no","yes","768","legacy","24","11","C:/Users/Simone/Documents/SD-subject-4.csv","legacy","2 5 1 4","Melodramatic Milgram","4.0.5","0","n","0","right","right","left","right","NA","597.0","12957","1117","597","NA","2","legacy","4","1024","2","48000","-16","experiment","4","even","6","229671","226420","227464","1802","86437","227466","NA","1803","85320","231672","232270","228469","14761","231672","NA","Sternberg Task","37","22642.0","37","1024"
"100","100","610","610","#000000","experiment","legacy","legacy","legacy","1","undefined","1","right","37","37","37","0","0","37","37","0","0","37","37","37","0","37","0","Tue Oct 17 15:42:51 2023","The main experiment item","False","SternbergTask.osexp","C:\Users\Simone\Desktop","False","mono","False","18","no","white","no","yes","768","legacy","25","11","C:/Users/Simone/Documents/SD-subject-4.csv","legacy","8 5 7 3 6","Melodramatic Milgram","4.0.5","0","n","0","right","right","left","right","NA","567.0","12957","1117","567","NA","2","legacy","5","1024","2","48000","-16","experiment","4","even","9","235522","232273","233319","1802","86437","233320","NA","1803","85320","237524","238091","234321","14761","237523","NA","Sternberg Task","38","23209.0","38","1024"
"100","100","608","608","#000000","experiment","legacy","legacy","legacy","1","undefined","1","right","38","38","38","0","0","38","38","0","0","38","38","38","0","38","0","Tue Oct 17 15:42:51 2023","The main experiment item","False","SternbergTask.osexp","C:\Users\Simone\Desktop","False","mono","False","18","no","white","no","yes","768","legacy","26","11","C:/Users/Simone/Documents/SD-subject-4.csv","legacy","5 9 2 3","Melodramatic Milgram","4.0.5","0","n","0","right","right","left","right","NA","527.0","12957","1117","527","NA","2","legacy","4","1024","2","48000","-16","experiment","4","even","8","241354","238096","239150","1802","86437","239152","NA","1803","85320","243357","243884","240153","14761","243357","NA","Sternberg Task","39","23736.0","39","1024"
"100","100","609","609","#000000","experiment","legacy","legacy","legacy","1","undefined","1","right","39","39","39","0","0","39","39","0","0","39","39","39","0","39","0","Tue Oct 17 15:42:51 2023","The main experiment item","False","SternbergTask.osexp","C:\Users\Simone\Desktop","False","mono","False","18","no","white","no","yes","768","legacy","27","11","C:/Users/Simone/Documents/SD-subject-4.csv","legacy","3 9 8 1 6 4","Melodramatic Milgram","4.0.5","0","n","0","right","right","left","right","NA","643.0","12957","1117","643","NA","2","legacy","6","1024","2","48000","-16","experiment","4","even","7","247135","243889","244931","1802","86437","244933","NA","1803","85320","249136","249780","245934","14761","249136","NA","Sternberg Task","40","24379.0","40","1024"
"100","100","608","608","#000000","experiment","legacy","legacy","legacy","1","undefined","1","right","40","40","40","0","0","40","40","0","0","40","40","40","0","40","0","Tue Oct 17 15:42:51 2023","The main experiment item","False","SternbergTask.osexp","C:\Users\Simone\Desktop","False","mono","False","18","no","white","no","yes","768","legacy","28","11","C:/Users/Simone/Documents/SD-subject-4.csv","legacy","6 8","Melodramatic Milgram","4.0.5","0","n","0","right","right","left","right","NA","557.0","12957","1117","557","NA","2","legacy","2","1024","2","48000","-16","experiment","4","even","9","253039","249783","250835","1802","86437","250837","NA","1803","85320","255041","255599","251838","14761","255041","NA","Sternberg Task","41","24936.0","41","1024"
"100","100","606","606","#000000","experiment","legacy","legacy","legacy","1","undefined","1","right","41","41","41","0","0","41","41","0","0","41","41","41","0","41","0","Tue Oct 17 15:42:51 2023","The main experiment item","False","SternbergTask.osexp","C:\Users\Simone\Desktop","False","mono","False","18","no","white","no","yes","768","legacy","29","11","C:/Users/Simone/Documents/SD-subject-4.csv","legacy","6 2 9 3 8 4","Melodramatic Milgram","4.0.5","0","n","0","right","right","left","right","NA","539.0","12957","1117","539","NA","2","legacy","6","1024","2","48000","-16","experiment","4","even","1","258846","255604","256643","1802","86437","256644","NA","1803","85320","260848","261387","257645","14761","260848","NA","Sternberg Task","42","25475.0","42","1024"
"100","100","609","609","#000000","experiment","legacy","legacy","legacy","1","undefined","1","right","42","42","42","0","0","42","42","0","0","42","42","42","0","42","0","Tue Oct 17 15:42:51 2023","The main experiment item","False","SternbergTask.osexp","C:\Users\Simone\Desktop","False","mono","False","18","no","white","no","yes","768","legacy","30","11","C:/Users/Simone/Documents/SD-subject-4.csv","legacy","8 2 1 4 5 9","Melodramatic Milgram","4.0.5","0","n","0","right","right","left","right","NA","732.0","12957","1117","732","NA","2","legacy","6","1024","2","48000","-16","experiment","4","even","7","264643","261392","262439","1802","86437","262440","NA","1803","85320","266645","267378","263442","14761","266644","NA","Sternberg Task","43","26207.0","43","1024"
"100","100","609","609","#000000","experiment","legacy","legacy","legacy","1","undefined","1","right","43","43","43","0","0","43","43","0","0","43","43","43","0","43","0","Tue Oct 17 15:42:51 2023","The main experiment item","False","SternbergTask.osexp","C:\Users\Simone\Desktop","False","mono","False","18","no","white","no","yes","768","legacy","31","11","C:/Users/Simone/Documents/SD-subject-4.csv","legacy","6 7 5 9","Melodramatic Milgram","4.0.5","0","n","0","right","right","left","right","NA","624.0","12957","1117","624","NA","2","legacy","4","1024","2","48000","-16","experiment","4","even","2","270628","267383","268423","1802","86437","268425","NA","1803","85320","272630","273255","269426","14761","272629","NA","Sternberg Task","44","26831.0","44","1024"
"100","100","608","608","#000000","experiment","legacy","legacy","legacy","1","undefined","1","right","44","44","44","0","0","44","44","0","0","44","44","44","0","44","0","Tue Oct 17 15:42:51 2023","The main experiment item","False","SternbergTask.osexp","C:\Users\Simone\Desktop","False","mono","False","18","no","white","no","yes","768","legacy","32","11","C:/Users/Simone/Documents/SD-subject-4.csv","legacy","8 4 3 5","Melodramatic Milgram","4.0.5","0","n","0","right","right","left","right","NA","563.0","12957","1117","563","NA","2","legacy","4","1024","2","48000","-16","experiment","4","even","6","276511","273260","274307","1802","86437","274308","NA","1803","85320","278512","279076","275309","14761","278512","NA","Sternberg Task","45","27394.0","45","1024"
"100","100","609","609","#000000","experiment","legacy","legacy","legacy","1","undefined","1","right","45","45","45","0","0","45","45","0","0","45","45","45","0","45","0","Tue Oct 17 15:42:51 2023","The main experiment item","False","SternbergTask.osexp","C:\Users\Simone\Desktop","False","mono","False","18","no","white","no","yes","768","legacy","33","11","C:/Users/Simone/Documents/SD-subject-4.csv","legacy","4 2 7 6 1 3","Melodramatic Milgram","4.0.5","0","n","0","right","right","left","right","NA","640.0","12957","1117","640","NA","2","legacy","6","1024","2","48000","-16","experiment","4","even","8","282334","279081","280130","1802","86437","280131","NA","1803","85320","284335","284975","281132","14761","284335","NA","Sternberg Task","46","28034.0","46","1024"
"100","100","611","611","#000000","experiment","legacy","legacy","legacy","1","undefined","1","right","46","46","46","0","0","46","46","0","0","46","46","46","0","46","0","Tue Oct 17 15:42:51 2023","The main experiment item","False","SternbergTask.osexp","C:\Users\Simone\Desktop","False","mono","False","18","no","white","no","yes","768","legacy","34","11","C:/Users/Simone/Documents/SD-subject-4.csv","legacy","2 7 5","Melodramatic Milgram","4.0.5","0","n","0","right","right","left","right","NA","691.0","12957","1117","691","NA","2","legacy","3","1024","2","48000","-16","experiment","4","even","8","288228","284980","286023","1802","86437","286024","NA","1803","85320","290229","290921","287026","14761","290229","NA","Sternberg Task","47","28725.0","47","1024"
"100","100","612","612","#000000","experiment","legacy","legacy","legacy","1","undefined","1","left","47","47","47","0","0","47","47","0","0","47","47","47","0","47","0","Tue Oct 17 15:42:51 2023","The main experiment item","False","SternbergTask.osexp","C:\Users\Simone\Desktop","False","mono","False","18","no","white","no","yes","768","legacy","35","11","C:/Users/Simone/Documents/SD-subject-4.csv","legacy","2 5 4 8 7","Melodramatic Milgram","4.0.5","3","y","0","left","right","left","left","NA","667.0","12957","1117","667","NA","2","legacy","5","1024","2","48000","-16","experiment","4","even","4","294182","290932","291978","1802","86437","291979","NA","1803","85320","296184","296852","292981","14761","296184","NA","Sternberg Task","48","29392.0","48","1024"
"100","100","610","610","#000000","experiment","legacy","legacy","legacy","1","undefined","1","left","48","48","48","0","0","48","48","0","0","48","48","48","0","48","0","Tue Oct 17 15:42:51 2023","The main experiment item","False","SternbergTask.osexp","C:\Users\Simone\Desktop","False","mono","False","18","no","white","no","yes","768","legacy","36","11","C:/Users/Simone/Documents/SD-subject-4.csv","legacy","3 4 9 6 2 9","Melodramatic Milgram","4.0.5","5","y","0","left","right","left","left","NA","532.0","12957","1117","532","NA","2","legacy","6","1024","2","48000","-16","experiment","4","even","2","300102","296857","297898","1802","86437","297900","NA","1803","85320","302104","302636","298901","14761","302104","NA","Sternberg Task","49","29924.0","49","1024"
"100","100","608","608","#000000","experiment","legacy","legacy","legacy","1","undefined","1","left","49","49","49","0","0","49","49","0","0","49","49","49","0","49","0","Tue Oct 17 15:42:51 2023","The main experiment item","False","SternbergTask.osexp","C:\Users\Simone\Desktop","False","mono","False","18","no","white","no","yes","768","legacy","37","11","C:/Users/Simone/Documents/SD-subject-4.csv","legacy","9 1 7 2","Melodramatic Milgram","4.0.5","2","y","0","left","right","left","left","NA","512.0","12957","1117","512","NA","2","legacy","4","1024","2","48000","-16","experiment","4","even","1","305884","302641","303681","1802","86437","303682","NA","1803","85320","307885","308398","304683","14761","307885","NA","Sternberg Task","50","30436.0","50","1024"
"100","100","610","610","#000000","experiment","legacy","legacy","legacy","1","undefined","1","left","50","50","50","0","0","50","50","0","0","50","50","50","0","50","0","Tue Oct 17 15:42:51 2023","The main experiment item","False","SternbergTask.osexp","C:\Users\Simone\Desktop","False","mono","False","18","no","white","no","yes","768","legacy","38","11","C:/Users/Simone/Documents/SD-subject-4.csv","legacy","9 3 1 2 5","Melodramatic Milgram","4.0.5","4","y","0","left","right","left","left","NA","715.0","12957","1117","715","NA","2","legacy","5","1024","2","48000","-16","experiment","4","even","2","311648","308403","309444","1802","86437","309445","NA","1803","85320","313649","314365","310446","14761","313649","NA","Sternberg Task","51","31151.0","51","1024"
"100","100","611","611","#000000","experiment","legacy","legacy","legacy","1","undefined","1","right","51","51","51","0","0","51","51","0","0","51","51","51","0","51","0","Tue Oct 17 15:42:51 2023","The main experiment item","False","SternbergTask.osexp","C:\Users\Simone\Desktop","False","mono","False","18","no","white","no","yes","768","legacy","39","11","C:/Users/Simone/Documents/SD-subject-4.csv","legacy","1 7 8 3 9","Melodramatic Milgram","4.0.5","0","n","0","right","right","left","right","NA","661.0","12957","1117","661","NA","2","legacy","5","1024","2","48000","-16","experiment","4","even","2","317617","314369","315412","1802","86437","315413","NA","1803","85320","319618","320280","316414","14761","319618","NA","Sternberg Task","52","31812.0","52","1024"
"100","100","614","614","#000000","experiment","legacy","legacy","legacy","1","undefined","1","right","52","52","52","0","0","52","52","0","0","52","52","52","0","52","0","Tue Oct 17 15:42:51 2023","The main experiment item","False","SternbergTask.osexp","C:\Users\Simone\Desktop","False","mono","False","18","no","white","no","yes","768","legacy","40","11","C:/Users/Simone/Documents/SD-subject-4.csv","legacy","2 8 7 9 5 3","Melodramatic Milgram","4.0.5","0","n","0","right","right","left","right","NA","761.0","12957","1117","761","NA","2","legacy","6","1024","2","48000","-16","experiment","4","even","6","323544","320291","321340","1802","86437","321341","NA","1803","85320","325545","326307","322342","14761","325545","NA","Sternberg Task","53","32573.0","53","1024"
"100","100","613","613","#000000","experiment","legacy","legacy","legacy","1","undefined","1","left","53","53","53","0","0","53","53","0","0","53","53","53","0","53","0","Tue Oct 17 15:42:51 2023","The main experiment item","False","SternbergTask.osexp","C:\Users\Simone\Desktop","False","mono","False","18","no","white","no","yes","768","legacy","41","11","C:/Users/Simone/Documents/SD-subject-4.csv","legacy","6 1 2","Melodramatic Milgram","4.0.5","3","y","0","left","right","left","left","NA","541.0","12957","1117","541","NA","2","legacy","3","1024","2","48000","-16","experiment","4","even","2","329572","326318","327368","1802","86437","327370","NA","1803","85320","331574","332115","328371","14761","331574","NA","Sternberg Task","54","33114.0","54","1024"
"100","100","612","612","#000000","experiment","legacy","legacy","legacy","1","undefined","1","left","54","54","54","0","0","54","54","0","0","54","54","54","0","54","0","Tue Oct 17 15:42:51 2023","The main experiment item","False","SternbergTask.osexp","C:\Users\Simone\Desktop","False","mono","False","18","no","white","no","yes","768","legacy","42","11","C:/Users/Simone/Documents/SD-subject-4.csv","legacy","7 6","Melodramatic Milgram","4.0.5","2","y","0","left","right","left","left","NA","550.0","12957","1117","550","NA","2","legacy","2","1024","2","48000","-16","experiment","4","even","6","335364","332119","333161","1802","86437","333162","NA","1803","85320","337366","337917","334163","14761","337365","NA","Sternberg Task","55","33664.0","55","1024"
"100","100","616","616","#000000","experiment","legacy","legacy","legacy","1","undefined","1","right","55","55","55","0","0","55","55","0","0","55","55","55","0","55","0","Tue Oct 17 15:42:51 2023","The main experiment item","False","SternbergTask.osexp","C:\Users\Simone\Desktop","False","mono","False","18","no","white","no","yes","768","legacy","43","11","C:/Users/Simone/Documents/SD-subject-4.csv","legacy","1 4 9 2 5","Melodramatic Milgram","4.0.5","0","n","0","right","right","left","right","NA","837.0","12957","1117","837","NA","2","legacy","5","1024","2","48000","-16","experiment","4","even","7","341162","337921","338958","1802","86437","338959","NA","1803","85320","343163","344000","339960","14761","343163","NA","Sternberg Task","56","34501.0","56","1024"
"100","100","616","616","#000000","experiment","legacy","legacy","legacy","1","undefined","1","left","56","56","56","0","0","56","56","0","0","56","56","56","0","56","0","Tue Oct 17 15:42:51 2023","The main experiment item","False","SternbergTask.osexp","C:\Users\Simone\Desktop","False","mono","False","18","no","white","no","yes","768","legacy","44","11","C:/Users/Simone/Documents/SD-subject-4.csv","legacy","3 5 7 1","Melodramatic Milgram","4.0.5","3","y","0","left","right","left","left","NA","658.0","12957","1117","658","NA","2","legacy","4","1024","2","48000","-16","experiment","4","even","7","347257","344005","345053","1802","86437","345055","NA","1803","85320","349259","349917","346056","14761","349259","NA","Sternberg Task","57","35159.0","57","1024"
"98","98","617","617","#000000","experiment","legacy","legacy","legacy","0","undefined","0","left","57","57","57","0","0","57","57","0","0","57","57","57","0","57","0","Tue Oct 17 15:42:51 2023","The main experiment item","False","SternbergTask.osexp","C:\Users\Simone\Desktop","False","mono","False","18","no","white","no","yes","768","legacy","45","11","C:/Users/Simone/Documents/SD-subject-4.csv","legacy","6 9 7 4 5 1","Melodramatic Milgram","4.0.5","2","y","0","right","right","left","right","NA","684.0","12957","1117","684","NA","2","legacy","6","1024","2","48000","-16","experiment","4","even","9","353169","349922","350965","1802","86437","350967","NA","1803","85320","355171","355856","351968","14761","355171","NA","Sternberg Task","57","35843.0","58","1024"
"98","98","616","616","#000000","experiment","legacy","legacy","legacy","1","undefined","1","left","58","58","58","0","0","58","58","0","0","58","58","58","0","58","0","Tue Oct 17 15:42:51 2023","The main experiment item","False","SternbergTask.osexp","C:\Users\Simone\Desktop","False","mono","False","18","no","white","no","yes","768","legacy","46","11","C:/Users/Simone/Documents/SD-subject-4.csv","legacy","5 2 6","Melodramatic Milgram","4.0.5","2","y","0","left","right","left","left","NA","546.0","12957","1117","546","NA","2","legacy","3","1024","2","48000","-16","experiment","4","even","2","359113","349922","356909","1802","86437","356910","355861","1803","85320","361114","361661","357912","14761","361114","NA","Sternberg Task","58","36389.0","59","1024"
"98","98","620","620","#000000","experiment","legacy","legacy","legacy","1","undefined","1","left","59","59","59","0","0","59","59","0","0","59","59","59","0","59","0","Tue Oct 17 15:42:51 2023","The main experiment item","False","SternbergTask.osexp","C:\Users\Simone\Desktop","False","mono","False","18","no","white","no","yes","768","legacy","47","11","C:/Users/Simone/Documents/SD-subject-4.csv","legacy","4 7 6 8 2 3","Melodramatic Milgram","4.0.5","6","y","0","left","right","left","left","NA","822.0","12957","1117","822","NA","2","legacy","6","1024","2","48000","-16","experiment","4","even","3","364917","361666","362713","1802","86437","362714","355861","1803","85320","366918","367741","363715","14761","366918","NA","Sternberg Task","59","37211.0","60","1024"
"96","96","618","618","#000000","experiment","legacy","legacy","legacy","0","undefined","0","left","60","60","60","0","0","60","60","0","0","60","60","60","0","60","0","Tue Oct 17 15:42:51 2023","The main experiment item","False","SternbergTask.osexp","C:\Users\Simone\Desktop","False","mono","False","18","no","white","no","yes","768","legacy","48","11","C:/Users/Simone/Documents/SD-subject-4.csv","legacy","8 9 6 1","Melodramatic Milgram","4.0.5","2","y","0","right","right","left","right","NA","516.0","12957","1117","516","NA","2","legacy","4","1024","2","48000","-16","experiment","4","even","9","370999","367752","368795","1802","86437","368796","355861","1803","85320","373000","373517","369798","14761","373000","NA","Sternberg Task","59","37727.0","61","1024"
"96","96","619","619","#000000","experiment","legacy","legacy","legacy","1","undefined","1","right","61","61","61","0","0","61","61","0","0","61","61","61","0","61","0","Tue Oct 17 15:42:51 2023","The main experiment item","False","SternbergTask.osexp","C:\Users\Simone\Desktop","False","mono","False","18","no","white","no","yes","768","legacy","49","11","C:/Users/Simone/Documents/SD-subject-4.csv","legacy","6 3 1 7 9 8","Melodramatic Milgram","4.0.5","0","n","0","right","right","left","right","NA","701.0","12957","1117","701","NA","2","legacy","6","1024","2","48000","-16","experiment","4","even","4","376771","367752","374567","1802","86437","374568","373522","1803","85320","378772","379473","375569","14761","378772","NA","Sternberg Task","60","38428.0","62","1024"
"96","96","617","617","#000000","experiment","legacy","legacy","legacy","1","undefined","1","left","62","62","62","0","0","62","62","0","0","62","62","62","0","62","0","Tue Oct 17 15:42:51 2023","The main experiment item","False","SternbergTask.osexp","C:\Users\Simone\Desktop","False","mono","False","18","no","white","no","yes","768","legacy","50","11","C:/Users/Simone/Documents/SD-subject-4.csv","legacy","4 9 7 8 5 3","Melodramatic Milgram","4.0.5","4","y","0","left","right","left","left","NA","494.0","12957","1117","494","NA","2","legacy","6","1024","2","48000","-16","experiment","4","even","8","382718","379478","380514","1802","86437","380515","373522","1803","85320","384719","385214","381516","14761","384719","NA","Sternberg Task","61","38922.0","63","1024"
"96","96","616","616","#000000","experiment","legacy","legacy","legacy","1","undefined","1","left","63","63","63","0","0","63","63","0","0","63","63","63","0","63","0","Tue Oct 17 15:42:51 2023","The main experiment item","False","SternbergTask.osexp","C:\Users\Simone\Desktop","False","mono","False","18","no","white","no","yes","768","legacy","51","11","C:/Users/Simone/Documents/SD-subject-4.csv","legacy","3 5 4 7","Melodramatic Milgram","4.0.5","1","y","0","left","right","left","left","NA","536.0","12957","1117","536","NA","2","legacy","4","1024","2","48000","-16","experiment","4","even","3","388459","385218","386255","1802","86437","386256","373522","1803","85320","390460","390996","387258","14761","390460","NA","Sternberg Task","62","39458.0","64","1024"
"96","96","618","618","#000000","experiment","legacy","legacy","legacy","1","undefined","1","right","64","64","64","0","0","64","64","0","0","64","64","64","0","64","0","Tue Oct 17 15:42:51 2023","The main experiment item","False","SternbergTask.osexp","C:\Users\Simone\Desktop","False","mono","False","18","no","white","no","yes","768","legacy","52","11","C:/Users/Simone/Documents/SD-subject-4.csv","legacy","9 8 2 7 4","Melodramatic Milgram","4.0.5","0","n","0","right","right","left","right","NA","717.0","12957","1117","717","NA","2","legacy","5","1024","2","48000","-16","experiment","4","even","5","394249","391002","392043","1802","86437","392045","373522","1803","85320","396250","396967","393048","14761","396250","NA","Sternberg Task","63","40175.0","65","1024"
"96","96","619","619","#000000","experiment","legacy","legacy","legacy","1","undefined","1","right","65","65","65","0","0","65","65","0","0","65","65","65","0","65","0","Tue Oct 17 15:42:51 2023","The main experiment item","False","SternbergTask.osexp","C:\Users\Simone\Desktop","False","mono","False","18","no","white","no","yes","768","legacy","53","11","C:/Users/Simone/Documents/SD-subject-4.csv","legacy","1 4 3 6 5","Melodramatic Milgram","4.0.5","0","n","0","right","right","left","right","NA","688.0","12957","1117","688","NA","2","legacy","5","1024","2","48000","-16","experiment","4","even","8","400218","396972","398013","1802","86437","398015","373522","1803","85320","402219","402908","399016","14761","402219","NA","Sternberg Task","64","40863.0","66","1024"
"97","97","619","619","#000000","experiment","legacy","legacy","legacy","1","undefined","1","right","66","66","66","0","0","66","66","0","0","66","66","66","0","66","0","Tue Oct 17 15:42:51 2023","The main experiment item","False","SternbergTask.osexp","C:\Users\Simone\Desktop","False","mono","False","18","no","white","no","yes","768","legacy","54","11","C:/Users/Simone/Documents/SD-subject-4.csv","legacy","6 9 4 5 3 2","Melodramatic Milgram","4.0.5","0","n","0","right","right","left","right","NA","640.0","12957","1117","640","NA","2","legacy","6","1024","2","48000","-16","experiment","4","even","8","406153","402911","403949","1802","86437","403951","373522","1803","85320","408155","408796","404952","14761","408155","NA","Sternberg Task","65","41503.0","67","1024"
"97","97","620","620","#000000","experiment","legacy","legacy","legacy","1","undefined","1","right","67","67","67","0","0","67","67","0","0","67","67","67","0","67","0","Tue Oct 17 15:42:51 2023","The main experiment item","False","SternbergTask.osexp","C:\Users\Simone\Desktop","False","mono","False","18","no","white","no","yes","768","legacy","55","11","C:/Users/Simone/Documents/SD-subject-4.csv","legacy","2 3 8 5 6 7","Melodramatic Milgram","4.0.5","0","n","0","right","right","left","right","NA","690.0","12957","1117","690","NA","2","legacy","6","1024","2","48000","-16","experiment","4","even","1","412045","408801","409842","1802","86437","409843","373522","1803","85320","414046","414737","410844","14761","414046","NA","Sternberg Task","66","42193.0","68","1024"
"97","97","620","620","#000000","experiment","legacy","legacy","legacy","1","undefined","1","left","68","68","68","0","0","68","68","0","0","68","68","68","0","68","0","Tue Oct 17 15:42:51 2023","The main experiment item","False","SternbergTask.osexp","C:\Users\Simone\Desktop","False","mono","False","18","no","white","no","yes","768","legacy","56","11","C:/Users/Simone/Documents/SD-subject-4.csv","legacy","8 1 6","Melodramatic Milgram","4.0.5","3","y","0","left","right","left","left","NA","642.0","12957","1117","642","NA","2","legacy","3","1024","2","48000","-16","experiment","4","even","6","418000","414748","415796","1802","86437","415798","373522","1803","85320","420002","420645","416799","14761","420002","NA","Sternberg Task","67","42835.0","69","1024"
"97","97","619","619","#000000","experiment","legacy","legacy","legacy","1","undefined","1","left","69","69","69","0","0","69","69","0","0","69","69","69","0","69","0","Tue Oct 17 15:42:51 2023","The main experiment item","False","SternbergTask.osexp","C:\Users\Simone\Desktop","False","mono","False","18","no","white","no","yes","768","legacy","57","11","C:/Users/Simone/Documents/SD-subject-4.csv","legacy","2 8 5 1","Melodramatic Milgram","4.0.5","4","y","0","left","right","left","left","NA","554.0","12957","1117","554","NA","2","legacy","4","1024","2","48000","-16","experiment","4","even","1","423903","420650","421699","1802","86437","421700","373522","1803","85320","425904","426459","422701","14761","425904","NA","Sternberg Task","68","43389.0","70","1024"
"97","97","619","619","#000000","experiment","legacy","legacy","legacy","1","undefined","1","left","70","70","70","0","0","70","70","0","0","70","70","70","0","70","0","Tue Oct 17 15:42:51 2023","The main experiment item","False","SternbergTask.osexp","C:\Users\Simone\Desktop","False","mono","False","18","no","white","no","yes","768","legacy","58","11","C:/Users/Simone/Documents/SD-subject-4.csv","legacy","3 2 1 4 7","Melodramatic Milgram","4.0.5","2","y","0","left","right","left","left","NA","607.0","12957","1117","607","NA","2","legacy","5","1024","2","48000","-16","experiment","4","even","2","429710","426464","427506","1802","86437","427508","373522","1803","85320","431711","432319","428509","14761","431711","NA","Sternberg Task","69","43996.0","71","1024"
"97","97","618","618","#000000","experiment","legacy","legacy","legacy","1","undefined","1","left","71","71","71","0","0","71","71","0","0","71","71","71","0","71","0","Tue Oct 17 15:42:51 2023","The main experiment item","False","SternbergTask.osexp","C:\Users\Simone\Desktop","False","mono","False","18","no","white","no","yes","768","legacy","59","11","C:/Users/Simone/Documents/SD-subject-4.csv","legacy","2 4 8 5 1 3","Melodramatic Milgram","4.0.5","1","y","0","left","right","left","left","NA","550.0","12957","1117","550","NA","2","legacy","6","1024","2","48000","-16","experiment","4","even","2","435566","432324","433362","1802","86437","433363","373522","1803","85320","437567","438118","434364","14761","437567","NA","Sternberg Task","70","44546.0","72","1024"
"97","97","615","615","#000000","experiment","legacy","legacy","legacy","1","undefined","1","left","72","72","72","0","0","72","72","0","0","72","72","72","0","72","0","Tue Oct 17 15:42:51 2023","The main experiment item","False","SternbergTask.osexp","C:\Users\Simone\Desktop","False","mono","False","18","no","white","no","yes","768","legacy","60","11","C:/Users/Simone/Documents/SD-subject-4.csv","legacy","6 8 9 3 4 9","Melodramatic Milgram","4.0.5","5","y","0","left","right","left","left","NA","409.0","12957","1117","409","NA","2","legacy","6","1024","2","48000","-16","experiment","4","even","4","441363","438123","439159","1802","86437","439160","373522","1803","85320","443365","443774","440161","14761","443364","NA","Sternberg Task","71","44955.0","73","1024"
"97","97","614","614","#000000","experiment","legacy","legacy","legacy","1","undefined","1","right","73","73","73","0","0","73","73","0","0","73","73","73","0","73","0","Tue Oct 17 15:42:51 2023","The main experiment item","False","SternbergTask.osexp","C:\Users\Simone\Desktop","False","mono","False","18","no","white","no","yes","768","legacy","61","11","C:/Users/Simone/Documents/SD-subject-4.csv","legacy","6 9 4 5 2","Melodramatic Milgram","4.0.5","0","n","0","right","right","left","right","NA","515.0","12957","1117","515","NA","2","legacy","5","1024","2","48000","-16","experiment","4","even","1","447030","443777","444825","1802","86437","444827","373522","1803","85320","449031","449547","445828","14761","449031","NA","Sternberg Task","72","45470.0","74","1024"
"97","97","612","612","#000000","experiment","legacy","legacy","legacy","1","undefined","1","left","74","74","74","0","0","74","74","0","0","74","74","74","0","74","0","Tue Oct 17 15:42:51 2023","The main experiment item","False","SternbergTask.osexp","C:\Users\Simone\Desktop","False","mono","False","18","no","white","no","yes","768","legacy","62","11","C:/Users/Simone/Documents/SD-subject-4.csv","legacy","2 3 7 4","Melodramatic Milgram","4.0.5","1","y","0","left","right","left","left","NA","499.0","12957","1117","499","NA","2","legacy","4","1024","2","48000","-16","experiment","4","even","2","452799","449558","450595","1802","86437","450597","373522","1803","85320","454801","455301","451598","14761","454801","NA","Sternberg Task","73","45969.0","75","1024"
"97","97","613","613","#000000","experiment","legacy","legacy","legacy","1","undefined","1","right","75","75","75","0","0","75","75","0","0","75","75","75","0","75","0","Tue Oct 17 15:42:51 2023","The main experiment item","False","SternbergTask.osexp","C:\Users\Simone\Desktop","False","mono","False","18","no","white","no","yes","768","legacy","63","11","C:/Users/Simone/Documents/SD-subject-4.csv","legacy","1","Melodramatic Milgram","4.0.5","0","n","0","right","right","left","right","NA","624.0","12957","1117","624","NA","2","legacy","1","1024","2","48000","-16","experiment","4","even","7","458552","455306","456349","1802","86437","456350","373522","1803","85320","460553","461177","457351","14761","460553","NA","Sternberg Task","74","46593.0","76","1024"
"97","97","613","613","#000000","experiment","legacy","legacy","legacy","1","undefined","1","right","76","76","76","0","0","76","76","0","0","76","76","76","0","76","0","Tue Oct 17 15:42:51 2023","The main experiment item","False","SternbergTask.osexp","C:\Users\Simone\Desktop","False","mono","False","18","no","white","no","yes","768","legacy","64","11","C:/Users/Simone/Documents/SD-subject-4.csv","legacy","5 3 8 7 2 4","Melodramatic Milgram","4.0.5","0","n","0","right","right","left","right","NA","624.0","12957","1117","624","NA","2","legacy","6","1024","2","48000","-16","experiment","4","even","9","464442","461182","462238","1802","86437","462239","373522","1803","85320","466444","467069","463241","14761","466444","NA","Sternberg Task","75","47217.0","77","1024"
"97","97","614","614","#000000","experiment","legacy","legacy","legacy","1","undefined","1","right","77","77","77","0","0","77","77","0","0","77","77","77","0","77","0","Tue Oct 17 15:42:51 2023","The main experiment item","False","SternbergTask.osexp","C:\Users\Simone\Desktop","False","mono","False","18","no","white","no","yes","768","legacy","65","11","C:/Users/Simone/Documents/SD-subject-4.csv","legacy","7 9 1 6","Melodramatic Milgram","4.0.5","0","n","0","right","right","left","right","NA","711.0","12957","1117","711","NA","2","legacy","4","1024","2","48000","-16","experiment","4","even","4","470317","467074","468112","1802","86437","468113","373522","1803","85320","472318","473029","469114","14761","472318","NA","Sternberg Task","76","47928.0","78","1024"
"97","97","616","616","#000000","experiment","legacy","legacy","legacy","1","undefined","1","left","78","78","78","0","0","78","78","0","0","78","78","78","0","78","0","Tue Oct 17 15:42:51 2023","The main experiment item","False","SternbergTask.osexp","C:\Users\Simone\Desktop","False","mono","False","18","no","white","no","yes","768","legacy","66","11","C:/Users/Simone/Documents/SD-subject-4.csv","legacy","3 9 6 2","Melodramatic Milgram","4.0.5","4","y","0","left","right","left","left","NA","747.0","12957","1117","747","NA","2","legacy","4","1024","2","48000","-16","experiment","4","even","2","476279","473034","474075","1802","86437","474077","373522","1803","85320","478281","479029","475078","14761","478281","NA","Sternberg Task","77","48675.0","79","1024"
"97","97","622","622","#000000","experiment","legacy","legacy","legacy","1","undefined","1","right","79","79","79","0","0","79","79","0","0","79","79","79","0","79","0","Tue Oct 17 15:42:51 2023","The main experiment item","False","SternbergTask.osexp","C:\Users\Simone\Desktop","False","mono","False","18","no","white","no","yes","768","legacy","67","11","C:/Users/Simone/Documents/SD-subject-4.csv","legacy","1 4 9 3","Melodramatic Milgram","4.0.5","0","n","0","right","right","left","right","NA","1124.0","12957","1117","1124","NA","2","legacy","4","1024","2","48000","-16","experiment","4","even","5","482279","479035","480074","1802","86437","480076","373522","1803","85320","484280","485405","481078","14761","484280","NA","Sternberg Task","78","49799.0","80","1024"
"97","97","620","620","#000000","experiment","legacy","legacy","legacy","1","undefined","1","left","80","80","80","0","0","80","80","0","0","80","80","80","0","80","0","Tue Oct 17 15:42:51 2023","The main experiment item","False","SternbergTask.osexp","C:\Users\Simone\Desktop","False","mono","False","18","no","white","no","yes","768","legacy","68","11","C:/Users/Simone/Documents/SD-subject-4.csv","legacy","7","Melodramatic Milgram","4.0.5","1","y","0","left","right","left","left","NA","422.0","12957","1117","422","NA","2","legacy","1","1024","2","48000","-16","experiment","4","even","7","488654","485410","486450","1802","86437","486451","373522","1803","85320","490655","491078","487452","14761","490655","NA","Sternberg Task","79","50221.0","81","1024"
"97","97","618","618","#000000","experiment","legacy","legacy","legacy","1","undefined","1","left","81","81","81","0","0","81","81","0","0","81","81","81","0","81","0","Tue Oct 17 15:42:51 2023","The main experiment item","False","SternbergTask.osexp","C:\Users\Simone\Desktop","False","mono","False","18","no","white","no","yes","768","legacy","69","11","C:/Users/Simone/Documents/SD-subject-4.csv","legacy","8","Melodramatic Milgram","4.0.5","1","y","0","left","right","left","left","NA","477.0","12957","1117","477","NA","2","legacy","1","1024","2","48000","-16","experiment","4","even","8","494323","491083","492120","1802","86437","492121","373522","1803","85320","496325","496804","493122","14761","496325","NA","Sternberg Task","80","50698.0","82","1024"
"97","97","616","616","#000000","experiment","legacy","legacy","legacy","1","undefined","1","left","82","82","82","0","0","82","82","0","0","82","82","82","0","82","0","Tue Oct 17 15:42:51 2023","The main experiment item","False","SternbergTask.osexp","C:\Users\Simone\Desktop","False","mono","False","18","no","white","no","yes","768","legacy","70","11","C:/Users/Simone/Documents/SD-subject-4.csv","legacy","4 1 5","Melodramatic Milgram","4.0.5","2","y","0","left","right","left","left","NA","455.0","12957","1117","455","NA","2","legacy","3","1024","2","48000","-16","experiment","4","even","1","500057","496808","497852","1802","86437","497854","373522","1803","85320","502058","502514","498855","14761","502058","NA","Sternberg Task","81","51153.0","83","1024"
"97","97","616","616","#000000","experiment","legacy","legacy","legacy","1","undefined","1","right","83","83","83","0","0","83","83","0","0","83","83","83","0","83","0","Tue Oct 17 15:42:51 2023","The main experiment item","False","SternbergTask.osexp","C:\Users\Simone\Desktop","False","mono","False","18","no","white","no","yes","768","legacy","71","11","C:/Users/Simone/Documents/SD-subject-4.csv","legacy","5 3 2 6 9 8","Melodramatic Milgram","4.0.5","0","n","0","right","right","left","right","NA","670.0","12957","1117","670","NA","2","legacy","6","1024","2","48000","-16","experiment","4","even","4","505770","502518","503567","1802","86437","503568","373522","1803","85320","507772","508443","504569","14761","507772","NA","Sternberg Task","82","51823.0","84","1024"
"97","97","618","618","#000000","experiment","legacy","legacy","legacy","1","undefined","1","left","84","84","84","0","0","84","84","0","0","84","84","84","0","84","0","Tue Oct 17 15:42:51 2023","The main experiment item","False","SternbergTask.osexp","C:\Users\Simone\Desktop","False","mono","False","18","no","white","no","yes","768","legacy","72","11","C:/Users/Simone/Documents/SD-subject-4.csv","legacy","5 2 9 6 1 7","Melodramatic Milgram","4.0.5","3","y","0","left","right","left","left","NA","750.0","12957","1117","750","NA","2","legacy","6","1024","2","48000","-16","experiment","4","even","9","511696","508448","509493","1802","86437","509494","373522","1803","85320","513698","514449","510495","14761","513698","NA","Sternberg Task","83","52573.0","85","1024"
"97","97","617","617","#000000","experiment","legacy","legacy","legacy","1","undefined","1","right","85","85","85","0","0","85","85","0","0","85","85","85","0","85","0","Tue Oct 17 15:42:51 2023","The main experiment item","False","SternbergTask.osexp","C:\Users\Simone\Desktop","False","mono","False","18","no","white","no","yes","768","legacy","73","11","C:/Users/Simone/Documents/SD-subject-4.csv","legacy","1 7 5 2 9","Melodramatic Milgram","4.0.5","0","n","0","right","right","left","right","NA","512.0","12957","1117","512","NA","2","legacy","5","1024","2","48000","-16","experiment","4","even","3","517701","514454","515498","1802","86437","515499","373522","1803","85320","519702","520215","516500","14761","519702","NA","Sternberg Task","84","53085.0","86","1024"
"97","97","616","616","#000000","experiment","legacy","legacy","legacy","1","undefined","1","left","86","86","86","0","0","86","86","0","0","86","86","86","0","86","0","Tue Oct 17 15:42:51 2023","The main experiment item","False","SternbergTask.osexp","C:\Users\Simone\Desktop","False","mono","False","18","no","white","no","yes","768","legacy","74","11","C:/Users/Simone/Documents/SD-subject-4.csv","legacy","3 4","Melodramatic Milgram","4.0.5","1","y","0","left","right","left","left","NA","559.0","12957","1117","559","NA","2","legacy","2","1024","2","48000","-16","experiment","4","even","3","523474","520220","521270","1802","86437","521272","373522","1803","85320","525476","526035","522273","14761","525476","NA","Sternberg Task","85","53644.0","87","1024"
"97","97","616","616","#000000","experiment","legacy","legacy","legacy","1","undefined","1","right","87","87","87","0","0","87","87","0","0","87","87","87","0","87","0","Tue Oct 17 15:42:51 2023","The main experiment item","False","SternbergTask.osexp","C:\Users\Simone\Desktop","False","mono","False","18","no","white","no","yes","768","legacy","75","11","C:/Users/Simone/Documents/SD-subject-4.csv","legacy","9 5 3 2 8 6","Melodramatic Milgram","4.0.5","0","n","0","right","right","left","right","NA","586.0","12957","1117","586","NA","2","legacy","6","1024","2","48000","-16","experiment","4","even","7","529290","526041","527086","1802","86437","527088","373522","1803","85320","531291","531878","528089","14761","531291","NA","Sternberg Task","86","54230.0","88","1024"
"97","97","618","618","#000000","experiment","legacy","legacy","legacy","1","undefined","1","right","88","88","88","0","0","88","88","0","0","88","88","88","0","88","0","Tue Oct 17 15:42:51 2023","The main experiment item","False","SternbergTask.osexp","C:\Users\Simone\Desktop","False","mono","False","18","no","white","no","yes","768","legacy","76","11","C:/Users/Simone/Documents/SD-subject-4.csv","legacy","7 8 6 1","Melodramatic Milgram","4.0.5","0","n","0","right","right","left","right","NA","814.0","12957","1117","814","NA","2","legacy","4","1024","2","48000","-16","experiment","4","even","3","535125","531884","532922","1802","86437","532923","373522","1803","85320","537126","537941","533924","14761","537126","NA","Sternberg Task","87","55044.0","89","1024"
"97","97","621","621","#000000","experiment","legacy","legacy","legacy","1","undefined","1","right","89","89","89","0","0","89","89","0","0","89","89","89","0","89","0","Tue Oct 17 15:42:51 2023","The main experiment item","False","SternbergTask.osexp","C:\Users\Simone\Desktop","False","mono","False","18","no","white","no","yes","768","legacy","77","11","C:/Users/Simone/Documents/SD-subject-4.csv","legacy","7 1","Melodramatic Milgram","4.0.5","0","n","0","right","right","left","right","NA","883.0","12957","1117","883","NA","2","legacy","2","1024","2","48000","-16","experiment","4","even","8","541190","537946","538986","1802","86437","538987","373522","1803","85320","543191","544075","539989","14761","543191","NA","Sternberg Task","88","55927.0","90","1024"
"97","97","621","621","#000000","experiment","legacy","legacy","legacy","1","undefined","1","left","90","90","90","0","0","90","90","0","0","90","90","90","0","90","0","Tue Oct 17 15:42:51 2023","The main experiment item","False","SternbergTask.osexp","C:\Users\Simone\Desktop","False","mono","False","18","no","white","no","yes","768","legacy","78","11","C:/Users/Simone/Documents/SD-subject-4.csv","legacy","8 5 3 7 4 6","Melodramatic Milgram","4.0.5","6","y","0","left","right","left","left","NA","603.0","12957","1117","603","NA","2","legacy","6","1024","2","48000","-16","experiment","4","even","6","547335","544080","545130","1802","86437","545132","373522","1803","85320","549337","549941","546133","14761","549336","NA","Sternberg Task","89","56530.0","91","1024"
"97","97","621","621","#000000","experiment","legacy","legacy","legacy","1","undefined","1","right","91","91","91","0","0","91","91","0","0","91","91","91","0","91","0","Tue Oct 17 15:42:51 2023","The main experiment item","False","SternbergTask.osexp","C:\Users\Simone\Desktop","False","mono","False","18","no","white","no","yes","768","legacy","79","11","C:/Users/Simone/Documents/SD-subject-4.csv","legacy","6 9 7 3 8 2","Melodramatic Milgram","4.0.5","0","n","0","right","right","left","right","NA","645.0","12957","1117","645","NA","2","legacy","6","1024","2","48000","-16","experiment","4","even","5","553214","549947","551010","1802","86437","551011","373522","1803","85320","555215","555861","552013","14761","555215","NA","Sternberg Task","90","57175.0","92","1024"
"97","97","619","619","#000000","experiment","legacy","legacy","legacy","1","undefined","1","left","92","92","92","0","0","92","92","0","0","92","92","92","0","92","0","Tue Oct 17 15:42:51 2023","The main experiment item","False","SternbergTask.osexp","C:\Users\Simone\Desktop","False","mono","False","18","no","white","no","yes","768","legacy","80","11","C:/Users/Simone/Documents/SD-subject-4.csv","legacy","6 2","Melodramatic Milgram","4.0.5","1","y","0","left","right","left","left","NA","458.0","12957","1117","458","NA","2","legacy","2","1024","2","48000","-16","experiment","4","even","6","559118","555866","556915","1802","86437","556916","373522","1803","85320","561120","561579","557917","14761","561120","NA","Sternberg Task","91","57633.0","93","1024"
"97","97","620","620","#000000","experiment","legacy","legacy","legacy","1","undefined","1","right","93","93","93","0","0","93","93","0","0","93","93","93","0","93","0","Tue Oct 17 15:42:51 2023","The main experiment item","False","SternbergTask.osexp","C:\Users\Simone\Desktop","False","mono","False","18","no","white","no","yes","768","legacy","81","11","C:/Users/Simone/Documents/SD-subject-4.csv","legacy","1 5 3 2 8","Melodramatic Milgram","4.0.5","0","n","0","right","right","left","right","NA","669.0","12957","1117","669","NA","2","legacy","5","1024","2","48000","-16","experiment","4","even","4","564828","561583","562623","1802","86437","562624","373522","1803","85320","566829","567498","563627","14761","566829","NA","Sternberg Task","92","58302.0","94","1024"
"97","97","619","619","#000000","experiment","legacy","legacy","legacy","1","undefined","1","left","94","94","94","0","0","94","94","0","0","94","94","94","0","94","0","Tue Oct 17 15:42:51 2023","The main experiment item","False","SternbergTask.osexp","C:\Users\Simone\Desktop","False","mono","False","18","no","white","no","yes","768","legacy","82","11","C:/Users/Simone/Documents/SD-subject-4.csv","legacy","4 1 8 7 5","Melodramatic Milgram","4.0.5","3","y","0","left","right","left","left","NA","568.0","12957","1117","568","NA","2","legacy","5","1024","2","48000","-16","experiment","4","even","8","570749","567503","568544","1802","86437","568546","373522","1803","85320","572750","573319","569547","14761","572750","NA","Sternberg Task","93","58870.0","95","1024"
"97","97","620","620","#000000","experiment","legacy","legacy","legacy","1","undefined","1","left","95","95","95","0","0","95","95","0","0","95","95","95","0","95","0","Tue Oct 17 15:42:51 2023","The main experiment item","False","SternbergTask.osexp","C:\Users\Simone\Desktop","False","mono","False","18","no","white","no","yes","768","legacy","83","11","C:/Users/Simone/Documents/SD-subject-4.csv","legacy","5 7 8 2 3 8","Melodramatic Milgram","4.0.5","5","y","0","left","right","left","left","NA","740.0","12957","1117","740","NA","2","legacy","6","1024","2","48000","-16","experiment","4","even","3","576572","573325","574366","1802","86437","574368","373522","1803","85320","578575","579316","575371","14761","578575","NA","Sternberg Task","94","59610.0","96","1024"
"97","97","619","619","#000000","experiment","legacy","legacy","legacy","1","undefined","1","left","96","96","96","0","0","96","96","0","0","96","96","96","0","96","0","Tue Oct 17 15:42:51 2023","The main experiment item","False","SternbergTask.osexp","C:\Users\Simone\Desktop","False","mono","False","18","no","white","no","yes","768","legacy","84","11","C:/Users/Simone/Documents/SD-subject-4.csv","legacy","3 5 9 6 2 4","Melodramatic Milgram","4.0.5","1","y","0","left","right","left","left","NA","499.0","12957","1117","499","NA","2","legacy","6","1024","2","48000","-16","experiment","4","even","3","582567","579321","580363","1802","86437","580364","373522","1803","85320","584569","585069","581365","14761","584569","NA","Sternberg Task","95","60109.0","97","1024"
"97","97","619","619","#000000","experiment","legacy","legacy","legacy","1","undefined","1","right","97","97","97","0","0","97","97","0","0","97","97","97","0","97","0","Tue Oct 17 15:42:51 2023","The main experiment item","False","SternbergTask.osexp","C:\Users\Simone\Desktop","False","mono","False","18","no","white","no","yes","768","legacy","85","11","C:/Users/Simone/Documents/SD-subject-4.csv","legacy","8 9","Melodramatic Milgram","4.0.5","0","n","0","right","right","left","right","NA","579.0","12957","1117","579","NA","2","legacy","2","1024","2","48000","-16","experiment","4","even","5","588324","585074","586121","1802","86437","586122","373522","1803","85320","590326","590906","587123","14761","590325","NA","Sternberg Task","96","60688.0","98","1024"
"97","97","619","619","#000000","experiment","legacy","legacy","legacy","1","undefined","1","left","98","98","98","0","0","98","98","0","0","98","98","98","0","98","0","Tue Oct 17 15:42:51 2023","The main experiment item","False","SternbergTask.osexp","C:\Users\Simone\Desktop","False","mono","False","18","no","white","no","yes","768","legacy","86","11","C:/Users/Simone/Documents/SD-subject-4.csv","legacy","6 5","Melodramatic Milgram","4.0.5","2","y","0","left","right","left","left","NA","596.0","12957","1117","596","NA","2","legacy","2","1024","2","48000","-16","experiment","4","even","5","594164","590910","591959","1802","86437","591961","373522","1803","85320","596165","596762","592962","14761","596165","NA","Sternberg Task","97","61284.0","99","1024"
"98","98","618","618","#000000","experiment","legacy","legacy","legacy","1","undefined","1","left","99","99","99","0","0","99","99","0","0","99","99","99","0","99","0","Tue Oct 17 15:42:51 2023","The main experiment item","False","SternbergTask.osexp","C:\Users\Simone\Desktop","False","mono","False","18","no","white","no","yes","768","legacy","87","11","C:/Users/Simone/Documents/SD-subject-4.csv","legacy","9 5 3 8 4","Melodramatic Milgram","4.0.5","1","y","0","left","right","left","left","NA","598.0","12957","1117","598","NA","2","legacy","5","1024","2","48000","-16","experiment","4","even","9","600013","596767","597807","1802","86437","597808","373522","1803","85320","602015","602613","598811","14761","602014","NA","Sternberg Task","98","61882.0","100","1024"
"98","98","617","617","#000000","experiment","legacy","legacy","legacy","1","undefined","1","right","100","100","100","0","0","100","100","0","0","100","100","100","0","100","0","Tue Oct 17 15:42:51 2023","The main experiment item","False","SternbergTask.osexp","C:\Users\Simone\Desktop","False","mono","False","18","no","white","no","yes","768","legacy","88","11","C:/Users/Simone/Documents/SD-subject-4.csv","legacy","7 9","Melodramatic Milgram","4.0.5","0","n","0","right","right","left","right","NA","472.0","12957","1117","472","NA","2","legacy","2","1024","2","48000","-16","experiment","4","even","1","605863","602618","603659","1802","86437","603660","373522","1803","85320","607865","608338","604661","14761","607864","NA","Sternberg Task","99","62354.0","101","1024"
"98","98","617","617","#000000","experiment","legacy","legacy","legacy","1","undefined","1","left","101","101","101","0","0","101","101","0","0","101","101","101","0","101","0","Tue Oct 17 15:42:51 2023","The main experiment item","False","SternbergTask.osexp","C:\Users\Simone\Desktop","False","mono","False","18","no","white","no","yes","768","legacy","89","11","C:/Users/Simone/Documents/SD-subject-4.csv","legacy","7 4 2 6 3 5","Melodramatic Milgram","4.0.5","6","y","0","left","right","left","left","NA","583.0","12957","1117","583","NA","2","legacy","6","1024","2","48000","-16","experiment","4","even","5","611593","608343","609388","1802","86437","609390","373522","1803","85320","613594","614178","610392","14761","613594","NA","Sternberg Task","100","62937.0","102","1024"
"98","98","616","616","#000000","experiment","legacy","legacy","legacy","1","undefined","1","right","102","102","102","0","0","102","102","0","0","102","102","102","0","102","0","Tue Oct 17 15:42:51 2023","The main experiment item","False","SternbergTask.osexp","C:\Users\Simone\Desktop","False","mono","False","18","no","white","no","yes","768","legacy","90","11","C:/Users/Simone/Documents/SD-subject-4.csv","legacy","8 6 3 4 7","Melodramatic Milgram","4.0.5","0","n","0","right","right","left","right","NA","587.0","12957","1117","587","NA","2","legacy","5","1024","2","48000","-16","experiment","4","even","1","617429","614183","615224","1802","86437","615226","373522","1803","85320","619431","620020","616227","14761","619430","NA","Sternberg Task","101","63524.0","103","1024"
"98","98","616","616","#000000","experiment","legacy","legacy","legacy","1","undefined","1","left","103","103","103","0","0","103","103","0","0","103","103","103","0","103","0","Tue Oct 17 15:42:51 2023","The main experiment item","False","SternbergTask.osexp","C:\Users\Simone\Desktop","False","mono","False","18","no","white","no","yes","768","legacy","91","11","C:/Users/Simone/Documents/SD-subject-4.csv","legacy","8 9 5 7 1 6","Melodramatic Milgram","4.0.5","4","y","0","left","right","left","left","NA","589.0","12957","1117","589","NA","2","legacy","6","1024","2","48000","-16","experiment","4","even","7","623266","620025","621061","1802","86437","621063","373522","1803","85320","625268","625858","622064","14761","625267","NA","Sternberg Task","102","64113.0","104","1024"
"98","98","616","616","#000000","experiment","legacy","legacy","legacy","1","undefined","1","right","104","104","104","0","0","104","104","0","0","104","104","104","0","104","0","Tue Oct 17 15:42:51 2023","The main experiment item","False","SternbergTask.osexp","C:\Users\Simone\Desktop","False","mono","False","18","no","white","no","yes","768","legacy","92","11","C:/Users/Simone/Documents/SD-subject-4.csv","legacy","9 7 4 5 8","Melodramatic Milgram","4.0.5","0","n","0","right","right","left","right","NA","659.0","12957","1117","659","NA","2","legacy","5","1024","2","48000","-16","experiment","4","even","6","629107","625863","626902","1802","86437","626903","373522","1803","85320","631109","631769","627904","14761","631108","NA","Sternberg Task","103","64772.0","105","1024"
"98","98","616","616","#000000","experiment","legacy","legacy","legacy","1","undefined","1","left","105","105","105","0","0","105","105","0","0","105","105","105","0","105","0","Tue Oct 17 15:42:51 2023","The main experiment item","False","SternbergTask.osexp","C:\Users\Simone\Desktop","False","mono","False","18","no","white","no","yes","768","legacy","93","11","C:/Users/Simone/Documents/SD-subject-4.csv","legacy","7 1 8 5 6 2","Melodramatic Milgram","4.0.5","2","y","0","left","right","left","left","NA","607.0","12957","1117","607","NA","2","legacy","6","1024","2","48000","-16","experiment","4","even","1","635022","631774","632818","1802","86437","632820","373522","1803","85320","637023","637630","633821","14761","637023","NA","Sternberg Task","104","65379.0","106","1024"
"98","98","615","615","#000000","experiment","legacy","legacy","legacy","1","undefined","1","left","106","106","106","0","0","106","106","0","0","106","106","106","0","106","0","Tue Oct 17 15:42:51 2023","The main experiment item","False","SternbergTask.osexp","C:\Users\Simone\Desktop","False","mono","False","18","no","white","no","yes","768","legacy","94","11","C:/Users/Simone/Documents/SD-subject-4.csv","legacy","7 8 4 6 9 5","Melodramatic Milgram","4.0.5","4","y","0","left","right","left","left","NA","519.0","12957","1117","519","NA","2","legacy","6","1024","2","48000","-16","experiment","4","even","6","640888","637636","638684","1802","86437","638685","373522","1803","85320","642889","643409","639686","14761","642889","NA","Sternberg Task","105","65898.0","107","1024"
"98","98","615","615","#000000","experiment","legacy","legacy","legacy","1","undefined","1","right","107","107","107","0","0","107","107","0","0","107","107","107","0","107","0","Tue Oct 17 15:42:51 2023","The main experiment item","False","SternbergTask.osexp","C:\Users\Simone\Desktop","False","mono","False","18","no","white","no","yes","768","legacy","95","11","C:/Users/Simone/Documents/SD-subject-4.csv","legacy","4 8 1 2","Melodramatic Milgram","4.0.5","0","n","0","right","right","left","right","NA","576.0","12957","1117","576","NA","2","legacy","4","1024","2","48000","-16","experiment","4","even","7","646659","643414","644454","1802","86437","644456","373522","1803","85320","648661","649238","645458","14761","648660","NA","Sternberg Task","106","66474.0","108","1024"
"98","98","614","614","#000000","experiment","legacy","legacy","legacy","1","undefined","1","left","108","108","108","0","0","108","108","0","0","108","108","108","0","108","0","Tue Oct 17 15:42:51 2023","The main experiment item","False","SternbergTask.osexp","C:\Users\Simone\Desktop","False","mono","False","18","no","white","no","yes","768","legacy","96","11","C:/Users/Simone/Documents/SD-subject-4.csv","legacy","8 9 5 6 7","Melodramatic Milgram","4.0.5","1","y","0","left","right","left","left","NA","555.0","12957","1117","555","NA","2","legacy","5","1024","2","48000","-16","experiment","4","even","8","652495","649249","650291","1802","86437","650292","373522","1803","85320","654497","655053","651294","14761","654497","NA","Sternberg Task","107","67029.0","109","1024"
"98","98","615","615","#000000","experiment","legacy","legacy","legacy","1","undefined","1","right","109","109","109","0","0","109","109","0","0","109","109","109","0","109","0","Tue Oct 17 15:42:51 2023","The main experiment item","False","SternbergTask.osexp","C:\Users\Simone\Desktop","False","mono","False","18","no","white","no","yes","768","legacy","97","11","C:/Users/Simone/Documents/SD-subject-4.csv","legacy","2 6 4 3 9","Melodramatic Milgram","4.0.5","0","n","0","right","right","left","right","NA","622.0","12957","1117","622","NA","2","legacy","5","1024","2","48000","-16","experiment","4","even","1","658300","655057","656096","1802","86437","656098","373522","1803","85320","660301","660924","657099","14761","660301","NA","Sternberg Task","108","67651.0","110","1024"
"98","98","615","615","#000000","experiment","legacy","legacy","legacy","1","undefined","1","left","110","110","110","0","0","110","110","0","0","110","110","110","0","110","0","Tue Oct 17 15:42:51 2023","The main experiment item","False","SternbergTask.osexp","C:\Users\Simone\Desktop","False","mono","False","18","no","white","no","yes","768","legacy","98","11","C:/Users/Simone/Documents/SD-subject-4.csv","legacy","6 9 3 1","Melodramatic Milgram","4.0.5","4","y","0","left","right","left","left","NA","673.0","12957","1117","673","NA","2","legacy","4","1024","2","48000","-16","experiment","4","even","1","664179","660929","661976","1802","86437","661977","373522","1803","85320","666181","666855","662978","14761","666181","NA","Sternberg Task","109","68324.0","111","1024"
"98","98","615","615","#000000","experiment","legacy","legacy","legacy","1","undefined","1","left","111","111","111","0","0","111","111","0","0","111","111","111","0","111","0","Tue Oct 17 15:42:51 2023","The main experiment item","False","SternbergTask.osexp","C:\Users\Simone\Desktop","False","mono","False","18","no","white","no","yes","768","legacy","99","11","C:/Users/Simone/Documents/SD-subject-4.csv","legacy","8 5 4 7 3 1","Melodramatic Milgram","4.0.5","2","y","0","left","right","left","left","NA","632.0","12957","1117","632","NA","2","legacy","6","1024","2","48000","-16","experiment","4","even","5","670107","666860","667902","1802","86437","667903","373522","1803","85320","672108","672741","668905","14761","672108","NA","Sternberg Task","110","68956.0","112","1024"
"98","98","614","614","#000000","experiment","legacy","legacy","legacy","1","undefined","1","left","112","112","112","0","0","112","112","0","0","112","112","112","0","112","0","Tue Oct 17 15:42:51 2023","The main experiment item","False","SternbergTask.osexp","C:\Users\Simone\Desktop","False","mono","False","18","no","white","no","yes","768","legacy","100","11","C:/Users/Simone/Documents/SD-subject-4.csv","legacy","9 8 4","Melodramatic Milgram","4.0.5","1","y","0","left","right","left","left","NA","508.0","12957","1117","508","NA","2","legacy","3","1024","2","48000","-16","experiment","4","even","9","675991","672746","673788","1802","86437","673789","373522","1803","85320","677992","678501","674790","14761","677992","NA","Sternberg Task","111","69464.0","113","1024"
"98","98","612","612","#000000","experiment","legacy","legacy","legacy","1","undefined","1","left","113","113","113","0","0","113","113","0","0","113","113","113","0","113","0","Tue Oct 17 15:42:51 2023","The main experiment item","False","SternbergTask.osexp","C:\Users\Simone\Desktop","False","mono","False","18","no","white","no","yes","768","legacy","101","11","C:/Users/Simone/Documents/SD-subject-4.csv","legacy","2 3","Melodramatic Milgram","4.0.5","1","y","0","left","right","left","left","NA","389.0","12957","1117","389","NA","2","legacy","2","1024","2","48000","-16","experiment","4","even","2","681760","678505","679557","1802","86437","679558","373522","1803","85320","683762","684152","680559","14761","683761","NA","Sternberg Task","112","69853.0","114","1024"
"98","98","614","614","#000000","experiment","legacy","legacy","legacy","1","undefined","1","right","114","114","114","0","0","114","114","0","0","114","114","114","0","114","0","Tue Oct 17 15:42:51 2023","The main experiment item","False","SternbergTask.osexp","C:\Users\Simone\Desktop","False","mono","False","18","no","white","no","yes","768","legacy","102","11","C:/Users/Simone/Documents/SD-subject-4.csv","legacy","8 4 3 9","Melodramatic Milgram","4.0.5","0","n","0","right","right","left","right","NA","791.0","12957","1117","791","NA","2","legacy","4","1024","2","48000","-16","experiment","4","even","5","687405","684157","685201","1802","86437","685203","373522","1803","85320","689406","690198","686204","14761","689406","NA","Sternberg Task","113","70644.0","115","1024"
"98","98","615","615","#000000","experiment","legacy","legacy","legacy","1","undefined","1","right","115","115","115","0","0","115","115","0","0","115","115","115","0","115","0","Tue Oct 17 15:42:51 2023","The main experiment item","False","SternbergTask.osexp","C:\Users\Simone\Desktop","False","mono","False","18","no","white","no","yes","768","legacy","103","11","C:/Users/Simone/Documents/SD-subject-4.csv","legacy","6 8 4","Melodramatic Milgram","4.0.5","0","n","0","right","right","left","right","NA","723.0","12957","1117","723","NA","2","legacy","3","1024","2","48000","-16","experiment","4","even","1","693448","690203","691243","1802","86437","691245","373522","1803","85320","695450","696174","692247","14761","695450","NA","Sternberg Task","114","71367.0","116","1024"
"98","98","614","614","#000000","experiment","legacy","legacy","legacy","1","undefined","1","left","116","116","116","0","0","116","116","0","0","116","116","116","0","116","0","Tue Oct 17 15:42:51 2023","The main experiment item","False","SternbergTask.osexp","C:\Users\Simone\Desktop","False","mono","False","18","no","white","no","yes","768","legacy","104","11","C:/Users/Simone/Documents/SD-subject-4.csv","legacy","6 7 8 5","Melodramatic Milgram","4.0.5","3","y","0","left","right","left","left","NA","482.0","12957","1117","482","NA","2","legacy","4","1024","2","48000","-16","experiment","4","even","8","699448","696179","697243","1802","86437","697245","373522","1803","85320","701449","701932","698246","14761","701449","NA","Sternberg Task","115","71849.0","117","1024"
"98","98","612","612","#000000","experiment","legacy","legacy","legacy","1","undefined","1","left","117","117","117","0","0","117","117","0","0","117","117","117","0","117","0","Tue Oct 17 15:42:51 2023","The main experiment item","False","SternbergTask.osexp","C:\Users\Simone\Desktop","False","mono","False","18","no","white","no","yes","768","legacy","105","11","C:/Users/Simone/Documents/SD-subject-4.csv","legacy","4 6 2 5 1","Melodramatic Milgram","4.0.5","5","y","0","left","right","left","left","NA","429.0","12957","1117","429","NA","2","legacy","5","1024","2","48000","-16","experiment","4","even","1","705182","701937","702978","1802","86437","702979","373522","1803","85320","707183","707612","703981","14761","707183","NA","Sternberg Task","116","72278.0","118","1024"
"98","98","612","612","#000000","experiment","legacy","legacy","legacy","1","undefined","1","right","118","118","118","0","0","118","118","0","0","118","118","118","0","118","0","Tue Oct 17 15:42:51 2023","The main experiment item","False","SternbergTask.osexp","C:\Users\Simone\Desktop","False","mono","False","18","no","white","no","yes","768","legacy","106","11","C:/Users/Simone/Documents/SD-subject-4.csv","legacy","5 2","Melodramatic Milgram","4.0.5","0","n","0","right","right","left","right","NA","566.0","12957","1117","566","NA","2","legacy","2","1024","2","48000","-16","experiment","4","even","7","710869","707617","708664","1802","86437","708665","373522","1803","85320","712871","713438","709668","14761","712871","NA","Sternberg Task","117","72844.0","119","1024"
"98","98","612","612","#000000","experiment","legacy","legacy","legacy","1","undefined","1","right","119","119","119","0","0","119","119","0","0","119","119","119","0","119","0","Tue Oct 17 15:42:51 2023","The main experiment item","False","SternbergTask.osexp","C:\Users\Simone\Desktop","False","mono","False","18","no","white","no","yes","768","legacy","107","11","C:/Users/Simone/Documents/SD-subject-4.csv","legacy","1 7 5 2","Melodramatic Milgram","4.0.5","0","n","0","right","right","left","right","NA","699.0","12957","1117","699","NA","2","legacy","4","1024","2","48000","-16","experiment","4","even","3","716685","713443","714481","1802","86437","714483","373522","1803","85320","718687","719387","715484","14761","718686","NA","Sternberg Task","118","73543.0","120","1024"
"98","98","612","612","#000000","experiment","legacy","legacy","legacy","1","undefined","1","left","120","120","120","0","0","120","120","0","0","120","120","120","0","120","0","Tue Oct 17 15:42:51 2023","The main experiment item","False","SternbergTask.osexp","C:\Users\Simone\Desktop","False","mono","False","18","no","white","no","yes","768","legacy","108","11","C:/Users/Simone/Documents/SD-subject-4.csv","legacy","9 3 8 2 1 4","Melodramatic Milgram","4.0.5","3","y","0","left","right","left","left","NA","554.0","12957","1117","554","NA","2","legacy","6","1024","2","48000","-16","experiment","4","even","8","722632","719392","720429","1802","86437","720430","373522","1803","85320","724634","725189","721431","14761","724633","NA","Sternberg Task","119","74097.0","121","1024"
"98","98","612","612","#000000","experiment","legacy","legacy","legacy","1","undefined","1","left","121","121","121","0","0","121","121","0","0","121","121","121","0","121","0","Tue Oct 17 15:42:51 2023","The main experiment item","False","SternbergTask.osexp","C:\Users\Simone\Desktop","False","mono","False","18","no","white","no","yes","768","legacy","109","11","C:/Users/Simone/Documents/SD-subject-4.csv","legacy","6 7 9 3 1 2","Melodramatic Milgram","4.0.5","1","y","0","left","right","left","left","NA","592.0","12957","1117","592","NA","2","legacy","6","1024","2","48000","-16","experiment","4","even","6","728447","725194","726242","1802","86437","726244","373522","1803","85320","730448","731041","727245","14761","730448","NA","Sternberg Task","120","74689.0","122","1024"
"98","98","612","612","#000000","experiment","legacy","legacy","legacy","1","undefined","1","left","122","122","122","0","0","122","122","0","0","122","122","122","0","122","0","Tue Oct 17 15:42:51 2023","The main experiment item","False","SternbergTask.osexp","C:\Users\Simone\Desktop","False","mono","False","18","no","white","no","yes","768","legacy","110","11","C:/Users/Simone/Documents/SD-subject-4.csv","legacy","2 4 6 9","Melodramatic Milgram","4.0.5","3","y","0","left","right","left","left","NA","594.0","12957","1117","594","NA","2","legacy","4","1024","2","48000","-16","experiment","4","even","6","734288","731045","732085","1802","86437","732086","373522","1803","85320","736290","736885","733087","14761","736290","NA","Sternberg Task","121","75283.0","123","1024"
"98","98","610","610","#000000","experiment","legacy","legacy","legacy","1","undefined","1","left","123","123","123","0","0","123","123","0","0","123","123","123","0","123","0","Tue Oct 17 15:42:51 2023","The main experiment item","False","SternbergTask.osexp","C:\Users\Simone\Desktop","False","mono","False","18","no","white","no","yes","768","legacy","111","11","C:/Users/Simone/Documents/SD-subject-4.csv","legacy","4 6 5 8","Melodramatic Milgram","4.0.5","1","y","0","left","right","left","left","NA","454.0","12957","1117","454","NA","2","legacy","4","1024","2","48000","-16","experiment","4","even","4","740138","736890","737934","1802","86437","737935","373522","1803","85320","742139","742594","738936","14761","742139","NA","Sternberg Task","122","75737.0","124","1024"
"98","98","610","610","#000000","experiment","legacy","legacy","legacy","1","undefined","1","right","124","124","124","0","0","124","124","0","0","124","124","124","0","124","0","Tue Oct 17 15:42:51 2023","The main experiment item","False","SternbergTask.osexp","C:\Users\Simone\Desktop","False","mono","False","18","no","white","no","yes","768","legacy","112","11","C:/Users/Simone/Documents/SD-subject-4.csv","legacy","6 9 5","Melodramatic Milgram","4.0.5","0","n","0","right","right","left","right","NA","608.0","12957","1117","608","NA","2","legacy","3","1024","2","48000","-16","experiment","4","even","8","745851","742599","743647","1802","86437","743648","373522","1803","85320","747854","748463","744649","14761","747853","NA","Sternberg Task","123","76345.0","125","1024"
"98","98","610","610","#000000","experiment","legacy","legacy","legacy","1","undefined","1","left","125","125","125","0","0","125","125","0","0","125","125","125","0","125","0","Tue Oct 17 15:42:51 2023","The main experiment item","False","SternbergTask.osexp","C:\Users\Simone\Desktop","False","mono","False","18","no","white","no","yes","768","legacy","113","11","C:/Users/Simone/Documents/SD-subject-4.csv","legacy","9 1 6 7 8","Melodramatic Milgram","4.0.5","1","y","0","left","right","left","left","NA","532.0","12957","1117","532","NA","2","legacy","5","1024","2","48000","-16","experiment","4","even","9","751708","748467","749503","1802","86437","749504","373522","1803","85320","753709","754242","750505","14761","753709","NA","Sternberg Task","124","76877.0","126","1024"
"98","98","609","609","#000000","experiment","legacy","legacy","legacy","1","undefined","1","left","126","126","126","0","0","126","126","0","0","126","126","126","0","126","0","Tue Oct 17 15:42:51 2023","The main experiment item","False","SternbergTask.osexp","C:\Users\Simone\Desktop","False","mono","False","18","no","white","no","yes","768","legacy","114","11","C:/Users/Simone/Documents/SD-subject-4.csv","legacy","7 1 3","Melodramatic Milgram","4.0.5","2","y","0","left","right","left","left","NA","485.0","12957","1117","485","NA","2","legacy","3","1024","2","48000","-16","experiment","4","even","1","757493","754247","755289","1802","86437","755291","373522","1803","85320","759495","759981","756292","14761","759494","NA","Sternberg Task","125","77362.0","127","1024"
