"acc","accuracy","average_response_time","avg_rt","background","block","canvas_backend","clock_backend","color_backend","correct","correct_instruction1","correct_keyboard_response","correct_response","count_Fixation","count_ISI","count_correctFeedback","count_expSequence","count_experiment","count_experimentLoop","count_incorrectFeedback","count_instruction1","count_instructions2","count_keyboard_response","count_logger","count_memorySet","count_practiceloop","count_probe","count_thankYou","datetime","description","disable_garbage_collection","experiment_file","experiment_path","font_bold","font_family","font_italic","font_size","font_underline","foreground","form_clicks","fullscreen","height","keyboard_backend","live_row","live_row_practiceloop","logfile","mouse_backend","numberSet","opensesame_codename","opensesame_version","posInSet","present","repeat_cycle","response","response_instruction1","response_instructions2","response_keyboard_response","response_thankYou","response_time","response_time_instruction1","response_time_instructions2","response_time_keyboard_response","response_time_thankYou","round_decimals","sampler_backend","setSize","sound_buf_size","sound_channels","sound_freq","sound_sample_size","start","subject_nr","subject_parity","target","time_Fixation","time_ISI","time_correctFeedback","time_expSequence","time_experiment","time_experimentLoop","time_incorrectFeedback","time_instruction1","time_instructions2","time_keyboard_response","time_logger","time_memorySet","time_practiceloop","time_probe","time_thankYou","title","total_correct","total_response_time","total_responses","width"
"0","0","2000","2000","#3d3846","practice","legacy","legacy","legacy","0","undefined","0","right","0","0","0","0","0","0","0","0","0","0","0","0","0","0","0","Sun Oct 22 20:57:03 2023","The main experiment item","False","Sternbergtask.osexp","/Users/keelihatcher/Desktop/Tarleton M.D./Advanced Quantitative Methods & Experimental Design","False","mono","False","18","no","white","no","yes","768","legacy","0","0","/Users/keelihatcher/Desktop/Tarleton M.D./Advanced Quantitative Methods & Experimental Design/KH-subject-4.csv","legacy","5","Melodramatic Milgram","4.0.5","0","n","0","None","right","NA","None","NA","2000.0","89712","NA","2000","NA","2","legacy","1","1024","2","48000","-16","experiment","4","even","3","92196","94408","NA","92178","1863","NA","NA","1960","NA","96411","98411","93202","91879","96411","NA","Sternberg task","0","2000.0","1","1024"
"0","0","1768","1768","#3d3846","practice","legacy","legacy","legacy","0","undefined","0","left","1","1","1","1","0","0","1","0","0","1","1","1","0","1","0","Sun Oct 22 20:57:03 2023","The main experiment item","False","Sternbergtask.osexp","/Users/keelihatcher/Desktop/Tarleton M.D./Advanced Quantitative Methods & Experimental Design","False","mono","False","18","no","white","no","yes","768","legacy","1","1","/Users/keelihatcher/Desktop/Tarleton M.D./Advanced Quantitative Methods & Experimental Design/KH-subject-4.csv","legacy","1 7 9 8 5","Melodramatic Milgram","4.0.5","4","y","0","right","right","NA","right","NA","1536.0","89712","NA","1536","NA","2","legacy","5","1024","2","48000","-16","experiment","4","even","8","99490","101701","NA","99488","1863","NA","98430","1960","NA","103705","105241","100495","91879","103705","NA","Sternberg task","0","3536.0","2","1024"
"33","33","1437","1437","#3d3846","practice","legacy","legacy","legacy","1","undefined","1","right","2","2","2","2","0","0","2","0","0","2","2","2","0","2","0","Sun Oct 22 20:57:03 2023","The main experiment item","False","Sternbergtask.osexp","/Users/keelihatcher/Desktop/Tarleton M.D./Advanced Quantitative Methods & Experimental Design","False","mono","False","18","no","white","no","yes","768","legacy","2","2","/Users/keelihatcher/Desktop/Tarleton M.D./Advanced Quantitative Methods & Experimental Design/KH-subject-4.csv","legacy","3 1 9 4","Melodramatic Milgram","4.0.5","0","n","0","right","right","NA","right","NA","776.0","89712","NA","776","NA","2","legacy","4","1024","2","48000","-16","experiment","4","even","6","106314","108524","NA","106298","1863","NA","105244","1960","NA","110530","111307","107319","91879","110530","NA","Sternberg task","1","4312.0","3","1024"
"50","50","1343","1343","#3d3846","practice","legacy","legacy","legacy","1","undefined","1","left","3","3","3","3","0","0","3","0","0","3","3","3","0","3","0","Sun Oct 22 20:57:03 2023","The main experiment item","False","Sternbergtask.osexp","/Users/keelihatcher/Desktop/Tarleton M.D./Advanced Quantitative Methods & Experimental Design","False","mono","False","18","no","white","no","yes","768","legacy","3","3","/Users/keelihatcher/Desktop/Tarleton M.D./Advanced Quantitative Methods & Experimental Design/KH-subject-4.csv","legacy","6","Melodramatic Milgram","4.0.5","1","y","0","left","right","NA","left","NA","1061.0","89712","NA","1061","NA","2","legacy","1","1024","2","48000","-16","experiment","4","even","6","112370","114584","111310","112364","1863","NA","105244","1960","NA","116588","117650","113376","91879","116588","NA","Sternberg task","2","5373.0","4","1024"
"60","60","1234","1234","#3d3846","practice","legacy","legacy","legacy","1","undefined","1","left","4","4","4","4","0","0","4","0","0","4","4","4","0","4","0","Sun Oct 22 20:57:03 2023","The main experiment item","False","Sternbergtask.osexp","/Users/keelihatcher/Desktop/Tarleton M.D./Advanced Quantitative Methods & Experimental Design","False","mono","False","18","no","white","no","yes","768","legacy","4","4","/Users/keelihatcher/Desktop/Tarleton M.D./Advanced Quantitative Methods & Experimental Design/KH-subject-4.csv","legacy","1 5 2 9","Melodramatic Milgram","4.0.5","2","y","0","left","right","NA","left","NA","801.0","89712","NA","801","NA","2","legacy","4","1024","2","48000","-16","experiment","4","even","5","118712","120921","117653","118709","1863","NA","105244","1960","NA","122925","123726","119716","91879","122925","NA","Sternberg task","3","6174.0","5","1024"
"66","66","1198","1198","#3d3846","practice","legacy","legacy","legacy","1","undefined","1","right","5","5","5","5","0","0","5","0","0","5","5","5","0","5","0","Sun Oct 22 20:57:03 2023","The main experiment item","False","Sternbergtask.osexp","/Users/keelihatcher/Desktop/Tarleton M.D./Advanced Quantitative Methods & Experimental Design","False","mono","False","18","no","white","no","yes","768","legacy","5","5","/Users/keelihatcher/Desktop/Tarleton M.D./Advanced Quantitative Methods & Experimental Design/KH-subject-4.csv","legacy","5 7 8 4 1 2","Melodramatic Milgram","4.0.5","0","n","0","right","right","NA","right","NA","1014.0","89712","NA","1014","NA","2","legacy","6","1024","2","48000","-16","experiment","4","even","6","124790","127002","123730","124786","1863","NA","105244","1960","NA","129006","130021","125795","91879","129006","NA","Sternberg task","4","7188.0","6","1024"
"71","71","1098","1098","#3d3846","practice","legacy","legacy","legacy","1","undefined","1","left","6","6","6","6","0","0","6","0","0","6","6","6","0","6","0","Sun Oct 22 20:57:03 2023","The main experiment item","False","Sternbergtask.osexp","/Users/keelihatcher/Desktop/Tarleton M.D./Advanced Quantitative Methods & Experimental Design","False","mono","False","18","no","white","no","yes","768","legacy","6","6","/Users/keelihatcher/Desktop/Tarleton M.D./Advanced Quantitative Methods & Experimental Design/KH-subject-4.csv","legacy","4 8","Melodramatic Milgram","4.0.5","1","y","0","left","right","NA","left","NA","500.0","89712","NA","500","NA","2","legacy","2","1024","2","48000","-16","experiment","4","even","4","131080","133290","130024","131077","1863","NA","105244","1960","NA","135294","135794","132084","91879","135294","NA","Sternberg task","5","7688.0","7","1024"
"75","75","1064","1064","#3d3846","practice","legacy","legacy","legacy","1","undefined","1","right","7","7","7","7","0","0","7","0","0","7","7","7","0","7","0","Sun Oct 22 20:57:03 2023","The main experiment item","False","Sternbergtask.osexp","/Users/keelihatcher/Desktop/Tarleton M.D./Advanced Quantitative Methods & Experimental Design","False","mono","False","18","no","white","no","yes","768","legacy","7","7","/Users/keelihatcher/Desktop/Tarleton M.D./Advanced Quantitative Methods & Experimental Design/KH-subject-4.csv","legacy","9 6 7 4 5","Melodramatic Milgram","4.0.5","0","n","0","right","right","NA","right","NA","828.0","89712","NA","828","NA","2","legacy","5","1024","2","48000","-16","experiment","4","even","3","136851","139063","135797","136848","1863","NA","105244","1960","NA","141066","141895","137858","91879","141066","NA","Sternberg task","6","8516.0","8","1024"
"66","66","1011","1011","#3d3846","practice","legacy","legacy","legacy","0","undefined","0","left","8","8","8","8","0","0","8","0","0","8","8","8","0","8","0","Sun Oct 22 20:57:03 2023","The main experiment item","False","Sternbergtask.osexp","/Users/keelihatcher/Desktop/Tarleton M.D./Advanced Quantitative Methods & Experimental Design","False","mono","False","18","no","white","no","yes","768","legacy","8","8","/Users/keelihatcher/Desktop/Tarleton M.D./Advanced Quantitative Methods & Experimental Design/KH-subject-4.csv","legacy","2 9 4","Melodramatic Milgram","4.0.5","3","y","0","right","right","NA","right","NA","584.0","89712","NA","584","NA","2","legacy","3","1024","2","48000","-16","experiment","4","even","4","142948","145157","141897","142945","1863","NA","105244","1960","NA","147161","147745","143952","91879","147161","NA","Sternberg task","6","9100.0","9","1024"
"70","70","974","974","#3d3846","practice","legacy","legacy","legacy","1","undefined","1","right","9","9","9","9","0","0","9","0","0","9","9","9","0","9","0","Sun Oct 22 20:57:03 2023","The main experiment item","False","Sternbergtask.osexp","/Users/keelihatcher/Desktop/Tarleton M.D./Advanced Quantitative Methods & Experimental Design","False","mono","False","18","no","white","no","yes","768","legacy","9","9","/Users/keelihatcher/Desktop/Tarleton M.D./Advanced Quantitative Methods & Experimental Design/KH-subject-4.csv","legacy","2 1","Melodramatic Milgram","4.0.5","0","n","0","right","right","NA","right","NA","644.0","89712","NA","644","NA","2","legacy","2","1024","2","48000","-16","experiment","4","even","5","148799","151008","141897","148796","1863","NA","147748","1960","NA","153012","153657","149804","91879","153011","NA","Sternberg task","7","9744.0","10","1024"
"72","72","939","939","#3d3846","practice","legacy","legacy","legacy","1","undefined","1","right","10","10","10","10","0","0","10","0","0","10","10","10","0","10","0","Sun Oct 22 20:57:03 2023","The main experiment item","False","Sternbergtask.osexp","/Users/keelihatcher/Desktop/Tarleton M.D./Advanced Quantitative Methods & Experimental Design","False","mono","False","18","no","white","no","yes","768","legacy","10","10","/Users/keelihatcher/Desktop/Tarleton M.D./Advanced Quantitative Methods & Experimental Design/KH-subject-4.csv","legacy","4 1 5","Melodramatic Milgram","4.0.5","0","n","0","right","right","NA","right","NA","595.0","89712","NA","595","NA","2","legacy","3","1024","2","48000","-16","experiment","4","even","2","154712","156921","153660","154709","1863","NA","147748","1960","NA","158925","159521","155716","91879","158925","NA","Sternberg task","8","10339.0","11","1024"
"75","75","912","912","#3d3846","practice","legacy","legacy","legacy","1","undefined","1","left","11","11","11","11","0","0","11","0","0","11","11","11","0","11","0","Sun Oct 22 20:57:03 2023","The main experiment item","False","Sternbergtask.osexp","/Users/keelihatcher/Desktop/Tarleton M.D./Advanced Quantitative Methods & Experimental Design","False","mono","False","18","no","white","no","yes","768","legacy","11","11","/Users/keelihatcher/Desktop/Tarleton M.D./Advanced Quantitative Methods & Experimental Design/KH-subject-4.csv","legacy","4 3 1 7 9 8","Melodramatic Milgram","4.0.5","1","y","0","left","right","NA","left","NA","611.0","89712","NA","611","NA","2","legacy","6","1024","2","48000","-16","experiment","4","even","4","160573","162782","159523","160570","1863","NA","147748","1960","NA","164786","165398","161577","91879","164785","NA","Sternberg task","9","10950.0","12","1024"
"69","69","897","897","#3d3846","experiment","legacy","legacy","legacy","0","undefined","0","left","12","12","12","12","0","0","12","0","0","12","12","12","0","12","0","Sun Oct 22 20:57:03 2023","The main experiment item","False","Sternbergtask.osexp","/Users/keelihatcher/Desktop/Tarleton M.D./Advanced Quantitative Methods & Experimental Design","False","mono","False","18","no","white","no","yes","768","legacy","0","11","/Users/keelihatcher/Desktop/Tarleton M.D./Advanced Quantitative Methods & Experimental Design/KH-subject-4.csv","legacy","4 1 8 7 5","Melodramatic Milgram","4.0.5","3","y","0","right","right","right","right","NA","714.0","89712","11138","714","NA","2","legacy","5","1024","2","48000","-16","experiment","4","even","8","177581","179791","165401","177579","1863","177547","147748","1960","166408","181795","182509","178585","91879","181794","NA","Sternberg task","9","11664.0","13","1024"
"71","71","894","894","#3d3846","experiment","legacy","legacy","legacy","1","undefined","1","right","13","13","13","13","0","0","13","0","0","13","13","13","0","13","0","Sun Oct 22 20:57:03 2023","The main experiment item","False","Sternbergtask.osexp","/Users/keelihatcher/Desktop/Tarleton M.D./Advanced Quantitative Methods & Experimental Design","False","mono","False","18","no","white","no","yes","768","legacy","1","11","/Users/keelihatcher/Desktop/Tarleton M.D./Advanced Quantitative Methods & Experimental Design/KH-subject-4.csv","legacy","7 9","Melodramatic Milgram","4.0.5","0","n","0","right","right","right","right","NA","858.0","89712","11138","858","NA","2","legacy","2","1024","2","48000","-16","experiment","4","even","1","183560","185768","165401","183558","1863","177547","182512","1960","166408","187771","188630","184564","91879","187771","NA","Sternberg task","10","12522.0","14","1024"
"73","73","874","874","#3d3846","experiment","legacy","legacy","legacy","1","undefined","1","right","14","14","14","14","0","0","14","0","0","14","14","14","0","14","0","Sun Oct 22 20:57:03 2023","The main experiment item","False","Sternbergtask.osexp","/Users/keelihatcher/Desktop/Tarleton M.D./Advanced Quantitative Methods & Experimental Design","False","mono","False","18","no","white","no","yes","768","legacy","2","11","/Users/keelihatcher/Desktop/Tarleton M.D./Advanced Quantitative Methods & Experimental Design/KH-subject-4.csv","legacy","3 9 1","Melodramatic Milgram","4.0.5","0","n","0","right","right","right","right","NA","598.0","89712","11138","598","NA","2","legacy","3","1024","2","48000","-16","experiment","4","even","7","189681","191891","188633","189678","1863","177547","182512","1960","166408","193894","194492","190685","91879","193894","NA","Sternberg task","11","13120.0","15","1024"
"75","75","876","876","#3d3846","experiment","legacy","legacy","legacy","1","undefined","1","left","15","15","15","15","0","0","15","0","0","15","15","15","0","15","0","Sun Oct 22 20:57:03 2023","The main experiment item","False","Sternbergtask.osexp","/Users/keelihatcher/Desktop/Tarleton M.D./Advanced Quantitative Methods & Experimental Design","False","mono","False","18","no","white","no","yes","768","legacy","3","11","/Users/keelihatcher/Desktop/Tarleton M.D./Advanced Quantitative Methods & Experimental Design/KH-subject-4.csv","legacy","4 9 7 8 5 3","Melodramatic Milgram","4.0.5","4","y","0","left","right","right","left","NA","905.0","89712","11138","905","NA","2","legacy","6","1024","2","48000","-16","experiment","4","even","8","195539","197749","194495","195537","1863","177547","182512","1960","166408","199757","200663","196543","91879","199757","NA","Sternberg task","12","14025.0","16","1024"
"76","76","877","877","#3d3846","experiment","legacy","legacy","legacy","1","undefined","1","left","16","16","16","16","0","0","16","0","0","16","16","16","0","16","0","Sun Oct 22 20:57:03 2023","The main experiment item","False","Sternbergtask.osexp","/Users/keelihatcher/Desktop/Tarleton M.D./Advanced Quantitative Methods & Experimental Design","False","mono","False","18","no","white","no","yes","768","legacy","4","11","/Users/keelihatcher/Desktop/Tarleton M.D./Advanced Quantitative Methods & Experimental Design/KH-subject-4.csv","legacy","4 7 6 8 2 3","Melodramatic Milgram","4.0.5","6","y","0","left","right","right","left","NA","894.0","89712","11138","894","NA","2","legacy","6","1024","2","48000","-16","experiment","4","even","3","201713","203922","200665","201710","1863","177547","182512","1960","166408","205925","206819","202717","91879","205925","NA","Sternberg task","13","14919.0","17","1024"
"77","77","867","867","#3d3846","experiment","legacy","legacy","legacy","1","undefined","1","right","17","17","17","17","0","0","17","0","0","17","17","17","0","17","0","Sun Oct 22 20:57:03 2023","The main experiment item","False","Sternbergtask.osexp","/Users/keelihatcher/Desktop/Tarleton M.D./Advanced Quantitative Methods & Experimental Design","False","mono","False","18","no","white","no","yes","768","legacy","5","11","/Users/keelihatcher/Desktop/Tarleton M.D./Advanced Quantitative Methods & Experimental Design/KH-subject-4.csv","legacy","3 9 8 1 6 4","Melodramatic Milgram","4.0.5","0","n","0","right","right","right","right","NA","704.0","89712","11138","704","NA","2","legacy","6","1024","2","48000","-16","experiment","4","even","7","207871","210080","206822","207868","1863","177547","182512","1960","166408","212085","212790","208875","91879","212084","NA","Sternberg task","14","15623.0","18","1024"
"78","78","872","872","#3d3846","experiment","legacy","legacy","legacy","1","undefined","1","left","18","18","18","18","0","0","18","0","0","18","18","18","0","18","0","Sun Oct 22 20:57:03 2023","The main experiment item","False","Sternbergtask.osexp","/Users/keelihatcher/Desktop/Tarleton M.D./Advanced Quantitative Methods & Experimental Design","False","mono","False","18","no","white","no","yes","768","legacy","6","11","/Users/keelihatcher/Desktop/Tarleton M.D./Advanced Quantitative Methods & Experimental Design/KH-subject-4.csv","legacy","5 7 8 2 3 8","Melodramatic Milgram","4.0.5","5","y","0","left","right","right","left","NA","961.0","89712","11138","961","NA","2","legacy","6","1024","2","48000","-16","experiment","4","even","3","213843","216053","212792","213841","1863","177547","182512","1960","166408","218056","219018","214847","91879","218056","NA","Sternberg task","15","16584.0","19","1024"
"80","80","874","874","#3d3846","experiment","legacy","legacy","legacy","1","undefined","1","right","19","19","19","19","0","0","19","0","0","19","19","19","0","19","0","Sun Oct 22 20:57:03 2023","The main experiment item","False","Sternbergtask.osexp","/Users/keelihatcher/Desktop/Tarleton M.D./Advanced Quantitative Methods & Experimental Design","False","mono","False","18","no","white","no","yes","768","legacy","7","11","/Users/keelihatcher/Desktop/Tarleton M.D./Advanced Quantitative Methods & Experimental Design/KH-subject-4.csv","legacy","7 1 8 4 9 3","Melodramatic Milgram","4.0.5","0","n","0","right","right","right","right","NA","897.0","89712","11138","897","NA","2","legacy","6","1024","2","48000","-16","experiment","4","even","6","220077","222288","219019","220075","1863","177547","182512","1960","166408","224292","225190","221082","91879","224292","NA","Sternberg task","16","17481.0","20","1024"
"80","80","864","864","#3d3846","experiment","legacy","legacy","legacy","1","undefined","1","left","20","20","20","20","0","0","20","0","0","20","20","20","0","20","0","Sun Oct 22 20:57:03 2023","The main experiment item","False","Sternbergtask.osexp","/Users/keelihatcher/Desktop/Tarleton M.D./Advanced Quantitative Methods & Experimental Design","False","mono","False","18","no","white","no","yes","768","legacy","8","11","/Users/keelihatcher/Desktop/Tarleton M.D./Advanced Quantitative Methods & Experimental Design/KH-subject-4.csv","legacy","3 5 7 1","Melodramatic Milgram","4.0.5","3","y","0","left","right","right","left","NA","683.0","89712","11138","683","NA","2","legacy","4","1024","2","48000","-16","experiment","4","even","7","226250","228461","225192","226247","1863","177547","182512","1960","166408","230465","231148","227255","91879","230465","NA","Sternberg task","17","18164.0","21","1024"
"81","81","873","873","#3d3846","experiment","legacy","legacy","legacy","1","undefined","1","left","21","21","21","21","0","0","21","0","0","21","21","21","0","21","0","Sun Oct 22 20:57:03 2023","The main experiment item","False","Sternbergtask.osexp","/Users/keelihatcher/Desktop/Tarleton M.D./Advanced Quantitative Methods & Experimental Design","False","mono","False","18","no","white","no","yes","768","legacy","9","11","/Users/keelihatcher/Desktop/Tarleton M.D./Advanced Quantitative Methods & Experimental Design/KH-subject-4.csv","legacy","3 2 1 4 7","Melodramatic Milgram","4.0.5","2","y","0","left","right","right","left","NA","1050.0","89712","11138","1050","NA","2","legacy","5","1024","2","48000","-16","experiment","4","even","2","232205","234416","231151","232202","1863","177547","182512","1960","166408","236420","237471","233209","91879","236420","NA","Sternberg task","18","19214.0","22","1024"
"82","82","870","870","#3d3846","experiment","legacy","legacy","legacy","1","undefined","1","right","22","22","22","22","0","0","22","0","0","22","22","22","0","22","0","Sun Oct 22 20:57:03 2023","The main experiment item","False","Sternbergtask.osexp","/Users/keelihatcher/Desktop/Tarleton M.D./Advanced Quantitative Methods & Experimental Design","False","mono","False","18","no","white","no","yes","768","legacy","10","11","/Users/keelihatcher/Desktop/Tarleton M.D./Advanced Quantitative Methods & Experimental Design/KH-subject-4.csv","legacy","1 3 2 6 9","Melodramatic Milgram","4.0.5","0","n","0","right","right","right","right","NA","800.0","89712","11138","800","NA","2","legacy","5","1024","2","48000","-16","experiment","4","even","5","238527","240737","237473","238525","1863","177547","182512","1960","166408","242741","243542","239532","91879","242741","NA","Sternberg task","19","20014.0","23","1024"
"83","83","866","866","#3d3846","experiment","legacy","legacy","legacy","1","undefined","1","right","23","23","23","23","0","0","23","0","0","23","23","23","0","23","0","Sun Oct 22 20:57:03 2023","The main experiment item","False","Sternbergtask.osexp","/Users/keelihatcher/Desktop/Tarleton M.D./Advanced Quantitative Methods & Experimental Design","False","mono","False","18","no","white","no","yes","768","legacy","11","11","/Users/keelihatcher/Desktop/Tarleton M.D./Advanced Quantitative Methods & Experimental Design/KH-subject-4.csv","legacy","6 8 4","Melodramatic Milgram","4.0.5","0","n","0","right","right","right","right","NA","778.0","89712","11138","778","NA","2","legacy","3","1024","2","48000","-16","experiment","4","even","1","244592","246804","243544","244589","1863","177547","182512","1960","166408","248808","249586","245598","91879","248807","NA","Sternberg task","20","20792.0","24","1024"
"84","84","867","867","#3d3846","experiment","legacy","legacy","legacy","1","undefined","1","left","24","24","24","24","0","0","24","0","0","24","24","24","0","24","0","Sun Oct 22 20:57:03 2023","The main experiment item","False","Sternbergtask.osexp","/Users/keelihatcher/Desktop/Tarleton M.D./Advanced Quantitative Methods & Experimental Design","False","mono","False","18","no","white","no","yes","768","legacy","12","11","/Users/keelihatcher/Desktop/Tarleton M.D./Advanced Quantitative Methods & Experimental Design/KH-subject-4.csv","legacy","7 8 6 3 1","Melodramatic Milgram","4.0.5","5","y","0","left","right","right","left","NA","894.0","89712","11138","894","NA","2","legacy","5","1024","2","48000","-16","experiment","4","even","1","250636","252846","249589","250634","1863","177547","182512","1960","166408","254850","255745","251641","91879","254849","NA","Sternberg task","21","21686.0","25","1024"
"84","84","858","858","#3d3846","experiment","legacy","legacy","legacy","1","undefined","1","right","25","25","25","25","0","0","25","0","0","25","25","25","0","25","0","Sun Oct 22 20:57:03 2023","The main experiment item","False","Sternbergtask.osexp","/Users/keelihatcher/Desktop/Tarleton M.D./Advanced Quantitative Methods & Experimental Design","False","mono","False","18","no","white","no","yes","768","legacy","13","11","/Users/keelihatcher/Desktop/Tarleton M.D./Advanced Quantitative Methods & Experimental Design/KH-subject-4.csv","legacy","1 8 7","Melodramatic Milgram","4.0.5","0","n","0","right","right","right","right","NA","627.0","89712","11138","627","NA","2","legacy","3","1024","2","48000","-16","experiment","4","even","4","256801","259011","255748","256798","1863","177547","182512","1960","166408","261014","261642","257805","91879","261014","NA","Sternberg task","22","22313.0","26","1024"
"85","85","856","856","#3d3846","experiment","legacy","legacy","legacy","1","undefined","1","right","26","26","26","26","0","0","26","0","0","26","26","26","0","26","0","Sun Oct 22 20:57:03 2023","The main experiment item","False","Sternbergtask.osexp","/Users/keelihatcher/Desktop/Tarleton M.D./Advanced Quantitative Methods & Experimental Design","False","mono","False","18","no","white","no","yes","768","legacy","14","11","/Users/keelihatcher/Desktop/Tarleton M.D./Advanced Quantitative Methods & Experimental Design/KH-subject-4.csv","legacy","4 1","Melodramatic Milgram","4.0.5","0","n","0","right","right","right","right","NA","825.0","89712","11138","825","NA","2","legacy","2","1024","2","48000","-16","experiment","4","even","6","262697","264905","261644","262695","1863","177547","182512","1960","166408","266909","267735","263701","91879","266909","NA","Sternberg task","23","23138.0","27","1024"
"82","82","866","866","#3d3846","experiment","legacy","legacy","legacy","0","undefined","0","right","27","27","27","27","0","0","27","0","0","27","27","27","0","27","0","Sun Oct 22 20:57:03 2023","The main experiment item","False","Sternbergtask.osexp","/Users/keelihatcher/Desktop/Tarleton M.D./Advanced Quantitative Methods & Experimental Design","False","mono","False","18","no","white","no","yes","768","legacy","15","11","/Users/keelihatcher/Desktop/Tarleton M.D./Advanced Quantitative Methods & Experimental Design/KH-subject-4.csv","legacy","8 4 3 9","Melodramatic Milgram","4.0.5","0","n","0","left","right","right","left","NA","1122.0","89712","11138","1122","NA","2","legacy","4","1024","2","48000","-16","experiment","4","even","5","268797","271010","267738","268795","1863","177547","182512","1960","166408","273014","274136","269803","91879","273013","NA","Sternberg task","23","24260.0","28","1024"
"82","82","862","862","#3d3846","experiment","legacy","legacy","legacy","1","undefined","1","left","28","28","28","28","0","0","28","0","0","28","28","28","0","28","0","Sun Oct 22 20:57:03 2023","The main experiment item","False","Sternbergtask.osexp","/Users/keelihatcher/Desktop/Tarleton M.D./Advanced Quantitative Methods & Experimental Design","False","mono","False","18","no","white","no","yes","768","legacy","16","11","/Users/keelihatcher/Desktop/Tarleton M.D./Advanced Quantitative Methods & Experimental Design/KH-subject-4.csv","legacy","9 8 4","Melodramatic Milgram","4.0.5","1","y","0","left","right","right","left","NA","757.0","89712","11138","757","NA","2","legacy","3","1024","2","48000","-16","experiment","4","even","9","275184","277393","267738","275181","1863","177547","274138","1960","166408","279396","280154","276188","91879","279396","NA","Sternberg task","24","25017.0","29","1024"
"83","83","871","871","#3d3846","experiment","legacy","legacy","legacy","1","undefined","1","right","29","29","29","29","0","0","29","0","0","29","29","29","0","29","0","Sun Oct 22 20:57:03 2023","The main experiment item","False","Sternbergtask.osexp","/Users/keelihatcher/Desktop/Tarleton M.D./Advanced Quantitative Methods & Experimental Design","False","mono","False","18","no","white","no","yes","768","legacy","17","11","/Users/keelihatcher/Desktop/Tarleton M.D./Advanced Quantitative Methods & Experimental Design/KH-subject-4.csv","legacy","1 4 3 6 5","Melodramatic Milgram","4.0.5","0","n","0","right","right","right","right","NA","1140.0","89712","11138","1140","NA","2","legacy","5","1024","2","48000","-16","experiment","4","even","8","281207","283418","280156","281204","1863","177547","274138","1960","166408","285422","286562","282213","91879","285422","NA","Sternberg task","25","26157.0","30","1024"
"83","83","868","868","#3d3846","experiment","legacy","legacy","legacy","1","undefined","1","right","30","30","30","30","0","0","30","0","0","30","30","30","0","30","0","Sun Oct 22 20:57:03 2023","The main experiment item","False","Sternbergtask.osexp","/Users/keelihatcher/Desktop/Tarleton M.D./Advanced Quantitative Methods & Experimental Design","False","mono","False","18","no","white","no","yes","768","legacy","18","11","/Users/keelihatcher/Desktop/Tarleton M.D./Advanced Quantitative Methods & Experimental Design/KH-subject-4.csv","legacy","1 4 9 3","Melodramatic Milgram","4.0.5","0","n","0","right","right","right","right","NA","766.0","89712","11138","766","NA","2","legacy","4","1024","2","48000","-16","experiment","4","even","5","287618","289826","286564","287616","1863","177547","274138","1960","166408","291829","292596","288622","91879","291829","NA","Sternberg task","26","26923.0","31","1024"
"84","84","872","872","#3d3846","experiment","legacy","legacy","legacy","1","undefined","1","left","31","31","31","31","0","0","31","0","0","31","31","31","0","31","0","Sun Oct 22 20:57:03 2023","The main experiment item","False","Sternbergtask.osexp","/Users/keelihatcher/Desktop/Tarleton M.D./Advanced Quantitative Methods & Experimental Design","False","mono","False","18","no","white","no","yes","768","legacy","19","11","/Users/keelihatcher/Desktop/Tarleton M.D./Advanced Quantitative Methods & Experimental Design/KH-subject-4.csv","legacy","7 8 4 6 9 5","Melodramatic Milgram","4.0.5","4","y","0","left","right","right","left","NA","993.0","89712","11138","993","NA","2","legacy","6","1024","2","48000","-16","experiment","4","even","6","293657","295871","292599","293654","1863","177547","274138","1960","166408","297876","298870","294661","91879","297876","NA","Sternberg task","27","27916.0","32","1024"
"84","84","872","872","#3d3846","experiment","legacy","legacy","legacy","1","undefined","1","right","32","32","32","32","0","0","32","0","0","32","32","32","0","32","0","Sun Oct 22 20:57:03 2023","The main experiment item","False","Sternbergtask.osexp","/Users/keelihatcher/Desktop/Tarleton M.D./Advanced Quantitative Methods & Experimental Design","False","mono","False","18","no","white","no","yes","768","legacy","20","11","/Users/keelihatcher/Desktop/Tarleton M.D./Advanced Quantitative Methods & Experimental Design/KH-subject-4.csv","legacy","7 6 4 8 1 2","Melodramatic Milgram","4.0.5","0","n","0","right","right","right","right","NA","889.0","89712","11138","889","NA","2","legacy","6","1024","2","48000","-16","experiment","4","even","9","299929","302138","298873","299926","1863","177547","274138","1960","166408","304142","305032","300933","91879","304142","NA","Sternberg task","28","28805.0","33","1024"
"85","85","879","879","#3d3846","experiment","legacy","legacy","legacy","1","undefined","1","left","33","33","33","33","0","0","33","0","0","33","33","33","0","33","0","Sun Oct 22 20:57:03 2023","The main experiment item","False","Sternbergtask.osexp","/Users/keelihatcher/Desktop/Tarleton M.D./Advanced Quantitative Methods & Experimental Design","False","mono","False","18","no","white","no","yes","768","legacy","21","11","/Users/keelihatcher/Desktop/Tarleton M.D./Advanced Quantitative Methods & Experimental Design/KH-subject-4.csv","legacy","8 9 6 1","Melodramatic Milgram","4.0.5","2","y","0","left","right","right","left","NA","1087.0","89712","11138","1087","NA","2","legacy","4","1024","2","48000","-16","experiment","4","even","9","306084","308294","305034","306081","1863","177547","274138","1960","166408","310298","311386","307088","91879","310297","NA","Sternberg task","29","29892.0","34","1024"
"85","85","879","879","#3d3846","experiment","legacy","legacy","legacy","1","undefined","1","left","34","34","34","34","0","0","34","0","0","34","34","34","0","34","0","Sun Oct 22 20:57:03 2023","The main experiment item","False","Sternbergtask.osexp","/Users/keelihatcher/Desktop/Tarleton M.D./Advanced Quantitative Methods & Experimental Design","False","mono","False","18","no","white","no","yes","768","legacy","22","11","/Users/keelihatcher/Desktop/Tarleton M.D./Advanced Quantitative Methods & Experimental Design/KH-subject-4.csv","legacy","2 6 1 7 4","Melodramatic Milgram","4.0.5","2","y","0","left","right","right","left","NA","883.0","89712","11138","883","NA","2","legacy","5","1024","2","48000","-16","experiment","4","even","6","312440","314651","311389","312437","1863","177547","274138","1960","166408","316654","317538","313444","91879","316654","NA","Sternberg task","30","30775.0","35","1024"
"86","86","877","877","#3d3846","experiment","legacy","legacy","legacy","1","undefined","1","right","35","35","35","35","0","0","35","0","0","35","35","35","0","35","0","Sun Oct 22 20:57:03 2023","The main experiment item","False","Sternbergtask.osexp","/Users/keelihatcher/Desktop/Tarleton M.D./Advanced Quantitative Methods & Experimental Design","False","mono","False","18","no","white","no","yes","768","legacy","23","11","/Users/keelihatcher/Desktop/Tarleton M.D./Advanced Quantitative Methods & Experimental Design/KH-subject-4.csv","legacy","9 7 4 5 8","Melodramatic Milgram","4.0.5","0","n","0","right","right","right","right","NA","818.0","89712","11138","818","NA","2","legacy","5","1024","2","48000","-16","experiment","4","even","6","318587","320798","317541","318585","1863","177547","274138","1960","166408","322801","323619","319592","91879","322801","NA","Sternberg task","31","31593.0","36","1024"
"86","86","873","873","#3d3846","experiment","legacy","legacy","legacy","1","undefined","1","right","36","36","36","36","0","0","36","0","0","36","36","36","0","36","0","Sun Oct 22 20:57:03 2023","The main experiment item","False","Sternbergtask.osexp","/Users/keelihatcher/Desktop/Tarleton M.D./Advanced Quantitative Methods & Experimental Design","False","mono","False","18","no","white","no","yes","768","legacy","24","11","/Users/keelihatcher/Desktop/Tarleton M.D./Advanced Quantitative Methods & Experimental Design/KH-subject-4.csv","legacy","1 7 5 2 9","Melodramatic Milgram","4.0.5","0","n","0","right","right","right","right","NA","730.0","89712","11138","730","NA","2","legacy","5","1024","2","48000","-16","experiment","4","even","3","324670","326880","323622","324668","1863","177547","274138","1960","166408","328889","329620","325674","91879","328889","NA","Sternberg task","32","32323.0","37","1024"
"86","86","871","871","#3d3846","experiment","legacy","legacy","legacy","1","undefined","1","left","37","37","37","37","0","0","37","0","0","37","37","37","0","37","0","Sun Oct 22 20:57:03 2023","The main experiment item","False","Sternbergtask.osexp","/Users/keelihatcher/Desktop/Tarleton M.D./Advanced Quantitative Methods & Experimental Design","False","mono","False","18","no","white","no","yes","768","legacy","25","11","/Users/keelihatcher/Desktop/Tarleton M.D./Advanced Quantitative Methods & Experimental Design/KH-subject-4.csv","legacy","9 5 8 1","Melodramatic Milgram","4.0.5","2","y","0","left","right","right","left","NA","810.0","89712","11138","810","NA","2","legacy","4","1024","2","48000","-16","experiment","4","even","5","330668","332878","329622","330666","1863","177547","274138","1960","166408","334882","335693","331673","91879","334882","NA","Sternberg task","33","33133.0","38","1024"
"87","87","867","867","#3d3846","experiment","legacy","legacy","legacy","1","undefined","1","left","38","38","38","38","0","0","38","0","0","38","38","38","0","38","0","Sun Oct 22 20:57:03 2023","The main experiment item","False","Sternbergtask.osexp","/Users/keelihatcher/Desktop/Tarleton M.D./Advanced Quantitative Methods & Experimental Design","False","mono","False","18","no","white","no","yes","768","legacy","26","11","/Users/keelihatcher/Desktop/Tarleton M.D./Advanced Quantitative Methods & Experimental Design/KH-subject-4.csv","legacy","7 1 3","Melodramatic Milgram","4.0.5","2","y","0","left","right","right","left","NA","714.0","89712","11138","714","NA","2","legacy","3","1024","2","48000","-16","experiment","4","even","1","336747","338956","335695","336745","1863","177547","274138","1960","166408","340959","341674","337750","91879","340959","NA","Sternberg task","34","33847.0","39","1024"
"87","87","861","861","#3d3846","experiment","legacy","legacy","legacy","1","undefined","1","left","39","39","39","39","0","0","39","0","0","39","39","39","0","39","0","Sun Oct 22 20:57:03 2023","The main experiment item","False","Sternbergtask.osexp","/Users/keelihatcher/Desktop/Tarleton M.D./Advanced Quantitative Methods & Experimental Design","False","mono","False","18","no","white","no","yes","768","legacy","27","11","/Users/keelihatcher/Desktop/Tarleton M.D./Advanced Quantitative Methods & Experimental Design/KH-subject-4.csv","legacy","4 1 5","Melodramatic Milgram","4.0.5","2","y","0","left","right","right","left","NA","623.0","89712","11138","623","NA","2","legacy","3","1024","2","48000","-16","experiment","4","even","1","342731","344942","341676","342729","1863","177547","274138","1960","166408","346946","347569","343737","91879","346946","NA","Sternberg task","35","34470.0","40","1024"
"87","87","859","859","#3d3846","experiment","legacy","legacy","legacy","1","undefined","1","right","40","40","40","40","0","0","40","0","0","40","40","40","0","40","0","Sun Oct 22 20:57:03 2023","The main experiment item","False","Sternbergtask.osexp","/Users/keelihatcher/Desktop/Tarleton M.D./Advanced Quantitative Methods & Experimental Design","False","mono","False","18","no","white","no","yes","768","legacy","28","11","/Users/keelihatcher/Desktop/Tarleton M.D./Advanced Quantitative Methods & Experimental Design/KH-subject-4.csv","legacy","8 6 3 4 7","Melodramatic Milgram","4.0.5","0","n","0","right","right","right","right","NA","755.0","89712","11138","755","NA","2","legacy","5","1024","2","48000","-16","experiment","4","even","1","348615","350825","347572","348612","1863","177547","274138","1960","166408","352828","353583","349619","91879","352827","NA","Sternberg task","36","35225.0","41","1024"
"88","88","856","856","#3d3846","experiment","legacy","legacy","legacy","1","undefined","1","left","41","41","41","41","0","0","41","0","0","41","41","41","0","41","0","Sun Oct 22 20:57:03 2023","The main experiment item","False","Sternbergtask.osexp","/Users/keelihatcher/Desktop/Tarleton M.D./Advanced Quantitative Methods & Experimental Design","False","mono","False","18","no","white","no","yes","768","legacy","29","11","/Users/keelihatcher/Desktop/Tarleton M.D./Advanced Quantitative Methods & Experimental Design/KH-subject-4.csv","legacy","9 1 7 2","Melodramatic Milgram","4.0.5","2","y","0","left","right","right","left","NA","737.0","89712","11138","737","NA","2","legacy","4","1024","2","48000","-16","experiment","4","even","1","354637","356847","353585","354635","1863","177547","274138","1960","166408","358850","359588","355642","91879","358850","NA","Sternberg task","37","35962.0","42","1024"
"88","88","851","851","#3d3846","experiment","legacy","legacy","legacy","1","undefined","1","right","42","42","42","42","0","0","42","0","0","42","42","42","0","42","0","Sun Oct 22 20:57:03 2023","The main experiment item","False","Sternbergtask.osexp","/Users/keelihatcher/Desktop/Tarleton M.D./Advanced Quantitative Methods & Experimental Design","False","mono","False","18","no","white","no","yes","768","legacy","30","11","/Users/keelihatcher/Desktop/Tarleton M.D./Advanced Quantitative Methods & Experimental Design/KH-subject-4.csv","legacy","7 1","Melodramatic Milgram","4.0.5","0","n","0","right","right","right","right","NA","655.0","89712","11138","655","NA","2","legacy","2","1024","2","48000","-16","experiment","4","even","8","360642","362853","359590","360640","1863","177547","274138","1960","166408","364856","365512","361647","91879","364856","NA","Sternberg task","38","36617.0","43","1024"
"88","88","848","848","#3d3846","experiment","legacy","legacy","legacy","1","undefined","1","right","43","43","43","43","0","0","43","0","0","43","43","43","0","43","0","Sun Oct 22 20:57:03 2023","The main experiment item","False","Sternbergtask.osexp","/Users/keelihatcher/Desktop/Tarleton M.D./Advanced Quantitative Methods & Experimental Design","False","mono","False","18","no","white","no","yes","768","legacy","31","11","/Users/keelihatcher/Desktop/Tarleton M.D./Advanced Quantitative Methods & Experimental Design/KH-subject-4.csv","legacy","7 9 1 6","Melodramatic Milgram","4.0.5","0","n","0","right","right","right","right","NA","734.0","89712","11138","734","NA","2","legacy","4","1024","2","48000","-16","experiment","4","even","4","366565","368773","365515","366562","1863","177547","274138","1960","166408","370776","371510","367569","91879","370776","NA","Sternberg task","39","37351.0","44","1024"
"88","88","847","847","#3d3846","experiment","legacy","legacy","legacy","1","undefined","1","right","44","44","44","44","0","0","44","0","0","44","44","44","0","44","0","Sun Oct 22 20:57:03 2023","The main experiment item","False","Sternbergtask.osexp","/Users/keelihatcher/Desktop/Tarleton M.D./Advanced Quantitative Methods & Experimental Design","False","mono","False","18","no","white","no","yes","768","legacy","32","11","/Users/keelihatcher/Desktop/Tarleton M.D./Advanced Quantitative Methods & Experimental Design/KH-subject-4.csv","legacy","6 9 4 5 3 2","Melodramatic Milgram","4.0.5","0","n","0","right","right","right","right","NA","777.0","89712","11138","777","NA","2","legacy","6","1024","2","48000","-16","experiment","4","even","8","372562","374771","371513","372559","1863","177547","274138","1960","166408","376774","377552","373565","91879","376774","NA","Sternberg task","40","38128.0","45","1024"
"89","89","842","842","#3d3846","experiment","legacy","legacy","legacy","1","undefined","1","right","45","45","45","45","0","0","45","0","0","45","45","45","0","45","0","Sun Oct 22 20:57:03 2023","The main experiment item","False","Sternbergtask.osexp","/Users/keelihatcher/Desktop/Tarleton M.D./Advanced Quantitative Methods & Experimental Design","False","mono","False","18","no","white","no","yes","768","legacy","33","11","/Users/keelihatcher/Desktop/Tarleton M.D./Advanced Quantitative Methods & Experimental Design/KH-subject-4.csv","legacy","4 2 7 6 1 3","Melodramatic Milgram","4.0.5","0","n","0","right","right","right","right","NA","647.0","89712","11138","647","NA","2","legacy","6","1024","2","48000","-16","experiment","4","even","8","378605","380816","377554","378602","1863","177547","274138","1960","166408","382819","383467","379611","91879","382819","NA","Sternberg task","41","38775.0","46","1024"
"89","89","848","848","#3d3846","experiment","legacy","legacy","legacy","1","undefined","1","left","46","46","46","46","0","0","46","0","0","46","46","46","0","46","0","Sun Oct 22 20:57:03 2023","The main experiment item","False","Sternbergtask.osexp","/Users/keelihatcher/Desktop/Tarleton M.D./Advanced Quantitative Methods & Experimental Design","False","mono","False","18","no","white","no","yes","768","legacy","34","11","/Users/keelihatcher/Desktop/Tarleton M.D./Advanced Quantitative Methods & Experimental Design/KH-subject-4.csv","legacy","4 3 2 5 8","Melodramatic Milgram","4.0.5","2","y","0","left","right","right","left","NA","1127.0","89712","11138","1127","NA","2","legacy","5","1024","2","48000","-16","experiment","4","even","3","384511","386720","383470","384508","1863","177547","274138","1960","166408","388723","389851","385514","91879","388723","NA","Sternberg task","42","39902.0","47","1024"
"89","89","845","845","#3d3846","experiment","legacy","legacy","legacy","1","undefined","1","left","47","47","47","47","0","0","47","0","0","47","47","47","0","47","0","Sun Oct 22 20:57:03 2023","The main experiment item","False","Sternbergtask.osexp","/Users/keelihatcher/Desktop/Tarleton M.D./Advanced Quantitative Methods & Experimental Design","False","mono","False","18","no","white","no","yes","768","legacy","35","11","/Users/keelihatcher/Desktop/Tarleton M.D./Advanced Quantitative Methods & Experimental Design/KH-subject-4.csv","legacy","5 7 3 6 2","Melodramatic Milgram","4.0.5","5","y","0","left","right","right","left","NA","666.0","89712","11138","666","NA","2","legacy","5","1024","2","48000","-16","experiment","4","even","2","390904","393115","389854","390902","1863","177547","274138","1960","166408","395119","395786","391908","91879","395118","NA","Sternberg task","43","40568.0","48","1024"
"89","89","842","842","#3d3846","experiment","legacy","legacy","legacy","1","undefined","1","right","48","48","48","48","0","0","48","0","0","48","48","48","0","48","0","Sun Oct 22 20:57:03 2023","The main experiment item","False","Sternbergtask.osexp","/Users/keelihatcher/Desktop/Tarleton M.D./Advanced Quantitative Methods & Experimental Design","False","mono","False","18","no","white","no","yes","768","legacy","36","11","/Users/keelihatcher/Desktop/Tarleton M.D./Advanced Quantitative Methods & Experimental Design/KH-subject-4.csv","legacy","6 9 7 3 8 2","Melodramatic Milgram","4.0.5","0","n","0","right","right","right","right","NA","725.0","89712","11138","725","NA","2","legacy","6","1024","2","48000","-16","experiment","4","even","5","396831","399040","395788","396829","1863","177547","274138","1960","166408","401043","401769","397834","91879","401043","NA","Sternberg task","44","41293.0","49","1024"
"90","90","839","839","#3d3846","experiment","legacy","legacy","legacy","1","undefined","1","right","49","49","49","49","0","0","49","0","0","49","49","49","0","49","0","Sun Oct 22 20:57:03 2023","The main experiment item","False","Sternbergtask.osexp","/Users/keelihatcher/Desktop/Tarleton M.D./Advanced Quantitative Methods & Experimental Design","False","mono","False","18","no","white","no","yes","768","legacy","37","11","/Users/keelihatcher/Desktop/Tarleton M.D./Advanced Quantitative Methods & Experimental Design/KH-subject-4.csv","legacy","3 4 2","Melodramatic Milgram","4.0.5","0","n","0","right","right","right","right","NA","663.0","89712","11138","663","NA","2","legacy","3","1024","2","48000","-16","experiment","4","even","5","402814","405023","401771","402812","1863","177547","274138","1960","166408","407026","407690","403818","91879","407025","NA","Sternberg task","45","41956.0","50","1024"
"90","90","845","845","#3d3846","experiment","legacy","legacy","legacy","1","undefined","1","left","50","50","50","50","0","0","50","0","0","50","50","50","0","50","0","Sun Oct 22 20:57:03 2023","The main experiment item","False","Sternbergtask.osexp","/Users/keelihatcher/Desktop/Tarleton M.D./Advanced Quantitative Methods & Experimental Design","False","mono","False","18","no","white","no","yes","768","legacy","38","11","/Users/keelihatcher/Desktop/Tarleton M.D./Advanced Quantitative Methods & Experimental Design/KH-subject-4.csv","legacy","8 5 4 7 3 1","Melodramatic Milgram","4.0.5","2","y","0","left","right","right","left","NA","1152.0","89712","11138","1152","NA","2","legacy","6","1024","2","48000","-16","experiment","4","even","5","408746","410956","407692","408744","1863","177547","274138","1960","166408","412959","414112","409751","91879","412959","NA","Sternberg task","46","43108.0","51","1024"
"90","90","844","844","#3d3846","experiment","legacy","legacy","legacy","1","undefined","1","left","51","51","51","51","0","0","51","0","0","51","51","51","0","51","0","Sun Oct 22 20:57:03 2023","The main experiment item","False","Sternbergtask.osexp","/Users/keelihatcher/Desktop/Tarleton M.D./Advanced Quantitative Methods & Experimental Design","False","mono","False","18","no","white","no","yes","768","legacy","39","11","/Users/keelihatcher/Desktop/Tarleton M.D./Advanced Quantitative Methods & Experimental Design/KH-subject-4.csv","legacy","8 5 1 3 9","Melodramatic Milgram","4.0.5","4","y","0","left","right","right","left","NA","810.0","89712","11138","810","NA","2","legacy","5","1024","2","48000","-16","experiment","4","even","3","415178","417387","414116","415175","1863","177547","274138","1960","166408","419391","420201","416182","91879","419391","NA","Sternberg task","47","43918.0","52","1024"
"90","90","843","843","#3d3846","experiment","legacy","legacy","legacy","1","undefined","1","right","52","52","52","52","0","0","52","0","0","52","52","52","0","52","0","Sun Oct 22 20:57:03 2023","The main experiment item","False","Sternbergtask.osexp","/Users/keelihatcher/Desktop/Tarleton M.D./Advanced Quantitative Methods & Experimental Design","False","mono","False","18","no","white","no","yes","768","legacy","40","11","/Users/keelihatcher/Desktop/Tarleton M.D./Advanced Quantitative Methods & Experimental Design/KH-subject-4.csv","legacy","4 2 6 9","Melodramatic Milgram","4.0.5","0","n","0","right","right","right","right","NA","794.0","89712","11138","794","NA","2","legacy","4","1024","2","48000","-16","experiment","4","even","7","421250","423461","420204","421248","1863","177547","274138","1960","166408","425465","426260","422255","91879","425464","NA","Sternberg task","48","44712.0","53","1024"
"90","90","838","838","#3d3846","experiment","legacy","legacy","legacy","1","undefined","1","left","53","53","53","53","0","0","53","0","0","53","53","53","0","53","0","Sun Oct 22 20:57:03 2023","The main experiment item","False","Sternbergtask.osexp","/Users/keelihatcher/Desktop/Tarleton M.D./Advanced Quantitative Methods & Experimental Design","False","mono","False","18","no","white","no","yes","768","legacy","41","11","/Users/keelihatcher/Desktop/Tarleton M.D./Advanced Quantitative Methods & Experimental Design/KH-subject-4.csv","legacy","7","Melodramatic Milgram","4.0.5","1","y","0","left","right","right","left","NA","576.0","89712","11138","576","NA","2","legacy","1","1024","2","48000","-16","experiment","4","even","7","427312","429521","426265","427310","1863","177547","274138","1960","166408","431524","432101","428316","91879","431524","NA","Sternberg task","49","45288.0","54","1024"
"90","90","835","835","#3d3846","experiment","legacy","legacy","legacy","1","undefined","1","left","54","54","54","54","0","0","54","0","0","54","54","54","0","54","0","Sun Oct 22 20:57:03 2023","The main experiment item","False","Sternbergtask.osexp","/Users/keelihatcher/Desktop/Tarleton M.D./Advanced Quantitative Methods & Experimental Design","False","mono","False","18","no","white","no","yes","768","legacy","42","11","/Users/keelihatcher/Desktop/Tarleton M.D./Advanced Quantitative Methods & Experimental Design/KH-subject-4.csv","legacy","7 6","Melodramatic Milgram","4.0.5","2","y","0","left","right","right","left","NA","677.0","89712","11138","677","NA","2","legacy","2","1024","2","48000","-16","experiment","4","even","6","433154","435367","432104","433152","1863","177547","274138","1960","166408","437370","438048","434161","91879","437370","NA","Sternberg task","50","45965.0","55","1024"
"91","91","835","835","#3d3846","experiment","legacy","legacy","legacy","1","undefined","1","right","55","55","55","55","0","0","55","0","0","55","55","55","0","55","0","Sun Oct 22 20:57:03 2023","The main experiment item","False","Sternbergtask.osexp","/Users/keelihatcher/Desktop/Tarleton M.D./Advanced Quantitative Methods & Experimental Design","False","mono","False","18","no","white","no","yes","768","legacy","43","11","/Users/keelihatcher/Desktop/Tarleton M.D./Advanced Quantitative Methods & Experimental Design/KH-subject-4.csv","legacy","6 7 5 9","Melodramatic Milgram","4.0.5","0","n","0","right","right","right","right","NA","802.0","89712","11138","802","NA","2","legacy","4","1024","2","48000","-16","experiment","4","even","2","439099","441309","438050","439096","1863","177547","274138","1960","166408","443312","444115","440103","91879","443312","NA","Sternberg task","51","46767.0","56","1024"
"91","91","833","833","#3d3846","experiment","legacy","legacy","legacy","1","undefined","1","left","56","56","56","56","0","0","56","0","0","56","56","56","0","56","0","Sun Oct 22 20:57:03 2023","The main experiment item","False","Sternbergtask.osexp","/Users/keelihatcher/Desktop/Tarleton M.D./Advanced Quantitative Methods & Experimental Design","False","mono","False","18","no","white","no","yes","768","legacy","44","11","/Users/keelihatcher/Desktop/Tarleton M.D./Advanced Quantitative Methods & Experimental Design/KH-subject-4.csv","legacy","3 9 6 2","Melodramatic Milgram","4.0.5","4","y","0","left","right","right","left","NA","770.0","89712","11138","770","NA","2","legacy","4","1024","2","48000","-16","experiment","4","even","2","445165","447375","444117","445163","1863","177547","274138","1960","166408","449379","450149","446169","91879","449378","NA","Sternberg task","52","47537.0","57","1024"
"91","91","830","830","#3d3846","experiment","legacy","legacy","legacy","1","undefined","1","left","57","57","57","57","0","0","57","0","0","57","57","57","0","57","0","Sun Oct 22 20:57:03 2023","The main experiment item","False","Sternbergtask.osexp","/Users/keelihatcher/Desktop/Tarleton M.D./Advanced Quantitative Methods & Experimental Design","False","mono","False","18","no","white","no","yes","768","legacy","45","11","/Users/keelihatcher/Desktop/Tarleton M.D./Advanced Quantitative Methods & Experimental Design/KH-subject-4.csv","legacy","6 7 8 5","Melodramatic Milgram","4.0.5","3","y","0","left","right","right","left","NA","635.0","89712","11138","635","NA","2","legacy","4","1024","2","48000","-16","experiment","4","even","8","451199","453409","450152","451197","1863","177547","274138","1960","166408","455414","456050","452203","91879","455414","NA","Sternberg task","53","48172.0","58","1024"
"91","91","834","834","#3d3846","experiment","legacy","legacy","legacy","1","undefined","1","left","58","58","58","58","0","0","58","0","0","58","58","58","0","58","0","Sun Oct 22 20:57:03 2023","The main experiment item","False","Sternbergtask.osexp","/Users/keelihatcher/Desktop/Tarleton M.D./Advanced Quantitative Methods & Experimental Design","False","mono","False","18","no","white","no","yes","768","legacy","46","11","/Users/keelihatcher/Desktop/Tarleton M.D./Advanced Quantitative Methods & Experimental Design/KH-subject-4.csv","legacy","7 1 8 5 6 2","Melodramatic Milgram","4.0.5","2","y","0","left","right","right","left","NA","1078.0","89712","11138","1078","NA","2","legacy","6","1024","2","48000","-16","experiment","4","even","1","457102","459312","456053","457099","1863","177547","274138","1960","166408","461316","462395","458106","91879","461315","NA","Sternberg task","54","49250.0","59","1024"
"91","91","837","837","#3d3846","experiment","legacy","legacy","legacy","1","undefined","1","left","59","59","59","59","0","0","59","0","0","59","59","59","0","59","0","Sun Oct 22 20:57:03 2023","The main experiment item","False","Sternbergtask.osexp","/Users/keelihatcher/Desktop/Tarleton M.D./Advanced Quantitative Methods & Experimental Design","False","mono","False","18","no","white","no","yes","768","legacy","47","11","/Users/keelihatcher/Desktop/Tarleton M.D./Advanced Quantitative Methods & Experimental Design/KH-subject-4.csv","legacy","1 4 9 3 2 5","Melodramatic Milgram","4.0.5","3","y","0","left","right","right","left","NA","1000.0","89712","11138","1000","NA","2","legacy","6","1024","2","48000","-16","experiment","4","even","9","463425","465635","462398","463423","1863","177547","274138","1960","166408","467637","468638","464429","91879","467636","NA","Sternberg task","55","50250.0","60","1024"
"91","91","836","836","#3d3846","experiment","legacy","legacy","legacy","1","undefined","1","left","60","60","60","60","0","0","60","0","0","60","60","60","0","60","0","Sun Oct 22 20:57:03 2023","The main experiment item","False","Sternbergtask.osexp","/Users/keelihatcher/Desktop/Tarleton M.D./Advanced Quantitative Methods & Experimental Design","False","mono","False","18","no","white","no","yes","768","legacy","48","11","/Users/keelihatcher/Desktop/Tarleton M.D./Advanced Quantitative Methods & Experimental Design/KH-subject-4.csv","legacy","9 1 6 7 8","Melodramatic Milgram","4.0.5","1","y","0","left","right","right","left","NA","759.0","89712","11138","759","NA","2","legacy","5","1024","2","48000","-16","experiment","4","even","9","469688","471896","468640","469685","1863","177547","274138","1960","166408","473899","474659","470692","91879","473899","NA","Sternberg task","56","51009.0","61","1024"
"91","91","831","831","#3d3846","experiment","legacy","legacy","legacy","1","undefined","1","left","61","61","61","61","0","0","61","0","0","61","61","61","0","61","0","Sun Oct 22 20:57:03 2023","The main experiment item","False","Sternbergtask.osexp","/Users/keelihatcher/Desktop/Tarleton M.D./Advanced Quantitative Methods & Experimental Design","False","mono","False","18","no","white","no","yes","768","legacy","49","11","/Users/keelihatcher/Desktop/Tarleton M.D./Advanced Quantitative Methods & Experimental Design/KH-subject-4.csv","legacy","8 7 3","Melodramatic Milgram","4.0.5","1","y","0","left","right","right","left","NA","529.0","89712","11138","529","NA","2","legacy","3","1024","2","48000","-16","experiment","4","even","8","475718","477927","474662","475716","1863","177547","274138","1960","166408","479930","480460","476722","91879","479930","NA","Sternberg task","57","51538.0","62","1024"
"92","92","828","828","#3d3846","experiment","legacy","legacy","legacy","1","undefined","1","right","62","62","62","62","0","0","62","0","0","62","62","62","0","62","0","Sun Oct 22 20:57:03 2023","The main experiment item","False","Sternbergtask.osexp","/Users/keelihatcher/Desktop/Tarleton M.D./Advanced Quantitative Methods & Experimental Design","False","mono","False","18","no","white","no","yes","768","legacy","50","11","/Users/keelihatcher/Desktop/Tarleton M.D./Advanced Quantitative Methods & Experimental Design/KH-subject-4.csv","legacy","2 8 9","Melodramatic Milgram","4.0.5","0","n","0","right","right","right","right","NA","641.0","89712","11138","641","NA","2","legacy","3","1024","2","48000","-16","experiment","4","even","6","481521","483732","480462","481518","1863","177547","274138","1960","166408","485736","486378","482527","91879","485735","NA","Sternberg task","58","52179.0","63","1024"
"92","92","824","824","#3d3846","experiment","legacy","legacy","legacy","1","undefined","1","left","63","63","63","63","0","0","63","0","0","63","63","63","0","63","0","Sun Oct 22 20:57:03 2023","The main experiment item","False","Sternbergtask.osexp","/Users/keelihatcher/Desktop/Tarleton M.D./Advanced Quantitative Methods & Experimental Design","False","mono","False","18","no","white","no","yes","768","legacy","51","11","/Users/keelihatcher/Desktop/Tarleton M.D./Advanced Quantitative Methods & Experimental Design/KH-subject-4.csv","legacy","2 8 5 1","Melodramatic Milgram","4.0.5","4","y","0","left","right","right","left","NA","560.0","89712","11138","560","NA","2","legacy","4","1024","2","48000","-16","experiment","4","even","1","487436","489645","486380","487433","1863","177547","274138","1960","166408","491649","492210","488439","91879","491649","NA","Sternberg task","59","52739.0","64","1024"
"92","92","820","820","#3d3846","experiment","legacy","legacy","legacy","1","undefined","1","left","64","64","64","64","0","0","64","0","0","64","64","64","0","64","0","Sun Oct 22 20:57:03 2023","The main experiment item","False","Sternbergtask.osexp","/Users/keelihatcher/Desktop/Tarleton M.D./Advanced Quantitative Methods & Experimental Design","False","mono","False","18","no","white","no","yes","768","legacy","52","11","/Users/keelihatcher/Desktop/Tarleton M.D./Advanced Quantitative Methods & Experimental Design/KH-subject-4.csv","legacy","4 6 5 8","Melodramatic Milgram","4.0.5","1","y","0","left","right","right","left","NA","579.0","89712","11138","579","NA","2","legacy","4","1024","2","48000","-16","experiment","4","even","4","493264","495474","492212","493261","1863","177547","274138","1960","166408","497478","498058","494268","91879","497478","NA","Sternberg task","60","53318.0","65","1024"
"92","92","815","815","#3d3846","experiment","legacy","legacy","legacy","1","undefined","1","left","65","65","65","65","0","0","65","0","0","65","65","65","0","65","0","Sun Oct 22 20:57:03 2023","The main experiment item","False","Sternbergtask.osexp","/Users/keelihatcher/Desktop/Tarleton M.D./Advanced Quantitative Methods & Experimental Design","False","mono","False","18","no","white","no","yes","768","legacy","53","11","/Users/keelihatcher/Desktop/Tarleton M.D./Advanced Quantitative Methods & Experimental Design/KH-subject-4.csv","legacy","6 9 3 1","Melodramatic Milgram","4.0.5","4","y","0","left","right","right","left","NA","512.0","89712","11138","512","NA","2","legacy","4","1024","2","48000","-16","experiment","4","even","1","499115","501325","498060","499112","1863","177547","274138","1960","166408","503328","503841","500119","91879","503328","NA","Sternberg task","61","53830.0","66","1024"
"92","92","815","815","#3d3846","experiment","legacy","legacy","legacy","1","undefined","1","right","66","66","66","66","0","0","66","0","0","66","66","66","0","66","0","Sun Oct 22 20:57:03 2023","The main experiment item","False","Sternbergtask.osexp","/Users/keelihatcher/Desktop/Tarleton M.D./Advanced Quantitative Methods & Experimental Design","False","mono","False","18","no","white","no","yes","768","legacy","54","11","/Users/keelihatcher/Desktop/Tarleton M.D./Advanced Quantitative Methods & Experimental Design/KH-subject-4.csv","legacy","3 4 9 6 7 8","Melodramatic Milgram","4.0.5","0","n","0","right","right","right","right","NA","801.0","89712","11138","801","NA","2","legacy","6","1024","2","48000","-16","experiment","4","even","2","504901","507110","503843","504899","1863","177547","274138","1960","166408","509116","509917","505904","91879","509115","NA","Sternberg task","62","54631.0","67","1024"
"92","92","814","814","#3d3846","experiment","legacy","legacy","legacy","1","undefined","1","right","67","67","67","67","0","0","67","0","0","67","67","67","0","67","0","Sun Oct 22 20:57:03 2023","The main experiment item","False","Sternbergtask.osexp","/Users/keelihatcher/Desktop/Tarleton M.D./Advanced Quantitative Methods & Experimental Design","False","mono","False","18","no","white","no","yes","768","legacy","55","11","/Users/keelihatcher/Desktop/Tarleton M.D./Advanced Quantitative Methods & Experimental Design/KH-subject-4.csv","legacy","8 9","Melodramatic Milgram","4.0.5","0","n","0","right","right","right","right","NA","758.0","89712","11138","758","NA","2","legacy","2","1024","2","48000","-16","experiment","4","even","5","510977","513187","509920","510975","1863","177547","274138","1960","166408","515192","515951","511981","91879","515192","NA","Sternberg task","63","55389.0","68","1024"
"92","92","811","811","#3d3846","experiment","legacy","legacy","legacy","1","undefined","1","right","68","68","68","68","0","0","68","0","0","68","68","68","0","68","0","Sun Oct 22 20:57:03 2023","The main experiment item","False","Sternbergtask.osexp","/Users/keelihatcher/Desktop/Tarleton M.D./Advanced Quantitative Methods & Experimental Design","False","mono","False","18","no","white","no","yes","768","legacy","56","11","/Users/keelihatcher/Desktop/Tarleton M.D./Advanced Quantitative Methods & Experimental Design/KH-subject-4.csv","legacy","1","Melodramatic Milgram","4.0.5","0","n","0","right","right","right","right","NA","614.0","89712","11138","614","NA","2","legacy","1","1024","2","48000","-16","experiment","4","even","7","517010","519221","515953","517008","1863","177547","274138","1960","166408","521225","521840","518015","91879","521225","NA","Sternberg task","64","56003.0","69","1024"
"92","92","810","810","#3d3846","experiment","legacy","legacy","legacy","1","undefined","1","left","69","69","69","69","0","0","69","0","0","69","69","69","0","69","0","Sun Oct 22 20:57:03 2023","The main experiment item","False","Sternbergtask.osexp","/Users/keelihatcher/Desktop/Tarleton M.D./Advanced Quantitative Methods & Experimental Design","False","mono","False","18","no","white","no","yes","768","legacy","57","11","/Users/keelihatcher/Desktop/Tarleton M.D./Advanced Quantitative Methods & Experimental Design/KH-subject-4.csv","legacy","6 1 2","Melodramatic Milgram","4.0.5","3","y","0","left","right","right","left","NA","729.0","89712","11138","729","NA","2","legacy","3","1024","2","48000","-16","experiment","4","even","2","522897","525108","521842","522894","1863","177547","274138","1960","166408","527112","527842","523902","91879","527112","NA","Sternberg task","65","56732.0","70","1024"
"92","92","807","807","#3d3846","experiment","legacy","legacy","legacy","1","undefined","1","left","70","70","70","70","0","0","70","0","0","70","70","70","0","70","0","Sun Oct 22 20:57:03 2023","The main experiment item","False","Sternbergtask.osexp","/Users/keelihatcher/Desktop/Tarleton M.D./Advanced Quantitative Methods & Experimental Design","False","mono","False","18","no","white","no","yes","768","legacy","58","11","/Users/keelihatcher/Desktop/Tarleton M.D./Advanced Quantitative Methods & Experimental Design/KH-subject-4.csv","legacy","2 3","Melodramatic Milgram","4.0.5","1","y","0","left","right","right","left","NA","623.0","89712","11138","623","NA","2","legacy","2","1024","2","48000","-16","experiment","4","even","2","528895","531104","527845","528892","1863","177547","274138","1960","166408","533118","533742","529899","91879","533117","NA","Sternberg task","66","57355.0","71","1024"
"93","93","805","805","#3d3846","experiment","legacy","legacy","legacy","1","undefined","1","right","71","71","71","71","0","0","71","0","0","71","71","71","0","71","0","Sun Oct 22 20:57:03 2023","The main experiment item","False","Sternbergtask.osexp","/Users/keelihatcher/Desktop/Tarleton M.D./Advanced Quantitative Methods & Experimental Design","False","mono","False","18","no","white","no","yes","768","legacy","59","11","/Users/keelihatcher/Desktop/Tarleton M.D./Advanced Quantitative Methods & Experimental Design/KH-subject-4.csv","legacy","8 4 3 5","Melodramatic Milgram","4.0.5","0","n","0","right","right","right","right","NA","672.0","89712","11138","672","NA","2","legacy","4","1024","2","48000","-16","experiment","4","even","6","534799","537009","533746","534797","1863","177547","274138","1960","166408","539012","539685","535804","91879","539012","NA","Sternberg task","67","58027.0","72","1024"
"93","93","805","805","#3d3846","experiment","legacy","legacy","legacy","1","undefined","1","right","72","72","72","72","0","0","72","0","0","72","72","72","0","72","0","Sun Oct 22 20:57:03 2023","The main experiment item","False","Sternbergtask.osexp","/Users/keelihatcher/Desktop/Tarleton M.D./Advanced Quantitative Methods & Experimental Design","False","mono","False","18","no","white","no","yes","768","legacy","60","11","/Users/keelihatcher/Desktop/Tarleton M.D./Advanced Quantitative Methods & Experimental Design/KH-subject-4.csv","legacy","2 8 9 4 1","Melodramatic Milgram","4.0.5","0","n","0","right","right","right","right","NA","785.0","89712","11138","785","NA","2","legacy","5","1024","2","48000","-16","experiment","4","even","5","540737","542946","539688","540735","1863","177547","274138","1960","166408","544950","545736","541741","91879","544949","NA","Sternberg task","68","58812.0","73","1024"
"93","93","807","807","#3d3846","experiment","legacy","legacy","legacy","1","undefined","1","left","73","73","73","73","0","0","73","0","0","73","73","73","0","73","0","Sun Oct 22 20:57:03 2023","The main experiment item","False","Sternbergtask.osexp","/Users/keelihatcher/Desktop/Tarleton M.D./Advanced Quantitative Methods & Experimental Design","False","mono","False","18","no","white","no","yes","768","legacy","61","11","/Users/keelihatcher/Desktop/Tarleton M.D./Advanced Quantitative Methods & Experimental Design/KH-subject-4.csv","legacy","4 6 2 5 1","Melodramatic Milgram","4.0.5","5","y","0","left","right","right","left","NA","959.0","89712","11138","959","NA","2","legacy","5","1024","2","48000","-16","experiment","4","even","1","546789","548998","545738","546786","1863","177547","274138","1960","166408","551011","551971","547793","91879","551011","NA","Sternberg task","69","59771.0","74","1024"
"93","93","806","806","#3d3846","experiment","legacy","legacy","legacy","1","undefined","1","left","74","74","74","74","0","0","74","0","0","74","74","74","0","74","0","Sun Oct 22 20:57:03 2023","The main experiment item","False","Sternbergtask.osexp","/Users/keelihatcher/Desktop/Tarleton M.D./Advanced Quantitative Methods & Experimental Design","False","mono","False","18","no","white","no","yes","768","legacy","62","11","/Users/keelihatcher/Desktop/Tarleton M.D./Advanced Quantitative Methods & Experimental Design/KH-subject-4.csv","legacy","8 1 6","Melodramatic Milgram","4.0.5","3","y","0","left","right","right","left","NA","726.0","89712","11138","726","NA","2","legacy","3","1024","2","48000","-16","experiment","4","even","6","553027","555238","551973","553024","1863","177547","274138","1960","166408","557242","557968","554033","91879","557242","NA","Sternberg task","70","60497.0","75","1024"
"93","93","803","803","#3d3846","experiment","legacy","legacy","legacy","1","undefined","1","left","75","75","75","75","0","0","75","0","0","75","75","75","0","75","0","Sun Oct 22 20:57:03 2023","The main experiment item","False","Sternbergtask.osexp","/Users/keelihatcher/Desktop/Tarleton M.D./Advanced Quantitative Methods & Experimental Design","False","mono","False","18","no","white","no","yes","768","legacy","63","11","/Users/keelihatcher/Desktop/Tarleton M.D./Advanced Quantitative Methods & Experimental Design/KH-subject-4.csv","legacy","3 5 4 7","Melodramatic Milgram","4.0.5","1","y","0","left","right","right","left","NA","564.0","89712","11138","564","NA","2","legacy","4","1024","2","48000","-16","experiment","4","even","3","559026","561236","557971","559023","1863","177547","274138","1960","166408","563239","563804","560030","91879","563239","NA","Sternberg task","71","61061.0","76","1024"
"93","93","802","802","#3d3846","experiment","legacy","legacy","legacy","1","undefined","1","right","76","76","76","76","0","0","76","0","0","76","76","76","0","76","0","Sun Oct 22 20:57:03 2023","The main experiment item","False","Sternbergtask.osexp","/Users/keelihatcher/Desktop/Tarleton M.D./Advanced Quantitative Methods & Experimental Design","False","mono","False","18","no","white","no","yes","768","legacy","64","11","/Users/keelihatcher/Desktop/Tarleton M.D./Advanced Quantitative Methods & Experimental Design/KH-subject-4.csv","legacy","5 7 3","Melodramatic Milgram","4.0.5","0","n","0","right","right","right","right","NA","739.0","89712","11138","739","NA","2","legacy","3","1024","2","48000","-16","experiment","4","even","9","564855","567064","563806","564852","1863","177547","274138","1960","166408","569068","569808","565858","91879","569067","NA","Sternberg task","72","61800.0","77","1024"
"93","93","801","801","#3d3846","experiment","legacy","legacy","legacy","1","undefined","1","right","77","77","77","77","0","0","77","0","0","77","77","77","0","77","0","Sun Oct 22 20:57:03 2023","The main experiment item","False","Sternbergtask.osexp","/Users/keelihatcher/Desktop/Tarleton M.D./Advanced Quantitative Methods & Experimental Design","False","mono","False","18","no","white","no","yes","768","legacy","65","11","/Users/keelihatcher/Desktop/Tarleton M.D./Advanced Quantitative Methods & Experimental Design/KH-subject-4.csv","legacy","9 5 3 2 8 6","Melodramatic Milgram","4.0.5","0","n","0","right","right","right","right","NA","708.0","89712","11138","708","NA","2","legacy","6","1024","2","48000","-16","experiment","4","even","7","570863","573072","569810","570860","1863","177547","274138","1960","166408","575076","575785","571867","91879","575076","NA","Sternberg task","73","62508.0","78","1024"
"93","93","800","800","#3d3846","experiment","legacy","legacy","legacy","1","undefined","1","right","78","78","78","78","0","0","78","0","0","78","78","78","0","78","0","Sun Oct 22 20:57:03 2023","The main experiment item","False","Sternbergtask.osexp","/Users/keelihatcher/Desktop/Tarleton M.D./Advanced Quantitative Methods & Experimental Design","False","mono","False","18","no","white","no","yes","768","legacy","66","11","/Users/keelihatcher/Desktop/Tarleton M.D./Advanced Quantitative Methods & Experimental Design/KH-subject-4.csv","legacy","5 3 8 7 2 4","Melodramatic Milgram","4.0.5","0","n","0","right","right","right","right","NA","717.0","89712","11138","717","NA","2","legacy","6","1024","2","48000","-16","experiment","4","even","9","576837","579046","575787","576834","1863","177547","274138","1960","166408","581049","581767","577842","91879","581049","NA","Sternberg task","74","63225.0","79","1024"
"93","93","800","800","#3d3846","experiment","legacy","legacy","legacy","1","undefined","1","right","79","79","79","79","0","0","79","0","0","79","79","79","0","79","0","Sun Oct 22 20:57:03 2023","The main experiment item","False","Sternbergtask.osexp","/Users/keelihatcher/Desktop/Tarleton M.D./Advanced Quantitative Methods & Experimental Design","False","mono","False","18","no","white","no","yes","768","legacy","67","11","/Users/keelihatcher/Desktop/Tarleton M.D./Advanced Quantitative Methods & Experimental Design/KH-subject-4.csv","legacy","9 8 2 7 4","Melodramatic Milgram","4.0.5","0","n","0","right","right","right","right","NA","821.0","89712","11138","821","NA","2","legacy","5","1024","2","48000","-16","experiment","4","even","5","582818","585028","581769","582815","1863","177547","274138","1960","166408","587031","587853","583822","91879","587031","NA","Sternberg task","75","64046.0","80","1024"
"93","93","799","799","#3d3846","experiment","legacy","legacy","legacy","1","undefined","1","right","80","80","80","80","0","0","80","0","0","80","80","80","0","80","0","Sun Oct 22 20:57:03 2023","The main experiment item","False","Sternbergtask.osexp","/Users/keelihatcher/Desktop/Tarleton M.D./Advanced Quantitative Methods & Experimental Design","False","mono","False","18","no","white","no","yes","768","legacy","68","11","/Users/keelihatcher/Desktop/Tarleton M.D./Advanced Quantitative Methods & Experimental Design/KH-subject-4.csv","legacy","8 2 1 4 5 9","Melodramatic Milgram","4.0.5","0","n","0","right","right","right","right","NA","743.0","89712","11138","743","NA","2","legacy","6","1024","2","48000","-16","experiment","4","even","7","588905","591114","587856","588902","1863","177547","274138","1960","166408","593117","593860","589909","91879","593117","NA","Sternberg task","76","64789.0","81","1024"
"93","93","797","797","#3d3846","experiment","legacy","legacy","legacy","1","undefined","1","left","81","81","81","81","0","0","81","0","0","81","81","81","0","81","0","Sun Oct 22 20:57:03 2023","The main experiment item","False","Sternbergtask.osexp","/Users/keelihatcher/Desktop/Tarleton M.D./Advanced Quantitative Methods & Experimental Design","False","mono","False","18","no","white","no","yes","768","legacy","69","11","/Users/keelihatcher/Desktop/Tarleton M.D./Advanced Quantitative Methods & Experimental Design/KH-subject-4.csv","legacy","7 4 2 6 3 5","Melodramatic Milgram","4.0.5","6","y","0","left","right","right","left","NA","627.0","89712","11138","627","NA","2","legacy","6","1024","2","48000","-16","experiment","4","even","5","594916","597127","593863","594914","1863","177547","274138","1960","166408","599132","599760","595921","91879","599131","NA","Sternberg task","77","65416.0","82","1024"
"93","93","795","795","#3d3846","experiment","legacy","legacy","legacy","1","undefined","1","right","82","82","82","82","0","0","82","0","0","82","82","82","0","82","0","Sun Oct 22 20:57:03 2023","The main experiment item","False","Sternbergtask.osexp","/Users/keelihatcher/Desktop/Tarleton M.D./Advanced Quantitative Methods & Experimental Design","False","mono","False","18","no","white","no","yes","768","legacy","70","11","/Users/keelihatcher/Desktop/Tarleton M.D./Advanced Quantitative Methods & Experimental Design/KH-subject-4.csv","legacy","2 7 5","Melodramatic Milgram","4.0.5","0","n","0","right","right","right","right","NA","623.0","89712","11138","623","NA","2","legacy","3","1024","2","48000","-16","experiment","4","even","8","600811","603020","599763","600808","1863","177547","274138","1960","166408","605023","605647","601815","91879","605023","NA","Sternberg task","78","66039.0","83","1024"
"94","94","794","794","#3d3846","experiment","legacy","legacy","legacy","1","undefined","1","right","83","83","83","83","0","0","83","0","0","83","83","83","0","83","0","Sun Oct 22 20:57:03 2023","The main experiment item","False","Sternbergtask.osexp","/Users/keelihatcher/Desktop/Tarleton M.D./Advanced Quantitative Methods & Experimental Design","False","mono","False","18","no","white","no","yes","768","legacy","71","11","/Users/keelihatcher/Desktop/Tarleton M.D./Advanced Quantitative Methods & Experimental Design/KH-subject-4.csv","legacy","8 5 7 3 6","Melodramatic Milgram","4.0.5","0","n","0","right","right","right","right","NA","711.0","89712","11138","711","NA","2","legacy","5","1024","2","48000","-16","experiment","4","even","9","606698","608906","605650","606695","1863","177547","274138","1960","166408","610910","611622","607702","91879","610909","NA","Sternberg task","79","66750.0","84","1024"
"94","94","793","793","#3d3846","experiment","legacy","legacy","legacy","1","undefined","1","right","84","84","84","84","0","0","84","0","0","84","84","84","0","84","0","Sun Oct 22 20:57:03 2023","The main experiment item","False","Sternbergtask.osexp","/Users/keelihatcher/Desktop/Tarleton M.D./Advanced Quantitative Methods & Experimental Design","False","mono","False","18","no","white","no","yes","768","legacy","72","11","/Users/keelihatcher/Desktop/Tarleton M.D./Advanced Quantitative Methods & Experimental Design/KH-subject-4.csv","legacy","7 4 2 8 1 9","Melodramatic Milgram","4.0.5","0","n","0","right","right","right","right","NA","723.0","89712","11138","723","NA","2","legacy","6","1024","2","48000","-16","experiment","4","even","5","612674","614884","611625","612671","1863","177547","274138","1960","166408","616887","617611","613679","91879","616887","NA","Sternberg task","80","67473.0","85","1024"
"94","94","792","792","#3d3846","experiment","legacy","legacy","legacy","1","undefined","1","left","85","85","85","85","0","0","85","0","0","85","85","85","0","85","0","Sun Oct 22 20:57:03 2023","The main experiment item","False","Sternbergtask.osexp","/Users/keelihatcher/Desktop/Tarleton M.D./Advanced Quantitative Methods & Experimental Design","False","mono","False","18","no","white","no","yes","768","legacy","73","11","/Users/keelihatcher/Desktop/Tarleton M.D./Advanced Quantitative Methods & Experimental Design/KH-subject-4.csv","legacy","6 2","Melodramatic Milgram","4.0.5","1","y","0","left","right","right","left","NA","644.0","89712","11138","644","NA","2","legacy","2","1024","2","48000","-16","experiment","4","even","6","618664","620873","617614","618661","1863","177547","274138","1960","166408","622876","623521","619668","91879","622876","NA","Sternberg task","81","68117.0","86","1024"
"94","94","789","789","#3d3846","experiment","legacy","legacy","legacy","1","undefined","1","left","86","86","86","86","0","0","86","0","0","86","86","86","0","86","0","Sun Oct 22 20:57:03 2023","The main experiment item","False","Sternbergtask.osexp","/Users/keelihatcher/Desktop/Tarleton M.D./Advanced Quantitative Methods & Experimental Design","False","mono","False","18","no","white","no","yes","768","legacy","74","11","/Users/keelihatcher/Desktop/Tarleton M.D./Advanced Quantitative Methods & Experimental Design/KH-subject-4.csv","legacy","6 7 9 3 1 2","Melodramatic Milgram","4.0.5","1","y","0","left","right","right","left","NA","611.0","89712","11138","611","NA","2","legacy","6","1024","2","48000","-16","experiment","4","even","6","624579","626788","623523","624576","1863","177547","274138","1960","166408","628791","629403","625584","91879","628791","NA","Sternberg task","82","68728.0","87","1024"
"94","94","790","790","#3d3846","experiment","legacy","legacy","legacy","1","undefined","1","left","87","87","87","87","0","0","87","0","0","87","87","87","0","87","0","Sun Oct 22 20:57:03 2023","The main experiment item","False","Sternbergtask.osexp","/Users/keelihatcher/Desktop/Tarleton M.D./Advanced Quantitative Methods & Experimental Design","False","mono","False","18","no","white","no","yes","768","legacy","75","11","/Users/keelihatcher/Desktop/Tarleton M.D./Advanced Quantitative Methods & Experimental Design/KH-subject-4.csv","legacy","9 3 1 2 5","Melodramatic Milgram","4.0.5","4","y","0","left","right","right","left","NA","808.0","89712","11138","808","NA","2","legacy","5","1024","2","48000","-16","experiment","4","even","2","630460","632672","629406","630458","1863","177547","274138","1960","166408","634675","635484","631466","91879","634675","NA","Sternberg task","83","69536.0","88","1024"
"94","94","788","788","#3d3846","experiment","legacy","legacy","legacy","1","undefined","1","left","88","88","88","88","0","0","88","0","0","88","88","88","0","88","0","Sun Oct 22 20:57:03 2023","The main experiment item","False","Sternbergtask.osexp","/Users/keelihatcher/Desktop/Tarleton M.D./Advanced Quantitative Methods & Experimental Design","False","mono","False","18","no","white","no","yes","768","legacy","76","11","/Users/keelihatcher/Desktop/Tarleton M.D./Advanced Quantitative Methods & Experimental Design/KH-subject-4.csv","legacy","8 9 5 6 7","Melodramatic Milgram","4.0.5","1","y","0","left","right","right","left","NA","596.0","89712","11138","596","NA","2","legacy","5","1024","2","48000","-16","experiment","4","even","8","636535","638744","635487","636533","1863","177547","274138","1960","166408","640748","641345","637538","91879","640748","NA","Sternberg task","84","70132.0","89","1024"
"94","94","784","784","#3d3846","experiment","legacy","legacy","legacy","1","undefined","1","left","89","89","89","89","0","0","89","0","0","89","89","89","0","89","0","Sun Oct 22 20:57:03 2023","The main experiment item","False","Sternbergtask.osexp","/Users/keelihatcher/Desktop/Tarleton M.D./Advanced Quantitative Methods & Experimental Design","False","mono","False","18","no","white","no","yes","768","legacy","77","11","/Users/keelihatcher/Desktop/Tarleton M.D./Advanced Quantitative Methods & Experimental Design/KH-subject-4.csv","legacy","7 2 3","Melodramatic Milgram","4.0.5","3","y","0","left","right","right","left","NA","509.0","89712","11138","509","NA","2","legacy","3","1024","2","48000","-16","experiment","4","even","3","642397","644606","641348","642394","1863","177547","274138","1960","166408","646609","647119","643401","91879","646609","NA","Sternberg task","85","70641.0","90","1024"
"94","94","786","786","#3d3846","experiment","legacy","legacy","legacy","1","undefined","1","right","90","90","90","90","0","0","90","0","0","90","90","90","0","90","0","Sun Oct 22 20:57:03 2023","The main experiment item","False","Sternbergtask.osexp","/Users/keelihatcher/Desktop/Tarleton M.D./Advanced Quantitative Methods & Experimental Design","False","mono","False","18","no","white","no","yes","768","legacy","78","11","/Users/keelihatcher/Desktop/Tarleton M.D./Advanced Quantitative Methods & Experimental Design/KH-subject-4.csv","legacy","2 8 7 9 5 3","Melodramatic Milgram","4.0.5","0","n","0","right","right","right","right","NA","904.0","89712","11138","904","NA","2","legacy","6","1024","2","48000","-16","experiment","4","even","6","648170","650381","647122","648167","1863","177547","274138","1960","166408","652384","653289","649175","91879","652384","NA","Sternberg task","86","71545.0","91","1024"
"94","94","789","789","#3d3846","experiment","legacy","legacy","legacy","1","undefined","1","left","91","91","91","91","0","0","91","0","0","91","91","91","0","91","0","Sun Oct 22 20:57:03 2023","The main experiment item","False","Sternbergtask.osexp","/Users/keelihatcher/Desktop/Tarleton M.D./Advanced Quantitative Methods & Experimental Design","False","mono","False","18","no","white","no","yes","768","legacy","79","11","/Users/keelihatcher/Desktop/Tarleton M.D./Advanced Quantitative Methods & Experimental Design/KH-subject-4.csv","legacy","2 4 6 9","Melodramatic Milgram","4.0.5","3","y","0","left","right","right","left","NA","1049.0","89712","11138","1049","NA","2","legacy","4","1024","2","48000","-16","experiment","4","even","6","654339","656549","653291","654337","1863","177547","274138","1960","166408","658554","659604","655344","91879","658553","NA","Sternberg task","87","72594.0","92","1024"
"94","94","788","788","#3d3846","experiment","legacy","legacy","legacy","1","undefined","1","right","92","92","92","92","0","0","92","0","0","92","92","92","0","92","0","Sun Oct 22 20:57:03 2023","The main experiment item","False","Sternbergtask.osexp","/Users/keelihatcher/Desktop/Tarleton M.D./Advanced Quantitative Methods & Experimental Design","False","mono","False","18","no","white","no","yes","768","legacy","80","11","/Users/keelihatcher/Desktop/Tarleton M.D./Advanced Quantitative Methods & Experimental Design/KH-subject-4.csv","legacy","2 5 1 4","Melodramatic Milgram","4.0.5","0","n","0","right","right","right","right","NA","730.0","89712","11138","730","NA","2","legacy","4","1024","2","48000","-16","experiment","4","even","6","660661","662870","659607","660658","1863","177547","274138","1960","166408","664873","665604","661665","91879","664873","NA","Sternberg task","88","73324.0","93","1024"
"94","94","787","787","#3d3846","experiment","legacy","legacy","legacy","1","undefined","1","left","93","93","93","93","0","0","93","0","0","93","93","93","0","93","0","Sun Oct 22 20:57:03 2023","The main experiment item","False","Sternbergtask.osexp","/Users/keelihatcher/Desktop/Tarleton M.D./Advanced Quantitative Methods & Experimental Design","False","mono","False","18","no","white","no","yes","768","legacy","81","11","/Users/keelihatcher/Desktop/Tarleton M.D./Advanced Quantitative Methods & Experimental Design/KH-subject-4.csv","legacy","8","Melodramatic Milgram","4.0.5","1","y","0","left","right","right","left","NA","668.0","89712","11138","668","NA","2","legacy","1","1024","2","48000","-16","experiment","4","even","8","666658","668867","665607","666656","1863","177547","274138","1960","166408","670870","671538","667663","91879","670870","NA","Sternberg task","89","73992.0","94","1024"
"94","94","785","785","#3d3846","experiment","legacy","legacy","legacy","1","undefined","1","left","94","94","94","94","0","0","94","0","0","94","94","94","0","94","0","Sun Oct 22 20:57:03 2023","The main experiment item","False","Sternbergtask.osexp","/Users/keelihatcher/Desktop/Tarleton M.D./Advanced Quantitative Methods & Experimental Design","False","mono","False","18","no","white","no","yes","768","legacy","82","11","/Users/keelihatcher/Desktop/Tarleton M.D./Advanced Quantitative Methods & Experimental Design/KH-subject-4.csv","legacy","9 5 3 8 4","Melodramatic Milgram","4.0.5","1","y","0","left","right","right","left","NA","654.0","89712","11138","654","NA","2","legacy","5","1024","2","48000","-16","experiment","4","even","9","672588","674798","671541","672585","1863","177547","274138","1960","166408","676801","677456","673592","91879","676801","NA","Sternberg task","90","74646.0","95","1024"
"94","94","783","783","#3d3846","experiment","legacy","legacy","legacy","1","undefined","1","left","95","95","95","95","0","0","95","0","0","95","95","95","0","95","0","Sun Oct 22 20:57:03 2023","The main experiment item","False","Sternbergtask.osexp","/Users/keelihatcher/Desktop/Tarleton M.D./Advanced Quantitative Methods & Experimental Design","False","mono","False","18","no","white","no","yes","768","legacy","83","11","/Users/keelihatcher/Desktop/Tarleton M.D./Advanced Quantitative Methods & Experimental Design/KH-subject-4.csv","legacy","2 4 8 5 1 3","Melodramatic Milgram","4.0.5","1","y","0","left","right","right","left","NA","607.0","89712","11138","607","NA","2","legacy","6","1024","2","48000","-16","experiment","4","even","2","678504","680714","677458","678502","1863","177547","274138","1960","166408","682717","683325","679508","91879","682717","NA","Sternberg task","91","75253.0","96","1024"
"94","94","782","782","#3d3846","experiment","legacy","legacy","legacy","1","undefined","1","right","96","96","96","96","0","0","96","0","0","96","96","96","0","96","0","Sun Oct 22 20:57:03 2023","The main experiment item","False","Sternbergtask.osexp","/Users/keelihatcher/Desktop/Tarleton M.D./Advanced Quantitative Methods & Experimental Design","False","mono","False","18","no","white","no","yes","768","legacy","84","11","/Users/keelihatcher/Desktop/Tarleton M.D./Advanced Quantitative Methods & Experimental Design/KH-subject-4.csv","legacy","7 3 2 8","Melodramatic Milgram","4.0.5","0","n","0","right","right","right","right","NA","667.0","89712","11138","667","NA","2","legacy","4","1024","2","48000","-16","experiment","4","even","4","684376","686584","683328","684373","1863","177547","274138","1960","166408","688588","689256","685379","91879","688588","NA","Sternberg task","92","75920.0","97","1024"
"94","94","782","782","#3d3846","experiment","legacy","legacy","legacy","1","undefined","1","left","97","97","97","97","0","0","97","0","0","97","97","97","0","97","0","Sun Oct 22 20:57:03 2023","The main experiment item","False","Sternbergtask.osexp","/Users/keelihatcher/Desktop/Tarleton M.D./Advanced Quantitative Methods & Experimental Design","False","mono","False","18","no","white","no","yes","768","legacy","85","11","/Users/keelihatcher/Desktop/Tarleton M.D./Advanced Quantitative Methods & Experimental Design/KH-subject-4.csv","legacy","2 5 4 8 7","Melodramatic Milgram","4.0.5","3","y","0","left","right","right","left","NA","794.0","89712","11138","794","NA","2","legacy","5","1024","2","48000","-16","experiment","4","even","4","690306","692515","689259","690303","1863","177547","274138","1960","166408","694524","695319","691310","91879","694524","NA","Sternberg task","93","76714.0","98","1024"
"94","94","781","781","#3d3846","experiment","legacy","legacy","legacy","1","undefined","1","right","98","98","98","98","0","0","98","0","0","98","98","98","0","98","0","Sun Oct 22 20:57:03 2023","The main experiment item","False","Sternbergtask.osexp","/Users/keelihatcher/Desktop/Tarleton M.D./Advanced Quantitative Methods & Experimental Design","False","mono","False","18","no","white","no","yes","768","legacy","86","11","/Users/keelihatcher/Desktop/Tarleton M.D./Advanced Quantitative Methods & Experimental Design/KH-subject-4.csv","legacy","5","Melodramatic Milgram","4.0.5","0","n","0","right","right","right","right","NA","644.0","89712","11138","644","NA","2","legacy","1","1024","2","48000","-16","experiment","4","even","8","696376","698584","695322","696373","1863","177547","274138","1960","166408","700588","701233","697379","91879","700588","NA","Sternberg task","94","77358.0","99","1024"
"95","95","781","781","#3d3846","experiment","legacy","legacy","legacy","1","undefined","1","right","99","99","99","99","0","0","99","0","0","99","99","99","0","99","0","Sun Oct 22 20:57:03 2023","The main experiment item","False","Sternbergtask.osexp","/Users/keelihatcher/Desktop/Tarleton M.D./Advanced Quantitative Methods & Experimental Design","False","mono","False","18","no","white","no","yes","768","legacy","87","11","/Users/keelihatcher/Desktop/Tarleton M.D./Advanced Quantitative Methods & Experimental Design/KH-subject-4.csv","legacy","6 9 4 5 2","Melodramatic Milgram","4.0.5","0","n","0","right","right","right","right","NA","763.0","89712","11138","763","NA","2","legacy","5","1024","2","48000","-16","experiment","4","even","1","702296","704506","701236","702294","1863","177547","274138","1960","166408","706510","707274","703300","91879","706510","NA","Sternberg task","95","78121.0","100","1024"
"95","95","784","784","#3d3846","experiment","legacy","legacy","legacy","1","undefined","1","left","100","100","100","100","0","0","100","0","0","100","100","100","0","100","0","Sun Oct 22 20:57:03 2023","The main experiment item","False","Sternbergtask.osexp","/Users/keelihatcher/Desktop/Tarleton M.D./Advanced Quantitative Methods & Experimental Design","False","mono","False","18","no","white","no","yes","768","legacy","88","11","/Users/keelihatcher/Desktop/Tarleton M.D./Advanced Quantitative Methods & Experimental Design/KH-subject-4.csv","legacy","8 9 5 7 1 6","Melodramatic Milgram","4.0.5","4","y","0","left","right","right","left","NA","1071.0","89712","11138","1071","NA","2","legacy","6","1024","2","48000","-16","experiment","4","even","7","708329","710539","707277","708326","1863","177547","274138","1960","166408","712542","713614","709333","91879","712542","NA","Sternberg task","96","79192.0","101","1024"
"95","95","783","783","#3d3846","experiment","legacy","legacy","legacy","1","undefined","1","right","101","101","101","101","0","0","101","0","0","101","101","101","0","101","0","Sun Oct 22 20:57:03 2023","The main experiment item","False","Sternbergtask.osexp","/Users/keelihatcher/Desktop/Tarleton M.D./Advanced Quantitative Methods & Experimental Design","False","mono","False","18","no","white","no","yes","768","legacy","89","11","/Users/keelihatcher/Desktop/Tarleton M.D./Advanced Quantitative Methods & Experimental Design/KH-subject-4.csv","legacy","2 8 6 3 1","Melodramatic Milgram","4.0.5","0","n","0","right","right","right","right","NA","679.0","89712","11138","679","NA","2","legacy","5","1024","2","48000","-16","experiment","4","even","7","714674","716883","713616","714672","1863","177547","274138","1960","166408","718887","719567","715678","91879","718886","NA","Sternberg task","97","79871.0","102","1024"
"95","95","781","781","#3d3846","experiment","legacy","legacy","legacy","1","undefined","1","right","102","102","102","102","0","0","102","0","0","102","102","102","0","102","0","Sun Oct 22 20:57:03 2023","The main experiment item","False","Sternbergtask.osexp","/Users/keelihatcher/Desktop/Tarleton M.D./Advanced Quantitative Methods & Experimental Design","False","mono","False","18","no","white","no","yes","768","legacy","90","11","/Users/keelihatcher/Desktop/Tarleton M.D./Advanced Quantitative Methods & Experimental Design/KH-subject-4.csv","legacy","6 8","Melodramatic Milgram","4.0.5","0","n","0","right","right","right","right","NA","673.0","89712","11138","673","NA","2","legacy","2","1024","2","48000","-16","experiment","4","even","9","720622","722831","719569","720619","1863","177547","274138","1960","166408","724835","725509","721626","91879","724835","NA","Sternberg task","98","80544.0","103","1024"
"95","95","780","780","#3d3846","experiment","legacy","legacy","legacy","1","undefined","1","right","103","103","103","103","0","0","103","0","0","103","103","103","0","103","0","Sun Oct 22 20:57:03 2023","The main experiment item","False","Sternbergtask.osexp","/Users/keelihatcher/Desktop/Tarleton M.D./Advanced Quantitative Methods & Experimental Design","False","mono","False","18","no","white","no","yes","768","legacy","91","11","/Users/keelihatcher/Desktop/Tarleton M.D./Advanced Quantitative Methods & Experimental Design/KH-subject-4.csv","legacy","1 4 9 2 5","Melodramatic Milgram","4.0.5","0","n","0","right","right","right","right","NA","596.0","89712","11138","596","NA","2","legacy","5","1024","2","48000","-16","experiment","4","even","7","726572","728783","725512","726570","1863","177547","274138","1960","166408","730787","731384","727576","91879","730787","NA","Sternberg task","99","81140.0","104","1024"
"95","95","779","779","#3d3846","experiment","legacy","legacy","legacy","1","undefined","1","right","104","104","104","104","0","0","104","0","0","104","104","104","0","104","0","Sun Oct 22 20:57:03 2023","The main experiment item","False","Sternbergtask.osexp","/Users/keelihatcher/Desktop/Tarleton M.D./Advanced Quantitative Methods & Experimental Design","False","mono","False","18","no","white","no","yes","768","legacy","92","11","/Users/keelihatcher/Desktop/Tarleton M.D./Advanced Quantitative Methods & Experimental Design/KH-subject-4.csv","legacy","5 3 2 6 9 8","Melodramatic Milgram","4.0.5","0","n","0","right","right","right","right","NA","739.0","89712","11138","739","NA","2","legacy","6","1024","2","48000","-16","experiment","4","even","4","732447","734659","731387","732445","1863","177547","274138","1960","166408","736663","737403","733452","91879","736662","NA","Sternberg task","100","81879.0","105","1024"
"95","95","777","777","#3d3846","experiment","legacy","legacy","legacy","1","undefined","1","right","105","105","105","105","0","0","105","0","0","105","105","105","0","105","0","Sun Oct 22 20:57:03 2023","The main experiment item","False","Sternbergtask.osexp","/Users/keelihatcher/Desktop/Tarleton M.D./Advanced Quantitative Methods & Experimental Design","False","mono","False","18","no","white","no","yes","768","legacy","93","11","/Users/keelihatcher/Desktop/Tarleton M.D./Advanced Quantitative Methods & Experimental Design/KH-subject-4.csv","legacy","1 7 5 2","Melodramatic Milgram","4.0.5","0","n","0","right","right","right","right","NA","563.0","89712","11138","563","NA","2","legacy","4","1024","2","48000","-16","experiment","4","even","3","738457","740667","737405","738455","1863","177547","274138","1960","166408","742670","743234","739462","91879","742670","NA","Sternberg task","101","82442.0","106","1024"
"95","95","776","776","#3d3846","experiment","legacy","legacy","legacy","1","undefined","1","right","106","106","106","106","0","0","106","0","0","106","106","106","0","106","0","Sun Oct 22 20:57:03 2023","The main experiment item","False","Sternbergtask.osexp","/Users/keelihatcher/Desktop/Tarleton M.D./Advanced Quantitative Methods & Experimental Design","False","mono","False","18","no","white","no","yes","768","legacy","94","11","/Users/keelihatcher/Desktop/Tarleton M.D./Advanced Quantitative Methods & Experimental Design/KH-subject-4.csv","legacy","5 2","Melodramatic Milgram","4.0.5","0","n","0","right","right","right","right","NA","674.0","89712","11138","674","NA","2","legacy","2","1024","2","48000","-16","experiment","4","even","7","744287","746496","743236","744284","1863","177547","274138","1960","166408","748501","749176","745291","91879","748501","NA","Sternberg task","102","83116.0","107","1024"
"94","94","777","777","#3d3846","experiment","legacy","legacy","legacy","0","undefined","0","left","107","107","107","107","0","0","107","0","0","107","107","107","0","107","0","Sun Oct 22 20:57:03 2023","The main experiment item","False","Sternbergtask.osexp","/Users/keelihatcher/Desktop/Tarleton M.D./Advanced Quantitative Methods & Experimental Design","False","mono","False","18","no","white","no","yes","768","legacy","95","11","/Users/keelihatcher/Desktop/Tarleton M.D./Advanced Quantitative Methods & Experimental Design/KH-subject-4.csv","legacy","5 2 9 6 1 7","Melodramatic Milgram","4.0.5","3","y","0","right","right","right","right","NA","902.0","89712","11138","902","NA","2","legacy","6","1024","2","48000","-16","experiment","4","even","9","750236","752446","749179","750234","1863","177547","274138","1960","166408","754449","755352","751241","91879","754449","NA","Sternberg task","102","84018.0","108","1024"
