"acc","accuracy","average_response_time","avg_rt","background","block","canvas_backend","clock_backend","color_backend","correct","correct_instruction1","correct_keyboard_response","correct_response","count_correctFeedback","count_expSequence","count_experiment","count_experimentalLoop","count_fixation","count_incorrectFeedback","count_instruction1","count_keyboard_response","count_logger","count_memorySet","count_new_1_sketchpad","count_new_sketchpad","count_practiceLoop","count_probe","count_thankYou","datetime","description","disable_garbage_collection","experiment_file","experiment_path","font_bold","font_family","font_italic","font_size","font_underline","foreground","form_clicks","fullscreen","height","keyboard_backend","live_row","live_row_practiceLoop","logfile","mouse_backend","numberSet","opensesame_codename","opensesame_version","posInSet","present","repeat_cycle","response","response_instruction1","response_keyboard_response","response_new_1_sketchpad","response_thankYou","response_time","response_time_instruction1","response_time_keyboard_response","response_time_new_1_sketchpad","response_time_thankYou","round_decimals","sampler_backend","setSize","sound_buf_size","sound_channels","sound_freq","sound_sample_size","start","subject_nr","subject_parity","target","time_correctFeedback","time_expSequence","time_experiment","time_experimentalLoop","time_fixation","time_incorrectFeedback","time_instruction1","time_keyboard_response","time_logger","time_memorySet","time_new_1_sketchpad","time_new_sketchpad","time_practiceLoop","time_probe","time_thankYou","title","total_correct","total_response_time","total_responses","width"
"0","0","662","662","#3d3846","practice","legacy","legacy","legacy","0","undefined","0","right","0","0","0","0","0","0","0","0","0","0","0","0","0","0","0","Sun Oct 15 15:59:22 2023","The main experiment item","True","Sternbergtask.osexp","C:\Users\Edward Banda\Desktop","False","mono","False","18","no","white","no","yes","768","legacy","0","0","C:/Users/Edward Banda/Desktop/subject-1.csv","legacy","3 1 9 4","Melodramatic Milgram","4.0.5","0","n","0","left","left","left","NA","NA","662.0","50086","662","NA","NA","2","legacy","4","1024","2","48000","-16","experiment","1","odd","6","NA","53072","2368","NA","53074","NA","2371","57278","57940","54076","NA","55277","52458","57278","NA","Sternberg task","0","662.0","1","1024"
"50","50","620","620","#3d3846","practice","legacy","legacy","legacy","1","undefined","1","right","1","1","0","0","1","1","0","1","1","1","0","1","0","1","0","Sun Oct 15 15:59:22 2023","The main experiment item","True","Sternbergtask.osexp","C:\Users\Edward Banda\Desktop","False","mono","False","18","no","white","no","yes","768","legacy","1","1","C:/Users/Edward Banda/Desktop/subject-1.csv","legacy","4 1 5","Melodramatic Milgram","4.0.5","0","n","0","right","left","right","NA","NA","579.0","50086","579","NA","NA","2","legacy","3","1024","2","48000","-16","experiment","1","odd","2","NA","59041","2368","NA","59042","57999","2371","63245","63824","60043","NA","61244","52458","63245","NA","Sternberg task","1","1241.0","2","1024"
"66","66","572","572","#3d3846","practice","legacy","legacy","legacy","1","undefined","1","left","2","2","0","0","2","2","0","2","2","2","0","2","0","2","0","Sun Oct 15 15:59:22 2023","The main experiment item","True","Sternbergtask.osexp","C:\Users\Edward Banda\Desktop","False","mono","False","18","no","white","no","yes","768","legacy","2","2","C:/Users/Edward Banda/Desktop/subject-1.csv","legacy","1 7 9 8 5","Melodramatic Milgram","4.0.5","4","y","0","left","left","left","NA","NA","475.0","50086","475","NA","NA","2","legacy","5","1024","2","48000","-16","experiment","1","odd","8","63836","64878","2368","NA","64880","57999","2371","69083","69558","65881","NA","67082","52458","69083","NA","Sternberg task","2","1716.0","3","1024"
"50","50","497","497","#3d3846","practice","legacy","legacy","legacy","0","undefined","0","left","3","3","0","0","3","3","0","3","3","3","0","3","0","3","0","Sun Oct 15 15:59:22 2023","The main experiment item","True","Sternbergtask.osexp","C:\Users\Edward Banda\Desktop","False","mono","False","18","no","white","no","yes","768","legacy","3","3","C:/Users/Edward Banda/Desktop/subject-1.csv","legacy","1 5 2 9","Melodramatic Milgram","4.0.5","2","y","0","right","left","right","NA","NA","273.0","50086","273","NA","NA","2","legacy","4","1024","2","48000","-16","experiment","1","odd","5","69571","70616","2368","NA","70618","57999","2371","74822","75095","71619","NA","72820","52458","74821","NA","Sternberg task","2","1989.0","4","1024"
"40","40","479","479","#3d3846","practice","legacy","legacy","legacy","0","undefined","0","right","4","4","0","0","4","4","0","4","4","4","0","4","0","4","0","Sun Oct 15 15:59:22 2023","The main experiment item","True","Sternbergtask.osexp","C:\Users\Edward Banda\Desktop","False","mono","False","18","no","white","no","yes","768","legacy","4","4","C:/Users/Edward Banda/Desktop/subject-1.csv","legacy","9 6 7 4 5","Melodramatic Milgram","4.0.5","0","n","0","left","left","left","NA","NA","406.0","50086","406","NA","NA","2","legacy","5","1024","2","48000","-16","experiment","1","odd","3","69571","76146","2368","NA","76148","75098","2371","80351","80757","77149","NA","78350","52458","80351","NA","Sternberg task","2","2395.0","5","1024"
"33","33","448","448","#3d3846","practice","legacy","legacy","legacy","0","undefined","0","right","5","5","0","0","5","5","0","5","5","5","0","5","0","5","0","Sun Oct 15 15:59:22 2023","The main experiment item","True","Sternbergtask.osexp","C:\Users\Edward Banda\Desktop","False","mono","False","18","no","white","no","yes","768","legacy","5","5","C:/Users/Edward Banda/Desktop/subject-1.csv","legacy","5 7 8 4 1 2","Melodramatic Milgram","4.0.5","0","n","0","left","left","left","NA","NA","293.0","50086","293","NA","NA","2","legacy","6","1024","2","48000","-16","experiment","1","odd","6","69571","81806","2368","NA","81807","80760","2371","86010","86303","82808","NA","84008","52458","86010","NA","Sternberg task","2","2688.0","6","1024"
"28","28","446","446","#3d3846","practice","legacy","legacy","legacy","0","undefined","0","right","6","6","0","0","6","6","0","6","6","6","0","6","0","6","0","Sun Oct 15 15:59:22 2023","The main experiment item","True","Sternbergtask.osexp","C:\Users\Edward Banda\Desktop","False","mono","False","18","no","white","no","yes","768","legacy","6","6","C:/Users/Edward Banda/Desktop/subject-1.csv","legacy","2 1","Melodramatic Milgram","4.0.5","0","n","0","left","left","left","NA","NA","439.0","50086","439","NA","NA","2","legacy","2","1024","2","48000","-16","experiment","1","odd","5","69571","87363","2368","NA","87365","86315","2371","91568","92007","88366","NA","89567","52458","91568","NA","Sternberg task","2","3127.0","7","1024"
"25","25","466","466","#3d3846","practice","legacy","legacy","legacy","0","undefined","0","left","7","7","0","0","7","7","0","7","7","7","0","7","0","7","0","Sun Oct 15 15:59:22 2023","The main experiment item","True","Sternbergtask.osexp","C:\Users\Edward Banda\Desktop","False","mono","False","18","no","white","no","yes","768","legacy","7","7","C:/Users/Edward Banda/Desktop/subject-1.csv","legacy","6","Melodramatic Milgram","4.0.5","1","y","0","right","left","right","NA","NA","608.0","50086","608","NA","NA","2","legacy","1","1024","2","48000","-16","experiment","1","odd","6","69571","93073","2368","NA","93075","92019","2371","97278","97886","94076","NA","95277","52458","97278","NA","Sternberg task","2","3735.0","8","1024"
"33","33","472","472","#3d3846","practice","legacy","legacy","legacy","1","undefined","1","left","8","8","0","0","8","8","0","8","8","8","0","8","0","8","0","Sun Oct 15 15:59:22 2023","The main experiment item","True","Sternbergtask.osexp","C:\Users\Edward Banda\Desktop","False","mono","False","18","no","white","no","yes","768","legacy","8","8","C:/Users/Edward Banda/Desktop/subject-1.csv","legacy","4 3 1 7 9 8","Melodramatic Milgram","4.0.5","1","y","0","left","left","left","NA","NA","517.0","50086","517","NA","NA","2","legacy","6","1024","2","48000","-16","experiment","1","odd","4","69571","98943","2368","NA","98945","97898","2371","103148","103665","99946","NA","101147","52458","103148","NA","Sternberg task","3","4252.0","9","1024"
"40","40","487","487","#3d3846","practice","legacy","legacy","legacy","1","undefined","1","left","9","9","0","0","9","9","0","9","9","9","0","9","0","9","0","Sun Oct 15 15:59:22 2023","The main experiment item","True","Sternbergtask.osexp","C:\Users\Edward Banda\Desktop","False","mono","False","18","no","white","no","yes","768","legacy","9","9","C:/Users/Edward Banda/Desktop/subject-1.csv","legacy","2 9 4","Melodramatic Milgram","4.0.5","3","y","0","left","left","left","NA","NA","619.0","50086","619","NA","NA","2","legacy","3","1024","2","48000","-16","experiment","1","odd","4","103677","104720","2368","NA","104722","97898","2371","108925","109545","105723","NA","106924","52458","108925","NA","Sternberg task","4","4871.0","10","1024"
"45","45","506","506","#3d3846","practice","legacy","legacy","legacy","1","undefined","1","left","10","10","0","0","10","10","0","10","10","10","0","10","0","10","0","Sun Oct 15 15:59:22 2023","The main experiment item","True","Sternbergtask.osexp","C:\Users\Edward Banda\Desktop","False","mono","False","18","no","white","no","yes","768","legacy","10","10","C:/Users/Edward Banda/Desktop/subject-1.csv","legacy","4 8","Melodramatic Milgram","4.0.5","1","y","0","left","left","left","NA","NA","697.0","50086","697","NA","NA","2","legacy","2","1024","2","48000","-16","experiment","1","odd","4","109557","110606","2368","NA","110608","97898","2371","114811","115509","111609","NA","112810","52458","114811","NA","Sternberg task","5","5568.0","11","1024"
"41","41","491","491","#3d3846","practice","legacy","legacy","legacy","0","undefined","0","right","11","11","0","0","11","11","0","11","11","11","0","11","0","11","0","Sun Oct 15 15:59:22 2023","The main experiment item","True","Sternbergtask.osexp","C:\Users\Edward Banda\Desktop","False","mono","False","18","no","white","no","yes","768","legacy","11","11","C:/Users/Edward Banda/Desktop/subject-1.csv","legacy","5","Melodramatic Milgram","4.0.5","0","n","0","left","left","left","NA","NA","334.0","50086","334","NA","NA","2","legacy","1","1024","2","48000","-16","experiment","1","odd","3","115511","116559","2368","NA","116561","97898","2371","120764","121098","117562","NA","118763","52458","120764","NA","Sternberg task","5","5902.0","12","1024"
"46","46","525","525","#3d3846","experiment","legacy","legacy","legacy","1","undefined","1","right","12","12","0","0","12","12","0","12","12","12","0","12","0","12","0","Sun Oct 15 15:59:22 2023","The main experiment item","True","Sternbergtask.osexp","C:\Users\Edward Banda\Desktop","False","mono","False","18","no","white","no","yes","768","legacy","0","11","C:/Users/Edward Banda/Desktop/subject-1.csv","legacy","2 5 1 4","Melodramatic Milgram","4.0.5","0","n","0","right","left","right","left","NA","926.0","50086","926","3183","NA","2","legacy","4","1024","2","48000","-16","experiment","1","odd","6","115511","125417","2368","125294","125418","121110","2371","129621","130548","126419","122111","127619","52458","129621","NA","Sternberg task","6","6828.0","13","1024"
"50","50","529","529","#3d3846","experiment","legacy","legacy","legacy","1","undefined","1","left","13","13","0","0","13","13","0","13","13","13","0","13","0","13","0","Sun Oct 15 15:59:22 2023","The main experiment item","True","Sternbergtask.osexp","C:\Users\Edward Banda\Desktop","False","mono","False","18","no","white","no","yes","768","legacy","1","11","C:/Users/Edward Banda/Desktop/subject-1.csv","legacy","7 6","Melodramatic Milgram","4.0.5","2","y","0","left","left","left","left","NA","585.0","50086","585","3183","NA","2","legacy","2","1024","2","48000","-16","experiment","1","odd","6","130550","131589","2368","125294","131590","121110","2371","135793","136379","132591","122111","133792","52458","135793","NA","Sternberg task","7","7413.0","14","1024"
"53","53","529","529","#3d3846","experiment","legacy","legacy","legacy","1","undefined","1","left","14","14","0","0","14","14","0","14","14","14","0","14","0","14","0","Sun Oct 15 15:59:22 2023","The main experiment item","True","Sternbergtask.osexp","C:\Users\Edward Banda\Desktop","False","mono","False","18","no","white","no","yes","768","legacy","2","11","C:/Users/Edward Banda/Desktop/subject-1.csv","legacy","4 1 5","Melodramatic Milgram","4.0.5","2","y","0","left","left","left","left","NA","533.0","50086","533","3183","NA","2","legacy","3","1024","2","48000","-16","experiment","1","odd","1","136381","137421","2368","125294","137423","121110","2371","141626","142160","138424","122111","139625","52458","141626","NA","Sternberg task","8","7946.0","15","1024"
"56","56","521","521","#3d3846","experiment","legacy","legacy","legacy","1","undefined","1","right","15","15","0","0","15","15","0","15","15","15","0","15","0","15","0","Sun Oct 15 15:59:22 2023","The main experiment item","True","Sternbergtask.osexp","C:\Users\Edward Banda\Desktop","False","mono","False","18","no","white","no","yes","768","legacy","3","11","C:/Users/Edward Banda/Desktop/subject-1.csv","legacy","8 4 3 5","Melodramatic Milgram","4.0.5","0","n","0","right","left","right","left","NA","398.0","50086","398","3183","NA","2","legacy","4","1024","2","48000","-16","experiment","1","odd","6","142173","143212","2368","125294","143214","121110","2371","147417","147815","144215","122111","145416","52458","147417","NA","Sternberg task","9","8344.0","16","1024"
"52","52","523","523","#3d3846","experiment","legacy","legacy","legacy","0","undefined","0","left","16","16","0","0","16","16","0","16","16","16","0","16","0","16","0","Sun Oct 15 15:59:22 2023","The main experiment item","True","Sternbergtask.osexp","C:\Users\Edward Banda\Desktop","False","mono","False","18","no","white","no","yes","768","legacy","4","11","C:/Users/Edward Banda/Desktop/subject-1.csv","legacy","4 6 2 5 1","Melodramatic Milgram","4.0.5","5","y","0","right","left","right","left","NA","558.0","50086","558","3183","NA","2","legacy","5","1024","2","48000","-16","experiment","1","odd","1","147827","148875","2368","125294","148877","121110","2371","153080","153639","149878","122111","151079","52458","153080","NA","Sternberg task","9","8902.0","17","1024"
"50","50","517","517","#3d3846","experiment","legacy","legacy","legacy","0","undefined","0","right","17","17","0","0","17","17","0","17","17","17","0","17","0","17","0","Sun Oct 15 15:59:22 2023","The main experiment item","True","Sternbergtask.osexp","C:\Users\Edward Banda\Desktop","False","mono","False","18","no","white","no","yes","768","legacy","5","11","C:/Users/Edward Banda/Desktop/subject-1.csv","legacy","1 7 5 2 9","Melodramatic Milgram","4.0.5","0","n","0","left","left","left","left","NA","421.0","50086","421","3183","NA","2","legacy","5","1024","2","48000","-16","experiment","1","odd","3","147827","154696","2368","125294","154698","153651","2371","158901","159323","155699","122111","156900","52458","158901","NA","Sternberg task","9","9323.0","18","1024"
"52","52","508","508","#3d3846","experiment","legacy","legacy","legacy","1","undefined","1","right","18","18","0","0","18","18","0","18","18","18","0","18","0","18","0","Sun Oct 15 15:59:22 2023","The main experiment item","True","Sternbergtask.osexp","C:\Users\Edward Banda\Desktop","False","mono","False","18","no","white","no","yes","768","legacy","6","11","C:/Users/Edward Banda/Desktop/subject-1.csv","legacy","1 3 2 6 9","Melodramatic Milgram","4.0.5","0","n","0","right","left","right","left","NA","341.0","50086","341","3183","NA","2","legacy","5","1024","2","48000","-16","experiment","1","odd","5","147827","160360","2368","125294","160362","159325","2371","164565","164907","161363","122111","162564","52458","164565","NA","Sternberg task","10","9664.0","19","1024"
"50","50","508","508","#3d3846","experiment","legacy","legacy","legacy","0","undefined","0","right","19","19","0","0","19","19","0","19","19","19","0","19","0","19","0","Sun Oct 15 15:59:22 2023","The main experiment item","True","Sternbergtask.osexp","C:\Users\Edward Banda\Desktop","False","mono","False","18","no","white","no","yes","768","legacy","7","11","C:/Users/Edward Banda/Desktop/subject-1.csv","legacy","7 4 2 8 1 9","Melodramatic Milgram","4.0.5","0","n","0","left","left","left","left","NA","502.0","50086","502","3183","NA","2","legacy","6","1024","2","48000","-16","experiment","1","odd","5","164910","165954","2368","125294","165956","159325","2371","170159","170661","166957","122111","168158","52458","170159","NA","Sternberg task","10","10166.0","20","1024"
"52","52","508","508","#3d3846","experiment","legacy","legacy","legacy","1","undefined","1","left","20","20","0","0","20","20","0","20","20","20","0","20","0","20","0","Sun Oct 15 15:59:22 2023","The main experiment item","True","Sternbergtask.osexp","C:\Users\Edward Banda\Desktop","False","mono","False","18","no","white","no","yes","768","legacy","8","11","C:/Users/Edward Banda/Desktop/subject-1.csv","legacy","4 6 5 8","Melodramatic Milgram","4.0.5","1","y","0","left","left","left","left","NA","515.0","50086","515","3183","NA","2","legacy","4","1024","2","48000","-16","experiment","1","odd","4","164910","171715","2368","125294","171717","170674","2371","175920","176435","172718","122111","173919","52458","175920","NA","Sternberg task","11","10681.0","21","1024"
"50","50","510","510","#3d3846","experiment","legacy","legacy","legacy","0","undefined","0","left","21","21","0","0","21","21","0","21","21","21","0","21","0","21","0","Sun Oct 15 15:59:22 2023","The main experiment item","True","Sternbergtask.osexp","C:\Users\Edward Banda\Desktop","False","mono","False","18","no","white","no","yes","768","legacy","9","11","C:/Users/Edward Banda/Desktop/subject-1.csv","legacy","4 7 6 8 2 3","Melodramatic Milgram","4.0.5","6","y","0","right","left","right","left","NA","550.0","50086","550","3183","NA","2","legacy","6","1024","2","48000","-16","experiment","1","odd","3","176437","177480","2368","125294","177481","170674","2371","181684","182234","178482","122111","179683","52458","181684","NA","Sternberg task","11","11231.0","22","1024"
"47","47","517","517","#3d3846","experiment","legacy","legacy","legacy","0","undefined","0","right","22","22","0","0","22","22","0","22","22","22","0","22","0","22","0","Sun Oct 15 15:59:22 2023","The main experiment item","True","Sternbergtask.osexp","C:\Users\Edward Banda\Desktop","False","mono","False","18","no","white","no","yes","768","legacy","10","11","C:/Users/Edward Banda/Desktop/subject-1.csv","legacy","7 1 8 4 9 3","Melodramatic Milgram","4.0.5","0","n","0","left","left","left","left","NA","668.0","50086","668","3183","NA","2","legacy","6","1024","2","48000","-16","experiment","1","odd","6","176437","183281","2368","125294","183283","182246","2371","187487","188156","184285","122111","185486","52458","187487","NA","Sternberg task","11","11899.0","23","1024"
"45","45","527","527","#3d3846","experiment","legacy","legacy","legacy","0","undefined","0","right","23","23","0","0","23","23","0","23","23","23","0","23","0","23","0","Sun Oct 15 15:59:22 2023","The main experiment item","True","Sternbergtask.osexp","C:\Users\Edward Banda\Desktop","False","mono","False","18","no","white","no","yes","768","legacy","11","11","C:/Users/Edward Banda/Desktop/subject-1.csv","legacy","1 6 4","Melodramatic Milgram","4.0.5","0","n","0","left","left","left","left","NA","765.0","50086","765","3183","NA","2","legacy","3","1024","2","48000","-16","experiment","1","odd","7","176437","189222","2368","125294","189224","188168","2371","193427","194193","190225","122111","191426","52458","193427","NA","Sternberg task","11","12664.0","24","1024"
"48","48","531","531","#3d3846","experiment","legacy","legacy","legacy","1","undefined","1","left","24","24","0","0","24","24","0","24","24","24","0","24","0","24","0","Sun Oct 15 15:59:22 2023","The main experiment item","True","Sternbergtask.osexp","C:\Users\Edward Banda\Desktop","False","mono","False","18","no","white","no","yes","768","legacy","12","11","C:/Users/Edward Banda/Desktop/subject-1.csv","legacy","8 3","Melodramatic Milgram","4.0.5","2","y","0","left","left","left","left","NA","617.0","50086","617","3183","NA","2","legacy","2","1024","2","48000","-16","experiment","1","odd","3","176437","195247","2368","125294","195250","194205","2371","199454","200072","196251","122111","197452","52458","199453","NA","Sternberg task","12","13281.0","25","1024"
"50","50","586","586","#3d3846","experiment","legacy","legacy","legacy","1","undefined","1","right","25","25","0","0","25","25","0","25","25","25","0","25","0","25","0","Sun Oct 15 15:59:22 2023","The main experiment item","True","Sternbergtask.osexp","C:\Users\Edward Banda\Desktop","False","mono","False","18","no","white","no","yes","768","legacy","13","11","C:/Users/Edward Banda/Desktop/subject-1.csv","legacy","6 8","Melodramatic Milgram","4.0.5","0","n","0","right","left","right","left","NA","1977.0","50086","1977","3183","NA","2","legacy","2","1024","2","48000","-16","experiment","1","odd","9","200084","201127","2368","125294","201129","194205","2371","205332","207310","202130","122111","203331","52458","205332","NA","Sternberg task","13","15258.0","26","1024"
"48","48","586","586","#3d3846","experiment","legacy","legacy","legacy","0","undefined","0","right","26","26","0","0","26","26","0","26","26","26","0","26","0","26","0","Sun Oct 15 15:59:22 2023","The main experiment item","True","Sternbergtask.osexp","C:\Users\Edward Banda\Desktop","False","mono","False","18","no","white","no","yes","768","legacy","14","11","C:/Users/Edward Banda/Desktop/subject-1.csv","legacy","8 5 4 2 9 6","Melodramatic Milgram","4.0.5","0","n","0","left","left","left","left","NA","582.0","50086","582","3183","NA","2","legacy","6","1024","2","48000","-16","experiment","1","odd","3","207322","208368","2368","125294","208370","194205","2371","212576","213159","209371","122111","210572","52458","212575","NA","Sternberg task","13","15840.0","27","1024"
"46","46","585","585","#3d3846","experiment","legacy","legacy","legacy","0","undefined","0","right","27","27","0","0","27","27","0","27","27","27","0","27","0","27","0","Sun Oct 15 15:59:22 2023","The main experiment item","True","Sternbergtask.osexp","C:\Users\Edward Banda\Desktop","False","mono","False","18","no","white","no","yes","768","legacy","15","11","C:/Users/Edward Banda/Desktop/subject-1.csv","legacy","1 7 8 3 9","Melodramatic Milgram","4.0.5","0","n","0","left","left","left","left","NA","555.0","50086","555","3183","NA","2","legacy","5","1024","2","48000","-16","experiment","1","odd","2","207322","214212","2368","125294","214214","213171","2371","218417","218973","215215","122111","216416","52458","218417","NA","Sternberg task","13","16395.0","28","1024"
"44","44","598","598","#3d3846","experiment","legacy","legacy","legacy","0","undefined","0","left","28","28","0","0","28","28","0","28","28","28","0","28","0","28","0","Sun Oct 15 15:59:22 2023","The main experiment item","True","Sternbergtask.osexp","C:\Users\Edward Banda\Desktop","False","mono","False","18","no","white","no","yes","768","legacy","16","11","C:/Users/Edward Banda/Desktop/subject-1.csv","legacy","9 3 1 2 5","Melodramatic Milgram","4.0.5","4","y","0","right","left","right","left","NA","948.0","50086","948","3183","NA","2","legacy","5","1024","2","48000","-16","experiment","1","odd","2","207322","220031","2368","125294","220033","218985","2371","224237","225186","221035","122111","222236","52458","224237","NA","Sternberg task","13","17343.0","29","1024"
"46","46","595","595","#3d3846","experiment","legacy","legacy","legacy","1","undefined","1","left","29","29","0","0","29","29","0","29","29","29","0","29","0","29","0","Sun Oct 15 15:59:22 2023","The main experiment item","True","Sternbergtask.osexp","C:\Users\Edward Banda\Desktop","False","mono","False","18","no","white","no","yes","768","legacy","17","11","C:/Users/Edward Banda/Desktop/subject-1.csv","legacy","9 5 3 8 4","Melodramatic Milgram","4.0.5","1","y","0","left","left","left","left","NA","507.0","50086","507","3183","NA","2","legacy","5","1024","2","48000","-16","experiment","1","odd","9","207322","226232","2368","125294","226235","225190","2371","230439","230946","227236","122111","228437","52458","230438","NA","Sternberg task","14","17850.0","30","1024"
"48","48","588","588","#3d3846","experiment","legacy","legacy","legacy","1","undefined","1","right","30","30","0","0","30","30","0","30","30","30","0","30","0","30","0","Sun Oct 15 15:59:22 2023","The main experiment item","True","Sternbergtask.osexp","C:\Users\Edward Banda\Desktop","False","mono","False","18","no","white","no","yes","768","legacy","18","11","C:/Users/Edward Banda/Desktop/subject-1.csv","legacy","1","Melodramatic Milgram","4.0.5","0","n","0","right","left","right","left","NA","406.0","50086","406","3183","NA","2","legacy","1","1024","2","48000","-16","experiment","1","odd","7","230959","231999","2368","125294","232001","225190","2371","236204","236611","233002","122111","234203","52458","236204","NA","Sternberg task","15","18256.0","31","1024"
"50","50","598","598","#3d3846","experiment","legacy","legacy","legacy","1","undefined","1","left","31","31","0","0","31","31","0","31","31","31","0","31","0","31","0","Sun Oct 15 15:59:22 2023","The main experiment item","True","Sternbergtask.osexp","C:\Users\Edward Banda\Desktop","False","mono","False","18","no","white","no","yes","768","legacy","19","11","C:/Users/Edward Banda/Desktop/subject-1.csv","legacy","8","Melodramatic Milgram","4.0.5","1","y","0","left","left","left","left","NA","910.0","50086","910","3183","NA","2","legacy","1","1024","2","48000","-16","experiment","1","odd","8","236623","237678","2368","125294","237680","225190","2371","241883","242794","238681","122111","239882","52458","241883","NA","Sternberg task","16","19166.0","32","1024"
"48","48","600","600","#3d3846","experiment","legacy","legacy","legacy","0","undefined","0","left","32","32","0","0","32","32","0","32","32","32","0","32","0","32","0","Sun Oct 15 15:59:22 2023","The main experiment item","True","Sternbergtask.osexp","C:\Users\Edward Banda\Desktop","False","mono","False","18","no","white","no","yes","768","legacy","20","11","C:/Users/Edward Banda/Desktop/subject-1.csv","legacy","3 2 1 4 7","Melodramatic Milgram","4.0.5","2","y","0","right","left","right","left","NA","636.0","50086","636","3183","NA","2","legacy","5","1024","2","48000","-16","experiment","1","odd","2","242796","243832","2368","125294","243834","225190","2371","248037","248673","244835","122111","246036","52458","248037","NA","Sternberg task","16","19802.0","33","1024"
"50","50","596","596","#3d3846","experiment","legacy","legacy","legacy","1","undefined","1","left","33","33","0","0","33","33","0","33","33","33","0","33","0","33","0","Sun Oct 15 15:59:22 2023","The main experiment item","True","Sternbergtask.osexp","C:\Users\Edward Banda\Desktop","False","mono","False","18","no","white","no","yes","768","legacy","21","11","C:/Users/Edward Banda/Desktop/subject-1.csv","legacy","8 5 1 3 9","Melodramatic Milgram","4.0.5","4","y","0","left","left","left","left","NA","488.0","50086","488","3183","NA","2","legacy","5","1024","2","48000","-16","experiment","1","odd","3","242796","249727","2368","125294","249729","248685","2371","253934","254422","250731","122111","251932","52458","253933","NA","Sternberg task","17","20290.0","34","1024"
"51","51","596","596","#3d3846","experiment","legacy","legacy","legacy","1","undefined","1","left","34","34","0","0","34","34","0","34","34","34","0","34","0","34","0","Sun Oct 15 15:59:22 2023","The main experiment item","True","Sternbergtask.osexp","C:\Users\Edward Banda\Desktop","False","mono","False","18","no","white","no","yes","768","legacy","22","11","C:/Users/Edward Banda/Desktop/subject-1.csv","legacy","9 4 2","Melodramatic Milgram","4.0.5","1","y","0","left","left","left","left","NA","582.0","50086","582","3183","NA","2","legacy","3","1024","2","48000","-16","experiment","1","odd","9","254434","255469","2368","125294","255471","248685","2371","259674","260257","256472","122111","257673","52458","259674","NA","Sternberg task","18","20872.0","35","1024"
"52","52","605","605","#3d3846","experiment","legacy","legacy","legacy","1","undefined","1","right","35","35","0","0","35","35","0","35","35","35","0","35","0","35","0","Sun Oct 15 15:59:22 2023","The main experiment item","True","Sternbergtask.osexp","C:\Users\Edward Banda\Desktop","False","mono","False","18","no","white","no","yes","768","legacy","23","11","C:/Users/Edward Banda/Desktop/subject-1.csv","legacy","8 4 3 9","Melodramatic Milgram","4.0.5","0","n","0","right","left","right","left","NA","923.0","50086","923","3183","NA","2","legacy","4","1024","2","48000","-16","experiment","1","odd","5","260269","261309","2368","125294","261311","248685","2371","265514","266438","262312","122111","263512","52458","265514","NA","Sternberg task","19","21795.0","36","1024"
"54","54","609","609","#3d3846","experiment","legacy","legacy","legacy","1","undefined","1","right","36","36","0","0","36","36","0","36","36","36","0","36","0","36","0","Sun Oct 15 15:59:22 2023","The main experiment item","True","Sternbergtask.osexp","C:\Users\Edward Banda\Desktop","False","mono","False","18","no","white","no","yes","768","legacy","24","11","C:/Users/Edward Banda/Desktop/subject-1.csv","legacy","8 6 3 4 7","Melodramatic Milgram","4.0.5","0","n","0","right","left","right","left","NA","773.0","50086","773","3183","NA","2","legacy","5","1024","2","48000","-16","experiment","1","odd","1","266450","267481","2368","125294","267483","248685","2371","271686","272460","268484","122111","269685","52458","271686","NA","Sternberg task","20","22568.0","37","1024"
"55","55","602","602","#3d3846","experiment","legacy","legacy","legacy","1","undefined","1","right","37","37","0","0","37","37","0","37","37","37","0","37","0","37","0","Sun Oct 15 15:59:22 2023","The main experiment item","True","Sternbergtask.osexp","C:\Users\Edward Banda\Desktop","False","mono","False","18","no","white","no","yes","768","legacy","25","11","C:/Users/Edward Banda/Desktop/subject-1.csv","legacy","6 7 5 9","Melodramatic Milgram","4.0.5","0","n","0","right","left","right","left","NA","334.0","50086","334","3183","NA","2","legacy","4","1024","2","48000","-16","experiment","1","odd","2","272472","273514","2368","125294","273516","248685","2371","277720","278055","274517","122111","275718","52458","277720","NA","Sternberg task","21","22902.0","38","1024"
"56","56","595","595","#3d3846","experiment","legacy","legacy","legacy","1","undefined","1","left","38","38","0","0","38","38","0","38","38","38","0","38","0","38","0","Sun Oct 15 15:59:22 2023","The main experiment item","True","Sternbergtask.osexp","C:\Users\Edward Banda\Desktop","False","mono","False","18","no","white","no","yes","768","legacy","26","11","C:/Users/Edward Banda/Desktop/subject-1.csv","legacy","8 1 6","Melodramatic Milgram","4.0.5","3","y","0","left","left","left","left","NA","328.0","50086","328","3183","NA","2","legacy","3","1024","2","48000","-16","experiment","1","odd","6","278068","279121","2368","125294","279123","248685","2371","283326","283655","280124","122111","281325","52458","283326","NA","Sternberg task","22","23230.0","39","1024"
"57","57","591","591","#3d3846","experiment","legacy","legacy","legacy","1","undefined","1","right","39","39","0","0","39","39","0","39","39","39","0","39","0","39","0","Sun Oct 15 15:59:22 2023","The main experiment item","True","Sternbergtask.osexp","C:\Users\Edward Banda\Desktop","False","mono","False","18","no","white","no","yes","768","legacy","27","11","C:/Users/Edward Banda/Desktop/subject-1.csv","legacy","7 3 2 8","Melodramatic Milgram","4.0.5","0","n","0","right","left","right","left","NA","442.0","50086","442","3183","NA","2","legacy","4","1024","2","48000","-16","experiment","1","odd","4","283667","284708","2368","125294","284709","248685","2371","288912","289355","285710","122111","286911","52458","288912","NA","Sternberg task","23","23672.0","40","1024"
"56","56","590","590","#3d3846","experiment","legacy","legacy","legacy","0","undefined","0","right","40","40","0","0","40","40","0","40","40","40","0","40","0","40","0","Sun Oct 15 15:59:22 2023","The main experiment item","True","Sternbergtask.osexp","C:\Users\Edward Banda\Desktop","False","mono","False","18","no","white","no","yes","768","legacy","28","11","C:/Users/Edward Banda/Desktop/subject-1.csv","legacy","2 8 7 9 5 3","Melodramatic Milgram","4.0.5","0","n","0","left","left","left","left","NA","522.0","50086","522","3183","NA","2","legacy","6","1024","2","48000","-16","experiment","1","odd","6","289367","290413","2368","125294","290415","248685","2371","294618","295141","291416","122111","292617","52458","294618","NA","Sternberg task","23","24194.0","41","1024"
"57","57","588","588","#3d3846","experiment","legacy","legacy","legacy","1","undefined","1","left","41","41","0","0","41","41","0","41","41","41","0","41","0","41","0","Sun Oct 15 15:59:22 2023","The main experiment item","True","Sternbergtask.osexp","C:\Users\Edward Banda\Desktop","False","mono","False","18","no","white","no","yes","768","legacy","29","11","C:/Users/Edward Banda/Desktop/subject-1.csv","legacy","6 1 2","Melodramatic Milgram","4.0.5","3","y","0","left","left","left","left","NA","508.0","50086","508","3183","NA","2","legacy","3","1024","2","48000","-16","experiment","1","odd","2","289367","296196","2368","125294","296197","295153","2371","300401","300909","297199","122111","298400","52458","300401","NA","Sternberg task","24","24702.0","42","1024"
"58","58","575","575","#3d3846","experiment","legacy","legacy","legacy","1","undefined","1","right","42","42","0","0","42","42","0","42","42","42","0","42","0","42","0","Sun Oct 15 15:59:22 2023","The main experiment item","True","Sternbergtask.osexp","C:\Users\Edward Banda\Desktop","False","mono","False","18","no","white","no","yes","768","legacy","30","11","C:/Users/Edward Banda/Desktop/subject-1.csv","legacy","8 2 1 4 5 9","Melodramatic Milgram","4.0.5","0","n","0","right","left","right","left","NA","52.0","50086","52","3183","NA","2","legacy","6","1024","2","48000","-16","experiment","1","odd","7","300911","301955","2368","125294","301957","295153","2371","306161","306213","302959","122111","304160","52458","306161","NA","Sternberg task","25","24754.0","43","1024"
"59","59","576","576","#3d3846","experiment","legacy","legacy","legacy","1","undefined","1","right","43","43","0","0","43","43","0","43","43","43","0","43","0","43","0","Sun Oct 15 15:59:22 2023","The main experiment item","True","Sternbergtask.osexp","C:\Users\Edward Banda\Desktop","False","mono","False","18","no","white","no","yes","768","legacy","31","11","C:/Users/Edward Banda/Desktop/subject-1.csv","legacy","9 7 4 5 8","Melodramatic Milgram","4.0.5","0","n","0","right","left","right","left","NA","633.0","50086","633","3183","NA","2","legacy","5","1024","2","48000","-16","experiment","1","odd","6","306225","307264","2368","125294","307266","295153","2371","311469","312103","308267","122111","309468","52458","311469","NA","Sternberg task","26","25387.0","44","1024"
"60","60","576","576","#3d3846","experiment","legacy","legacy","legacy","1","undefined","1","right","44","44","0","0","44","44","0","44","44","44","0","44","0","44","0","Sun Oct 15 15:59:22 2023","The main experiment item","True","Sternbergtask.osexp","C:\Users\Edward Banda\Desktop","False","mono","False","18","no","white","no","yes","768","legacy","32","11","C:/Users/Edward Banda/Desktop/subject-1.csv","legacy","2 6 4 3 9","Melodramatic Milgram","4.0.5","0","n","0","right","left","right","left","NA","557.0","50086","557","3183","NA","2","legacy","5","1024","2","48000","-16","experiment","1","odd","1","312116","313160","2368","125294","313161","295153","2371","317365","317924","314163","122111","315364","52458","317365","NA","Sternberg task","27","25944.0","45","1024"
"60","60","578","578","#3d3846","experiment","legacy","legacy","legacy","1","undefined","1","right","45","45","0","0","45","45","0","45","45","45","0","45","0","45","0","Sun Oct 15 15:59:22 2023","The main experiment item","True","Sternbergtask.osexp","C:\Users\Edward Banda\Desktop","False","mono","False","18","no","white","no","yes","768","legacy","33","11","C:/Users/Edward Banda/Desktop/subject-1.csv","legacy","4 2 7 6 1 3","Melodramatic Milgram","4.0.5","0","n","0","right","left","right","left","NA","652.0","50086","652","3183","NA","2","legacy","6","1024","2","48000","-16","experiment","1","odd","8","317926","318968","2368","125294","318970","295153","2371","323174","323827","319971","122111","321173","52458","323174","NA","Sternberg task","28","26596.0","46","1024"
"61","61","579","579","#3d3846","experiment","legacy","legacy","legacy","1","undefined","1","right","46","46","0","0","46","46","0","46","46","46","0","46","0","46","0","Sun Oct 15 15:59:22 2023","The main experiment item","True","Sternbergtask.osexp","C:\Users\Edward Banda\Desktop","False","mono","False","18","no","white","no","yes","768","legacy","34","11","C:/Users/Edward Banda/Desktop/subject-1.csv","legacy","5 7 3","Melodramatic Milgram","4.0.5","0","n","0","right","left","right","left","NA","635.0","50086","635","3183","NA","2","legacy","3","1024","2","48000","-16","experiment","1","odd","9","323838","324890","2368","125294","324892","295153","2371","329095","329731","325893","122111","327094","52458","329094","NA","Sternberg task","29","27231.0","47","1024"
"62","62","580","580","#3d3846","experiment","legacy","legacy","legacy","1","undefined","1","right","47","47","0","0","47","47","0","47","47","47","0","47","0","47","0","Sun Oct 15 15:59:22 2023","The main experiment item","True","Sternbergtask.osexp","C:\Users\Edward Banda\Desktop","False","mono","False","18","no","white","no","yes","768","legacy","35","11","C:/Users/Edward Banda/Desktop/subject-1.csv","legacy","5 2","Melodramatic Milgram","4.0.5","0","n","0","right","left","right","left","NA","620.0","50086","620","3183","NA","2","legacy","2","1024","2","48000","-16","experiment","1","odd","7","329743","330780","2368","125294","330782","295153","2371","334985","335606","331783","122111","332984","52458","334984","NA","Sternberg task","30","27851.0","48","1024"
"63","63","581","581","#3d3846","experiment","legacy","legacy","legacy","1","undefined","1","left","48","48","0","0","48","48","0","48","48","48","0","48","0","48","0","Sun Oct 15 15:59:22 2023","The main experiment item","True","Sternbergtask.osexp","C:\Users\Edward Banda\Desktop","False","mono","False","18","no","white","no","yes","768","legacy","36","11","C:/Users/Edward Banda/Desktop/subject-1.csv","legacy","7 1 3","Melodramatic Milgram","4.0.5","2","y","0","left","left","left","left","NA","620.0","50086","620","3183","NA","2","legacy","3","1024","2","48000","-16","experiment","1","odd","1","335608","336639","2368","125294","336641","295153","2371","340844","341464","337642","122111","338843","52458","340844","NA","Sternberg task","31","28471.0","49","1024"
"64","64","581","581","#3d3846","experiment","legacy","legacy","legacy","1","undefined","1","left","49","49","0","0","49","49","0","49","49","49","0","49","0","49","0","Sun Oct 15 15:59:22 2023","The main experiment item","True","Sternbergtask.osexp","C:\Users\Edward Banda\Desktop","False","mono","False","18","no","white","no","yes","768","legacy","37","11","C:/Users/Edward Banda/Desktop/subject-1.csv","legacy","9 1 7 2","Melodramatic Milgram","4.0.5","2","y","0","left","left","left","left","NA","621.0","50086","621","3183","NA","2","legacy","4","1024","2","48000","-16","experiment","1","odd","1","341476","342513","2368","125294","342514","295153","2371","346717","347339","343515","122111","344716","52458","346717","NA","Sternberg task","32","29092.0","50","1024"
"62","62","588","588","#3d3846","experiment","legacy","legacy","legacy","0","undefined","0","right","50","50","0","0","50","50","0","50","50","50","0","50","0","50","0","Sun Oct 15 15:59:22 2023","The main experiment item","True","Sternbergtask.osexp","C:\Users\Edward Banda\Desktop","False","mono","False","18","no","white","no","yes","768","legacy","38","11","C:/Users/Edward Banda/Desktop/subject-1.csv","legacy","7 8 6 1","Melodramatic Milgram","4.0.5","0","n","0","left","left","left","left","NA","915.0","50086","915","3183","NA","2","legacy","4","1024","2","48000","-16","experiment","1","odd","3","347351","348388","2368","125294","348390","295153","2371","352593","353509","349391","122111","350592","52458","352593","NA","Sternberg task","32","30007.0","51","1024"
"63","63","585","585","#3d3846","experiment","legacy","legacy","legacy","1","undefined","1","left","51","51","0","0","51","51","0","51","51","51","0","51","0","51","0","Sun Oct 15 15:59:22 2023","The main experiment item","True","Sternbergtask.osexp","C:\Users\Edward Banda\Desktop","False","mono","False","18","no","white","no","yes","768","legacy","39","11","C:/Users/Edward Banda/Desktop/subject-1.csv","legacy","8 9 6 1","Melodramatic Milgram","4.0.5","2","y","0","left","left","left","left","NA","437.0","50086","437","3183","NA","2","legacy","4","1024","2","48000","-16","experiment","1","odd","9","347351","354553","2368","125294","354555","353511","2371","358758","359196","355556","122111","356757","52458","358758","NA","Sternberg task","33","30444.0","52","1024"
"64","64","587","587","#3d3846","experiment","legacy","legacy","legacy","1","undefined","1","right","52","52","0","0","52","52","0","52","52","52","0","52","0","52","0","Sun Oct 15 15:59:22 2023","The main experiment item","True","Sternbergtask.osexp","C:\Users\Edward Banda\Desktop","False","mono","False","18","no","white","no","yes","768","legacy","40","11","C:/Users/Edward Banda/Desktop/subject-1.csv","legacy","5 3 8 7 2 4","Melodramatic Milgram","4.0.5","0","n","0","right","left","right","left","NA","714.0","50086","714","3183","NA","2","legacy","6","1024","2","48000","-16","experiment","1","odd","9","359208","360249","2368","125294","360250","353511","2371","364453","365168","361251","122111","362452","52458","364453","NA","Sternberg task","34","31158.0","53","1024"
"64","64","584","584","#3d3846","experiment","legacy","legacy","legacy","1","undefined","1","left","53","53","0","0","53","53","0","53","53","53","0","53","0","53","0","Sun Oct 15 15:59:22 2023","The main experiment item","True","Sternbergtask.osexp","C:\Users\Edward Banda\Desktop","False","mono","False","18","no","white","no","yes","768","legacy","41","11","C:/Users/Edward Banda/Desktop/subject-1.csv","legacy","8 9 5 6 7","Melodramatic Milgram","4.0.5","1","y","0","left","left","left","left","NA","420.0","50086","420","3183","NA","2","legacy","5","1024","2","48000","-16","experiment","1","odd","8","365180","366228","2368","125294","366229","353511","2371","370432","370852","367230","122111","368431","52458","370432","NA","Sternberg task","35","31578.0","54","1024"
"65","65","584","584","#3d3846","experiment","legacy","legacy","legacy","1","undefined","1","left","54","54","0","0","54","54","0","54","54","54","0","54","0","54","0","Sun Oct 15 15:59:22 2023","The main experiment item","True","Sternbergtask.osexp","C:\Users\Edward Banda\Desktop","False","mono","False","18","no","white","no","yes","768","legacy","42","11","C:/Users/Edward Banda/Desktop/subject-1.csv","legacy","6 2","Melodramatic Milgram","4.0.5","1","y","0","left","left","left","left","NA","571.0","50086","571","3183","NA","2","legacy","2","1024","2","48000","-16","experiment","1","odd","6","370864","371905","2368","125294","371906","353511","2371","376110","376682","372908","122111","374109","52458","376110","NA","Sternberg task","36","32149.0","55","1024"
"64","64","585","585","#3d3846","experiment","legacy","legacy","legacy","0","undefined","0","right","55","55","0","0","55","55","0","55","55","55","0","55","0","55","0","Sun Oct 15 15:59:22 2023","The main experiment item","True","Sternbergtask.osexp","C:\Users\Edward Banda\Desktop","False","mono","False","18","no","white","no","yes","768","legacy","43","11","C:/Users/Edward Banda/Desktop/subject-1.csv","legacy","4 1","Melodramatic Milgram","4.0.5","0","n","0","left","left","left","left","NA","636.0","50086","636","3183","NA","2","legacy","2","1024","2","48000","-16","experiment","1","odd","6","376694","377730","2368","125294","377732","353511","2371","381935","382571","378733","122111","379934","52458","381935","NA","Sternberg task","36","32785.0","56","1024"
"64","64","585","585","#3d3846","experiment","legacy","legacy","legacy","1","undefined","1","right","56","56","0","0","56","56","0","56","56","56","0","56","0","56","0","Sun Oct 15 15:59:22 2023","The main experiment item","True","Sternbergtask.osexp","C:\Users\Edward Banda\Desktop","False","mono","False","18","no","white","no","yes","768","legacy","44","11","C:/Users/Edward Banda/Desktop/subject-1.csv","legacy","7 1","Melodramatic Milgram","4.0.5","0","n","0","right","left","right","left","NA","566.0","50086","566","3183","NA","2","legacy","2","1024","2","48000","-16","experiment","1","odd","8","376694","383615","2368","125294","383616","382584","2371","387819","388386","384617","122111","385818","52458","387819","NA","Sternberg task","37","33351.0","57","1024"
"65","65","588","588","#3d3846","experiment","legacy","legacy","legacy","1","undefined","1","right","57","57","0","0","57","57","0","57","57","57","0","57","0","57","0","Sun Oct 15 15:59:22 2023","The main experiment item","True","Sternbergtask.osexp","C:\Users\Edward Banda\Desktop","False","mono","False","18","no","white","no","yes","768","legacy","45","11","C:/Users/Edward Banda/Desktop/subject-1.csv","legacy","7 9","Melodramatic Milgram","4.0.5","0","n","0","right","left","right","left","NA","804.0","50086","804","3183","NA","2","legacy","2","1024","2","48000","-16","experiment","1","odd","1","388402","389435","2368","125294","389437","382584","2371","393640","394445","390438","122111","391639","52458","393640","NA","Sternberg task","38","34155.0","58","1024"
"66","66","580","580","#3d3846","experiment","legacy","legacy","legacy","1","undefined","1","left","58","58","0","0","58","58","0","58","58","58","0","58","0","58","0","Sun Oct 15 15:59:22 2023","The main experiment item","True","Sternbergtask.osexp","C:\Users\Edward Banda\Desktop","False","mono","False","18","no","white","no","yes","768","legacy","46","11","C:/Users/Edward Banda/Desktop/subject-1.csv","legacy","6 7 8 5","Melodramatic Milgram","4.0.5","3","y","0","left","left","left","left","NA","96.0","50086","96","3183","NA","2","legacy","4","1024","2","48000","-16","experiment","1","odd","8","394457","395490","2368","125294","395491","382584","2371","399698","399796","396492","122111","397693","52458","399693","NA","Sternberg task","39","34251.0","59","1024"
"66","66","577","577","#3d3846","experiment","legacy","legacy","legacy","1","undefined","1","left","59","59","0","0","59","59","0","59","59","59","0","59","0","59","0","Sun Oct 15 15:59:22 2023","The main experiment item","True","Sternbergtask.osexp","C:\Users\Edward Banda\Desktop","False","mono","False","18","no","white","no","yes","768","legacy","47","11","C:/Users/Edward Banda/Desktop/subject-1.csv","legacy","4","Melodramatic Milgram","4.0.5","1","y","0","left","left","left","left","NA","390.0","50086","390","3183","NA","2","legacy","1","1024","2","48000","-16","experiment","1","odd","4","399807","400838","2368","125294","400841","382584","2371","405049","405440","401842","122111","403043","52458","405044","NA","Sternberg task","40","34641.0","60","1024"
"67","67","568","568","#3d3846","experiment","legacy","legacy","legacy","1","undefined","1","right","60","60","0","0","60","60","0","60","60","60","0","60","0","60","0","Sun Oct 15 15:59:22 2023","The main experiment item","True","Sternbergtask.osexp","C:\Users\Edward Banda\Desktop","False","mono","False","18","no","white","no","yes","768","legacy","48","11","C:/Users/Edward Banda/Desktop/subject-1.csv","legacy","2 8 9","Melodramatic Milgram","4.0.5","0","n","0","right","left","right","left","NA","15.0","50086","15","3183","NA","2","legacy","3","1024","2","48000","-16","experiment","1","odd","6","405452","406492","2368","125294","406495","382584","2371","410702","410717","407496","122111","408697","52458","410698","NA","Sternberg task","41","34656.0","61","1024"
"66","66","561","561","#3d3846","experiment","legacy","legacy","legacy","0","undefined","0","right","61","61","0","0","61","61","0","61","61","61","0","61","0","61","0","Sun Oct 15 15:59:22 2023","The main experiment item","True","Sternbergtask.osexp","C:\Users\Edward Banda\Desktop","False","mono","False","18","no","white","no","yes","768","legacy","49","11","C:/Users/Edward Banda/Desktop/subject-1.csv","legacy","3 9 1","Melodramatic Milgram","4.0.5","0","n","0","left","left","left","left","NA","156.0","50086","156","3183","NA","2","legacy","3","1024","2","48000","-16","experiment","1","odd","7","410730","411760","2368","125294","411763","382584","2371","415970","416127","412764","122111","413965","52458","415966","NA","Sternberg task","41","34812.0","62","1024"
"66","66","554","554","#3d3846","experiment","legacy","legacy","legacy","1","undefined","1","right","62","62","0","0","62","62","0","62","62","62","0","62","0","62","0","Sun Oct 15 15:59:22 2023","The main experiment item","True","Sternbergtask.osexp","C:\Users\Edward Banda\Desktop","False","mono","False","18","no","white","no","yes","768","legacy","50","11","C:/Users/Edward Banda/Desktop/subject-1.csv","legacy","1 7 5 2","Melodramatic Milgram","4.0.5","0","n","0","right","left","right","left","NA","94.0","50086","94","3183","NA","2","legacy","4","1024","2","48000","-16","experiment","1","odd","3","410730","417181","2368","125294","417183","416139","2371","421392","421487","418184","122111","419385","52458","421386","NA","Sternberg task","42","34906.0","63","1024"
"65","65","552","552","#3d3846","experiment","legacy","legacy","legacy","0","undefined","0","left","63","63","0","0","63","63","0","63","63","63","0","63","0","63","0","Sun Oct 15 15:59:22 2023","The main experiment item","True","Sternbergtask.osexp","C:\Users\Edward Banda\Desktop","False","mono","False","18","no","white","no","yes","768","legacy","51","11","C:/Users/Edward Banda/Desktop/subject-1.csv","legacy","8 7 3","Melodramatic Milgram","4.0.5","1","y","0","right","left","right","left","NA","458.0","50086","458","3183","NA","2","legacy","3","1024","2","48000","-16","experiment","1","odd","8","421500","422531","2368","125294","422533","416139","2371","426738","427197","423534","122111","424735","52458","426736","NA","Sternberg task","42","35364.0","64","1024"
"66","66","564","564","#3d3846","experiment","legacy","legacy","legacy","1","undefined","1","left","64","64","0","0","64","64","0","64","64","64","0","64","0","64","0","Sun Oct 15 15:59:22 2023","The main experiment item","True","Sternbergtask.osexp","C:\Users\Edward Banda\Desktop","False","mono","False","18","no","white","no","yes","768","legacy","52","11","C:/Users/Edward Banda/Desktop/subject-1.csv","legacy","7 8 6 3 1","Melodramatic Milgram","4.0.5","5","y","0","left","left","left","left","NA","1300.0","50086","1300","3183","NA","2","legacy","5","1024","2","48000","-16","experiment","1","odd","1","421500","428235","2368","125294","428238","427199","2371","432445","433746","429239","122111","430440","52458","432441","NA","Sternberg task","43","36664.0","65","1024"
"65","65","585","585","#3d3846","experiment","legacy","legacy","legacy","0","undefined","0","right","65","65","0","0","65","65","0","65","65","65","0","65","0","65","0","Sun Oct 15 15:59:22 2023","The main experiment item","True","Sternbergtask.osexp","C:\Users\Edward Banda\Desktop","False","mono","False","18","no","white","no","yes","768","legacy","53","11","C:/Users/Edward Banda/Desktop/subject-1.csv","legacy","5 9 2 3","Melodramatic Milgram","4.0.5","0","n","0","None","left","None","left","NA","2000.0","50086","2000","3183","NA","2","legacy","4","1024","2","48000","-16","experiment","1","odd","8","433758","434797","2368","125294","434798","427199","2371","439006","441006","435800","122111","437001","52458","439002","NA","Sternberg task","43","38664.0","66","1024"
"65","65","577","577","#3d3846","experiment","legacy","legacy","legacy","1","undefined","1","right","66","66","0","0","66","66","0","66","66","66","0","66","0","66","0","Sun Oct 15 15:59:22 2023","The main experiment item","True","Sternbergtask.osexp","C:\Users\Edward Banda\Desktop","False","mono","False","18","no","white","no","yes","768","legacy","54","11","C:/Users/Edward Banda/Desktop/subject-1.csv","legacy","6 3 1 7 9 8","Melodramatic Milgram","4.0.5","0","n","0","right","left","right","left","NA","23.0","50086","23","3183","NA","2","legacy","6","1024","2","48000","-16","experiment","1","odd","4","433758","442044","2368","125294","442047","441008","2371","446254","446278","443048","122111","444249","52458","446249","NA","Sternberg task","44","38687.0","67","1024"
"64","64","569","569","#3d3846","experiment","legacy","legacy","legacy","0","undefined","0","right","67","67","0","0","67","67","0","67","67","67","0","67","0","67","0","Sun Oct 15 15:59:22 2023","The main experiment item","True","Sternbergtask.osexp","C:\Users\Edward Banda\Desktop","False","mono","False","18","no","white","no","yes","768","legacy","55","11","C:/Users/Edward Banda/Desktop/subject-1.csv","legacy","6 2 9 3 8 4","Melodramatic Milgram","4.0.5","0","n","0","left","left","left","left","NA","9.0","50086","9","3183","NA","2","legacy","6","1024","2","48000","-16","experiment","1","odd","1","446290","447336","2368","125294","447339","441008","2371","451548","451558","448340","122111","449541","52458","451542","NA","Sternberg task","44","38696.0","68","1024"
"63","63","561","561","#3d3846","experiment","legacy","legacy","legacy","0","undefined","0","right","68","68","0","0","68","68","0","68","68","68","0","68","0","68","0","Sun Oct 15 15:59:22 2023","The main experiment item","True","Sternbergtask.osexp","C:\Users\Edward Banda\Desktop","False","mono","False","18","no","white","no","yes","768","legacy","56","11","C:/Users/Edward Banda/Desktop/subject-1.csv","legacy","6 8 4","Melodramatic Milgram","4.0.5","0","n","0","left","left","left","left","NA","39.0","50086","39","3183","NA","2","legacy","3","1024","2","48000","-16","experiment","1","odd","1","446290","452603","2368","125294","452606","451570","2371","456818","456858","453607","122111","454808","52458","456809","NA","Sternberg task","44","38735.0","69","1024"
"64","64","554","554","#3d3846","experiment","legacy","legacy","legacy","1","undefined","1","left","69","69","0","0","69","69","0","69","69","69","0","69","0","69","0","Sun Oct 15 15:59:22 2023","The main experiment item","True","Sternbergtask.osexp","C:\Users\Edward Banda\Desktop","False","mono","False","18","no","white","no","yes","768","legacy","57","11","C:/Users/Edward Banda/Desktop/subject-1.csv","legacy","6 8 9 3 4 9","Melodramatic Milgram","4.0.5","5","y","0","left","left","left","left","NA","64.0","50086","64","3183","NA","2","legacy","6","1024","2","48000","-16","experiment","1","odd","4","446290","457903","2368","125294","457906","456860","2371","462116","462181","458907","122111","460108","52458","462109","NA","Sternberg task","45","38799.0","70","1024"
"63","63","548","548","#3d3846","experiment","legacy","legacy","legacy","0","undefined","0","right","70","70","0","0","70","70","0","70","70","70","0","70","0","70","0","Sun Oct 15 15:59:22 2023","The main experiment item","True","Sternbergtask.osexp","C:\Users\Edward Banda\Desktop","False","mono","False","18","no","white","no","yes","768","legacy","58","11","C:/Users/Edward Banda/Desktop/subject-1.csv","legacy","1 4 3 6 5","Melodramatic Milgram","4.0.5","0","n","0","left","left","left","left","NA","145.0","50086","145","3183","NA","2","legacy","5","1024","2","48000","-16","experiment","1","odd","8","462193","463233","2368","125294","463236","456860","2371","467444","467590","464237","122111","465438","52458","467439","NA","Sternberg task","45","38944.0","71","1024"
"63","63","541","541","#3d3846","experiment","legacy","legacy","legacy","1","undefined","1","left","71","71","0","0","71","71","0","71","71","71","0","71","0","71","0","Sun Oct 15 15:59:22 2023","The main experiment item","True","Sternbergtask.osexp","C:\Users\Edward Banda\Desktop","False","mono","False","18","no","white","no","yes","768","legacy","59","11","C:/Users/Edward Banda/Desktop/subject-1.csv","legacy","5 7 3 6 2","Melodramatic Milgram","4.0.5","5","y","0","left","left","left","left","NA","8.0","50086","8","3183","NA","2","legacy","5","1024","2","48000","-16","experiment","1","odd","2","462193","468634","2368","125294","468637","467602","2371","472844","472853","469638","122111","470839","52458","472839","NA","Sternberg task","46","38952.0","72","1024"
"63","63","534","534","#3d3846","experiment","legacy","legacy","legacy","0","undefined","0","right","72","72","0","0","72","72","0","72","72","72","0","72","0","72","0","Sun Oct 15 15:59:22 2023","The main experiment item","True","Sternbergtask.osexp","C:\Users\Edward Banda\Desktop","False","mono","False","18","no","white","no","yes","768","legacy","60","11","C:/Users/Edward Banda/Desktop/subject-1.csv","legacy","3 9 8 1 6 4","Melodramatic Milgram","4.0.5","0","n","0","left","left","left","left","NA","36.0","50086","36","3183","NA","2","legacy","6","1024","2","48000","-16","experiment","1","odd","7","472865","473903","2368","125294","473907","467602","2371","478121","478158","474909","122111","476110","52458","478112","NA","Sternberg task","46","38988.0","73","1024"
"62","62","526","526","#3d3846","experiment","legacy","legacy","legacy","0","undefined","0","right","73","73","0","0","73","73","0","73","73","73","0","73","0","73","0","Sun Oct 15 15:59:22 2023","The main experiment item","True","Sternbergtask.osexp","C:\Users\Edward Banda\Desktop","False","mono","False","18","no","white","no","yes","768","legacy","61","11","C:/Users/Edward Banda/Desktop/subject-1.csv","legacy","3 4 9 6 7 8","Melodramatic Milgram","4.0.5","0","n","0","left","left","left","left","NA","9.0","50086","9","3183","NA","2","legacy","6","1024","2","48000","-16","experiment","1","odd","2","472865","479231","2368","125294","479235","478198","2371","483449","483458","480236","122111","481437","52458","483438","NA","Sternberg task","46","38997.0","74","1024"
"61","61","520","520","#3d3846","experiment","legacy","legacy","legacy","0","undefined","0","left","74","74","0","0","74","74","0","74","74","74","0","74","0","74","0","Sun Oct 15 15:59:22 2023","The main experiment item","True","Sternbergtask.osexp","C:\Users\Edward Banda\Desktop","False","mono","False","18","no","white","no","yes","768","legacy","62","11","C:/Users/Edward Banda/Desktop/subject-1.csv","legacy","5 2 9 6 1 7","Melodramatic Milgram","4.0.5","3","y","0","right","left","right","left","NA","58.0","50086","58","3183","NA","2","legacy","6","1024","2","48000","-16","experiment","1","odd","9","472865","484542","2368","125294","484545","483498","2371","488754","488813","485546","122111","486747","52458","488747","NA","Sternberg task","46","39055.0","75","1024"
"60","60","514","514","#3d3846","experiment","legacy","legacy","legacy","0","undefined","0","right","75","75","0","0","75","75","0","75","75","75","0","75","0","75","0","Sun Oct 15 15:59:22 2023","The main experiment item","True","Sternbergtask.osexp","C:\Users\Edward Banda\Desktop","False","mono","False","18","no","white","no","yes","768","legacy","63","11","C:/Users/Edward Banda/Desktop/subject-1.csv","legacy","9 5 3 2 8 6","Melodramatic Milgram","4.0.5","0","n","0","left","left","left","left","NA","71.0","50086","71","3183","NA","2","legacy","6","1024","2","48000","-16","experiment","1","odd","7","472865","489860","2368","125294","489864","488825","2371","494070","494142","490865","122111","492066","52458","494066","NA","Sternberg task","46","39126.0","76","1024"
"59","59","508","508","#3d3846","experiment","legacy","legacy","legacy","0","undefined","0","left","76","76","0","0","76","76","0","76","76","76","0","76","0","76","0","Sun Oct 15 15:59:22 2023","The main experiment item","True","Sternbergtask.osexp","C:\Users\Edward Banda\Desktop","False","mono","False","18","no","white","no","yes","768","legacy","64","11","C:/Users/Edward Banda/Desktop/subject-1.csv","legacy","4 1 8 7 5","Melodramatic Milgram","4.0.5","3","y","0","right","left","right","left","NA","8.0","50086","8","3183","NA","2","legacy","5","1024","2","48000","-16","experiment","1","odd","8","472865","495185","2368","125294","495187","494154","2371","499393","499402","496188","122111","497389","52458","499390","NA","Sternberg task","46","39134.0","77","1024"
"58","58","503","503","#3d3846","experiment","legacy","legacy","legacy","0","undefined","0","left","77","77","0","0","77","77","0","77","77","77","0","77","0","77","0","Sun Oct 15 15:59:22 2023","The main experiment item","True","Sternbergtask.osexp","C:\Users\Edward Banda\Desktop","False","mono","False","18","no","white","no","yes","768","legacy","65","11","C:/Users/Edward Banda/Desktop/subject-1.csv","legacy","7 8 4 6 9 5","Melodramatic Milgram","4.0.5","4","y","0","right","left","right","left","NA","156.0","50086","156","3183","NA","2","legacy","6","1024","2","48000","-16","experiment","1","odd","6","472865","500450","2368","125294","500453","499414","2371","504661","504818","501454","122111","502656","52458","504657","NA","Sternberg task","46","39290.0","78","1024"
"58","58","499","499","#3d3846","experiment","legacy","legacy","legacy","0","undefined","0","left","78","78","0","0","78","78","0","78","78","78","0","78","0","78","0","Sun Oct 15 15:59:22 2023","The main experiment item","True","Sternbergtask.osexp","C:\Users\Edward Banda\Desktop","False","mono","False","18","no","white","no","yes","768","legacy","66","11","C:/Users/Edward Banda/Desktop/subject-1.csv","legacy","9 6 2 4 1","Melodramatic Milgram","4.0.5","4","y","0","right","left","right","left","NA","149.0","50086","149","3183","NA","2","legacy","5","1024","2","48000","-16","experiment","1","odd","4","472865","505874","2368","125294","505878","504830","2371","510086","510235","506879","122111","508080","52458","510082","NA","Sternberg task","46","39439.0","79","1024"
"58","58","494","494","#3d3846","experiment","legacy","legacy","legacy","1","undefined","1","left","79","79","0","0","79","79","0","79","79","79","0","79","0","79","0","Sun Oct 15 15:59:22 2023","The main experiment item","True","Sternbergtask.osexp","C:\Users\Edward Banda\Desktop","False","mono","False","18","no","white","no","yes","768","legacy","67","11","C:/Users/Edward Banda/Desktop/subject-1.csv","legacy","3 5 7 1","Melodramatic Milgram","4.0.5","3","y","0","left","left","left","left","NA","134.0","50086","134","3183","NA","2","legacy","4","1024","2","48000","-16","experiment","1","odd","7","472865","511280","2368","125294","511283","510247","2371","515491","515626","512284","122111","513485","52458","515486","NA","Sternberg task","47","39573.0","80","1024"
"58","58","488","488","#3d3846","experiment","legacy","legacy","legacy","0","undefined","0","left","80","80","0","0","80","80","0","80","80","80","0","80","0","80","0","Sun Oct 15 15:59:22 2023","The main experiment item","True","Sternbergtask.osexp","C:\Users\Edward Banda\Desktop","False","mono","False","18","no","white","no","yes","768","legacy","68","11","C:/Users/Edward Banda/Desktop/subject-1.csv","legacy","4 9 7 8 5 3","Melodramatic Milgram","4.0.5","4","y","0","right","left","right","left","NA","5.0","50086","5","3183","NA","2","legacy","6","1024","2","48000","-16","experiment","1","odd","8","515638","516669","2368","125294","516671","510247","2371","520879","520885","517672","122111","518873","52458","520874","NA","Sternberg task","47","39578.0","81","1024"
"57","57","507","507","#3d3846","experiment","legacy","legacy","legacy","0","undefined","0","right","81","81","0","0","81","81","0","81","81","81","0","81","0","81","0","Sun Oct 15 15:59:22 2023","The main experiment item","True","Sternbergtask.osexp","C:\Users\Edward Banda\Desktop","False","mono","False","18","no","white","no","yes","768","legacy","69","11","C:/Users/Edward Banda/Desktop/subject-1.csv","legacy","2 8 6 3 1","Melodramatic Milgram","4.0.5","0","n","0","None","left","None","left","NA","2000.0","50086","2000","3183","NA","2","legacy","5","1024","2","48000","-16","experiment","1","odd","7","515638","521943","2368","125294","521946","520897","2371","526151","528151","522947","122111","524148","52458","526149","NA","Sternberg task","47","41578.0","82","1024"
"57","57","506","506","#3d3846","experiment","legacy","legacy","legacy","1","undefined","1","left","82","82","0","0","82","82","0","82","82","82","0","82","0","82","0","Sun Oct 15 15:59:22 2023","The main experiment item","True","Sternbergtask.osexp","C:\Users\Edward Banda\Desktop","False","mono","False","18","no","white","no","yes","768","legacy","70","11","C:/Users/Edward Banda/Desktop/subject-1.csv","legacy","6 5","Melodramatic Milgram","4.0.5","2","y","0","left","left","left","left","NA","440.0","50086","440","3183","NA","2","legacy","2","1024","2","48000","-16","experiment","1","odd","5","515638","529203","2368","125294","529204","528163","2371","533409","533850","530206","122111","531407","52458","533408","NA","Sternberg task","48","42018.0","83","1024"
"57","57","524","524","#3d3846","experiment","legacy","legacy","legacy","0","undefined","0","right","83","83","0","0","83","83","0","83","83","83","0","83","0","83","0","Sun Oct 15 15:59:22 2023","The main experiment item","True","Sternbergtask.osexp","C:\Users\Edward Banda\Desktop","False","mono","False","18","no","white","no","yes","768","legacy","71","11","C:/Users/Edward Banda/Desktop/subject-1.csv","legacy","5","Melodramatic Milgram","4.0.5","0","n","0","None","left","None","left","NA","2000.0","50086","2000","3183","NA","2","legacy","1","1024","2","48000","-16","experiment","1","odd","8","533862","534895","2368","125294","534897","528163","2371","539100","541100","535898","122111","537099","52458","539100","NA","Sternberg task","48","44018.0","84","1024"
"57","57","530","530","#3d3846","experiment","legacy","legacy","legacy","1","undefined","1","left","84","84","0","0","84","84","0","84","84","84","0","84","0","84","0","Sun Oct 15 15:59:22 2023","The main experiment item","True","Sternbergtask.osexp","C:\Users\Edward Banda\Desktop","False","mono","False","18","no","white","no","yes","768","legacy","72","11","C:/Users/Edward Banda/Desktop/subject-1.csv","legacy","2 5 4 8 7","Melodramatic Milgram","4.0.5","3","y","0","left","left","left","left","NA","1036.0","50086","1036","3183","NA","2","legacy","5","1024","2","48000","-16","experiment","1","odd","4","533862","542152","2368","125294","542154","541112","2371","546357","547394","543155","122111","544356","52458","546357","NA","Sternberg task","49","45054.0","85","1024"
"56","56","532","532","#3d3846","experiment","legacy","legacy","legacy","0","undefined","0","left","85","85","0","0","85","85","0","85","85","85","0","85","0","85","0","Sun Oct 15 15:59:22 2023","The main experiment item","True","Sternbergtask.osexp","C:\Users\Edward Banda\Desktop","False","mono","False","18","no","white","no","yes","768","legacy","73","11","C:/Users/Edward Banda/Desktop/subject-1.csv","legacy","2 6 1 7 4","Melodramatic Milgram","4.0.5","2","y","0","right","left","right","left","NA","735.0","50086","735","3183","NA","2","legacy","5","1024","2","48000","-16","experiment","1","odd","6","547406","548439","2368","125294","548442","541112","2371","552645","553381","549443","122111","550644","52458","552645","NA","Sternberg task","49","45789.0","86","1024"
"56","56","549","549","#3d3846","experiment","legacy","legacy","legacy","0","undefined","0","right","86","86","0","0","86","86","0","86","86","86","0","86","0","86","0","Sun Oct 15 15:59:22 2023","The main experiment item","True","Sternbergtask.osexp","C:\Users\Edward Banda\Desktop","False","mono","False","18","no","white","no","yes","768","legacy","74","11","C:/Users/Edward Banda/Desktop/subject-1.csv","legacy","2 7 5","Melodramatic Milgram","4.0.5","0","n","0","None","left","None","left","NA","2000.0","50086","2000","3183","NA","2","legacy","3","1024","2","48000","-16","experiment","1","odd","8","547406","554427","2368","125294","554430","553394","2371","558636","560636","555431","122111","556632","52458","558633","NA","Sternberg task","49","47789.0","87","1024"
"56","56","544","544","#3d3846","experiment","legacy","legacy","legacy","1","undefined","1","left","87","87","0","0","87","87","0","87","87","87","0","87","0","87","0","Sun Oct 15 15:59:22 2023","The main experiment item","True","Sternbergtask.osexp","C:\Users\Edward Banda\Desktop","False","mono","False","18","no","white","no","yes","768","legacy","75","11","C:/Users/Edward Banda/Desktop/subject-1.csv","legacy","5 7 8 2 3 8","Melodramatic Milgram","4.0.5","5","y","0","left","left","left","left","NA","169.0","50086","169","3183","NA","2","legacy","6","1024","2","48000","-16","experiment","1","odd","3","547406","561676","2368","125294","561678","560638","2371","565883","566053","562679","122111","563880","52458","565881","NA","Sternberg task","50","47958.0","88","1024"
"56","56","561","561","#3d3846","experiment","legacy","legacy","legacy","0","undefined","0","left","88","88","0","0","88","88","0","88","88","88","0","88","0","88","0","Sun Oct 15 15:59:22 2023","The main experiment item","True","Sternbergtask.osexp","C:\Users\Edward Banda\Desktop","False","mono","False","18","no","white","no","yes","768","legacy","76","11","C:/Users/Edward Banda/Desktop/subject-1.csv","legacy","2 3","Melodramatic Milgram","4.0.5","1","y","0","None","left","None","left","NA","2000.0","50086","2000","3183","NA","2","legacy","2","1024","2","48000","-16","experiment","1","odd","2","566055","567090","2368","125294","567092","560638","2371","571295","573295","568093","122111","569294","52458","571295","NA","Sternberg task","50","49958.0","89","1024"
"56","56","555","555","#3d3846","experiment","legacy","legacy","legacy","1","undefined","1","right","89","89","0","0","89","89","0","89","89","89","0","89","0","89","0","Sun Oct 15 15:59:22 2023","The main experiment item","True","Sternbergtask.osexp","C:\Users\Edward Banda\Desktop","False","mono","False","18","no","white","no","yes","768","legacy","77","11","C:/Users/Edward Banda/Desktop/subject-1.csv","legacy","7 9 1 6","Melodramatic Milgram","4.0.5","0","n","0","right","left","right","left","NA","43.0","50086","43","3183","NA","2","legacy","4","1024","2","48000","-16","experiment","1","odd","4","566055","574363","2368","125294","574364","573307","2371","578569","578613","575365","122111","576566","52458","578566","NA","Sternberg task","51","50001.0","90","1024"
"57","57","550","550","#3d3846","experiment","legacy","legacy","legacy","1","undefined","1","left","90","90","0","0","90","90","0","90","90","90","0","90","0","90","0","Sun Oct 15 15:59:22 2023","The main experiment item","True","Sternbergtask.osexp","C:\Users\Edward Banda\Desktop","False","mono","False","18","no","white","no","yes","768","legacy","78","11","C:/Users/Edward Banda/Desktop/subject-1.csv","legacy","6 7 9 3 1 2","Melodramatic Milgram","4.0.5","1","y","0","left","left","left","left","NA","102.0","50086","102","3183","NA","2","legacy","6","1024","2","48000","-16","experiment","1","odd","6","578625","579657","2368","125294","579660","573307","2371","583868","583971","580661","122111","581862","52458","583863","NA","Sternberg task","52","50103.0","91","1024"
"57","57","546","546","#3d3846","experiment","legacy","legacy","legacy","1","undefined","1","left","91","91","0","0","91","91","0","91","91","91","0","91","0","91","0","Sun Oct 15 15:59:22 2023","The main experiment item","True","Sternbergtask.osexp","C:\Users\Edward Banda\Desktop","False","mono","False","18","no","white","no","yes","768","legacy","79","11","C:/Users/Edward Banda/Desktop/subject-1.csv","legacy","3 9 6 2","Melodramatic Milgram","4.0.5","4","y","0","left","left","left","left","NA","188.0","50086","188","3183","NA","2","legacy","4","1024","2","48000","-16","experiment","1","odd","2","583983","585021","2368","125294","585023","573307","2371","589231","589419","586025","122111","587226","52458","589227","NA","Sternberg task","53","50291.0","92","1024"
"56","56","542","542","#3d3846","experiment","legacy","legacy","legacy","0","undefined","0","left","92","92","0","0","92","92","0","92","92","92","0","92","0","92","0","Sun Oct 15 15:59:22 2023","The main experiment item","True","Sternbergtask.osexp","C:\Users\Edward Banda\Desktop","False","mono","False","18","no","white","no","yes","768","legacy","80","11","C:/Users/Edward Banda/Desktop/subject-1.csv","legacy","1 4 9 3 2 5","Melodramatic Milgram","4.0.5","3","y","0","right","left","right","left","NA","193.0","50086","193","3183","NA","2","legacy","6","1024","2","48000","-16","experiment","1","odd","9","589431","590471","2368","125294","590474","573307","2371","594680","594874","591475","122111","592676","52458","594678","NA","Sternberg task","53","50484.0","93","1024"
"57","57","537","537","#3d3846","experiment","legacy","legacy","legacy","1","undefined","1","right","93","93","0","0","93","93","0","93","93","93","0","93","0","93","0","Sun Oct 15 15:59:22 2023","The main experiment item","True","Sternbergtask.osexp","C:\Users\Edward Banda\Desktop","False","mono","False","18","no","white","no","yes","768","legacy","81","11","C:/Users/Edward Banda/Desktop/subject-1.csv","legacy","3 4 2","Melodramatic Milgram","4.0.5","0","n","0","right","left","right","left","NA","48.0","50086","48","3183","NA","2","legacy","3","1024","2","48000","-16","experiment","1","odd","5","589431","595921","2368","125294","595926","594886","2371","600134","600183","596927","122111","598128","52458","600129","NA","Sternberg task","54","50532.0","94","1024"
"57","57","532","532","#3d3846","experiment","legacy","legacy","legacy","1","undefined","1","left","94","94","0","0","94","94","0","94","94","94","0","94","0","94","0","Sun Oct 15 15:59:22 2023","The main experiment item","True","Sternbergtask.osexp","C:\Users\Edward Banda\Desktop","False","mono","False","18","no","white","no","yes","768","legacy","82","11","C:/Users/Edward Banda/Desktop/subject-1.csv","legacy","4 3 2 5 8","Melodramatic Milgram","4.0.5","2","y","0","left","left","left","left","NA","46.0","50086","46","3183","NA","2","legacy","5","1024","2","48000","-16","experiment","1","odd","3","600196","601233","2368","125294","601235","594886","2371","605441","605488","602236","122111","603437","52458","605438","NA","Sternberg task","55","50578.0","95","1024"
"58","58","527","527","#3d3846","experiment","legacy","legacy","legacy","1","undefined","1","right","95","95","0","0","95","95","0","95","95","95","0","95","0","95","0","Sun Oct 15 15:59:22 2023","The main experiment item","True","Sternbergtask.osexp","C:\Users\Edward Banda\Desktop","False","mono","False","18","no","white","no","yes","768","legacy","83","11","C:/Users/Edward Banda/Desktop/subject-1.csv","legacy","8 5 7 3 6","Melodramatic Milgram","4.0.5","0","n","0","right","left","right","left","NA","65.0","50086","65","3183","NA","2","legacy","5","1024","2","48000","-16","experiment","1","odd","9","605500","606537","2368","125294","606539","594886","2371","610747","610813","607540","122111","608741","52458","610741","NA","Sternberg task","56","50643.0","96","1024"
"58","58","522","522","#3d3846","experiment","legacy","legacy","legacy","1","undefined","1","right","96","96","0","0","96","96","0","96","96","96","0","96","0","96","0","Sun Oct 15 15:59:22 2023","The main experiment item","True","Sternbergtask.osexp","C:\Users\Edward Banda\Desktop","False","mono","False","18","no","white","no","yes","768","legacy","84","11","C:/Users/Edward Banda/Desktop/subject-1.csv","legacy","9 8 2 7 4","Melodramatic Milgram","4.0.5","0","n","0","right","left","right","left","NA","34.0","50086","34","3183","NA","2","legacy","5","1024","2","48000","-16","experiment","1","odd","5","610815","611858","2368","125294","611860","594886","2371","616067","616103","612861","122111","614062","52458","616063","NA","Sternberg task","57","50677.0","97","1024"
"59","59","518","518","#3d3846","experiment","legacy","legacy","legacy","1","undefined","1","right","97","97","0","0","97","97","0","97","97","97","0","97","0","97","0","Sun Oct 15 15:59:22 2023","The main experiment item","True","Sternbergtask.osexp","C:\Users\Edward Banda\Desktop","False","mono","False","18","no","white","no","yes","768","legacy","85","11","C:/Users/Edward Banda/Desktop/subject-1.csv","legacy","4 8 1 2","Melodramatic Milgram","4.0.5","0","n","0","right","left","right","left","NA","96.0","50086","96","3183","NA","2","legacy","4","1024","2","48000","-16","experiment","1","odd","7","616105","617136","2368","125294","617138","594886","2371","621345","621442","618139","122111","619340","52458","621341","NA","Sternberg task","58","50773.0","98","1024"
"58","58","514","514","#3d3846","experiment","legacy","legacy","legacy","0","undefined","0","left","98","98","0","0","98","98","0","98","98","98","0","98","0","98","0","Sun Oct 15 15:59:22 2023","The main experiment item","True","Sternbergtask.osexp","C:\Users\Edward Banda\Desktop","False","mono","False","18","no","white","no","yes","768","legacy","86","11","C:/Users/Edward Banda/Desktop/subject-1.csv","legacy","2 8 5 1","Melodramatic Milgram","4.0.5","4","y","0","right","left","right","left","NA","130.0","50086","130","3183","NA","2","legacy","4","1024","2","48000","-16","experiment","1","odd","1","621455","622491","2368","125294","622493","594886","2371","626700","626831","623494","122111","624695","52458","626696","NA","Sternberg task","58","50903.0","99","1024"
"58","58","510","510","#3d3846","experiment","legacy","legacy","legacy","0","undefined","0","right","99","99","0","0","99","99","0","99","99","99","0","99","0","99","0","Sun Oct 15 15:59:22 2023","The main experiment item","True","Sternbergtask.osexp","C:\Users\Edward Banda\Desktop","False","mono","False","18","no","white","no","yes","768","legacy","87","11","C:/Users/Edward Banda/Desktop/subject-1.csv","legacy","7 1 5 6 3","Melodramatic Milgram","4.0.5","0","n","0","left","left","left","left","NA","101.0","50086","101","3183","NA","2","legacy","5","1024","2","48000","-16","experiment","1","odd","8","621455","627875","2368","125294","627878","626843","2371","632084","632186","628879","122111","630080","52458","632081","NA","Sternberg task","58","51004.0","100","1024"
"58","58","507","507","#3d3846","experiment","legacy","legacy","legacy","1","undefined","1","right","100","100","0","0","100","100","0","100","100","100","0","100","0","100","0","Sun Oct 15 15:59:22 2023","The main experiment item","True","Sternbergtask.osexp","C:\Users\Edward Banda\Desktop","False","mono","False","18","no","white","no","yes","768","legacy","88","11","C:/Users/Edward Banda/Desktop/subject-1.csv","legacy","6 9 4 5 2","Melodramatic Milgram","4.0.5","0","n","0","right","left","right","left","NA","216.0","50086","216","3183","NA","2","legacy","5","1024","2","48000","-16","experiment","1","odd","1","621455","633233","2368","125294","633236","632198","2371","637444","637660","634237","122111","635439","52458","637440","NA","Sternberg task","59","51220.0","101","1024"
"58","58","503","503","#3d3846","experiment","legacy","legacy","legacy","1","undefined","1","right","101","101","0","0","101","101","0","101","101","101","0","101","0","101","0","Sun Oct 15 15:59:22 2023","The main experiment item","True","Sternbergtask.osexp","C:\Users\Edward Banda\Desktop","False","mono","False","18","no","white","no","yes","768","legacy","89","11","C:/Users/Edward Banda/Desktop/subject-1.csv","legacy","1 5 3 2 8","Melodramatic Milgram","4.0.5","0","n","0","right","left","right","left","NA","99.0","50086","99","3183","NA","2","legacy","5","1024","2","48000","-16","experiment","1","odd","4","637673","638714","2368","125294","638717","632198","2371","642925","643025","639718","122111","640919","52458","642920","NA","Sternberg task","60","51319.0","102","1024"
"58","58","499","499","#3d3846","experiment","legacy","legacy","legacy","0","undefined","0","left","102","102","0","0","102","102","0","102","102","102","0","102","0","102","0","Sun Oct 15 15:59:22 2023","The main experiment item","True","Sternbergtask.osexp","C:\Users\Edward Banda\Desktop","False","mono","False","18","no","white","no","yes","768","legacy","90","11","C:/Users/Edward Banda/Desktop/subject-1.csv","legacy","8 5 4 7 3 1","Melodramatic Milgram","4.0.5","2","y","0","right","left","right","left","NA","134.0","50086","134","3183","NA","2","legacy","6","1024","2","48000","-16","experiment","1","odd","5","643037","644073","2368","125294","644076","632198","2371","648285","648420","645077","122111","646278","52458","648280","NA","Sternberg task","60","51453.0","103","1024"
"58","58","496","496","#3d3846","experiment","legacy","legacy","legacy","1","undefined","1","left","103","103","0","0","103","103","0","103","103","103","0","103","0","103","0","Sun Oct 15 15:59:22 2023","The main experiment item","True","Sternbergtask.osexp","C:\Users\Edward Banda\Desktop","False","mono","False","18","no","white","no","yes","768","legacy","91","11","C:/Users/Edward Banda/Desktop/subject-1.csv","legacy","7","Melodramatic Milgram","4.0.5","1","y","0","left","left","left","left","NA","136.0","50086","136","3183","NA","2","legacy","1","1024","2","48000","-16","experiment","1","odd","7","643037","649481","2368","125294","649483","648432","2371","653692","653829","650484","122111","651685","52458","653686","NA","Sternberg task","61","51589.0","104","1024"
"59","59","492","492","#3d3846","experiment","legacy","legacy","legacy","1","undefined","1","right","104","104","0","0","104","104","0","104","104","104","0","104","0","104","0","Sun Oct 15 15:59:22 2023","The main experiment item","True","Sternbergtask.osexp","C:\Users\Edward Banda\Desktop","False","mono","False","18","no","white","no","yes","768","legacy","92","11","C:/Users/Edward Banda/Desktop/subject-1.csv","legacy","4 2 6 9","Melodramatic Milgram","4.0.5","0","n","0","right","left","right","left","NA","120.0","50086","120","3183","NA","2","legacy","4","1024","2","48000","-16","experiment","1","odd","7","653841","654873","2368","125294","654877","648432","2371","659083","659204","655878","122111","657079","52458","659080","NA","Sternberg task","62","51709.0","105","1024"
"59","59","489","489","#3d3846","experiment","legacy","legacy","legacy","1","undefined","1","left","105","105","0","0","105","105","0","105","105","105","0","105","0","105","0","Sun Oct 15 15:59:22 2023","The main experiment item","True","Sternbergtask.osexp","C:\Users\Edward Banda\Desktop","False","mono","False","18","no","white","no","yes","768","legacy","93","11","C:/Users/Edward Banda/Desktop/subject-1.csv","legacy","8 9 5 7 1 6","Melodramatic Milgram","4.0.5","4","y","0","left","left","left","left","NA","151.0","50086","151","3183","NA","2","legacy","6","1024","2","48000","-16","experiment","1","odd","7","659216","660250","2368","125294","660253","648432","2371","664461","664613","661254","122111","662455","52458","664457","NA","Sternberg task","63","51860.0","106","1024"
"58","58","503","503","#3d3846","experiment","legacy","legacy","legacy","0","undefined","0","left","106","106","0","0","106","106","0","106","106","106","0","106","0","106","0","Sun Oct 15 15:59:22 2023","The main experiment item","True","Sternbergtask.osexp","C:\Users\Edward Banda\Desktop","False","mono","False","18","no","white","no","yes","768","legacy","94","11","C:/Users/Edward Banda/Desktop/subject-1.csv","legacy","3 4 9 6 2 9","Melodramatic Milgram","4.0.5","5","y","0","None","left","None","left","NA","2000.0","50086","2000","3183","NA","2","legacy","6","1024","2","48000","-16","experiment","1","odd","2","664625","665665","2368","125294","665667","648432","2371","669874","671874","666668","122111","667869","52458","669870","NA","Sternberg task","63","53860.0","107","1024"
"58","58","517","517","#3d3846","experiment","legacy","legacy","legacy","0","undefined","0","right","107","107","0","0","107","107","0","107","107","107","0","107","0","107","0","Sun Oct 15 15:59:22 2023","The main experiment item","True","Sternbergtask.osexp","C:\Users\Edward Banda\Desktop","False","mono","False","18","no","white","no","yes","768","legacy","95","11","C:/Users/Edward Banda/Desktop/subject-1.csv","legacy","1 4 9 2 5","Melodramatic Milgram","4.0.5","0","n","0","None","left","None","left","NA","2000.0","50086","2000","3183","NA","2","legacy","5","1024","2","48000","-16","experiment","1","odd","7","664625","672929","2368","125294","672931","671886","2371","677134","679134","673932","122111","675133","52458","677134","NA","Sternberg task","63","55860.0","108","1024"
"58","58","518","518","#3d3846","experiment","legacy","legacy","legacy","1","undefined","1","left","108","108","0","0","108","108","0","108","108","108","0","108","0","108","0","Sun Oct 15 15:59:22 2023","The main experiment item","True","Sternbergtask.osexp","C:\Users\Edward Banda\Desktop","False","mono","False","18","no","white","no","yes","768","legacy","96","11","C:/Users/Edward Banda/Desktop/subject-1.csv","legacy","9 5 8 1","Melodramatic Milgram","4.0.5","2","y","0","left","left","left","left","NA","682.0","50086","682","3183","NA","2","legacy","4","1024","2","48000","-16","experiment","1","odd","5","664625","680188","2368","125294","680189","679146","2371","684393","685075","681190","122111","682392","52458","684393","NA","Sternberg task","64","56542.0","109","1024"
"59","59","514","514","#3d3846","experiment","legacy","legacy","legacy","1","undefined","1","left","109","109","0","0","109","109","0","109","109","109","0","109","0","109","0","Sun Oct 15 15:59:22 2023","The main experiment item","True","Sternbergtask.osexp","C:\Users\Edward Banda\Desktop","False","mono","False","18","no","white","no","yes","768","legacy","97","11","C:/Users/Edward Banda/Desktop/subject-1.csv","legacy","7 2 3","Melodramatic Milgram","4.0.5","3","y","0","left","left","left","left","NA","58.0","50086","58","3183","NA","2","legacy","3","1024","2","48000","-16","experiment","1","odd","3","685088","686125","2368","125294","686127","679146","2371","690330","690389","687128","122111","688329","52458","690330","NA","Sternberg task","65","56600.0","110","1024"
"58","58","527","527","#3d3846","experiment","legacy","legacy","legacy","0","undefined","0","left","110","110","0","0","110","110","0","110","110","110","0","110","0","110","0","Sun Oct 15 15:59:22 2023","The main experiment item","True","Sternbergtask.osexp","C:\Users\Edward Banda\Desktop","False","mono","False","18","no","white","no","yes","768","legacy","98","11","C:/Users/Edward Banda/Desktop/subject-1.csv","legacy","3 9 7 6 4","Melodramatic Milgram","4.0.5","3","y","0","None","left","None","left","NA","2000.0","50086","2000","3183","NA","2","legacy","5","1024","2","48000","-16","experiment","1","odd","7","690401","691443","2368","125294","691445","679146","2371","695648","697648","692446","122111","693647","52458","695648","NA","Sternberg task","65","58600.0","111","1024"
"58","58","528","528","#3d3846","experiment","legacy","legacy","legacy","0","undefined","0","right","111","111","0","0","111","111","0","111","111","111","0","111","0","111","0","Sun Oct 15 15:59:22 2023","The main experiment item","True","Sternbergtask.osexp","C:\Users\Edward Banda\Desktop","False","mono","False","18","no","white","no","yes","768","legacy","99","11","C:/Users/Edward Banda/Desktop/subject-1.csv","legacy","8 9","Melodramatic Milgram","4.0.5","0","n","0","left","left","left","left","NA","642.0","50086","642","3183","NA","2","legacy","2","1024","2","48000","-16","experiment","1","odd","5","690401","698695","2368","125294","698697","697660","2371","702902","703545","699698","122111","700899","52458","702899","NA","Sternberg task","65","59242.0","112","1024"
"58","58","530","530","#3d3846","experiment","legacy","legacy","legacy","1","undefined","1","left","112","112","0","0","112","112","0","112","112","112","0","112","0","112","0","Sun Oct 15 15:59:22 2023","The main experiment item","True","Sternbergtask.osexp","C:\Users\Edward Banda\Desktop","False","mono","False","18","no","white","no","yes","768","legacy","100","11","C:/Users/Edward Banda/Desktop/subject-1.csv","legacy","9 1 6 7 8","Melodramatic Milgram","4.0.5","1","y","0","left","left","left","left","NA","726.0","50086","726","3183","NA","2","legacy","5","1024","2","48000","-16","experiment","1","odd","9","690401","704595","2368","125294","704597","703557","2371","708803","709530","705598","122111","706799","52458","708800","NA","Sternberg task","66","59968.0","113","1024"
"58","58","532","532","#3d3846","experiment","legacy","legacy","legacy","1","undefined","1","left","113","113","0","0","113","113","0","113","113","113","0","113","0","113","0","Sun Oct 15 15:59:22 2023","The main experiment item","True","Sternbergtask.osexp","C:\Users\Edward Banda\Desktop","False","mono","False","18","no","white","no","yes","768","legacy","101","11","C:/Users/Edward Banda/Desktop/subject-1.csv","legacy","7 1 8 5 6 2","Melodramatic Milgram","4.0.5","2","y","0","left","left","left","left","NA","707.0","50086","707","3183","NA","2","legacy","6","1024","2","48000","-16","experiment","1","odd","1","709542","710576","2368","125294","710577","703557","2371","714781","715489","711579","122111","712780","52458","714781","NA","Sternberg task","67","60675.0","114","1024"
"59","59","532","532","#3d3846","experiment","legacy","legacy","legacy","1","undefined","1","left","114","114","0","0","114","114","0","114","114","114","0","114","0","114","0","Sun Oct 15 15:59:22 2023","The main experiment item","True","Sternbergtask.osexp","C:\Users\Edward Banda\Desktop","False","mono","False","18","no","white","no","yes","768","legacy","102","11","C:/Users/Edward Banda/Desktop/subject-1.csv","legacy","2 3 7 4","Melodramatic Milgram","4.0.5","1","y","0","left","left","left","left","NA","545.0","50086","545","3183","NA","2","legacy","4","1024","2","48000","-16","experiment","1","odd","2","715501","716542","2368","125294","716543","703557","2371","720747","721293","717545","122111","718745","52458","720747","NA","Sternberg task","68","61220.0","115","1024"
"58","58","532","532","#3d3846","experiment","legacy","legacy","legacy","0","undefined","0","right","115","115","0","0","115","115","0","115","115","115","0","115","0","115","0","Sun Oct 15 15:59:22 2023","The main experiment item","True","Sternbergtask.osexp","C:\Users\Edward Banda\Desktop","False","mono","False","18","no","white","no","yes","768","legacy","103","11","C:/Users/Edward Banda/Desktop/subject-1.csv","legacy","2 3 8 5 6 7","Melodramatic Milgram","4.0.5","0","n","0","left","left","left","left","NA","517.0","50086","517","3183","NA","2","legacy","6","1024","2","48000","-16","experiment","1","odd","1","721305","722343","2368","125294","722345","703557","2371","726548","727066","723346","122111","724547","52458","726548","NA","Sternberg task","68","61737.0","116","1024"
"58","58","532","532","#3d3846","experiment","legacy","legacy","legacy","1","undefined","1","right","116","116","0","0","116","116","0","116","116","116","0","116","0","116","0","Sun Oct 15 15:59:22 2023","The main experiment item","True","Sternbergtask.osexp","C:\Users\Edward Banda\Desktop","False","mono","False","18","no","white","no","yes","768","legacy","104","11","C:/Users/Edward Banda/Desktop/subject-1.csv","legacy","1 6 4 3 9 7","Melodramatic Milgram","4.0.5","0","n","0","right","left","right","left","NA","594.0","50086","594","3183","NA","2","legacy","6","1024","2","48000","-16","experiment","1","odd","8","721305","728114","2368","125294","728116","727078","2371","732320","732915","729117","122111","730318","52458","732319","NA","Sternberg task","69","62331.0","117","1024"
"58","58","534","534","#3d3846","experiment","legacy","legacy","legacy","0","undefined","0","right","117","117","0","0","117","117","0","117","117","117","0","117","0","117","0","Sun Oct 15 15:59:22 2023","The main experiment item","True","Sternbergtask.osexp","C:\Users\Edward Banda\Desktop","False","mono","False","18","no","white","no","yes","768","legacy","105","11","C:/Users/Edward Banda/Desktop/subject-1.csv","legacy","5 3 2 6 9 8","Melodramatic Milgram","4.0.5","0","n","0","left","left","left","left","NA","775.0","50086","775","3183","NA","2","legacy","6","1024","2","48000","-16","experiment","1","odd","4","732927","733963","2368","125294","733965","727078","2371","738168","738944","734966","122111","736167","52458","738168","NA","Sternberg task","69","63106.0","118","1024"
"58","58","530","530","#3d3846","experiment","legacy","legacy","legacy","1","undefined","1","left","118","118","0","0","118","118","0","118","118","118","0","118","0","118","0","Sun Oct 15 15:59:22 2023","The main experiment item","True","Sternbergtask.osexp","C:\Users\Edward Banda\Desktop","False","mono","False","18","no","white","no","yes","768","legacy","106","11","C:/Users/Edward Banda/Desktop/subject-1.csv","legacy","3 4","Melodramatic Milgram","4.0.5","1","y","0","left","left","left","left","NA","5.0","50086","5","3183","NA","2","legacy","2","1024","2","48000","-16","experiment","1","odd","3","732927","740005","2368","125294","740007","738956","2371","744213","744219","741008","122111","742209","52458","744210","NA","Sternberg task","70","63111.0","119","1024"
"58","58","526","526","#3d3846","experiment","legacy","legacy","legacy","0","undefined","0","right","119","119","0","0","119","119","0","119","119","119","0","119","0","119","0","Sun Oct 15 15:59:22 2023","The main experiment item","True","Sternbergtask.osexp","C:\Users\Edward Banda\Desktop","False","mono","False","18","no","white","no","yes","768","legacy","107","11","C:/Users/Edward Banda/Desktop/subject-1.csv","legacy","7 6 4 8 1 2","Melodramatic Milgram","4.0.5","0","n","0","left","left","left","left","NA","49.0","50086","49","3183","NA","2","legacy","6","1024","2","48000","-16","experiment","1","odd","9","744231","745268","2368","125294","745270","738956","2371","749478","749529","746271","122111","747472","52458","749474","NA","Sternberg task","70","63160.0","120","1024"
"58","58","522","522","#3d3846","experiment","legacy","legacy","legacy","1","undefined","1","left","120","120","0","0","120","120","0","120","120","120","0","120","0","120","0","Sun Oct 15 15:59:22 2023","The main experiment item","True","Sternbergtask.osexp","C:\Users\Edward Banda\Desktop","False","mono","False","18","no","white","no","yes","768","legacy","108","11","C:/Users/Edward Banda/Desktop/subject-1.csv","legacy","2 4 8 5 1 3","Melodramatic Milgram","4.0.5","1","y","0","left","left","left","left","NA","51.0","50086","51","3183","NA","2","legacy","6","1024","2","48000","-16","experiment","1","odd","2","744231","750575","2368","125294","750578","749541","2371","754795","754848","751579","122111","752780","52458","754781","NA","Sternberg task","71","63211.0","121","1024"
"59","59","518","518","#3d3846","experiment","legacy","legacy","legacy","1","undefined","1","left","121","121","0","0","121","121","0","121","121","121","0","121","0","121","0","Sun Oct 15 15:59:22 2023","The main experiment item","True","Sternbergtask.osexp","C:\Users\Edward Banda\Desktop","False","mono","False","18","no","white","no","yes","768","legacy","109","11","C:/Users/Edward Banda/Desktop/subject-1.csv","legacy","6 9 3 1","Melodramatic Milgram","4.0.5","4","y","0","left","left","left","left","NA","81.0","50086","81","3183","NA","2","legacy","4","1024","2","48000","-16","experiment","1","odd","1","754859","755899","2368","125294","755902","749541","2371","760110","760191","756903","122111","758104","52458","760105","NA","Sternberg task","72","63292.0","122","1024"
"59","59","515","515","#3d3846","experiment","legacy","legacy","legacy","1","undefined","1","right","122","122","0","0","122","122","0","122","122","122","0","122","0","122","0","Sun Oct 15 15:59:22 2023","The main experiment item","True","Sternbergtask.osexp","C:\Users\Edward Banda\Desktop","False","mono","False","18","no","white","no","yes","768","legacy","110","11","C:/Users/Edward Banda/Desktop/subject-1.csv","legacy","2 8 9 4 1","Melodramatic Milgram","4.0.5","0","n","0","right","left","right","left","NA","109.0","50086","109","3183","NA","2","legacy","5","1024","2","48000","-16","experiment","1","odd","5","760203","761237","2368","125294","761240","749541","2371","765447","765557","762241","122111","763442","52458","765443","NA","Sternberg task","73","63401.0","123","1024"
"58","58","512","512","#3d3846","experiment","legacy","legacy","legacy","0","undefined","0","left","123","123","0","0","123","123","0","123","123","123","0","123","0","123","0","Sun Oct 15 15:59:22 2023","The main experiment item","True","Sternbergtask.osexp","C:\Users\Edward Banda\Desktop","False","mono","False","18","no","white","no","yes","768","legacy","111","11","C:/Users/Edward Banda/Desktop/subject-1.csv","legacy","7 4 2 6 3 5","Melodramatic Milgram","4.0.5","6","y","0","right","left","right","left","NA","147.0","50086","147","3183","NA","2","legacy","6","1024","2","48000","-16","experiment","1","odd","5","765569","766612","2368","125294","766614","749541","2371","770823","770971","767615","122111","768816","52458","770817","NA","Sternberg task","73","63548.0","124","1024"
"59","59","509","509","#3d3846","experiment","legacy","legacy","legacy","1","undefined","1","right","124","124","0","0","124","124","0","124","124","124","0","124","0","124","0","Sun Oct 15 15:59:22 2023","The main experiment item","True","Sternbergtask.osexp","C:\Users\Edward Banda\Desktop","False","mono","False","18","no","white","no","yes","768","legacy","112","11","C:/Users/Edward Banda/Desktop/subject-1.csv","legacy","1 4 9 3","Melodramatic Milgram","4.0.5","0","n","0","right","left","right","left","NA","110.0","50086","110","3183","NA","2","legacy","4","1024","2","48000","-16","experiment","1","odd","5","765569","772014","2368","125294","772017","770983","2371","776226","776337","773018","122111","774219","52458","776219","NA","Sternberg task","74","63658.0","125","1024"
"59","59","506","506","#3d3846","experiment","legacy","legacy","legacy","1","undefined","1","right","125","125","0","0","125","125","0","125","125","125","0","125","0","125","0","Sun Oct 15 15:59:22 2023","The main experiment item","True","Sternbergtask.osexp","C:\Users\Edward Banda\Desktop","False","mono","False","18","no","white","no","yes","768","legacy","113","11","C:/Users/Edward Banda/Desktop/subject-1.csv","legacy","6 9 4 5 3 2","Melodramatic Milgram","4.0.5","0","n","0","right","left","right","left","NA","163.0","50086","163","3183","NA","2","legacy","6","1024","2","48000","-16","experiment","1","odd","8","776349","777402","2368","125294","777404","770983","2371","781612","781776","778405","122111","779606","52458","781606","NA","Sternberg task","75","63821.0","126","1024"
