"acc","accuracy","average_response_time","avg_rt","background","block","canvas_backend","clock_backend","color_backend","compensation","coordinates","correct","correct_instruction1","correct_keyboard_response","correct_response","count_ExpSequence","count_Fixation","count_ISI","count_MemorySet","count_PracticeLoop","count_Probe","count_correctFeedback","count_experiment","count_experimentLoop","count_getting_started","count_incorrectFeedback","count_instruction1","count_instructions2","count_keyboard_response","count_logger","count_thankYou","count_welcome","datetime","description","disable_garbage_collection","experiment_file","experiment_path","font_bold","font_family","font_italic","font_size","font_underline","foreground","form_clicks","fullscreen","height","keyboard_backend","live_row","live_row_PracticeLoop","logfile","mouse_backend","numberSet","opensesame_codename","opensesame_version","posInSet","present","repeat_cycle","response","response_instruction1","response_instructions2","response_keyboard_response","response_thankYou","response_time","response_time_instruction1","response_time_instructions2","response_time_keyboard_response","response_time_thankYou","response_time_welcome","response_welcome","round_decimals","sampler_backend","setSize","sound_buf_size","sound_channels","sound_freq","sound_sample_size","start","subject_nr","subject_parity","target","time_ExpSequence","time_Fixation","time_ISI","time_MemorySet","time_PracticeLoop","time_Probe","time_correctFeedback","time_experiment","time_experimentLoop","time_getting_started","time_incorrectFeedback","time_instruction1","time_instructions2","time_keyboard_response","time_logger","time_thankYou","time_welcome","title","total_correct","total_response_time","total_responses","uniform_coordinates","width"
"0","0","772","772","black","practice","legacy","legacy","legacy","0","uniform","0","undefined","0","left","0","0","0","0","0","0","0","0","0","NA","0","0","0","0","0","0","NA","Sat Oct 15 16:47:50 2022","The main experiment item","yes","Lab_3.1.osexp","C:\Users\Owner\Downloads","no","mono","no","18","no","white","no","yes","768","legacy","0","0","C:/Users/Owner/Downloads/MC-subject-2.csv","legacy","6","Lentiform Loewenfeld","3.3.12","1","y","0","right","right","NA","right","NA","772","979","NA","772","NA","NA","NA","2","legacy","1","1024","2","48000","-16","experiment","2","even","6","4541","4543","6745","5544","3904","8746","NA","2919","NA","NA","NA","2924","NA","8746","9520","NA","NA","Sternberg Task","0","772","1","yes","1024"
"50","50","836","836","black","practice","legacy","legacy","legacy","0","uniform","1","undefined","1","right","1","1","1","1","0","1","1","0","0","NA","1","0","0","1","1","0","NA","Sat Oct 15 16:47:50 2022","The main experiment item","yes","Lab_3.1.osexp","C:\Users\Owner\Downloads","no","mono","no","18","no","white","no","yes","768","legacy","1","1","C:/Users/Owner/Downloads/MC-subject-2.csv","legacy","4 1 5","Lentiform Loewenfeld","3.3.12","0","n","0","right","right","NA","right","NA","900","979","NA","900","NA","NA","NA","2","legacy","3","1024","2","48000","-16","experiment","2","even","2","10653","10654","12856","11655","3904","14857","NA","2919","NA","NA","9565","2924","NA","14857","15758","NA","NA","Sternberg Task","1","1672","2","yes","1024"
"33.333333333333336","33.333333333333336","946.6666666666666","946.6666666666666","black","practice","legacy","legacy","legacy","0","uniform","0","undefined","0","right","2","2","2","2","0","2","2","0","0","NA","2","0","0","2","2","0","NA","Sat Oct 15 16:47:50 2022","The main experiment item","yes","Lab_3.1.osexp","C:\Users\Owner\Downloads","no","mono","no","18","no","white","no","yes","768","legacy","2","2","C:/Users/Owner/Downloads/MC-subject-2.csv","legacy","5","Lentiform Loewenfeld","3.3.12","0","n","0","left","right","NA","left","NA","1168","979","NA","1168","NA","NA","NA","2","legacy","1","1024","2","48000","-16","experiment","2","even","3","16828","16830","19032","17831","3904","21033","15762","2919","NA","NA","9565","2924","NA","21033","22202","NA","NA","Sternberg Task","1","2840","3","yes","1024"
"50","50","938.75","938.75","black","practice","legacy","legacy","legacy","0","uniform","1","undefined","1","left","3","3","3","3","0","3","3","0","0","NA","3","0","0","3","3","0","NA","Sat Oct 15 16:47:50 2022","The main experiment item","yes","Lab_3.1.osexp","C:\Users\Owner\Downloads","no","mono","no","18","no","white","no","yes","768","legacy","3","3","C:/Users/Owner/Downloads/MC-subject-2.csv","legacy","1 5 2 9","Lentiform Loewenfeld","3.3.12","2","y","0","left","right","NA","left","NA","915","979","NA","915","NA","NA","NA","2","legacy","4","1024","2","48000","-16","experiment","2","even","5","23274","23275","25477","24276","3904","27478","15762","2919","NA","NA","22209","2924","NA","27478","28395","NA","NA","Sternberg Task","2","3755","4","yes","1024"
"60","60","929.6","929.6","black","practice","legacy","legacy","legacy","0","uniform","1","undefined","1","left","4","4","4","4","0","4","4","0","0","NA","4","0","0","4","4","0","NA","Sat Oct 15 16:47:50 2022","The main experiment item","yes","Lab_3.1.osexp","C:\Users\Owner\Downloads","no","mono","no","18","no","white","no","yes","768","legacy","4","4","C:/Users/Owner/Downloads/MC-subject-2.csv","legacy","2 9 4","Lentiform Loewenfeld","3.3.12","3","y","0","left","right","NA","left","NA","893","979","NA","893","NA","NA","NA","2","legacy","3","1024","2","48000","-16","experiment","2","even","4","29469","29470","31673","30472","3904","33674","28403","2919","NA","NA","22209","2924","NA","33674","34568","NA","NA","Sternberg Task","3","4648","5","yes","1024"
"66.66666666666667","66.66666666666667","932","932","black","practice","legacy","legacy","legacy","0","uniform","1","undefined","1","right","5","5","5","5","0","5","5","0","0","NA","5","0","0","5","5","0","NA","Sat Oct 15 16:47:50 2022","The main experiment item","yes","Lab_3.1.osexp","C:\Users\Owner\Downloads","no","mono","no","18","no","white","no","yes","768","legacy","5","5","C:/Users/Owner/Downloads/MC-subject-2.csv","legacy","2 1","Lentiform Loewenfeld","3.3.12","0","n","0","right","right","NA","right","NA","944","979","NA","944","NA","NA","NA","2","legacy","2","1024","2","48000","-16","experiment","2","even","5","35639","35640","37842","36641","3904","39843","34573","2919","NA","NA","22209","2924","NA","39843","40788","NA","NA","Sternberg Task","4","5592","6","yes","1024"
"71.42857142857143","71.42857142857143","934.5714285714286","934.5714285714286","black","practice","legacy","legacy","legacy","0","uniform","1","undefined","1","left","6","6","6","6","0","6","6","0","0","NA","6","0","0","6","6","0","NA","Sat Oct 15 16:47:50 2022","The main experiment item","yes","Lab_3.1.osexp","C:\Users\Owner\Downloads","no","mono","no","18","no","white","no","yes","768","legacy","6","6","C:/Users/Owner/Downloads/MC-subject-2.csv","legacy","1 7 9 8 5","Lentiform Loewenfeld","3.3.12","4","y","0","left","right","NA","left","NA","950","979","NA","950","NA","NA","NA","2","legacy","5","1024","2","48000","-16","experiment","2","even","8","41858","41860","44062","42861","3904","46063","40791","2919","NA","NA","22209","2924","NA","46063","47014","NA","NA","Sternberg Task","5","6542","7","yes","1024"
"75","75","901.5","901.5","black","practice","legacy","legacy","legacy","0","uniform","1","undefined","1","left","7","7","7","7","0","7","7","0","0","NA","7","0","0","7","7","0","NA","Sat Oct 15 16:47:50 2022","The main experiment item","yes","Lab_3.1.osexp","C:\Users\Owner\Downloads","no","mono","no","18","no","white","no","yes","768","legacy","7","7","C:/Users/Owner/Downloads/MC-subject-2.csv","legacy","4 8","Lentiform Loewenfeld","3.3.12","1","y","0","left","right","NA","left","NA","670","979","NA","670","NA","NA","NA","2","legacy","2","1024","2","48000","-16","experiment","2","even","4","48093","48095","50297","49096","3904","52298","47021","2919","NA","NA","22209","2924","NA","52298","52969","NA","NA","Sternberg Task","6","7212","8","yes","1024"
"77.77777777777777","77.77777777777777","899.4444444444445","899.4444444444445","black","practice","legacy","legacy","legacy","0","uniform","1","undefined","1","right","8","8","8","8","0","8","8","0","0","NA","8","0","0","8","8","0","NA","Sat Oct 15 16:47:50 2022","The main experiment item","yes","Lab_3.1.osexp","C:\Users\Owner\Downloads","no","mono","no","18","no","white","no","yes","768","legacy","8","8","C:/Users/Owner/Downloads/MC-subject-2.csv","legacy","9 6 7 4 5","Lentiform Loewenfeld","3.3.12","0","n","0","right","right","NA","right","NA","883","979","NA","883","NA","NA","NA","2","legacy","5","1024","2","48000","-16","experiment","2","even","3","54040","54042","56244","55043","3904","58245","52973","2919","NA","NA","22209","2924","NA","58245","59129","NA","NA","Sternberg Task","7","8095","9","yes","1024"
"70","70","886.5","886.5","black","practice","legacy","legacy","legacy","0","uniform","0","undefined","0","right","9","9","9","9","0","9","9","0","0","NA","9","0","0","9","9","0","NA","Sat Oct 15 16:47:50 2022","The main experiment item","yes","Lab_3.1.osexp","C:\Users\Owner\Downloads","no","mono","no","18","no","white","no","yes","768","legacy","9","9","C:/Users/Owner/Downloads/MC-subject-2.csv","legacy","5 7 8 4 1 2","Lentiform Loewenfeld","3.3.12","0","n","0","left","right","NA","left","NA","770","979","NA","770","NA","NA","NA","2","legacy","6","1024","2","48000","-16","experiment","2","even","6","60200","60201","62405","61204","3904","64406","59133","2919","NA","NA","22209","2924","NA","64406","65178","NA","NA","Sternberg Task","7","8865","10","yes","1024"
"63.63636363636363","63.63636363636363","871.5454545454545","871.5454545454545","black","practice","legacy","legacy","legacy","0","uniform","0","undefined","0","right","10","10","10","10","0","10","10","0","0","NA","10","0","0","10","10","0","NA","Sat Oct 15 16:47:50 2022","The main experiment item","yes","Lab_3.1.osexp","C:\Users\Owner\Downloads","no","mono","no","18","no","white","no","yes","768","legacy","10","10","C:/Users/Owner/Downloads/MC-subject-2.csv","legacy","3 1 9 4","Lentiform Loewenfeld","3.3.12","0","n","0","left","right","NA","left","NA","722","979","NA","722","NA","NA","NA","2","legacy","4","1024","2","48000","-16","experiment","2","even","6","66260","66261","68463","67262","3904","70464","59133","2919","NA","NA","65184","2924","NA","70464","71188","NA","NA","Sternberg Task","7","9587","11","yes","1024"
"66.66666666666667","66.66666666666667","860","860","black","practice","legacy","legacy","legacy","0","uniform","1","undefined","1","left","11","11","11","11","0","11","11","0","0","NA","11","0","0","11","11","0","NA","Sat Oct 15 16:47:50 2022","The main experiment item","yes","Lab_3.1.osexp","C:\Users\Owner\Downloads","no","mono","no","18","no","white","no","yes","768","legacy","11","11","C:/Users/Owner/Downloads/MC-subject-2.csv","legacy","4 3 1 7 9 8","Lentiform Loewenfeld","3.3.12","1","y","0","left","right","NA","left","NA","733","979","NA","733","NA","NA","NA","2","legacy","6","1024","2","48000","-16","experiment","2","even","4","72257","72258","74460","73259","3904","76461","59133","2919","NA","NA","71192","2924","NA","76461","77195","NA","NA","Sternberg Task","8","10320","12","yes","1024"
"69.23076923076923","69.23076923076923","858.0769230769231","858.0769230769231","black","experiment","legacy","legacy","legacy","0","uniform","1","undefined","1","right","12","12","12","12","0","12","12","0","0","NA","12","0","0","12","12","0","NA","Sat Oct 15 16:47:50 2022","The main experiment item","yes","Lab_3.1.osexp","C:\Users\Owner\Downloads","no","mono","no","18","no","white","no","yes","768","legacy","0","11","C:/Users/Owner/Downloads/MC-subject-2.csv","legacy","6 9 7 3 8 2","Lentiform Loewenfeld","3.3.12","0","n","0","right","right","right","right","NA","835","979","2362","835","NA","NA","NA","2","legacy","6","1024","2","48000","-16","experiment","2","even","5","80654","80656","82858","81657","3904","84859","77200","2919","80583","NA","71192","2924","78220","84859","85696","NA","NA","Sternberg Task","9","11155","13","yes","1024"
"64.28571428571429","64.28571428571429","846.6428571428571","846.6428571428571","black","experiment","legacy","legacy","legacy","0","uniform","0","undefined","0","left","13","13","13","13","0","13","13","0","0","NA","13","0","0","13","13","0","NA","Sat Oct 15 16:47:50 2022","The main experiment item","yes","Lab_3.1.osexp","C:\Users\Owner\Downloads","no","mono","no","18","no","white","no","yes","768","legacy","1","11","C:/Users/Owner/Downloads/MC-subject-2.csv","legacy","8 5 3 7 4 6","Lentiform Loewenfeld","3.3.12","6","y","0","right","right","right","right","NA","698","979","2362","698","NA","NA","NA","2","legacy","6","1024","2","48000","-16","experiment","2","even","6","86771","86772","88974","87773","3904","90975","85702","2919","80583","NA","71192","2924","78220","90975","91674","NA","NA","Sternberg Task","9","11853","14","yes","1024"
"66.66666666666667","66.66666666666667","833.6","833.6","black","experiment","legacy","legacy","legacy","0","uniform","1","undefined","1","left","14","14","14","14","0","14","14","0","0","NA","14","0","0","14","14","0","NA","Sat Oct 15 16:47:50 2022","The main experiment item","yes","Lab_3.1.osexp","C:\Users\Owner\Downloads","no","mono","no","18","no","white","no","yes","768","legacy","2","11","C:/Users/Owner/Downloads/MC-subject-2.csv","legacy","2 3","Lentiform Loewenfeld","3.3.12","1","y","0","left","right","right","left","NA","651","979","2362","651","NA","NA","NA","2","legacy","2","1024","2","48000","-16","experiment","2","even","2","92761","92763","94965","93764","3904","96966","85702","2919","80583","NA","91679","2924","78220","96966","97617","NA","NA","Sternberg Task","10","12504","15","yes","1024"
"68.75","68.75","833.875","833.875","black","experiment","legacy","legacy","legacy","0","uniform","1","undefined","1","right","15","15","15","15","0","15","15","0","0","NA","15","0","0","15","15","0","NA","Sat Oct 15 16:47:50 2022","The main experiment item","yes","Lab_3.1.osexp","C:\Users\Owner\Downloads","no","mono","no","18","no","white","no","yes","768","legacy","3","11","C:/Users/Owner/Downloads/MC-subject-2.csv","legacy","1 7 5 2 9","Lentiform Loewenfeld","3.3.12","0","n","0","right","right","right","right","NA","838","979","2362","838","NA","NA","NA","2","legacy","5","1024","2","48000","-16","experiment","2","even","3","98686","98688","100890","99689","3904","102891","97622","2919","80583","NA","91679","2924","78220","102891","103730","NA","NA","Sternberg Task","11","13342","16","yes","1024"
"70.58823529411765","70.58823529411765","816.0588235294117","816.0588235294117","black","experiment","legacy","legacy","legacy","0","uniform","1","undefined","1","right","16","16","16","16","0","16","16","0","0","NA","16","0","0","16","16","0","NA","Sat Oct 15 16:47:50 2022","The main experiment item","yes","Lab_3.1.osexp","C:\Users\Owner\Downloads","no","mono","no","18","no","white","no","yes","768","legacy","4","11","C:/Users/Owner/Downloads/MC-subject-2.csv","legacy","4 1","Lentiform Loewenfeld","3.3.12","0","n","0","right","right","right","right","NA","531","979","2362","531","NA","NA","NA","2","legacy","2","1024","2","48000","-16","experiment","2","even","6","104801","104802","107004","105803","3904","109005","103737","2919","80583","NA","91679","2924","78220","109005","109538","NA","NA","Sternberg Task","12","13873","17","yes","1024"
"66.66666666666667","66.66666666666667","818.5","818.5","black","experiment","legacy","legacy","legacy","0","uniform","0","undefined","0","right","17","17","17","17","0","17","17","0","0","NA","17","0","0","17","17","0","NA","Sat Oct 15 16:47:50 2022","The main experiment item","yes","Lab_3.1.osexp","C:\Users\Owner\Downloads","no","mono","no","18","no","white","no","yes","768","legacy","5","11","C:/Users/Owner/Downloads/MC-subject-2.csv","legacy","2 6 4 3 9","Lentiform Loewenfeld","3.3.12","0","n","0","left","right","right","left","NA","860","979","2362","860","NA","NA","NA","2","legacy","5","1024","2","48000","-16","experiment","2","even","1","110607","110609","112811","111610","3904","114812","109542","2919","80583","NA","91679","2924","78220","114812","115673","NA","NA","Sternberg Task","12","14733","18","yes","1024"
"68.42105263157895","68.42105263157895","818.6842105263158","818.6842105263158","black","experiment","legacy","legacy","legacy","0","uniform","1","undefined","1","left","18","18","18","18","0","18","18","0","0","NA","18","0","0","18","18","0","NA","Sat Oct 15 16:47:50 2022","The main experiment item","yes","Lab_3.1.osexp","C:\Users\Owner\Downloads","no","mono","no","18","no","white","no","yes","768","legacy","6","11","C:/Users/Owner/Downloads/MC-subject-2.csv","legacy","7 1 8 5 6 2","Lentiform Loewenfeld","3.3.12","2","y","0","left","right","right","left","NA","822","979","2362","822","NA","NA","NA","2","legacy","6","1024","2","48000","-16","experiment","2","even","1","116743","116744","118946","117745","3904","120947","109542","2919","80583","NA","115678","2924","78220","120947","121771","NA","NA","Sternberg Task","13","15555","19","yes","1024"
"70","70","800.9","800.9","black","experiment","legacy","legacy","legacy","0","uniform","1","undefined","1","left","19","19","19","19","0","19","19","0","0","NA","19","0","0","19","19","0","NA","Sat Oct 15 16:47:50 2022","The main experiment item","yes","Lab_3.1.osexp","C:\Users\Owner\Downloads","no","mono","no","18","no","white","no","yes","768","legacy","7","11","C:/Users/Owner/Downloads/MC-subject-2.csv","legacy","7","Lentiform Loewenfeld","3.3.12","1","y","0","left","right","right","left","NA","463","979","2362","463","NA","NA","NA","2","legacy","1","1024","2","48000","-16","experiment","2","even","7","122841","122843","125045","123844","3904","127046","121776","2919","80583","NA","115678","2924","78220","127046","127511","NA","NA","Sternberg Task","14","16018","20","yes","1024"
"66.66666666666667","66.66666666666667","798.8571428571429","798.8571428571429","black","experiment","legacy","legacy","legacy","0","uniform","0","undefined","0","right","20","20","20","20","0","20","20","0","0","NA","20","0","0","20","20","0","NA","Sat Oct 15 16:47:50 2022","The main experiment item","yes","Lab_3.1.osexp","C:\Users\Owner\Downloads","no","mono","no","18","no","white","no","yes","768","legacy","8","11","C:/Users/Owner/Downloads/MC-subject-2.csv","legacy","4 8 1 2","Lentiform Loewenfeld","3.3.12","0","n","0","left","right","right","left","NA","758","979","2362","758","NA","NA","NA","2","legacy","4","1024","2","48000","-16","experiment","2","even","7","128582","128584","130787","129585","3904","132788","127516","2919","80583","NA","115678","2924","78220","132788","133547","NA","NA","Sternberg Task","14","16776","21","yes","1024"
"63.63636363636363","63.63636363636363","807.7272727272727","807.7272727272727","black","experiment","legacy","legacy","legacy","0","uniform","0","undefined","0","left","21","21","21","21","0","21","21","0","0","NA","21","0","0","21","21","0","NA","Sat Oct 15 16:47:50 2022","The main experiment item","yes","Lab_3.1.osexp","C:\Users\Owner\Downloads","no","mono","no","18","no","white","no","yes","768","legacy","9","11","C:/Users/Owner/Downloads/MC-subject-2.csv","legacy","1 4 9 3 2 5","Lentiform Loewenfeld","3.3.12","3","y","0","right","right","right","right","NA","994","979","2362","994","NA","NA","NA","2","legacy","6","1024","2","48000","-16","experiment","2","even","9","134618","134620","136823","135621","3904","138824","127516","2919","80583","NA","133552","2924","78220","138824","139819","NA","NA","Sternberg Task","14","17770","22","yes","1024"
"65.21739130434783","65.21739130434783","804.0434782608696","804.0434782608696","black","experiment","legacy","legacy","legacy","0","uniform","1","undefined","1","right","22","22","22","22","0","22","22","0","0","NA","22","0","0","22","22","0","NA","Sat Oct 15 16:47:50 2022","The main experiment item","yes","Lab_3.1.osexp","C:\Users\Owner\Downloads","no","mono","no","18","no","white","no","yes","768","legacy","10","11","C:/Users/Owner/Downloads/MC-subject-2.csv","legacy","3 9 1","Lentiform Loewenfeld","3.3.12","0","n","0","right","right","right","right","NA","723","979","2362","723","NA","NA","NA","2","legacy","3","1024","2","48000","-16","experiment","2","even","7","140890","140891","143093","141892","3904","145094","127516","2919","80583","NA","139826","2924","78220","145094","145819","NA","NA","Sternberg Task","15","18493","23","yes","1024"
"66.66666666666667","66.66666666666667","802.4166666666666","802.4166666666666","black","experiment","legacy","legacy","legacy","0","uniform","1","undefined","1","right","23","23","23","23","0","23","23","0","0","NA","23","0","0","23","23","0","NA","Sat Oct 15 16:47:50 2022","The main experiment item","yes","Lab_3.1.osexp","C:\Users\Owner\Downloads","no","mono","no","18","no","white","no","yes","768","legacy","11","11","C:/Users/Owner/Downloads/MC-subject-2.csv","legacy","6 3 1 7 9 8","Lentiform Loewenfeld","3.3.12","0","n","0","right","right","right","right","NA","765","979","2362","765","NA","NA","NA","2","legacy","6","1024","2","48000","-16","experiment","2","even","4","146890","146891","149093","147892","3904","151094","145825","2919","80583","NA","139826","2924","78220","151094","151860","NA","NA","Sternberg Task","16","19258","24","yes","1024"
"68","68","795.32","795.32","black","experiment","legacy","legacy","legacy","0","uniform","1","undefined","1","left","24","24","24","24","0","24","24","0","0","NA","24","0","0","24","24","0","NA","Sat Oct 15 16:47:50 2022","The main experiment item","yes","Lab_3.1.osexp","C:\Users\Owner\Downloads","no","mono","no","18","no","white","no","yes","768","legacy","12","11","C:/Users/Owner/Downloads/MC-subject-2.csv","legacy","2 5 4 8 7","Lentiform Loewenfeld","3.3.12","3","y","0","left","right","right","left","NA","625","979","2362","625","NA","NA","NA","2","legacy","5","1024","2","48000","-16","experiment","2","even","4","152931","152932","155134","153933","3904","157135","151865","2919","80583","NA","139826","2924","78220","157135","157761","NA","NA","Sternberg Task","17","19883","25","yes","1024"
"69.23076923076923","69.23076923076923","805.7692307692307","805.7692307692307","black","experiment","legacy","legacy","legacy","0","uniform","1","undefined","1","right","25","25","25","25","0","25","25","0","0","NA","25","0","0","25","25","0","NA","Sat Oct 15 16:47:50 2022","The main experiment item","yes","Lab_3.1.osexp","C:\Users\Owner\Downloads","no","mono","no","18","no","white","no","yes","768","legacy","13","11","C:/Users/Owner/Downloads/MC-subject-2.csv","legacy","8 9","Lentiform Loewenfeld","3.3.12","0","n","0","right","right","right","right","NA","1067","979","2362","1067","NA","NA","NA","2","legacy","2","1024","2","48000","-16","experiment","2","even","5","158831","158832","161034","159833","3904","163035","157765","2919","80583","NA","139826","2924","78220","163035","164103","NA","NA","Sternberg Task","18","20950","26","yes","1024"
"70.37037037037037","70.37037037037037","800.2592592592592","800.2592592592592","black","experiment","legacy","legacy","legacy","0","uniform","1","undefined","1","right","26","26","26","26","0","26","26","0","0","NA","26","0","0","26","26","0","NA","Sat Oct 15 16:47:50 2022","The main experiment item","yes","Lab_3.1.osexp","C:\Users\Owner\Downloads","no","mono","no","18","no","white","no","yes","768","legacy","14","11","C:/Users/Owner/Downloads/MC-subject-2.csv","legacy","3 9 8 1 6 4","Lentiform Loewenfeld","3.3.12","0","n","0","right","right","right","right","NA","657","979","2362","657","NA","NA","NA","2","legacy","6","1024","2","48000","-16","experiment","2","even","7","165173","165174","167376","166175","3904","169377","164107","2919","80583","NA","139826","2924","78220","169377","170035","NA","NA","Sternberg Task","19","21607","27","yes","1024"
"71.42857142857143","71.42857142857143","800.0714285714286","800.0714285714286","black","experiment","legacy","legacy","legacy","0","uniform","1","undefined","1","right","27","27","27","27","0","27","27","0","0","NA","27","0","0","27","27","0","NA","Sat Oct 15 16:47:50 2022","The main experiment item","yes","Lab_3.1.osexp","C:\Users\Owner\Downloads","no","mono","no","18","no","white","no","yes","768","legacy","15","11","C:/Users/Owner/Downloads/MC-subject-2.csv","legacy","1 4 9 3","Lentiform Loewenfeld","3.3.12","0","n","0","right","right","right","right","NA","795","979","2362","795","NA","NA","NA","2","legacy","4","1024","2","48000","-16","experiment","2","even","5","171114","171116","173318","172117","3904","175319","170039","2919","80583","NA","139826","2924","78220","175319","176116","NA","NA","Sternberg Task","20","22402","28","yes","1024"
"72.41379310344827","72.41379310344827","792.3793103448276","792.3793103448276","black","experiment","legacy","legacy","legacy","0","uniform","1","undefined","1","right","28","28","28","28","0","28","28","0","0","NA","28","0","0","28","28","0","NA","Sat Oct 15 16:47:50 2022","The main experiment item","yes","Lab_3.1.osexp","C:\Users\Owner\Downloads","no","mono","no","18","no","white","no","yes","768","legacy","16","11","C:/Users/Owner/Downloads/MC-subject-2.csv","legacy","9 5 3 2 8 6","Lentiform Loewenfeld","3.3.12","0","n","0","right","right","right","right","NA","577","979","2362","577","NA","NA","NA","2","legacy","6","1024","2","48000","-16","experiment","2","even","7","177184","177186","179388","178187","3904","181389","176120","2919","80583","NA","139826","2924","78220","181389","181967","NA","NA","Sternberg Task","21","22979","29","yes","1024"
"70","70","787.3","787.3","black","experiment","legacy","legacy","legacy","0","uniform","0","undefined","0","left","29","29","29","29","0","29","29","0","0","NA","29","0","0","29","29","0","NA","Sat Oct 15 16:47:50 2022","The main experiment item","yes","Lab_3.1.osexp","C:\Users\Owner\Downloads","no","mono","no","18","no","white","no","yes","768","legacy","17","11","C:/Users/Owner/Downloads/MC-subject-2.csv","legacy","8","Lentiform Loewenfeld","3.3.12","1","y","0","right","right","right","right","NA","640","979","2362","640","NA","NA","NA","2","legacy","1","1024","2","48000","-16","experiment","2","even","8","183037","183038","185240","184039","3904","187241","181972","2919","80583","NA","139826","2924","78220","187241","187882","NA","NA","Sternberg Task","21","23619","30","yes","1024"
"67.74193548387096","67.74193548387096","799","799","black","experiment","legacy","legacy","legacy","0","uniform","0","undefined","0","left","30","30","30","30","0","30","30","0","0","NA","30","0","0","30","30","0","NA","Sat Oct 15 16:47:50 2022","The main experiment item","yes","Lab_3.1.osexp","C:\Users\Owner\Downloads","no","mono","no","18","no","white","no","yes","768","legacy","18","11","C:/Users/Owner/Downloads/MC-subject-2.csv","legacy","3 2 1 4 7","Lentiform Loewenfeld","3.3.12","2","y","0","right","right","right","right","NA","1150","979","2362","1150","NA","NA","NA","2","legacy","5","1024","2","48000","-16","experiment","2","even","2","188952","188953","191155","189954","3904","193156","181972","2919","80583","NA","187887","2924","78220","193156","194307","NA","NA","Sternberg Task","21","24769","31","yes","1024"
"68.75","68.75","799.75","799.75","black","experiment","legacy","legacy","legacy","0","uniform","1","undefined","1","right","31","31","31","31","0","31","31","0","0","NA","31","0","0","31","31","0","NA","Sat Oct 15 16:47:50 2022","The main experiment item","yes","Lab_3.1.osexp","C:\Users\Owner\Downloads","no","mono","no","18","no","white","no","yes","768","legacy","19","11","C:/Users/Owner/Downloads/MC-subject-2.csv","legacy","9 7 4 5 8","Lentiform Loewenfeld","3.3.12","0","n","0","right","right","right","right","NA","823","979","2362","823","NA","NA","NA","2","legacy","5","1024","2","48000","-16","experiment","2","even","6","195375","195376","197578","196377","3904","199579","181972","2919","80583","NA","194311","2924","78220","199579","200403","NA","NA","Sternberg Task","22","25592","32","yes","1024"
"66.66666666666667","66.66666666666667","801.6363636363636","801.6363636363636","black","experiment","legacy","legacy","legacy","0","uniform","0","undefined","0","left","32","32","32","32","0","32","32","0","0","NA","32","0","0","32","32","0","NA","Sat Oct 15 16:47:50 2022","The main experiment item","yes","Lab_3.1.osexp","C:\Users\Owner\Downloads","no","mono","no","18","no","white","no","yes","768","legacy","20","11","C:/Users/Owner/Downloads/MC-subject-2.csv","legacy","8 9 6 1","Lentiform Loewenfeld","3.3.12","2","y","0","right","right","right","right","NA","862","979","2362","862","NA","NA","NA","2","legacy","4","1024","2","48000","-16","experiment","2","even","9","201474","201476","203678","202477","3904","205679","200408","2919","80583","NA","194311","2924","78220","205679","206542","NA","NA","Sternberg Task","22","26454","33","yes","1024"
"67.6470588235294","67.6470588235294","793.4117647058823","793.4117647058823","black","experiment","legacy","legacy","legacy","0","uniform","1","undefined","1","left","33","33","33","33","0","33","33","0","0","NA","33","0","0","33","33","0","NA","Sat Oct 15 16:47:50 2022","The main experiment item","yes","Lab_3.1.osexp","C:\Users\Owner\Downloads","no","mono","no","18","no","white","no","yes","768","legacy","21","11","C:/Users/Owner/Downloads/MC-subject-2.csv","legacy","2 3 7 4","Lentiform Loewenfeld","3.3.12","1","y","0","left","right","right","left","NA","522","979","2362","522","NA","NA","NA","2","legacy","4","1024","2","48000","-16","experiment","2","even","2","207614","207615","209817","208616","3904","211818","200408","2919","80583","NA","206546","2924","78220","211818","212341","NA","NA","Sternberg Task","23","26976","34","yes","1024"
"68.57142857142857","68.57142857142857","791.8285714285714","791.8285714285714","black","experiment","legacy","legacy","legacy","0","uniform","1","undefined","1","left","34","34","34","34","0","34","34","0","0","NA","34","0","0","34","34","0","NA","Sat Oct 15 16:47:50 2022","The main experiment item","yes","Lab_3.1.osexp","C:\Users\Owner\Downloads","no","mono","no","18","no","white","no","yes","768","legacy","22","11","C:/Users/Owner/Downloads/MC-subject-2.csv","legacy","7 1 3","Lentiform Loewenfeld","3.3.12","2","y","0","left","right","right","left","NA","738","979","2362","738","NA","NA","NA","2","legacy","3","1024","2","48000","-16","experiment","2","even","1","213411","213413","215615","214414","3904","217616","212346","2919","80583","NA","206546","2924","78220","217616","218356","NA","NA","Sternberg Task","24","27714","35","yes","1024"
"69.44444444444444","69.44444444444444","790.4166666666666","790.4166666666666","black","experiment","legacy","legacy","legacy","0","uniform","1","undefined","1","left","35","35","35","35","0","35","35","0","0","NA","35","0","0","35","35","0","NA","Sat Oct 15 16:47:50 2022","The main experiment item","yes","Lab_3.1.osexp","C:\Users\Owner\Downloads","no","mono","no","18","no","white","no","yes","768","legacy","23","11","C:/Users/Owner/Downloads/MC-subject-2.csv","legacy","3 5 4 7","Lentiform Loewenfeld","3.3.12","1","y","0","left","right","right","left","NA","741","979","2362","741","NA","NA","NA","2","legacy","4","1024","2","48000","-16","experiment","2","even","3","219428","219431","221633","220432","3904","223634","218360","2919","80583","NA","206546","2924","78220","223634","224377","NA","NA","Sternberg Task","25","28455","36","yes","1024"
"70.27027027027027","70.27027027027027","786.8918918918919","786.8918918918919","black","experiment","legacy","legacy","legacy","0","uniform","1","undefined","1","right","36","36","36","36","0","36","36","0","0","NA","36","0","0","36","36","0","NA","Sat Oct 15 16:47:50 2022","The main experiment item","yes","Lab_3.1.osexp","C:\Users\Owner\Downloads","no","mono","no","18","no","white","no","yes","768","legacy","24","11","C:/Users/Owner/Downloads/MC-subject-2.csv","legacy","7 9","Lentiform Loewenfeld","3.3.12","0","n","0","right","right","right","right","NA","660","979","2362","660","NA","NA","NA","2","legacy","2","1024","2","48000","-16","experiment","2","even","1","225448","225449","227651","226450","3904","229652","224383","2919","80583","NA","206546","2924","78220","229652","230313","NA","NA","Sternberg Task","26","29115","37","yes","1024"
"71.05263157894737","71.05263157894737","788.421052631579","788.421052631579","black","experiment","legacy","legacy","legacy","0","uniform","1","undefined","1","right","37","37","37","37","0","37","37","0","0","NA","37","0","0","37","37","0","NA","Sat Oct 15 16:47:50 2022","The main experiment item","yes","Lab_3.1.osexp","C:\Users\Owner\Downloads","no","mono","no","18","no","white","no","yes","768","legacy","25","11","C:/Users/Owner/Downloads/MC-subject-2.csv","legacy","1 7 8 3 9","Lentiform Loewenfeld","3.3.12","0","n","0","right","right","right","right","NA","845","979","2362","845","NA","NA","NA","2","legacy","5","1024","2","48000","-16","experiment","2","even","2","231383","231384","233586","232385","3904","235587","230318","2919","80583","NA","206546","2924","78220","235587","236433","NA","NA","Sternberg Task","27","29960","38","yes","1024"
"71.7948717948718","71.7948717948718","788.0512820512821","788.0512820512821","black","experiment","legacy","legacy","legacy","0","uniform","1","undefined","1","right","38","38","38","38","0","38","38","0","0","NA","38","0","0","38","38","0","NA","Sat Oct 15 16:47:50 2022","The main experiment item","yes","Lab_3.1.osexp","C:\Users\Owner\Downloads","no","mono","no","18","no","white","no","yes","768","legacy","26","11","C:/Users/Owner/Downloads/MC-subject-2.csv","legacy","6 2 9 3 8 4","Lentiform Loewenfeld","3.3.12","0","n","0","right","right","right","right","NA","774","979","2362","774","NA","NA","NA","2","legacy","6","1024","2","48000","-16","experiment","2","even","1","237503","237505","239707","238506","3904","241708","236438","2919","80583","NA","206546","2924","78220","241708","242483","NA","NA","Sternberg Task","28","30734","39","yes","1024"
"72.5","72.5","794.6","794.6","black","experiment","legacy","legacy","legacy","0","uniform","1","undefined","1","right","39","39","39","39","0","39","39","0","0","NA","39","0","0","39","39","0","NA","Sat Oct 15 16:47:50 2022","The main experiment item","yes","Lab_3.1.osexp","C:\Users\Owner\Downloads","no","mono","no","18","no","white","no","yes","768","legacy","27","11","C:/Users/Owner/Downloads/MC-subject-2.csv","legacy","5","Lentiform Loewenfeld","3.3.12","0","n","0","right","right","right","right","NA","1050","979","2362","1050","NA","NA","NA","2","legacy","1","1024","2","48000","-16","experiment","2","even","8","243553","243556","245758","244557","3904","247759","242489","2919","80583","NA","206546","2924","78220","247759","248811","NA","NA","Sternberg Task","29","31784","40","yes","1024"
"70.73170731707317","70.73170731707317","800.439024390244","800.439024390244","black","experiment","legacy","legacy","legacy","0","uniform","0","undefined","0","right","40","40","40","40","0","40","40","0","0","NA","40","0","0","40","40","0","NA","Sat Oct 15 16:47:50 2022","The main experiment item","yes","Lab_3.1.osexp","C:\Users\Owner\Downloads","no","mono","no","18","no","white","no","yes","768","legacy","28","11","C:/Users/Owner/Downloads/MC-subject-2.csv","legacy","2 3 8 5 6 7","Lentiform Loewenfeld","3.3.12","0","n","0","left","right","right","left","NA","1034","979","2362","1034","NA","NA","NA","2","legacy","6","1024","2","48000","-16","experiment","2","even","1","249883","249884","252086","250885","3904","254088","248817","2919","80583","NA","206546","2924","78220","254088","255123","NA","NA","Sternberg Task","29","32818","41","yes","1024"
"71.42857142857143","71.42857142857143","800.047619047619","800.047619047619","black","experiment","legacy","legacy","legacy","0","uniform","1","undefined","1","right","41","41","41","41","0","41","41","0","0","NA","41","0","0","41","41","0","NA","Sat Oct 15 16:47:50 2022","The main experiment item","yes","Lab_3.1.osexp","C:\Users\Owner\Downloads","no","mono","no","18","no","white","no","yes","768","legacy","29","11","C:/Users/Owner/Downloads/MC-subject-2.csv","legacy","1 6 4 3 9 7","Lentiform Loewenfeld","3.3.12","0","n","0","right","right","right","right","NA","784","979","2362","784","NA","NA","NA","2","legacy","6","1024","2","48000","-16","experiment","2","even","8","256193","256195","258397","257196","3904","260398","248817","2919","80583","NA","255128","2924","78220","260398","261183","NA","NA","Sternberg Task","30","33602","42","yes","1024"
"72.09302325581395","72.09302325581395","801","801","black","experiment","legacy","legacy","legacy","0","uniform","1","undefined","1","left","42","42","42","42","0","42","42","0","0","NA","42","0","0","42","42","0","NA","Sat Oct 15 16:47:50 2022","The main experiment item","yes","Lab_3.1.osexp","C:\Users\Owner\Downloads","no","mono","no","18","no","white","no","yes","768","legacy","30","11","C:/Users/Owner/Downloads/MC-subject-2.csv","legacy","3 4 9 6 2 9","Lentiform Loewenfeld","3.3.12","5","y","0","left","right","right","left","NA","841","979","2362","841","NA","NA","NA","2","legacy","6","1024","2","48000","-16","experiment","2","even","2","262254","262255","264457","263256","3904","266458","261188","2919","80583","NA","255128","2924","78220","266458","267301","NA","NA","Sternberg Task","31","34443","43","yes","1024"
"72.72727272727273","72.72727272727273","797.5681818181819","797.5681818181819","black","experiment","legacy","legacy","legacy","0","uniform","1","undefined","1","right","43","43","43","43","0","43","43","0","0","NA","43","0","0","43","43","0","NA","Sat Oct 15 16:47:50 2022","The main experiment item","yes","Lab_3.1.osexp","C:\Users\Owner\Downloads","no","mono","no","18","no","white","no","yes","768","legacy","31","11","C:/Users/Owner/Downloads/MC-subject-2.csv","legacy","7 9 1 6","Lentiform Loewenfeld","3.3.12","0","n","0","right","right","right","right","NA","650","979","2362","650","NA","NA","NA","2","legacy","4","1024","2","48000","-16","experiment","2","even","4","268378","268379","270581","269380","3904","272582","267305","2919","80583","NA","255128","2924","78220","272582","273234","NA","NA","Sternberg Task","32","35093","44","yes","1024"
"73.33333333333333","73.33333333333333","797.8","797.8","black","experiment","legacy","legacy","legacy","0","uniform","1","undefined","1","right","44","44","44","44","0","44","44","0","0","NA","44","0","0","44","44","0","NA","Sat Oct 15 16:47:50 2022","The main experiment item","yes","Lab_3.1.osexp","C:\Users\Owner\Downloads","no","mono","no","18","no","white","no","yes","768","legacy","32","11","C:/Users/Owner/Downloads/MC-subject-2.csv","legacy","2 8 9","Lentiform Loewenfeld","3.3.12","0","n","0","right","right","right","right","NA","808","979","2362","808","NA","NA","NA","2","legacy","3","1024","2","48000","-16","experiment","2","even","6","274302","274303","276505","275304","3904","278506","273238","2919","80583","NA","255128","2924","78220","278506","279315","NA","NA","Sternberg Task","33","35901","45","yes","1024"
"73.91304347826087","73.91304347826087","793.4782608695652","793.4782608695652","black","experiment","legacy","legacy","legacy","0","uniform","1","undefined","1","left","45","45","45","45","0","45","45","0","0","NA","45","0","0","45","45","0","NA","Sat Oct 15 16:47:50 2022","The main experiment item","yes","Lab_3.1.osexp","C:\Users\Owner\Downloads","no","mono","no","18","no","white","no","yes","768","legacy","33","11","C:/Users/Owner/Downloads/MC-subject-2.csv","legacy","9 4 2","Lentiform Loewenfeld","3.3.12","1","y","0","left","right","right","left","NA","599","979","2362","599","NA","NA","NA","2","legacy","3","1024","2","48000","-16","experiment","2","even","9","280385","280387","282589","281388","3904","284590","279320","2919","80583","NA","255128","2924","78220","284590","285190","NA","NA","Sternberg Task","34","36500","46","yes","1024"
"74.46808510638297","74.46808510638297","790.4468085106383","790.4468085106383","black","experiment","legacy","legacy","legacy","0","uniform","1","undefined","1","left","46","46","46","46","0","46","46","0","0","NA","46","0","0","46","46","0","NA","Sat Oct 15 16:47:50 2022","The main experiment item","yes","Lab_3.1.osexp","C:\Users\Owner\Downloads","no","mono","no","18","no","white","no","yes","768","legacy","34","11","C:/Users/Owner/Downloads/MC-subject-2.csv","legacy","6 9 7 4 5 1","Lentiform Loewenfeld","3.3.12","2","y","0","left","right","right","left","NA","651","979","2362","651","NA","NA","NA","2","legacy","6","1024","2","48000","-16","experiment","2","even","9","286260","286261","288463","287262","3904","290464","285194","2919","80583","NA","255128","2924","78220","290464","291116","NA","NA","Sternberg Task","35","37151","47","yes","1024"
"75","75","791.4375","791.4375","black","experiment","legacy","legacy","legacy","0","uniform","1","undefined","1","right","47","47","47","47","0","47","47","0","0","NA","47","0","0","47","47","0","NA","Sat Oct 15 16:47:50 2022","The main experiment item","yes","Lab_3.1.osexp","C:\Users\Owner\Downloads","no","mono","no","18","no","white","no","yes","768","legacy","35","11","C:/Users/Owner/Downloads/MC-subject-2.csv","legacy","8 4 3 9","Lentiform Loewenfeld","3.3.12","0","n","0","right","right","right","right","NA","838","979","2362","838","NA","NA","NA","2","legacy","4","1024","2","48000","-16","experiment","2","even","5","292199","292200","294402","293201","3904","296403","291121","2919","80583","NA","255128","2924","78220","296403","297242","NA","NA","Sternberg Task","36","37989","48","yes","1024"
"73.46938775510205","73.46938775510205","790.1836734693877","790.1836734693877","black","experiment","legacy","legacy","legacy","0","uniform","0","undefined","0","left","48","48","48","48","0","48","48","0","0","NA","48","0","0","48","48","0","NA","Sat Oct 15 16:47:50 2022","The main experiment item","yes","Lab_3.1.osexp","C:\Users\Owner\Downloads","no","mono","no","18","no","white","no","yes","768","legacy","36","11","C:/Users/Owner/Downloads/MC-subject-2.csv","legacy","8 3","Lentiform Loewenfeld","3.3.12","2","y","0","right","right","right","right","NA","730","979","2362","730","NA","NA","NA","2","legacy","2","1024","2","48000","-16","experiment","2","even","3","298312","298313","300515","299314","3904","302516","297247","2919","80583","NA","255128","2924","78220","302516","303247","NA","NA","Sternberg Task","36","38719","49","yes","1024"
"72","72","801.44","801.44","black","experiment","legacy","legacy","legacy","0","uniform","0","undefined","0","left","49","49","49","49","0","49","49","0","0","NA","49","0","0","49","49","0","NA","Sat Oct 15 16:47:50 2022","The main experiment item","yes","Lab_3.1.osexp","C:\Users\Owner\Downloads","no","mono","no","18","no","white","no","yes","768","legacy","37","11","C:/Users/Owner/Downloads/MC-subject-2.csv","legacy","5 2 6","Lentiform Loewenfeld","3.3.12","2","y","0","right","right","right","right","NA","1353","979","2362","1353","NA","NA","NA","2","legacy","3","1024","2","48000","-16","experiment","2","even","2","304327","304329","306531","305330","3904","308532","297247","2919","80583","NA","303252","2924","78220","308532","309886","NA","NA","Sternberg Task","36","40072","50","yes","1024"
"72.54901960784314","72.54901960784314","798.7843137254902","798.7843137254902","black","experiment","legacy","legacy","legacy","0","uniform","1","undefined","1","right","50","50","50","50","0","50","50","0","0","NA","50","0","0","50","50","0","NA","Sat Oct 15 16:47:50 2022","The main experiment item","yes","Lab_3.1.osexp","C:\Users\Owner\Downloads","no","mono","no","18","no","white","no","yes","768","legacy","38","11","C:/Users/Owner/Downloads/MC-subject-2.csv","legacy","6 8 4","Lentiform Loewenfeld","3.3.12","0","n","0","right","right","right","right","NA","666","979","2362","666","NA","NA","NA","2","legacy","3","1024","2","48000","-16","experiment","2","even","1","310957","310958","313160","311959","3904","315161","297247","2919","80583","NA","309891","2924","78220","315161","315828","NA","NA","Sternberg Task","37","40738","51","yes","1024"
"73.07692307692308","73.07692307692308","795.7692307692307","795.7692307692307","black","experiment","legacy","legacy","legacy","0","uniform","1","undefined","1","right","51","51","51","51","0","51","51","0","0","NA","51","0","0","51","51","0","NA","Sat Oct 15 16:47:50 2022","The main experiment item","yes","Lab_3.1.osexp","C:\Users\Owner\Downloads","no","mono","no","18","no","white","no","yes","768","legacy","39","11","C:/Users/Owner/Downloads/MC-subject-2.csv","legacy","1 8 7","Lentiform Loewenfeld","3.3.12","0","n","0","right","right","right","right","NA","642","979","2362","642","NA","NA","NA","2","legacy","3","1024","2","48000","-16","experiment","2","even","4","316897","316899","319101","317900","3904","321102","315833","2919","80583","NA","309891","2924","78220","321102","321745","NA","NA","Sternberg Task","38","41380","52","yes","1024"
"73.58490566037736","73.58490566037736","794.0943396226415","794.0943396226415","black","experiment","legacy","legacy","legacy","0","uniform","1","undefined","1","left","52","52","52","52","0","52","52","0","0","NA","52","0","0","52","52","0","NA","Sat Oct 15 16:47:50 2022","The main experiment item","yes","Lab_3.1.osexp","C:\Users\Owner\Downloads","no","mono","no","18","no","white","no","yes","768","legacy","40","11","C:/Users/Owner/Downloads/MC-subject-2.csv","legacy","3 5 9 6 2 4","Lentiform Loewenfeld","3.3.12","1","y","0","left","right","right","left","NA","707","979","2362","707","NA","NA","NA","2","legacy","6","1024","2","48000","-16","experiment","2","even","3","322814","322816","325018","323817","3904","327019","321749","2919","80583","NA","309891","2924","78220","327019","327728","NA","NA","Sternberg Task","39","42087","53","yes","1024"
"74.07407407407408","74.07407407407408","801.2222222222222","801.2222222222222","black","experiment","legacy","legacy","legacy","0","uniform","1","undefined","1","left","53","53","53","53","0","53","53","0","0","NA","53","0","0","53","53","0","NA","Sat Oct 15 16:47:50 2022","The main experiment item","yes","Lab_3.1.osexp","C:\Users\Owner\Downloads","no","mono","no","18","no","white","no","yes","768","legacy","41","11","C:/Users/Owner/Downloads/MC-subject-2.csv","legacy","4 3 2 5 8","Lentiform Loewenfeld","3.3.12","2","y","0","left","right","right","left","NA","1179","979","2362","1179","NA","NA","NA","2","legacy","5","1024","2","48000","-16","experiment","2","even","3","328800","328801","331003","329802","3904","333004","327735","2919","80583","NA","309891","2924","78220","333004","334185","NA","NA","Sternberg Task","40","43266","54","yes","1024"
"74.54545454545455","74.54545454545455","805.9454545454546","805.9454545454546","black","experiment","legacy","legacy","legacy","0","uniform","1","undefined","1","right","54","54","54","54","0","54","54","0","0","NA","54","0","0","54","54","0","NA","Sat Oct 15 16:47:50 2022","The main experiment item","yes","Lab_3.1.osexp","C:\Users\Owner\Downloads","no","mono","no","18","no","white","no","yes","768","legacy","42","11","C:/Users/Owner/Downloads/MC-subject-2.csv","legacy","6 9 4 5 2","Lentiform Loewenfeld","3.3.12","0","n","0","right","right","right","right","NA","1061","979","2362","1061","NA","NA","NA","2","legacy","5","1024","2","48000","-16","experiment","2","even","1","335255","335256","337458","336257","3904","339460","334189","2919","80583","NA","309891","2924","78220","339460","340523","NA","NA","Sternberg Task","41","44327","55","yes","1024"
"73.21428571428571","73.21428571428571","803.9285714285714","803.9285714285714","black","experiment","legacy","legacy","legacy","0","uniform","0","undefined","0","right","55","55","55","55","0","55","55","0","0","NA","55","0","0","55","55","0","NA","Sat Oct 15 16:47:50 2022","The main experiment item","yes","Lab_3.1.osexp","C:\Users\Owner\Downloads","no","mono","no","18","no","white","no","yes","768","legacy","43","11","C:/Users/Owner/Downloads/MC-subject-2.csv","legacy","8 5 4 2 9 6","Lentiform Loewenfeld","3.3.12","0","n","0","left","right","right","left","NA","693","979","2362","693","NA","NA","NA","2","legacy","6","1024","2","48000","-16","experiment","2","even","3","341592","341594","343796","342595","3904","345797","340527","2919","80583","NA","309891","2924","78220","345797","346491","NA","NA","Sternberg Task","41","45020","56","yes","1024"
"73.6842105263158","73.6842105263158","799.4035087719299","799.4035087719299","black","experiment","legacy","legacy","legacy","0","uniform","1","undefined","1","left","56","56","56","56","0","56","56","0","0","NA","56","0","0","56","56","0","NA","Sat Oct 15 16:47:50 2022","The main experiment item","yes","Lab_3.1.osexp","C:\Users\Owner\Downloads","no","mono","no","18","no","white","no","yes","768","legacy","44","11","C:/Users/Owner/Downloads/MC-subject-2.csv","legacy","7 6","Lentiform Loewenfeld","3.3.12","2","y","0","left","right","right","left","NA","546","979","2362","546","NA","NA","NA","2","legacy","2","1024","2","48000","-16","experiment","2","even","6","347560","347561","349763","348562","3904","351764","340527","2919","80583","NA","346495","2924","78220","351764","352312","NA","NA","Sternberg Task","42","45566","57","yes","1024"
"72.41379310344827","72.41379310344827","798.6551724137931","798.6551724137931","black","experiment","legacy","legacy","legacy","0","uniform","0","undefined","0","right","57","57","57","57","0","57","57","0","0","NA","57","0","0","57","57","0","NA","Sat Oct 15 16:47:50 2022","The main experiment item","yes","Lab_3.1.osexp","C:\Users\Owner\Downloads","no","mono","no","18","no","white","no","yes","768","legacy","45","11","C:/Users/Owner/Downloads/MC-subject-2.csv","legacy","6 9 5","Lentiform Loewenfeld","3.3.12","0","n","0","left","right","right","left","NA","756","979","2362","756","NA","NA","NA","2","legacy","3","1024","2","48000","-16","experiment","2","even","8","353380","353381","355583","354382","3904","357584","352316","2919","80583","NA","346495","2924","78220","357584","358342","NA","NA","Sternberg Task","42","46322","58","yes","1024"
"72.88135593220339","72.88135593220339","794.1355932203389","794.1355932203389","black","experiment","legacy","legacy","legacy","0","uniform","1","undefined","1","left","58","58","58","58","0","58","58","0","0","NA","58","0","0","58","58","0","NA","Sat Oct 15 16:47:50 2022","The main experiment item","yes","Lab_3.1.osexp","C:\Users\Owner\Downloads","no","mono","no","18","no","white","no","yes","768","legacy","46","11","C:/Users/Owner/Downloads/MC-subject-2.csv","legacy","9 1 6 7 8","Lentiform Loewenfeld","3.3.12","1","y","0","left","right","right","left","NA","532","979","2362","532","NA","NA","NA","2","legacy","5","1024","2","48000","-16","experiment","2","even","9","359411","359412","361615","360414","3904","363616","352316","2919","80583","NA","358346","2924","78220","363616","364149","NA","NA","Sternberg Task","43","46854","59","yes","1024"
"73.33333333333333","73.33333333333333","794.0166666666667","794.0166666666667","black","experiment","legacy","legacy","legacy","0","uniform","1","undefined","1","left","59","59","59","59","0","59","59","0","0","NA","59","0","0","59","59","0","NA","Sat Oct 15 16:47:50 2022","The main experiment item","yes","Lab_3.1.osexp","C:\Users\Owner\Downloads","no","mono","no","18","no","white","no","yes","768","legacy","47","11","C:/Users/Owner/Downloads/MC-subject-2.csv","legacy","6 7 9 3 1 2","Lentiform Loewenfeld","3.3.12","1","y","0","left","right","right","left","NA","787","979","2362","787","NA","NA","NA","2","legacy","6","1024","2","48000","-16","experiment","2","even","6","365220","365222","367424","366223","3904","369425","364156","2919","80583","NA","358346","2924","78220","369425","370213","NA","NA","Sternberg Task","44","47641","60","yes","1024"
"72.1311475409836","72.1311475409836","792.311475409836","792.311475409836","black","experiment","legacy","legacy","legacy","0","uniform","0","undefined","0","left","60","60","60","60","0","60","60","0","0","NA","60","0","0","60","60","0","NA","Sat Oct 15 16:47:50 2022","The main experiment item","yes","Lab_3.1.osexp","C:\Users\Owner\Downloads","no","mono","no","18","no","white","no","yes","768","legacy","48","11","C:/Users/Owner/Downloads/MC-subject-2.csv","legacy","3 9 6 2","Lentiform Loewenfeld","3.3.12","4","y","0","right","right","right","right","NA","690","979","2362","690","NA","NA","NA","2","legacy","4","1024","2","48000","-16","experiment","2","even","2","371282","371282","373485","372284","3904","375486","370217","2919","80583","NA","358346","2924","78220","375486","376178","NA","NA","Sternberg Task","44","48331","61","yes","1024"
"72.58064516129032","72.58064516129032","787.4354838709677","787.4354838709677","black","experiment","legacy","legacy","legacy","0","uniform","1","undefined","1","left","61","61","61","61","0","61","61","0","0","NA","61","0","0","61","61","0","NA","Sat Oct 15 16:47:50 2022","The main experiment item","yes","Lab_3.1.osexp","C:\Users\Owner\Downloads","no","mono","no","18","no","white","no","yes","768","legacy","49","11","C:/Users/Owner/Downloads/MC-subject-2.csv","legacy","5 7 8 2 3 8","Lentiform Loewenfeld","3.3.12","5","y","0","left","right","right","left","NA","490","979","2362","490","NA","NA","NA","2","legacy","6","1024","2","48000","-16","experiment","2","even","3","377255","377257","379459","378258","3904","381460","370217","2919","80583","NA","376182","2924","78220","381460","381951","NA","NA","Sternberg Task","45","48821","62","yes","1024"
"73.01587301587301","73.01587301587301","789.3174603174604","789.3174603174604","black","experiment","legacy","legacy","legacy","0","uniform","1","undefined","1","right","62","62","62","62","0","62","62","0","0","NA","62","0","0","62","62","0","NA","Sat Oct 15 16:47:50 2022","The main experiment item","yes","Lab_3.1.osexp","C:\Users\Owner\Downloads","no","mono","no","18","no","white","no","yes","768","legacy","50","11","C:/Users/Owner/Downloads/MC-subject-2.csv","legacy","8 4 3 5","Lentiform Loewenfeld","3.3.12","0","n","0","right","right","right","right","NA","906","979","2362","906","NA","NA","NA","2","legacy","4","1024","2","48000","-16","experiment","2","even","6","383021","383022","385224","384023","3904","387225","381955","2919","80583","NA","376182","2924","78220","387225","388133","NA","NA","Sternberg Task","46","49727","63","yes","1024"
"71.875","71.875","788.578125","788.578125","black","experiment","legacy","legacy","legacy","0","uniform","0","undefined","0","left","63","63","63","63","0","63","63","0","0","NA","63","0","0","63","63","0","NA","Sat Oct 15 16:47:50 2022","The main experiment item","yes","Lab_3.1.osexp","C:\Users\Owner\Downloads","no","mono","no","18","no","white","no","yes","768","legacy","51","11","C:/Users/Owner/Downloads/MC-subject-2.csv","legacy","4 1 8 7 5","Lentiform Loewenfeld","3.3.12","3","y","0","right","right","right","right","NA","742","979","2362","742","NA","NA","NA","2","legacy","5","1024","2","48000","-16","experiment","2","even","8","389203","389204","391406","390205","3904","393407","388138","2919","80583","NA","376182","2924","78220","393407","394151","NA","NA","Sternberg Task","46","50469","64","yes","1024"
"72.3076923076923","72.3076923076923","784.9076923076923","784.9076923076923","black","experiment","legacy","legacy","legacy","0","uniform","1","undefined","1","left","64","64","64","64","0","64","64","0","0","NA","64","0","0","64","64","0","NA","Sat Oct 15 16:47:50 2022","The main experiment item","yes","Lab_3.1.osexp","C:\Users\Owner\Downloads","no","mono","no","18","no","white","no","yes","768","legacy","52","11","C:/Users/Owner/Downloads/MC-subject-2.csv","legacy","9 1 7 2","Lentiform Loewenfeld","3.3.12","2","y","0","left","right","right","left","NA","550","979","2362","550","NA","NA","NA","2","legacy","4","1024","2","48000","-16","experiment","2","even","1","395231","395232","397434","396233","3904","399435","388138","2919","80583","NA","394157","2924","78220","399435","399987","NA","NA","Sternberg Task","47","51019","65","yes","1024"
"72.72727272727273","72.72727272727273","783.1212121212121","783.1212121212121","black","experiment","legacy","legacy","legacy","0","uniform","1","undefined","1","right","65","65","65","65","0","65","65","0","0","NA","65","0","0","65","65","0","NA","Sat Oct 15 16:47:50 2022","The main experiment item","yes","Lab_3.1.osexp","C:\Users\Owner\Downloads","no","mono","no","18","no","white","no","yes","768","legacy","53","11","C:/Users/Owner/Downloads/MC-subject-2.csv","legacy","8 2 1 4 5 9","Lentiform Loewenfeld","3.3.12","0","n","0","right","right","right","right","NA","667","979","2362","667","NA","NA","NA","2","legacy","6","1024","2","48000","-16","experiment","2","even","7","401055","401058","403260","402059","3904","405261","399991","2919","80583","NA","394157","2924","78220","405261","405931","NA","NA","Sternberg Task","48","51686","66","yes","1024"
"73.13432835820896","73.13432835820896","788.0895522388059","788.0895522388059","black","experiment","legacy","legacy","legacy","0","uniform","1","undefined","1","right","66","66","66","66","0","66","66","0","0","NA","66","0","0","66","66","0","NA","Sat Oct 15 16:47:50 2022","The main experiment item","yes","Lab_3.1.osexp","C:\Users\Owner\Downloads","no","mono","no","18","no","white","no","yes","768","legacy","54","11","C:/Users/Owner/Downloads/MC-subject-2.csv","legacy","1 4 9 2 5","Lentiform Loewenfeld","3.3.12","0","n","0","right","right","right","right","NA","1116","979","2362","1116","NA","NA","NA","2","legacy","5","1024","2","48000","-16","experiment","2","even","7","407002","407003","409205","408004","3904","411206","405937","2919","80583","NA","394157","2924","78220","411206","412323","NA","NA","Sternberg Task","49","52802","67","yes","1024"
"73.52941176470588","73.52941176470588","786.0147058823529","786.0147058823529","black","experiment","legacy","legacy","legacy","0","uniform","1","undefined","1","left","67","67","67","67","0","67","67","0","0","NA","67","0","0","67","67","0","NA","Sat Oct 15 16:47:50 2022","The main experiment item","yes","Lab_3.1.osexp","C:\Users\Owner\Downloads","no","mono","no","18","no","white","no","yes","768","legacy","55","11","C:/Users/Owner/Downloads/MC-subject-2.csv","legacy","4 7 6 8 2 3","Lentiform Loewenfeld","3.3.12","6","y","0","left","right","right","left","NA","647","979","2362","647","NA","NA","NA","2","legacy","6","1024","2","48000","-16","experiment","2","even","3","413394","413395","415597","414396","3904","417598","412327","2919","80583","NA","394157","2924","78220","417598","418246","NA","NA","Sternberg Task","50","53449","68","yes","1024"
"72.46376811594203","72.46376811594203","787.9710144927536","787.9710144927536","black","experiment","legacy","legacy","legacy","0","uniform","0","undefined","0","right","68","68","68","68","0","68","68","0","0","NA","68","0","0","68","68","0","NA","Sat Oct 15 16:47:50 2022","The main experiment item","yes","Lab_3.1.osexp","C:\Users\Owner\Downloads","no","mono","no","18","no","white","no","yes","768","legacy","56","11","C:/Users/Owner/Downloads/MC-subject-2.csv","legacy","1 5 3 2 8","Lentiform Loewenfeld","3.3.12","0","n","0","left","right","right","left","NA","921","979","2362","921","NA","NA","NA","2","legacy","5","1024","2","48000","-16","experiment","2","even","4","419316","419318","421520","420319","3904","423521","418251","2919","80583","NA","394157","2924","78220","423521","424444","NA","NA","Sternberg Task","50","54370","69","yes","1024"
"72.85714285714286","72.85714285714286","784.9142857142857","784.9142857142857","black","experiment","legacy","legacy","legacy","0","uniform","1","undefined","1","right","69","69","69","69","0","69","69","0","0","NA","69","0","0","69","69","0","NA","Sat Oct 15 16:47:50 2022","The main experiment item","yes","Lab_3.1.osexp","C:\Users\Owner\Downloads","no","mono","no","18","no","white","no","yes","768","legacy","57","11","C:/Users/Owner/Downloads/MC-subject-2.csv","legacy","4 2 7 6 1 3","Lentiform Loewenfeld","3.3.12","0","n","0","right","right","right","right","NA","574","979","2362","574","NA","NA","NA","2","legacy","6","1024","2","48000","-16","experiment","2","even","8","425516","425517","427719","426518","3904","429720","418251","2919","80583","NA","424450","2924","78220","429720","430295","NA","NA","Sternberg Task","51","54944","70","yes","1024"
"73.2394366197183","73.2394366197183","787.7042253521126","787.7042253521126","black","experiment","legacy","legacy","legacy","0","uniform","1","undefined","1","left","70","70","70","70","0","70","70","0","0","NA","70","0","0","70","70","0","NA","Sat Oct 15 16:47:50 2022","The main experiment item","yes","Lab_3.1.osexp","C:\Users\Owner\Downloads","no","mono","no","18","no","white","no","yes","768","legacy","58","11","C:/Users/Owner/Downloads/MC-subject-2.csv","legacy","4 6 2 5 1","Lentiform Loewenfeld","3.3.12","5","y","0","left","right","right","left","NA","983","979","2362","983","NA","NA","NA","2","legacy","5","1024","2","48000","-16","experiment","2","even","1","431368","431370","433572","432371","3904","435573","430302","2919","80583","NA","424450","2924","78220","435573","436557","NA","NA","Sternberg Task","52","55927","71","yes","1024"
"73.61111111111111","73.61111111111111","787.75","787.75","black","experiment","legacy","legacy","legacy","0","uniform","1","undefined","1","right","71","71","71","71","0","71","71","0","0","NA","71","0","0","71","71","0","NA","Sat Oct 15 16:47:50 2022","The main experiment item","yes","Lab_3.1.osexp","C:\Users\Owner\Downloads","no","mono","no","18","no","white","no","yes","768","legacy","59","11","C:/Users/Owner/Downloads/MC-subject-2.csv","legacy","6 7 5 9","Lentiform Loewenfeld","3.3.12","0","n","0","right","right","right","right","NA","791","979","2362","791","NA","NA","NA","2","legacy","4","1024","2","48000","-16","experiment","2","even","2","437630","437632","439834","438633","3904","441835","436563","2919","80583","NA","424450","2924","78220","441835","442628","NA","NA","Sternberg Task","53","56718","72","yes","1024"
"73.97260273972603","73.97260273972603","785.6164383561644","785.6164383561644","black","experiment","legacy","legacy","legacy","0","uniform","1","undefined","1","left","72","72","72","72","0","72","72","0","0","NA","72","0","0","72","72","0","NA","Sat Oct 15 16:47:50 2022","The main experiment item","yes","Lab_3.1.osexp","C:\Users\Owner\Downloads","no","mono","no","18","no","white","no","yes","768","legacy","60","11","C:/Users/Owner/Downloads/MC-subject-2.csv","legacy","8 1 6","Lentiform Loewenfeld","3.3.12","3","y","0","left","right","right","left","NA","632","979","2362","632","NA","NA","NA","2","legacy","3","1024","2","48000","-16","experiment","2","even","6","443711","443713","445915","444714","3904","447916","442632","2919","80583","NA","424450","2924","78220","447916","448549","NA","NA","Sternberg Task","54","57350","73","yes","1024"
"74.32432432432432","74.32432432432432","782.2837837837837","782.2837837837837","black","experiment","legacy","legacy","legacy","0","uniform","1","undefined","1","left","73","73","73","73","0","73","73","0","0","NA","73","0","0","73","73","0","NA","Sat Oct 15 16:47:50 2022","The main experiment item","yes","Lab_3.1.osexp","C:\Users\Owner\Downloads","no","mono","no","18","no","white","no","yes","768","legacy","61","11","C:/Users/Owner/Downloads/MC-subject-2.csv","legacy","8 7 3","Lentiform Loewenfeld","3.3.12","1","y","0","left","right","right","left","NA","539","979","2362","539","NA","NA","NA","2","legacy","3","1024","2","48000","-16","experiment","2","even","8","449619","449621","451823","450622","3904","453824","448554","2919","80583","NA","424450","2924","78220","453824","454365","NA","NA","Sternberg Task","55","57889","74","yes","1024"
"74.66666666666667","74.66666666666667","787.0133333333333","787.0133333333333","black","experiment","legacy","legacy","legacy","0","uniform","1","undefined","1","right","74","74","74","74","0","74","74","0","0","NA","74","0","0","74","74","0","NA","Sat Oct 15 16:47:50 2022","The main experiment item","yes","Lab_3.1.osexp","C:\Users\Owner\Downloads","no","mono","no","18","no","white","no","yes","768","legacy","62","11","C:/Users/Owner/Downloads/MC-subject-2.csv","legacy","1 6 4","Lentiform Loewenfeld","3.3.12","0","n","0","right","right","right","right","NA","1137","979","2362","1137","NA","NA","NA","2","legacy","3","1024","2","48000","-16","experiment","2","even","7","455438","455440","457642","456441","3904","459643","454372","2919","80583","NA","424450","2924","78220","459643","460782","NA","NA","Sternberg Task","56","59026","75","yes","1024"
"75","75","784.9078947368421","784.9078947368421","black","experiment","legacy","legacy","legacy","0","uniform","1","undefined","1","left","75","75","75","75","0","75","75","0","0","NA","75","0","0","75","75","0","NA","Sat Oct 15 16:47:50 2022","The main experiment item","yes","Lab_3.1.osexp","C:\Users\Owner\Downloads","no","mono","no","18","no","white","no","yes","768","legacy","63","11","C:/Users/Owner/Downloads/MC-subject-2.csv","legacy","9 6 2 4 1","Lentiform Loewenfeld","3.3.12","4","y","0","left","right","right","left","NA","627","979","2362","627","NA","NA","NA","2","legacy","5","1024","2","48000","-16","experiment","2","even","4","461852","461853","464055","462854","3904","466056","460786","2919","80583","NA","424450","2924","78220","466056","466684","NA","NA","Sternberg Task","57","59653","76","yes","1024"
"75.32467532467533","75.32467532467533","783.8571428571429","783.8571428571429","black","experiment","legacy","legacy","legacy","0","uniform","1","undefined","1","right","76","76","76","76","0","76","76","0","0","NA","76","0","0","76","76","0","NA","Sat Oct 15 16:47:50 2022","The main experiment item","yes","Lab_3.1.osexp","C:\Users\Owner\Downloads","no","mono","no","18","no","white","no","yes","768","legacy","64","11","C:/Users/Owner/Downloads/MC-subject-2.csv","legacy","6 8","Lentiform Loewenfeld","3.3.12","0","n","0","right","right","right","right","NA","704","979","2362","704","NA","NA","NA","2","legacy","2","1024","2","48000","-16","experiment","2","even","9","467756","467757","469959","468758","3904","471960","466691","2919","80583","NA","424450","2924","78220","471960","472666","NA","NA","Sternberg Task","58","60357","77","yes","1024"
"75.64102564102564","75.64102564102564","784.1538461538462","784.1538461538462","black","experiment","legacy","legacy","legacy","0","uniform","1","undefined","1","right","77","77","77","77","0","77","77","0","0","NA","77","0","0","77","77","0","NA","Sat Oct 15 16:47:50 2022","The main experiment item","yes","Lab_3.1.osexp","C:\Users\Owner\Downloads","no","mono","no","18","no","white","no","yes","768","legacy","65","11","C:/Users/Owner/Downloads/MC-subject-2.csv","legacy","7 8 6 1","Lentiform Loewenfeld","3.3.12","0","n","0","right","right","right","right","NA","807","979","2362","807","NA","NA","NA","2","legacy","4","1024","2","48000","-16","experiment","2","even","3","473735","473737","475939","474738","3904","477940","472670","2919","80583","NA","424450","2924","78220","477940","478748","NA","NA","Sternberg Task","59","61164","78","yes","1024"
"75.9493670886076","75.9493670886076","784.4810126582279","784.4810126582279","black","experiment","legacy","legacy","legacy","0","uniform","1","undefined","1","right","78","78","78","78","0","78","78","0","0","NA","78","0","0","78","78","0","NA","Sat Oct 15 16:47:50 2022","The main experiment item","yes","Lab_3.1.osexp","C:\Users\Owner\Downloads","no","mono","no","18","no","white","no","yes","768","legacy","66","11","C:/Users/Owner/Downloads/MC-subject-2.csv","legacy","2 5 1 4","Lentiform Loewenfeld","3.3.12","0","n","0","right","right","right","right","NA","810","979","2362","810","NA","NA","NA","2","legacy","4","1024","2","48000","-16","experiment","2","even","6","479817","479819","482021","480820","3904","484022","478753","2919","80583","NA","424450","2924","78220","484022","484834","NA","NA","Sternberg Task","60","61974","79","yes","1024"
"76.25","76.25","783.35","783.35","black","experiment","legacy","legacy","legacy","0","uniform","1","undefined","1","left","79","79","79","79","0","79","79","0","0","NA","79","0","0","79","79","0","NA","Sat Oct 15 16:47:50 2022","The main experiment item","yes","Lab_3.1.osexp","C:\Users\Owner\Downloads","no","mono","no","18","no","white","no","yes","768","legacy","67","11","C:/Users/Owner/Downloads/MC-subject-2.csv","legacy","6 9 3 1","Lentiform Loewenfeld","3.3.12","4","y","0","left","right","right","left","NA","694","979","2362","694","NA","NA","NA","2","legacy","4","1024","2","48000","-16","experiment","2","even","1","485905","485906","488108","486907","3904","490109","484840","2919","80583","NA","424450","2924","78220","490109","490805","NA","NA","Sternberg Task","61","62668","80","yes","1024"
"76.54320987654322","76.54320987654322","782.9506172839506","782.9506172839506","black","experiment","legacy","legacy","legacy","0","uniform","1","undefined","1","right","80","80","80","80","0","80","80","0","0","NA","80","0","0","80","80","0","NA","Sat Oct 15 16:47:50 2022","The main experiment item","yes","Lab_3.1.osexp","C:\Users\Owner\Downloads","no","mono","no","18","no","white","no","yes","768","legacy","68","11","C:/Users/Owner/Downloads/MC-subject-2.csv","legacy","7 1","Lentiform Loewenfeld","3.3.12","0","n","0","right","right","right","right","NA","751","979","2362","751","NA","NA","NA","2","legacy","2","1024","2","48000","-16","experiment","2","even","8","491874","491875","494077","492876","3904","496078","490809","2919","80583","NA","424450","2924","78220","496078","496831","NA","NA","Sternberg Task","62","63419","81","yes","1024"
"76.82926829268293","76.82926829268293","782.0853658536586","782.0853658536586","black","experiment","legacy","legacy","legacy","0","uniform","1","undefined","1","right","81","81","81","81","0","81","81","0","0","NA","81","0","0","81","81","0","NA","Sat Oct 15 16:47:50 2022","The main experiment item","yes","Lab_3.1.osexp","C:\Users\Owner\Downloads","no","mono","no","18","no","white","no","yes","768","legacy","69","11","C:/Users/Owner/Downloads/MC-subject-2.csv","legacy","5 3 8 7 2 4","Lentiform Loewenfeld","3.3.12","0","n","0","right","right","right","right","NA","712","979","2362","712","NA","NA","NA","2","legacy","6","1024","2","48000","-16","experiment","2","even","9","497905","497906","500108","498907","3904","502109","496837","2919","80583","NA","424450","2924","78220","502109","502822","NA","NA","Sternberg Task","63","64131","82","yes","1024"
"75.90361445783132","75.90361445783132","780.3614457831326","780.3614457831326","black","experiment","legacy","legacy","legacy","0","uniform","0","undefined","0","left","82","82","82","82","0","82","82","0","0","NA","82","0","0","82","82","0","NA","Sat Oct 15 16:47:50 2022","The main experiment item","yes","Lab_3.1.osexp","C:\Users\Owner\Downloads","no","mono","no","18","no","white","no","yes","768","legacy","70","11","C:/Users/Owner/Downloads/MC-subject-2.csv","legacy","2 8 5 1","Lentiform Loewenfeld","3.3.12","4","y","0","right","right","right","right","NA","639","979","2362","639","NA","NA","NA","2","legacy","4","1024","2","48000","-16","experiment","2","even","1","503891","503893","506095","504894","3904","508096","502827","2919","80583","NA","424450","2924","78220","508096","508736","NA","NA","Sternberg Task","63","64770","83","yes","1024"
"76.19047619047619","76.19047619047619","781.1547619047619","781.1547619047619","black","experiment","legacy","legacy","legacy","0","uniform","1","undefined","1","right","83","83","83","83","0","83","83","0","0","NA","83","0","0","83","83","0","NA","Sat Oct 15 16:47:50 2022","The main experiment item","yes","Lab_3.1.osexp","C:\Users\Owner\Downloads","no","mono","no","18","no","white","no","yes","768","legacy","71","11","C:/Users/Owner/Downloads/MC-subject-2.csv","legacy","1 4 3 6 5","Lentiform Loewenfeld","3.3.12","0","n","0","right","right","right","right","NA","847","979","2362","847","NA","NA","NA","2","legacy","5","1024","2","48000","-16","experiment","2","even","8","509807","509809","512011","510810","3904","514012","502827","2919","80583","NA","508743","2924","78220","514012","514861","NA","NA","Sternberg Task","64","65617","84","yes","1024"
"76.47058823529412","76.47058823529412","781.3882352941176","781.3882352941176","black","experiment","legacy","legacy","legacy","0","uniform","1","undefined","1","right","84","84","84","84","0","84","84","0","0","NA","84","0","0","84","84","0","NA","Sat Oct 15 16:47:50 2022","The main experiment item","yes","Lab_3.1.osexp","C:\Users\Owner\Downloads","no","mono","no","18","no","white","no","yes","768","legacy","72","11","C:/Users/Owner/Downloads/MC-subject-2.csv","legacy","3 4 9 6 7 8","Lentiform Loewenfeld","3.3.12","0","n","0","right","right","right","right","NA","801","979","2362","801","NA","NA","NA","2","legacy","6","1024","2","48000","-16","experiment","2","even","2","515939","515941","518143","516942","3904","520144","514865","2919","80583","NA","508743","2924","78220","520144","520947","NA","NA","Sternberg Task","65","66418","85","yes","1024"
"76.74418604651163","76.74418604651163","782.2558139534884","782.2558139534884","black","experiment","legacy","legacy","legacy","0","uniform","1","undefined","1","right","85","85","85","85","0","85","85","0","0","NA","85","0","0","85","85","0","NA","Sat Oct 15 16:47:50 2022","The main experiment item","yes","Lab_3.1.osexp","C:\Users\Owner\Downloads","no","mono","no","18","no","white","no","yes","768","legacy","73","11","C:/Users/Owner/Downloads/MC-subject-2.csv","legacy","9","Lentiform Loewenfeld","3.3.12","0","n","0","right","right","right","right","NA","856","979","2362","856","NA","NA","NA","2","legacy","1","1024","2","48000","-16","experiment","2","even","6","522020","522021","524223","523022","3904","526224","520951","2919","80583","NA","508743","2924","78220","526224","527082","NA","NA","Sternberg Task","66","67274","86","yes","1024"
"77.01149425287356","77.01149425287356","782.5172413793103","782.5172413793103","black","experiment","legacy","legacy","legacy","0","uniform","1","undefined","1","right","86","86","86","86","0","86","86","0","0","NA","86","0","0","86","86","0","NA","Sat Oct 15 16:47:50 2022","The main experiment item","yes","Lab_3.1.osexp","C:\Users\Owner\Downloads","no","mono","no","18","no","white","no","yes","768","legacy","74","11","C:/Users/Owner/Downloads/MC-subject-2.csv","legacy","1 3 2 6 9","Lentiform Loewenfeld","3.3.12","0","n","0","right","right","right","right","NA","805","979","2362","805","NA","NA","NA","2","legacy","5","1024","2","48000","-16","experiment","2","even","5","528155","528157","530359","529158","3904","532360","527088","2919","80583","NA","508743","2924","78220","532360","533167","NA","NA","Sternberg Task","67","68079","87","yes","1024"
"77.27272727272727","77.27272727272727","783.4204545454545","783.4204545454545","black","experiment","legacy","legacy","legacy","0","uniform","1","undefined","1","right","87","87","87","87","0","87","87","0","0","NA","87","0","0","87","87","0","NA","Sat Oct 15 16:47:50 2022","The main experiment item","yes","Lab_3.1.osexp","C:\Users\Owner\Downloads","no","mono","no","18","no","white","no","yes","768","legacy","75","11","C:/Users/Owner/Downloads/MC-subject-2.csv","legacy","7 6 4 8 1 2","Lentiform Loewenfeld","3.3.12","0","n","0","right","right","right","right","NA","862","979","2362","862","NA","NA","NA","2","legacy","6","1024","2","48000","-16","experiment","2","even","9","534239","534241","536443","535242","3904","538444","533173","2919","80583","NA","508743","2924","78220","538444","539308","NA","NA","Sternberg Task","68","68941","88","yes","1024"
"77.52808988764045","77.52808988764045","782.6067415730337","782.6067415730337","black","experiment","legacy","legacy","legacy","0","uniform","1","undefined","1","right","88","88","88","88","0","88","88","0","0","NA","88","0","0","88","88","0","NA","Sat Oct 15 16:47:50 2022","The main experiment item","yes","Lab_3.1.osexp","C:\Users\Owner\Downloads","no","mono","no","18","no","white","no","yes","768","legacy","76","11","C:/Users/Owner/Downloads/MC-subject-2.csv","legacy","8 5 7 3 6","Lentiform Loewenfeld","3.3.12","0","n","0","right","right","right","right","NA","711","979","2362","711","NA","NA","NA","2","legacy","5","1024","2","48000","-16","experiment","2","even","9","540377","540378","542580","541379","3904","544581","539312","2919","80583","NA","508743","2924","78220","544581","545294","NA","NA","Sternberg Task","69","69652","89","yes","1024"
"76.66666666666667","76.66666666666667","781.4666666666667","781.4666666666667","black","experiment","legacy","legacy","legacy","0","uniform","0","undefined","0","left","89","89","89","89","0","89","89","0","0","NA","89","0","0","89","89","0","NA","Sat Oct 15 16:47:50 2022","The main experiment item","yes","Lab_3.1.osexp","C:\Users\Owner\Downloads","no","mono","no","18","no","white","no","yes","768","legacy","77","11","C:/Users/Owner/Downloads/MC-subject-2.csv","legacy","7 8 4 6 9 5","Lentiform Loewenfeld","3.3.12","4","y","0","right","right","right","right","NA","680","979","2362","680","NA","NA","NA","2","legacy","6","1024","2","48000","-16","experiment","2","even","6","546365","546366","548568","547367","3904","550569","545299","2919","80583","NA","508743","2924","78220","550569","551251","NA","NA","Sternberg Task","69","70332","90","yes","1024"
"75.82417582417582","75.82417582417582","782.7362637362637","782.7362637362637","black","experiment","legacy","legacy","legacy","0","uniform","0","undefined","0","left","90","90","90","90","0","90","90","0","0","NA","90","0","0","90","90","0","NA","Sat Oct 15 16:47:50 2022","The main experiment item","yes","Lab_3.1.osexp","C:\Users\Owner\Downloads","no","mono","no","18","no","white","no","yes","768","legacy","78","11","C:/Users/Owner/Downloads/MC-subject-2.csv","legacy","5 2 9 6 1 7","Lentiform Loewenfeld","3.3.12","3","y","0","right","right","right","right","NA","897","979","2362","897","NA","NA","NA","2","legacy","6","1024","2","48000","-16","experiment","2","even","9","552321","552323","554525","553324","3904","556526","545299","2919","80583","NA","551255","2924","78220","556526","557425","NA","NA","Sternberg Task","69","71229","91","yes","1024"
"76.08695652173913","76.08695652173913","782.3804347826087","782.3804347826087","black","experiment","legacy","legacy","legacy","0","uniform","1","undefined","1","left","91","91","91","91","0","91","91","0","0","NA","91","0","0","91","91","0","NA","Sat Oct 15 16:47:50 2022","The main experiment item","yes","Lab_3.1.osexp","C:\Users\Owner\Downloads","no","mono","no","18","no","white","no","yes","768","legacy","79","11","C:/Users/Owner/Downloads/MC-subject-2.csv","legacy","7 8 6 3 1","Lentiform Loewenfeld","3.3.12","5","y","0","left","right","right","left","NA","750","979","2362","750","NA","NA","NA","2","legacy","5","1024","2","48000","-16","experiment","2","even","1","558493","558494","560696","559495","3904","562697","545299","2919","80583","NA","557429","2924","78220","562697","563449","NA","NA","Sternberg Task","70","71979","92","yes","1024"
"76.34408602150538","76.34408602150538","783.2043010752689","783.2043010752689","black","experiment","legacy","legacy","legacy","0","uniform","1","undefined","1","right","92","92","92","92","0","92","92","0","0","NA","92","0","0","92","92","0","NA","Sat Oct 15 16:47:50 2022","The main experiment item","yes","Lab_3.1.osexp","C:\Users\Owner\Downloads","no","mono","no","18","no","white","no","yes","768","legacy","80","11","C:/Users/Owner/Downloads/MC-subject-2.csv","legacy","7 3 2 8","Lentiform Loewenfeld","3.3.12","0","n","0","right","right","right","right","NA","859","979","2362","859","NA","NA","NA","2","legacy","4","1024","2","48000","-16","experiment","2","even","4","564528","564529","566731","565530","3904","568732","563453","2919","80583","NA","557429","2924","78220","568732","569592","NA","NA","Sternberg Task","71","72838","93","yes","1024"
"76.59574468085107","76.59574468085107","781.8404255319149","781.8404255319149","black","experiment","legacy","legacy","legacy","0","uniform","1","undefined","1","left","93","93","93","93","0","93","93","0","0","NA","93","0","0","93","93","0","NA","Sat Oct 15 16:47:50 2022","The main experiment item","yes","Lab_3.1.osexp","C:\Users\Owner\Downloads","no","mono","no","18","no","white","no","yes","768","legacy","81","11","C:/Users/Owner/Downloads/MC-subject-2.csv","legacy","7 2 3","Lentiform Loewenfeld","3.3.12","3","y","0","left","right","right","left","NA","655","979","2362","655","NA","NA","NA","2","legacy","3","1024","2","48000","-16","experiment","2","even","3","570664","570665","572866","571666","3904","574867","569599","2919","80583","NA","557429","2924","78220","574867","575523","NA","NA","Sternberg Task","72","73493","94","yes","1024"
"75.78947368421052","75.78947368421052","780.9368421052632","780.9368421052632","black","experiment","legacy","legacy","legacy","0","uniform","0","undefined","0","left","94","94","94","94","0","94","94","0","0","NA","94","0","0","94","94","0","NA","Sat Oct 15 16:47:50 2022","The main experiment item","yes","Lab_3.1.osexp","C:\Users\Owner\Downloads","no","mono","no","18","no","white","no","yes","768","legacy","82","11","C:/Users/Owner/Downloads/MC-subject-2.csv","legacy","9 5 8 1","Lentiform Loewenfeld","3.3.12","2","y","0","right","right","right","right","NA","696","979","2362","696","NA","NA","NA","2","legacy","4","1024","2","48000","-16","experiment","2","even","5","576597","576598","578800","577599","3904","580801","575532","2919","80583","NA","557429","2924","78220","580801","581499","NA","NA","Sternberg Task","72","74189","95","yes","1024"
"76.04166666666667","76.04166666666667","780.8229166666666","780.8229166666666","black","experiment","legacy","legacy","legacy","0","uniform","1","undefined","1","right","95","95","95","95","0","95","95","0","0","NA","95","0","0","95","95","0","NA","Sat Oct 15 16:47:50 2022","The main experiment item","yes","Lab_3.1.osexp","C:\Users\Owner\Downloads","no","mono","no","18","no","white","no","yes","768","legacy","83","11","C:/Users/Owner/Downloads/MC-subject-2.csv","legacy","4 2 6 9","Lentiform Loewenfeld","3.3.12","0","n","0","right","right","right","right","NA","770","979","2362","770","NA","NA","NA","2","legacy","4","1024","2","48000","-16","experiment","2","even","7","582573","582575","584777","583576","3904","586778","575532","2919","80583","NA","581503","2924","78220","586778","587550","NA","NA","Sternberg Task","73","74959","96","yes","1024"
"76.28865979381443","76.28865979381443","780.5567010309278","780.5567010309278","black","experiment","legacy","legacy","legacy","0","uniform","1","undefined","1","left","96","96","96","96","0","96","96","0","0","NA","96","0","0","96","96","0","NA","Sat Oct 15 16:47:50 2022","The main experiment item","yes","Lab_3.1.osexp","C:\Users\Owner\Downloads","no","mono","no","18","no","white","no","yes","768","legacy","84","11","C:/Users/Owner/Downloads/MC-subject-2.csv","legacy","2 4 8 5 1 3","Lentiform Loewenfeld","3.3.12","1","y","0","left","right","right","left","NA","755","979","2362","755","NA","NA","NA","2","legacy","6","1024","2","48000","-16","experiment","2","even","2","588627","588629","590831","589630","3904","592832","587554","2919","80583","NA","581503","2924","78220","592832","593588","NA","NA","Sternberg Task","74","75714","97","yes","1024"
"76.53061224489795","76.53061224489795","780.7448979591836","780.7448979591836","black","experiment","legacy","legacy","legacy","0","uniform","1","undefined","1","left","97","97","97","97","0","97","97","0","0","NA","97","0","0","97","97","0","NA","Sat Oct 15 16:47:50 2022","The main experiment item","yes","Lab_3.1.osexp","C:\Users\Owner\Downloads","no","mono","no","18","no","white","no","yes","768","legacy","85","11","C:/Users/Owner/Downloads/MC-subject-2.csv","legacy","6 2","Lentiform Loewenfeld","3.3.12","1","y","0","left","right","right","left","NA","799","979","2362","799","NA","NA","NA","2","legacy","2","1024","2","48000","-16","experiment","2","even","6","594670","594671","596873","595672","3904","598874","593592","2919","80583","NA","581503","2924","78220","598874","599675","NA","NA","Sternberg Task","75","76513","98","yes","1024"
"75.75757575757575","75.75757575757575","780.1111111111111","780.1111111111111","black","experiment","legacy","legacy","legacy","0","uniform","0","undefined","0","left","98","98","98","98","0","98","98","0","0","NA","98","0","0","98","98","0","NA","Sat Oct 15 16:47:50 2022","The main experiment item","yes","Lab_3.1.osexp","C:\Users\Owner\Downloads","no","mono","no","18","no","white","no","yes","768","legacy","86","11","C:/Users/Owner/Downloads/MC-subject-2.csv","legacy","3 9 7 6 4","Lentiform Loewenfeld","3.3.12","3","y","0","right","right","right","right","NA","718","979","2362","718","NA","NA","NA","2","legacy","5","1024","2","48000","-16","experiment","2","even","7","600750","600751","602953","601752","3904","604954","599681","2919","80583","NA","581503","2924","78220","604954","605674","NA","NA","Sternberg Task","75","77231","99","yes","1024"
"76","76","789.11","789.11","black","experiment","legacy","legacy","legacy","0","uniform","1","undefined","1","left","99","99","99","99","0","99","99","0","0","NA","99","0","0","99","99","0","NA","Sat Oct 15 16:47:50 2022","The main experiment item","yes","Lab_3.1.osexp","C:\Users\Owner\Downloads","no","mono","no","18","no","white","no","yes","768","legacy","87","11","C:/Users/Owner/Downloads/MC-subject-2.csv","legacy","9 3 8 2 1 4","Lentiform Loewenfeld","3.3.12","3","y","0","left","right","right","left","NA","1680","979","2362","1680","NA","NA","NA","2","legacy","6","1024","2","48000","-16","experiment","2","even","8","606746","606747","608949","607748","3904","610950","599681","2919","80583","NA","605678","2924","78220","610950","612632","NA","NA","Sternberg Task","76","78911","100","yes","1024"
"76.23762376237623","76.23762376237623","788.6039603960396","788.6039603960396","black","experiment","legacy","legacy","legacy","0","uniform","1","undefined","1","right","100","100","100","100","0","100","100","0","0","NA","100","0","0","100","100","0","NA","Sat Oct 15 16:47:50 2022","The main experiment item","yes","Lab_3.1.osexp","C:\Users\Owner\Downloads","no","mono","no","18","no","white","no","yes","768","legacy","88","11","C:/Users/Owner/Downloads/MC-subject-2.csv","legacy","2 7 5","Lentiform Loewenfeld","3.3.12","0","n","0","right","right","right","right","NA","738","979","2362","738","NA","NA","NA","2","legacy","3","1024","2","48000","-16","experiment","2","even","8","613705","613706","615908","614707","3904","617909","612639","2919","80583","NA","605678","2924","78220","617909","618648","NA","NA","Sternberg Task","77","79649","101","yes","1024"
"76.47058823529412","76.47058823529412","787.2058823529412","787.2058823529412","black","experiment","legacy","legacy","legacy","0","uniform","1","undefined","1","left","101","101","101","101","0","101","101","0","0","NA","101","0","0","101","101","0","NA","Sat Oct 15 16:47:50 2022","The main experiment item","yes","Lab_3.1.osexp","C:\Users\Owner\Downloads","no","mono","no","18","no","white","no","yes","768","legacy","89","11","C:/Users/Owner/Downloads/MC-subject-2.csv","legacy","2 4 6 9","Lentiform Loewenfeld","3.3.12","3","y","0","left","right","right","left","NA","646","979","2362","646","NA","NA","NA","2","legacy","4","1024","2","48000","-16","experiment","2","even","6","619719","619722","621924","620723","3904","623925","618653","2919","80583","NA","605678","2924","78220","623925","624572","NA","NA","Sternberg Task","78","80295","102","yes","1024"
"76.69902912621359","76.69902912621359","787.495145631068","787.495145631068","black","experiment","legacy","legacy","legacy","0","uniform","1","undefined","1","left","102","102","102","102","0","102","102","0","0","NA","102","0","0","102","102","0","NA","Sat Oct 15 16:47:50 2022","The main experiment item","yes","Lab_3.1.osexp","C:\Users\Owner\Downloads","no","mono","no","18","no","white","no","yes","768","legacy","90","11","C:/Users/Owner/Downloads/MC-subject-2.csv","legacy","9 5 3 8 4","Lentiform Loewenfeld","3.3.12","1","y","0","left","right","right","left","NA","817","979","2362","817","NA","NA","NA","2","legacy","5","1024","2","48000","-16","experiment","2","even","9","625652","625653","627855","626654","3904","629856","624578","2919","80583","NA","605678","2924","78220","629856","630674","NA","NA","Sternberg Task","79","81112","103","yes","1024"
"75.96153846153847","75.96153846153847","791.4903846153846","791.4903846153846","black","experiment","legacy","legacy","legacy","0","uniform","0","undefined","0","left","103","103","103","103","0","103","103","0","0","NA","103","0","0","103","103","0","NA","Sat Oct 15 16:47:50 2022","The main experiment item","yes","Lab_3.1.osexp","C:\Users\Owner\Downloads","no","mono","no","18","no","white","no","yes","768","legacy","91","11","C:/Users/Owner/Downloads/MC-subject-2.csv","legacy","8 9 5 6 7","Lentiform Loewenfeld","3.3.12","1","y","0","right","right","right","right","NA","1203","979","2362","1203","NA","NA","NA","2","legacy","5","1024","2","48000","-16","experiment","2","even","8","631746","631747","633950","632748","3904","635951","630681","2919","80583","NA","605678","2924","78220","635951","637156","NA","NA","Sternberg Task","79","82315","104","yes","1024"
"76.19047619047619","76.19047619047619","794.4190476190477","794.4190476190477","black","experiment","legacy","legacy","legacy","0","uniform","1","undefined","1","right","104","104","104","104","0","104","104","0","0","NA","104","0","0","104","104","0","NA","Sat Oct 15 16:47:50 2022","The main experiment item","yes","Lab_3.1.osexp","C:\Users\Owner\Downloads","no","mono","no","18","no","white","no","yes","768","legacy","92","11","C:/Users/Owner/Downloads/MC-subject-2.csv","legacy","7 4 2 8 1 9","Lentiform Loewenfeld","3.3.12","0","n","0","right","right","right","right","NA","1099","979","2362","1099","NA","NA","NA","2","legacy","6","1024","2","48000","-16","experiment","2","even","5","638233","638235","640437","639236","3904","642438","630681","2919","80583","NA","637162","2924","78220","642438","643539","NA","NA","Sternberg Task","80","83414","105","yes","1024"
"76.41509433962264","76.41509433962264","792.5849056603773","792.5849056603773","black","experiment","legacy","legacy","legacy","0","uniform","1","undefined","1","left","105","105","105","105","0","105","105","0","0","NA","105","0","0","105","105","0","NA","Sat Oct 15 16:47:50 2022","The main experiment item","yes","Lab_3.1.osexp","C:\Users\Owner\Downloads","no","mono","no","18","no","white","no","yes","768","legacy","93","11","C:/Users/Owner/Downloads/MC-subject-2.csv","legacy","4 6 5 8","Lentiform Loewenfeld","3.3.12","1","y","0","left","right","right","left","NA","600","979","2362","600","NA","NA","NA","2","legacy","4","1024","2","48000","-16","experiment","2","even","4","644610","644611","646813","645612","3904","648814","643545","2919","80583","NA","637162","2924","78220","648814","649416","NA","NA","Sternberg Task","81","84014","106","yes","1024"
"75.70093457943925","75.70093457943925","793.3831775700935","793.3831775700935","black","experiment","legacy","legacy","legacy","0","uniform","0","undefined","0","left","106","106","106","106","0","106","106","0","0","NA","106","0","0","106","106","0","NA","Sat Oct 15 16:47:50 2022","The main experiment item","yes","Lab_3.1.osexp","C:\Users\Owner\Downloads","no","mono","no","18","no","white","no","yes","768","legacy","94","11","C:/Users/Owner/Downloads/MC-subject-2.csv","legacy","6 7 8 5","Lentiform Loewenfeld","3.3.12","3","y","0","right","right","right","right","NA","878","979","2362","878","NA","NA","NA","2","legacy","4","1024","2","48000","-16","experiment","2","even","8","650494","650496","652698","651497","3904","654699","649421","2919","80583","NA","637162","2924","78220","654699","655579","NA","NA","Sternberg Task","81","84892","107","yes","1024"
"75.92592592592592","75.92592592592592","793.0185185185185","793.0185185185185","black","experiment","legacy","legacy","legacy","0","uniform","1","undefined","1","right","107","107","107","107","0","107","107","0","0","NA","107","0","0","107","107","0","NA","Sat Oct 15 16:47:50 2022","The main experiment item","yes","Lab_3.1.osexp","C:\Users\Owner\Downloads","no","mono","no","18","no","white","no","yes","768","legacy","95","11","C:/Users/Owner/Downloads/MC-subject-2.csv","legacy","1","Lentiform Loewenfeld","3.3.12","0","n","0","right","right","right","right","NA","754","979","2362","754","NA","NA","NA","2","legacy","1","1024","2","48000","-16","experiment","2","even","7","656648","656649","658851","657650","3904","660852","649421","2919","80583","NA","655584","2924","78220","660852","661608","NA","NA","Sternberg Task","82","85646","108","yes","1024"
"75.22935779816514","75.22935779816514","792.5412844036697","792.5412844036697","black","experiment","legacy","legacy","legacy","0","uniform","0","undefined","0","right","108","108","108","108","0","108","108","0","0","NA","108","0","0","108","108","0","NA","Sat Oct 15 16:47:50 2022","The main experiment item","yes","Lab_3.1.osexp","C:\Users\Owner\Downloads","no","mono","no","18","no","white","no","yes","768","legacy","96","11","C:/Users/Owner/Downloads/MC-subject-2.csv","legacy","6 9 4 5 3 2","Lentiform Loewenfeld","3.3.12","0","n","0","left","right","right","left","NA","741","979","2362","741","NA","NA","NA","2","legacy","6","1024","2","48000","-16","experiment","2","even","8","662678","662679","664881","663680","3904","666882","661613","2919","80583","NA","655584","2924","78220","666882","667625","NA","NA","Sternberg Task","82","86387","109","yes","1024"
"74.54545454545455","74.54545454545455","793.8272727272728","793.8272727272728","black","experiment","legacy","legacy","legacy","0","uniform","0","undefined","0","right","109","109","109","109","0","109","109","0","0","NA","109","0","0","109","109","0","NA","Sat Oct 15 16:47:50 2022","The main experiment item","yes","Lab_3.1.osexp","C:\Users\Owner\Downloads","no","mono","no","18","no","white","no","yes","768","legacy","97","11","C:/Users/Owner/Downloads/MC-subject-2.csv","legacy","3 4 2","Lentiform Loewenfeld","3.3.12","0","n","0","left","right","right","left","NA","934","979","2362","934","NA","NA","NA","2","legacy","3","1024","2","48000","-16","experiment","2","even","5","668700","668701","670903","669702","3904","672904","661613","2919","80583","NA","667633","2924","78220","672904","673840","NA","NA","Sternberg Task","82","87321","110","yes","1024"
"74.77477477477477","74.77477477477477","792.8108108108108","792.8108108108108","black","experiment","legacy","legacy","legacy","0","uniform","1","undefined","1","right","110","110","110","110","0","110","110","0","0","NA","110","0","0","110","110","0","NA","Sat Oct 15 16:47:50 2022","The main experiment item","yes","Lab_3.1.osexp","C:\Users\Owner\Downloads","no","mono","no","18","no","white","no","yes","768","legacy","98","11","C:/Users/Owner/Downloads/MC-subject-2.csv","legacy","5 9 2 3","Lentiform Loewenfeld","3.3.12","0","n","0","right","right","right","right","NA","681","979","2362","681","NA","NA","NA","2","legacy","4","1024","2","48000","-16","experiment","2","even","8","674909","674911","677113","675912","3904","679114","661613","2919","80583","NA","673844","2924","78220","679114","679797","NA","NA","Sternberg Task","83","88002","111","yes","1024"
"74.10714285714286","74.10714285714286","792.8482142857143","792.8482142857143","black","experiment","legacy","legacy","legacy","0","uniform","0","undefined","0","left","111","111","111","111","0","111","111","0","0","NA","111","0","0","111","111","0","NA","Sat Oct 15 16:47:50 2022","The main experiment item","yes","Lab_3.1.osexp","C:\Users\Owner\Downloads","no","mono","no","18","no","white","no","yes","768","legacy","99","11","C:/Users/Owner/Downloads/MC-subject-2.csv","legacy","6 1 2","Lentiform Loewenfeld","3.3.12","3","y","0","right","right","right","right","NA","797","979","2362","797","NA","NA","NA","2","legacy","3","1024","2","48000","-16","experiment","2","even","2","680876","680878","683080","681879","3904","685081","679805","2919","80583","NA","673844","2924","78220","685081","685879","NA","NA","Sternberg Task","83","88799","112","yes","1024"
"73.45132743362832","73.45132743362832","792.0442477876106","792.0442477876106","black","experiment","legacy","legacy","legacy","0","uniform","0","undefined","0","left","112","112","112","112","0","112","112","0","0","NA","112","0","0","112","112","0","NA","Sat Oct 15 16:47:50 2022","The main experiment item","yes","Lab_3.1.osexp","C:\Users\Owner\Downloads","no","mono","no","18","no","white","no","yes","768","legacy","100","11","C:/Users/Owner/Downloads/MC-subject-2.csv","legacy","8 5 1 3 9","Lentiform Loewenfeld","3.3.12","4","y","0","right","right","right","right","NA","702","979","2362","702","NA","NA","NA","2","legacy","5","1024","2","48000","-16","experiment","2","even","3","686952","686954","689156","687955","3904","691157","679805","2919","80583","NA","685884","2924","78220","691157","691861","NA","NA","Sternberg Task","83","89501","113","yes","1024"
"72.80701754385964","72.80701754385964","791.1666666666666","791.1666666666666","black","experiment","legacy","legacy","legacy","0","uniform","0","undefined","0","left","113","113","113","113","0","113","113","0","0","NA","113","0","0","113","113","0","NA","Sat Oct 15 16:47:50 2022","The main experiment item","yes","Lab_3.1.osexp","C:\Users\Owner\Downloads","no","mono","no","18","no","white","no","yes","768","legacy","101","11","C:/Users/Owner/Downloads/MC-subject-2.csv","legacy","7 4 2 6 3 5","Lentiform Loewenfeld","3.3.12","6","y","0","right","right","right","right","NA","692","979","2362","692","NA","NA","NA","2","legacy","6","1024","2","48000","-16","experiment","2","even","5","692934","692936","695138","693937","3904","697139","679805","2919","80583","NA","691865","2924","78220","697139","697833","NA","NA","Sternberg Task","83","90193","114","yes","1024"
"73.04347826086956","73.04347826086956","790.9565217391304","790.9565217391304","black","experiment","legacy","legacy","legacy","0","uniform","1","undefined","1","right","114","114","114","114","0","114","114","0","0","NA","114","0","0","114","114","0","NA","Sat Oct 15 16:47:50 2022","The main experiment item","yes","Lab_3.1.osexp","C:\Users\Owner\Downloads","no","mono","no","18","no","white","no","yes","768","legacy","102","11","C:/Users/Owner/Downloads/MC-subject-2.csv","legacy","2 8 7 9 5 3","Lentiform Loewenfeld","3.3.12","0","n","0","right","right","right","right","NA","767","979","2362","767","NA","NA","NA","2","legacy","6","1024","2","48000","-16","experiment","2","even","6","698905","698906","701108","699907","3904","703109","679805","2919","80583","NA","697840","2924","78220","703109","703877","NA","NA","Sternberg Task","84","90960","115","yes","1024"
"73.27586206896552","73.27586206896552","789.0689655172414","789.0689655172414","black","experiment","legacy","legacy","legacy","0","uniform","1","undefined","1","left","115","115","115","115","0","115","115","0","0","NA","115","0","0","115","115","0","NA","Sat Oct 15 16:47:50 2022","The main experiment item","yes","Lab_3.1.osexp","C:\Users\Owner\Downloads","no","mono","no","18","no","white","no","yes","768","legacy","103","11","C:/Users/Owner/Downloads/MC-subject-2.csv","legacy","8 5 4 7 3 1","Lentiform Loewenfeld","3.3.12","2","y","0","left","right","right","left","NA","572","979","2362","572","NA","NA","NA","2","legacy","6","1024","2","48000","-16","experiment","2","even","5","704952","704953","707155","705954","3904","709156","703882","2919","80583","NA","697840","2924","78220","709156","709729","NA","NA","Sternberg Task","85","91532","116","yes","1024"
