"acc","accuracy","average_response_time","avg_rt","background","block","canvas_backend","clock_backend","color_backend","compensation","coordinates","correct","correct_instruction1","correct_keyboard_response","correct_response","count_ISI","count_PracticeLoop","count_correctFeedback","count_expSequence","count_experiment","count_experimentLoop","count_fixation","count_incorrectFeedback","count_instruction1","count_instructions2","count_keyboard_response","count_memorySet","count_new_logger","count_probe","count_thankYou","datetime","description","disable_garbage_collection","experiment_file","experiment_path","font_bold","font_family","font_italic","font_size","font_underline","foreground","form_clicks","fullscreen","height","keyboard_backend","live_row","live_row_PracticeLoop","logfile","mouse_backend","numberSet","opensesame_codename","opensesame_version","posInSet","present","repeat_cycle","response","response_instruction1","response_instructions2","response_keyboard_response","response_thankYou","response_time","response_time_instruction1","response_time_instructions2","response_time_keyboard_response","response_time_thankYou","round_decimals","sampler_backend","setSize","sound_buf_size","sound_channels","sound_freq","sound_sample_size","start","subject_nr","subject_parity","target","time_ISI","time_PracticeLoop","time_correctFeedback","time_expSequence","time_experiment","time_experimentLoop","time_fixation","time_incorrectFeedback","time_instruction1","time_instructions2","time_keyboard_response","time_memorySet","time_new_logger","time_probe","time_thankYou","title","total_correct","total_response_time","total_responses","uniform_coordinates","width"
"0","0","2000","2000","black","practice","legacy","legacy","legacy","0","uniform","0","undefined","0","right","0","0","0","0","0","0","0","0","0","0","0","0","0","0","0","10/21/21 16:48:46","The main experiment item","yes","SternbergTask.osexp","C:\Users\bryan\OneDrive\Documents\School\PSYC 5316  (Quant Methods)\Lab 3","no","mono","no","18","no","white","no","yes","768","legacy","0","0","C:/Users/bryan/OneDrive/Documents/School/PSYC 5316  (Quant Methods)/Lab 3/BS-subject-3.csv","legacy","9 6 7 4 5","Lentiform Loewenfeld","3.3.9","0","n","0","None","right","NA","None","NA","2000","50811","NA","2000","NA","2","legacy","5","1024","2","48000","-16","experiment","3","odd","3","57126","53802","NA","54904","2983","NA","54908","NA","2989","NA","59136","55917","61136","59135","NA","Sternberg Task","0","2000","1","yes","1024"
"50","50","1489.5","1489.5","black","practice","legacy","legacy","legacy","0","uniform","1","undefined","1","left","1","0","1","1","0","0","1","1","0","0","1","1","1","1","0","10/21/21 16:48:46","The main experiment item","yes","SternbergTask.osexp","C:\Users\bryan\OneDrive\Documents\School\PSYC 5316  (Quant Methods)\Lab 3","no","mono","no","18","no","white","no","yes","768","legacy","1","1","C:/Users/bryan/OneDrive/Documents/School/PSYC 5316  (Quant Methods)/Lab 3/BS-subject-3.csv","legacy","4 3 1 7 9 8","Lentiform Loewenfeld","3.3.9","1","y","0","left","right","NA","left","NA","979","50811","NA","979","NA","2","legacy","6","1024","2","48000","-16","experiment","3","odd","4","64586","53802","NA","62366","2983","NA","62369","61219","2989","NA","66596","63378","67576","66595","NA","Sternberg Task","1","2979","2","yes","1024"
"33.3333333333","33.3333333333","1323.66666667","1323.66666667","black","practice","legacy","legacy","legacy","0","uniform","0","undefined","0","right","2","0","2","2","0","0","2","2","0","0","2","2","2","2","0","10/21/21 16:48:46","The main experiment item","yes","SternbergTask.osexp","C:\Users\bryan\OneDrive\Documents\School\PSYC 5316  (Quant Methods)\Lab 3","no","mono","no","18","no","white","no","yes","768","legacy","2","2","C:/Users/bryan/OneDrive/Documents/School/PSYC 5316  (Quant Methods)/Lab 3/BS-subject-3.csv","legacy","5","Lentiform Loewenfeld","3.3.9","0","n","0","left","right","NA","left","NA","992","50811","NA","992","NA","2","legacy","1","1024","2","48000","-16","experiment","3","odd","3","70939","53802","67584","68719","2983","NA","68722","61219","2989","NA","72949","69731","73942","72948","NA","Sternberg Task","1","3971","3","yes","1024"
"50","50","1172.5","1172.5","black","practice","legacy","legacy","legacy","0","uniform","1","undefined","1","left","3","0","3","3","0","0","3","3","0","0","3","3","3","3","0","10/21/21 16:48:46","The main experiment item","yes","SternbergTask.osexp","C:\Users\bryan\OneDrive\Documents\School\PSYC 5316  (Quant Methods)\Lab 3","no","mono","no","18","no","white","no","yes","768","legacy","3","3","C:/Users/bryan/OneDrive/Documents/School/PSYC 5316  (Quant Methods)/Lab 3/BS-subject-3.csv","legacy","2 9 4","Lentiform Loewenfeld","3.3.9","3","y","0","left","right","NA","left","NA","719","50811","NA","719","NA","2","legacy","3","1024","2","48000","-16","experiment","3","odd","4","77320","53802","67584","75101","2983","NA","75105","73951","2989","NA","79330","76113","80050","79329","NA","Sternberg Task","2","4690","4","yes","1024"
"60","60","1094.2","1094.2","black","practice","legacy","legacy","legacy","0","uniform","1","undefined","1","right","4","0","4","4","0","0","4","4","0","0","4","4","4","4","0","10/21/21 16:48:46","The main experiment item","yes","SternbergTask.osexp","C:\Users\bryan\OneDrive\Documents\School\PSYC 5316  (Quant Methods)\Lab 3","no","mono","no","18","no","white","no","yes","768","legacy","4","4","C:/Users/bryan/OneDrive/Documents/School/PSYC 5316  (Quant Methods)/Lab 3/BS-subject-3.csv","legacy","5 7 8 4 1 2","Lentiform Loewenfeld","3.3.9","0","n","0","right","right","NA","right","NA","781","50811","NA","781","NA","2","legacy","6","1024","2","48000","-16","experiment","3","odd","6","83420","53802","80059","81199","2983","NA","81203","73951","2989","NA","85430","82211","86212","85429","NA","Sternberg Task","3","5471","5","yes","1024"
"66.6666666667","66.6666666667","1015.16666667","1015.16666667","black","practice","legacy","legacy","legacy","0","uniform","1","undefined","1","right","5","0","5","5","0","0","5","5","0","0","5","5","5","5","0","10/21/21 16:48:46","The main experiment item","yes","SternbergTask.osexp","C:\Users\bryan\OneDrive\Documents\School\PSYC 5316  (Quant Methods)\Lab 3","no","mono","no","18","no","white","no","yes","768","legacy","5","5","C:/Users/bryan/OneDrive/Documents/School/PSYC 5316  (Quant Methods)/Lab 3/BS-subject-3.csv","legacy","3 1 9 4","Lentiform Loewenfeld","3.3.9","0","n","0","right","right","NA","right","NA","620","50811","NA","620","NA","2","legacy","4","1024","2","48000","-16","experiment","3","odd","6","89570","53802","86221","87349","2983","NA","87352","73951","2989","NA","91580","88361","92201","91579","NA","Sternberg Task","4","6091","6","yes","1024"
"71.4285714286","71.4285714286","940.428571429","940.428571429","black","practice","legacy","legacy","legacy","0","uniform","1","undefined","1","right","6","0","6","6","0","0","6","6","0","0","6","6","6","6","0","10/21/21 16:48:46","The main experiment item","yes","SternbergTask.osexp","C:\Users\bryan\OneDrive\Documents\School\PSYC 5316  (Quant Methods)\Lab 3","no","mono","no","18","no","white","no","yes","768","legacy","6","6","C:/Users/bryan/OneDrive/Documents/School/PSYC 5316  (Quant Methods)/Lab 3/BS-subject-3.csv","legacy","4 1 5","Lentiform Loewenfeld","3.3.9","0","n","0","right","right","NA","right","NA","492","50811","NA","492","NA","2","legacy","3","1024","2","48000","-16","experiment","3","odd","2","95567","53802","92210","93347","2983","NA","93351","73951","2989","NA","97577","94359","98069","97576","NA","Sternberg Task","5","6583","7","yes","1024"
"75","75","894","894","black","practice","legacy","legacy","legacy","0","uniform","1","undefined","1","left","7","0","7","7","0","0","7","7","0","0","7","7","7","7","0","10/21/21 16:48:46","The main experiment item","yes","SternbergTask.osexp","C:\Users\bryan\OneDrive\Documents\School\PSYC 5316  (Quant Methods)\Lab 3","no","mono","no","18","no","white","no","yes","768","legacy","7","7","C:/Users/bryan/OneDrive/Documents/School/PSYC 5316  (Quant Methods)/Lab 3/BS-subject-3.csv","legacy","6","Lentiform Loewenfeld","3.3.9","1","y","0","left","right","NA","left","NA","569","50811","NA","569","NA","2","legacy","1","1024","2","48000","-16","experiment","3","odd","6","101442","53802","98076","99221","2983","NA","99225","73951","2989","NA","103451","100233","104021","103450","NA","Sternberg Task","6","7152","8","yes","1024"
"77.7777777778","77.7777777778","880.222222222","880.222222222","black","practice","legacy","legacy","legacy","0","uniform","1","undefined","1","left","8","0","8","8","0","0","8","8","0","0","8","8","8","8","0","10/21/21 16:48:46","The main experiment item","yes","SternbergTask.osexp","C:\Users\bryan\OneDrive\Documents\School\PSYC 5316  (Quant Methods)\Lab 3","no","mono","no","18","no","white","no","yes","768","legacy","8","8","C:/Users/bryan/OneDrive/Documents/School/PSYC 5316  (Quant Methods)/Lab 3/BS-subject-3.csv","legacy","1 7 9 8 5","Lentiform Loewenfeld","3.3.9","4","y","0","left","right","NA","left","NA","770","50811","NA","770","NA","2","legacy","5","1024","2","48000","-16","experiment","3","odd","8","107389","53802","104030","105173","2983","NA","105176","73951","2989","NA","109398","106185","110168","109397","NA","Sternberg Task","7","7922","9","yes","1024"
"80","80","874.6","874.6","black","practice","legacy","legacy","legacy","0","uniform","1","undefined","1","left","9","0","9","9","0","0","9","9","0","0","9","9","9","9","0","10/21/21 16:48:46","The main experiment item","yes","SternbergTask.osexp","C:\Users\bryan\OneDrive\Documents\School\PSYC 5316  (Quant Methods)\Lab 3","no","mono","no","18","no","white","no","yes","768","legacy","9","9","C:/Users/bryan/OneDrive/Documents/School/PSYC 5316  (Quant Methods)/Lab 3/BS-subject-3.csv","legacy","4 8","Lentiform Loewenfeld","3.3.9","1","y","0","left","right","NA","left","NA","824","50811","NA","824","NA","2","legacy","2","1024","2","48000","-16","experiment","3","odd","4","113539","53802","110177","111318","2983","NA","111322","73951","2989","NA","115549","112330","116373","115548","NA","Sternberg Task","8","8746","10","yes","1024"
"81.8181818182","81.8181818182","832.909090909","832.909090909","black","practice","legacy","legacy","legacy","0","uniform","1","undefined","1","right","10","0","10","10","0","0","10","10","0","0","10","10","10","10","0","10/21/21 16:48:46","The main experiment item","yes","SternbergTask.osexp","C:\Users\bryan\OneDrive\Documents\School\PSYC 5316  (Quant Methods)\Lab 3","no","mono","no","18","no","white","no","yes","768","legacy","10","10","C:/Users/bryan/OneDrive/Documents/School/PSYC 5316  (Quant Methods)/Lab 3/BS-subject-3.csv","legacy","2 1","Lentiform Loewenfeld","3.3.9","0","n","0","right","right","NA","right","NA","416","50811","NA","416","NA","2","legacy","2","1024","2","48000","-16","experiment","3","odd","5","119740","53802","116380","117524","2983","NA","117528","73951","2989","NA","121750","118536","122167","121749","NA","Sternberg Task","9","9162","11","yes","1024"
"83.3333333333","83.3333333333","808.666666667","808.666666667","black","practice","legacy","legacy","legacy","0","uniform","1","undefined","1","left","11","0","11","11","0","0","11","11","0","0","11","11","11","11","0","10/21/21 16:48:46","The main experiment item","yes","SternbergTask.osexp","C:\Users\bryan\OneDrive\Documents\School\PSYC 5316  (Quant Methods)\Lab 3","no","mono","no","18","no","white","no","yes","768","legacy","11","11","C:/Users/bryan/OneDrive/Documents/School/PSYC 5316  (Quant Methods)/Lab 3/BS-subject-3.csv","legacy","1 5 2 9","Lentiform Loewenfeld","3.3.9","2","y","0","left","right","NA","left","NA","542","50811","NA","542","NA","2","legacy","4","1024","2","48000","-16","experiment","3","odd","5","125540","53802","122176","123319","2983","NA","123323","73951","2989","NA","127549","124331","128092","127548","NA","Sternberg Task","10","9704","12","yes","1024"
"76.9230769231","76.9230769231","804","804","black","experiment","legacy","legacy","legacy","0","uniform","0","undefined","0","left","12","0","12","12","0","0","12","12","0","0","12","12","12","12","0","10/21/21 16:48:46","The main experiment item","yes","SternbergTask.osexp","C:\Users\bryan\OneDrive\Documents\School\PSYC 5316  (Quant Methods)\Lab 3","no","mono","no","18","no","white","no","yes","768","legacy","0","11","C:/Users/bryan/OneDrive/Documents/School/PSYC 5316  (Quant Methods)/Lab 3/BS-subject-3.csv","legacy","7 8 6 3 1","Lentiform Loewenfeld","3.3.9","5","y","0","right","right","right","right","NA","748","50811","127092","748","NA","2","legacy","5","1024","2","48000","-16","experiment","3","odd","1","258621","53802","128099","256400","2983","256245","256404","73951","2989","129152","260631","257412","261380","260630","NA","Sternberg Task","10","10452","13","yes","1024"
"78.5714285714","78.5714285714","804.071428571","804.071428571","black","experiment","legacy","legacy","legacy","0","uniform","1","undefined","1","right","13","0","13","13","0","0","13","13","0","0","13","13","13","13","0","10/21/21 16:48:46","The main experiment item","yes","SternbergTask.osexp","C:\Users\bryan\OneDrive\Documents\School\PSYC 5316  (Quant Methods)\Lab 3","no","mono","no","18","no","white","no","yes","768","legacy","1","11","C:/Users/bryan/OneDrive/Documents/School/PSYC 5316  (Quant Methods)/Lab 3/BS-subject-3.csv","legacy","5 3 2 6 9 8","Lentiform Loewenfeld","3.3.9","0","n","0","right","right","right","right","NA","805","50811","127092","805","NA","2","legacy","6","1024","2","48000","-16","experiment","3","odd","4","264760","53802","128099","262539","2983","256245","262543","261389","2989","129152","266770","263551","267576","266769","NA","Sternberg Task","11","11257","14","yes","1024"
"80","80","784.666666667","784.666666667","black","experiment","legacy","legacy","legacy","0","uniform","1","undefined","1","right","14","0","14","14","0","0","14","14","0","0","14","14","14","14","0","10/21/21 16:48:46","The main experiment item","yes","SternbergTask.osexp","C:\Users\bryan\OneDrive\Documents\School\PSYC 5316  (Quant Methods)\Lab 3","no","mono","no","18","no","white","no","yes","768","legacy","2","11","C:/Users/bryan/OneDrive/Documents/School/PSYC 5316  (Quant Methods)/Lab 3/BS-subject-3.csv","legacy","1 6 4","Lentiform Loewenfeld","3.3.9","0","n","0","right","right","right","right","NA","513","50811","127092","513","NA","2","legacy","3","1024","2","48000","-16","experiment","3","odd","7","270947","53802","267585","268728","2983","256245","268731","261389","2989","129152","272957","269739","273471","272956","NA","Sternberg Task","12","11770","15","yes","1024"
"81.25","81.25","792.4375","792.4375","black","experiment","legacy","legacy","legacy","0","uniform","1","undefined","1","left","15","0","15","15","0","0","15","15","0","0","15","15","15","15","0","10/21/21 16:48:46","The main experiment item","yes","SternbergTask.osexp","C:\Users\bryan\OneDrive\Documents\School\PSYC 5316  (Quant Methods)\Lab 3","no","mono","no","18","no","white","no","yes","768","legacy","3","11","C:/Users/bryan/OneDrive/Documents/School/PSYC 5316  (Quant Methods)/Lab 3/BS-subject-3.csv","legacy","4 9 7 8 5 3","Lentiform Loewenfeld","3.3.9","4","y","0","left","right","right","left","NA","909","50811","127092","909","NA","2","legacy","6","1024","2","48000","-16","experiment","3","odd","8","276848","53802","273480","274630","2983","256245","274634","261389","2989","129152","278858","275639","279768","278857","NA","Sternberg Task","13","12679","16","yes","1024"
"82.3529411765","82.3529411765","786.176470588","786.176470588","black","experiment","legacy","legacy","legacy","0","uniform","1","undefined","1","right","16","0","16","16","0","0","16","16","0","0","16","16","16","16","0","10/21/21 16:48:46","The main experiment item","yes","SternbergTask.osexp","C:\Users\bryan\OneDrive\Documents\School\PSYC 5316  (Quant Methods)\Lab 3","no","mono","no","18","no","white","no","yes","768","legacy","4","11","C:/Users/bryan/OneDrive/Documents/School/PSYC 5316  (Quant Methods)/Lab 3/BS-subject-3.csv","legacy","8 2 1 4 5 9","Lentiform Loewenfeld","3.3.9","0","n","0","right","right","right","right","NA","686","50811","127092","686","NA","2","legacy","6","1024","2","48000","-16","experiment","3","odd","7","283148","53802","279777","280927","2983","256245","280931","261389","2989","129152","285158","281939","285845","285157","NA","Sternberg Task","14","13365","17","yes","1024"
"77.7777777778","77.7777777778","775","775","black","experiment","legacy","legacy","legacy","0","uniform","0","undefined","0","right","17","0","17","17","0","0","17","17","0","0","17","17","17","17","0","10/21/21 16:48:46","The main experiment item","yes","SternbergTask.osexp","C:\Users\bryan\OneDrive\Documents\School\PSYC 5316  (Quant Methods)\Lab 3","no","mono","no","18","no","white","no","yes","768","legacy","5","11","C:/Users/bryan/OneDrive/Documents/School/PSYC 5316  (Quant Methods)/Lab 3/BS-subject-3.csv","legacy","2 5 1 4","Lentiform Loewenfeld","3.3.9","0","n","0","left","right","right","left","NA","585","50811","127092","585","NA","2","legacy","4","1024","2","48000","-16","experiment","3","odd","6","289224","53802","285854","287004","2983","256245","287008","261389","2989","129152","291233","288016","291819","291232","NA","Sternberg Task","14","13950","18","yes","1024"
"78.9473684211","78.9473684211","765.157894737","765.157894737","black","experiment","legacy","legacy","legacy","0","uniform","1","undefined","1","right","18","0","18","18","0","0","18","18","0","0","18","18","18","18","0","10/21/21 16:48:46","The main experiment item","yes","SternbergTask.osexp","C:\Users\bryan\OneDrive\Documents\School\PSYC 5316  (Quant Methods)\Lab 3","no","mono","no","18","no","white","no","yes","768","legacy","6","11","C:/Users/bryan/OneDrive/Documents/School/PSYC 5316  (Quant Methods)/Lab 3/BS-subject-3.csv","legacy","3 4 2","Lentiform Loewenfeld","3.3.9","0","n","0","right","right","right","right","NA","588","50811","127092","588","NA","2","legacy","3","1024","2","48000","-16","experiment","3","odd","5","295191","53802","285854","292971","2983","256245","292975","291828","2989","129152","297201","293983","297793","297200","NA","Sternberg Task","15","14538","19","yes","1024"
"80","80","776.3","776.3","black","experiment","legacy","legacy","legacy","0","uniform","1","undefined","1","right","19","0","19","19","0","0","19","19","0","0","19","19","19","19","0","10/21/21 16:48:46","The main experiment item","yes","SternbergTask.osexp","C:\Users\bryan\OneDrive\Documents\School\PSYC 5316  (Quant Methods)\Lab 3","no","mono","no","18","no","white","no","yes","768","legacy","7","11","C:/Users/bryan/OneDrive/Documents/School/PSYC 5316  (Quant Methods)/Lab 3/BS-subject-3.csv","legacy","7 9","Lentiform Loewenfeld","3.3.9","0","n","0","right","right","right","right","NA","988","50811","127092","988","NA","2","legacy","2","1024","2","48000","-16","experiment","3","odd","1","301164","53802","297811","298943","2983","256245","298947","291828","2989","129152","303173","299955","304162","303172","NA","Sternberg Task","16","15526","20","yes","1024"
"80.9523809524","80.9523809524","777.571428571","777.571428571","black","experiment","legacy","legacy","legacy","0","uniform","1","undefined","1","right","20","0","20","20","0","0","20","20","0","0","20","20","20","20","0","10/21/21 16:48:46","The main experiment item","yes","SternbergTask.osexp","C:\Users\bryan\OneDrive\Documents\School\PSYC 5316  (Quant Methods)\Lab 3","no","mono","no","18","no","white","no","yes","768","legacy","8","11","C:/Users/bryan/OneDrive/Documents/School/PSYC 5316  (Quant Methods)/Lab 3/BS-subject-3.csv","legacy","7 8 6 1","Lentiform Loewenfeld","3.3.9","0","n","0","right","right","right","right","NA","803","50811","127092","803","NA","2","legacy","4","1024","2","48000","-16","experiment","3","odd","3","307562","53802","304171","305342","2983","256245","305346","291828","2989","129152","309572","306354","310375","309571","NA","Sternberg Task","17","16329","21","yes","1024"
"81.8181818182","81.8181818182","779.590909091","779.590909091","black","experiment","legacy","legacy","legacy","0","uniform","1","undefined","1","right","21","0","21","21","0","0","21","21","0","0","21","21","21","21","0","10/21/21 16:48:46","The main experiment item","yes","SternbergTask.osexp","C:\Users\bryan\OneDrive\Documents\School\PSYC 5316  (Quant Methods)\Lab 3","no","mono","no","18","no","white","no","yes","768","legacy","9","11","C:/Users/bryan/OneDrive/Documents/School/PSYC 5316  (Quant Methods)/Lab 3/BS-subject-3.csv","legacy","8 6 3 4 7","Lentiform Loewenfeld","3.3.9","0","n","0","right","right","right","right","NA","822","50811","127092","822","NA","2","legacy","5","1024","2","48000","-16","experiment","3","odd","1","313755","53802","310384","311534","2983","256245","311538","291828","2989","129152","315765","312546","316589","315764","NA","Sternberg Task","18","17151","22","yes","1024"
"82.6086956522","82.6086956522","790.47826087","790.47826087","black","experiment","legacy","legacy","legacy","0","uniform","1","undefined","1","left","22","0","22","22","0","0","22","22","0","0","22","22","22","22","0","10/21/21 16:48:46","The main experiment item","yes","SternbergTask.osexp","C:\Users\bryan\OneDrive\Documents\School\PSYC 5316  (Quant Methods)\Lab 3","no","mono","no","18","no","white","no","yes","768","legacy","10","11","C:/Users/bryan/OneDrive/Documents/School/PSYC 5316  (Quant Methods)/Lab 3/BS-subject-3.csv","legacy","9 1 6 7 8","Lentiform Loewenfeld","3.3.9","1","y","0","left","right","right","left","NA","1030","50811","127092","1030","NA","2","legacy","5","1024","2","48000","-16","experiment","3","odd","9","319972","53802","316609","317751","2983","256245","317755","291828","2989","129152","321981","318764","323013","321980","NA","Sternberg Task","19","18181","23","yes","1024"
"83.3333333333","83.3333333333","786.041666667","786.041666667","black","experiment","legacy","legacy","legacy","0","uniform","1","undefined","1","right","23","0","23","23","0","0","23","23","0","0","23","23","23","23","0","10/21/21 16:48:46","The main experiment item","yes","SternbergTask.osexp","C:\Users\bryan\OneDrive\Documents\School\PSYC 5316  (Quant Methods)\Lab 3","no","mono","no","18","no","white","no","yes","768","legacy","11","11","C:/Users/bryan/OneDrive/Documents/School/PSYC 5316  (Quant Methods)/Lab 3/BS-subject-3.csv","legacy","2 6 4 3 9","Lentiform Loewenfeld","3.3.9","0","n","0","right","right","right","right","NA","684","50811","127092","684","NA","2","legacy","5","1024","2","48000","-16","experiment","3","odd","1","326394","53802","323030","324172","2983","256245","324176","291828","2989","129152","328403","325185","329088","328402","NA","Sternberg Task","20","18865","24","yes","1024"
"84","84","791.52","791.52","black","experiment","legacy","legacy","legacy","0","uniform","1","undefined","1","left","24","0","24","24","0","0","24","24","0","0","24","24","24","24","0","10/21/21 16:48:46","The main experiment item","yes","SternbergTask.osexp","C:\Users\bryan\OneDrive\Documents\School\PSYC 5316  (Quant Methods)\Lab 3","no","mono","no","18","no","white","no","yes","768","legacy","12","11","C:/Users/bryan/OneDrive/Documents/School/PSYC 5316  (Quant Methods)/Lab 3/BS-subject-3.csv","legacy","6 5","Lentiform Loewenfeld","3.3.9","2","y","0","left","right","right","left","NA","923","50811","127092","923","NA","2","legacy","2","1024","2","48000","-16","experiment","3","odd","5","332470","53802","329096","330249","2983","256245","330253","291828","2989","129152","334479","331261","335403","334478","NA","Sternberg Task","21","19788","25","yes","1024"
"84.6153846154","84.6153846154","790","790","black","experiment","legacy","legacy","legacy","0","uniform","1","undefined","1","right","25","0","25","25","0","0","25","25","0","0","25","25","25","25","0","10/21/21 16:48:46","The main experiment item","yes","SternbergTask.osexp","C:\Users\bryan\OneDrive\Documents\School\PSYC 5316  (Quant Methods)\Lab 3","no","mono","no","18","no","white","no","yes","768","legacy","13","11","C:/Users/bryan/OneDrive/Documents/School/PSYC 5316  (Quant Methods)/Lab 3/BS-subject-3.csv","legacy","6 9 4 5 3 2","Lentiform Loewenfeld","3.3.9","0","n","0","right","right","right","right","NA","752","50811","127092","752","NA","2","legacy","6","1024","2","48000","-16","experiment","3","odd","8","338816","53802","335412","336594","2983","256245","336598","291828","2989","129152","340826","337607","341581","340825","NA","Sternberg Task","22","20540","26","yes","1024"
"85.1851851852","85.1851851852","780.518518519","780.518518519","black","experiment","legacy","legacy","legacy","0","uniform","1","undefined","1","right","26","0","26","26","0","0","26","26","0","0","26","26","26","26","0","10/21/21 16:48:46","The main experiment item","yes","SternbergTask.osexp","C:\Users\bryan\OneDrive\Documents\School\PSYC 5316  (Quant Methods)\Lab 3","no","mono","no","18","no","white","no","yes","768","legacy","14","11","C:/Users/bryan/OneDrive/Documents/School/PSYC 5316  (Quant Methods)/Lab 3/BS-subject-3.csv","legacy","7 1","Lentiform Loewenfeld","3.3.9","0","n","0","right","right","right","right","NA","534","50811","127092","534","NA","2","legacy","2","1024","2","48000","-16","experiment","3","odd","8","344966","53802","341600","342745","2983","256245","342749","291828","2989","129152","346975","343757","347512","346974","NA","Sternberg Task","23","21074","27","yes","1024"
"85.7142857143","85.7142857143","779.892857143","779.892857143","black","experiment","legacy","legacy","legacy","0","uniform","1","undefined","1","left","27","0","27","27","0","0","27","27","0","0","27","27","27","27","0","10/21/21 16:48:46","The main experiment item","yes","SternbergTask.osexp","C:\Users\bryan\OneDrive\Documents\School\PSYC 5316  (Quant Methods)\Lab 3","no","mono","no","18","no","white","no","yes","768","legacy","15","11","C:/Users/bryan/OneDrive/Documents/School/PSYC 5316  (Quant Methods)/Lab 3/BS-subject-3.csv","legacy","7 4 2 6 3 5","Lentiform Loewenfeld","3.3.9","6","y","0","left","right","right","left","NA","763","50811","127092","763","NA","2","legacy","6","1024","2","48000","-16","experiment","3","odd","5","350902","53802","347531","348682","2983","256245","348686","291828","2989","129152","352911","349694","353675","352910","NA","Sternberg Task","24","21837","28","yes","1024"
"86.2068965517","86.2068965517","787.827586207","787.827586207","black","experiment","legacy","legacy","legacy","0","uniform","1","undefined","1","left","28","0","28","28","0","0","28","28","0","0","28","28","28","28","0","10/21/21 16:48:46","The main experiment item","yes","SternbergTask.osexp","C:\Users\bryan\OneDrive\Documents\School\PSYC 5316  (Quant Methods)\Lab 3","no","mono","no","18","no","white","no","yes","768","legacy","16","11","C:/Users/bryan/OneDrive/Documents/School/PSYC 5316  (Quant Methods)/Lab 3/BS-subject-3.csv","legacy","3 9 7 6 4","Lentiform Loewenfeld","3.3.9","3","y","0","left","right","right","left","NA","1010","50811","127092","1010","NA","2","legacy","5","1024","2","48000","-16","experiment","3","odd","7","357050","53802","353684","354829","2983","256245","354833","291828","2989","129152","359059","355841","360072","359058","NA","Sternberg Task","25","22847","29","yes","1024"
"86.6666666667","86.6666666667","783.166666667","783.166666667","black","experiment","legacy","legacy","legacy","0","uniform","1","undefined","1","left","29","0","29","29","0","0","29","29","0","0","29","29","29","29","0","10/21/21 16:48:46","The main experiment item","yes","SternbergTask.osexp","C:\Users\bryan\OneDrive\Documents\School\PSYC 5316  (Quant Methods)\Lab 3","no","mono","no","18","no","white","no","yes","768","legacy","17","11","C:/Users/bryan/OneDrive/Documents/School/PSYC 5316  (Quant Methods)/Lab 3/BS-subject-3.csv","legacy","9 6 2 4 1","Lentiform Loewenfeld","3.3.9","4","y","0","left","right","right","left","NA","648","50811","127092","648","NA","2","legacy","5","1024","2","48000","-16","experiment","3","odd","4","363466","53802","360091","361246","2983","256245","361250","291828","2989","129152","365476","362258","366125","365475","NA","Sternberg Task","26","23495","30","yes","1024"
"87.0967741935","87.0967741935","794.161290323","794.161290323","black","experiment","legacy","legacy","legacy","0","uniform","1","undefined","1","left","30","0","30","30","0","0","30","30","0","0","30","30","30","30","0","10/21/21 16:48:46","The main experiment item","yes","SternbergTask.osexp","C:\Users\bryan\OneDrive\Documents\School\PSYC 5316  (Quant Methods)\Lab 3","no","mono","no","18","no","white","no","yes","768","legacy","18","11","C:/Users/bryan/OneDrive/Documents/School/PSYC 5316  (Quant Methods)/Lab 3/BS-subject-3.csv","legacy","2 4 8 5 1 3","Lentiform Loewenfeld","3.3.9","1","y","0","left","right","right","left","NA","1124","50811","127092","1124","NA","2","legacy","6","1024","2","48000","-16","experiment","3","odd","2","369500","53802","366135","367280","2983","256245","367284","291828","2989","129152","371510","368292","372637","371509","NA","Sternberg Task","27","24619","31","yes","1024"
"84.375","84.375","799.65625","799.65625","black","experiment","legacy","legacy","legacy","0","uniform","0","undefined","0","right","31","0","31","31","0","0","31","31","0","0","31","31","31","31","0","10/21/21 16:48:46","The main experiment item","yes","SternbergTask.osexp","C:\Users\bryan\OneDrive\Documents\School\PSYC 5316  (Quant Methods)\Lab 3","no","mono","no","18","no","white","no","yes","768","legacy","19","11","C:/Users/bryan/OneDrive/Documents/School/PSYC 5316  (Quant Methods)/Lab 3/BS-subject-3.csv","legacy","6 7 5 9","Lentiform Loewenfeld","3.3.9","0","n","0","left","right","right","left","NA","970","50811","127092","970","NA","2","legacy","4","1024","2","48000","-16","experiment","3","odd","2","376050","53802","372656","373829","2983","256245","373833","291828","2989","129152","378060","374841","379032","378059","NA","Sternberg Task","27","25589","32","yes","1024"
"84.8484848485","84.8484848485","797.848484848","797.848484848","black","experiment","legacy","legacy","legacy","0","uniform","1","undefined","1","left","32","0","32","32","0","0","32","32","0","0","32","32","32","32","0","10/21/21 16:48:46","The main experiment item","yes","SternbergTask.osexp","C:\Users\bryan\OneDrive\Documents\School\PSYC 5316  (Quant Methods)\Lab 3","no","mono","no","18","no","white","no","yes","768","legacy","20","11","C:/Users/bryan/OneDrive/Documents/School/PSYC 5316  (Quant Methods)/Lab 3/BS-subject-3.csv","legacy","9 5 3 8 4","Lentiform Loewenfeld","3.3.9","1","y","0","left","right","right","left","NA","740","50811","127092","740","NA","2","legacy","5","1024","2","48000","-16","experiment","3","odd","9","382427","53802","372656","380206","2983","256245","380210","379052","2989","129152","384437","381218","385178","384436","NA","Sternberg Task","28","26329","33","yes","1024"
"85.2941176471","85.2941176471","793.058823529","793.058823529","black","experiment","legacy","legacy","legacy","0","uniform","1","undefined","1","right","33","0","33","33","0","0","33","33","0","0","33","33","33","33","0","10/21/21 16:48:46","The main experiment item","yes","SternbergTask.osexp","C:\Users\bryan\OneDrive\Documents\School\PSYC 5316  (Quant Methods)\Lab 3","no","mono","no","18","no","white","no","yes","768","legacy","21","11","C:/Users/bryan/OneDrive/Documents/School/PSYC 5316  (Quant Methods)/Lab 3/BS-subject-3.csv","legacy","7 1 5 6 3","Lentiform Loewenfeld","3.3.9","0","n","0","right","right","right","right","NA","635","50811","127092","635","NA","2","legacy","5","1024","2","48000","-16","experiment","3","odd","8","388586","53802","385187","386365","2983","256245","386369","379052","2989","129152","390596","387377","391234","390595","NA","Sternberg Task","29","26964","34","yes","1024"
"85.7142857143","85.7142857143","786.342857143","786.342857143","black","experiment","legacy","legacy","legacy","0","uniform","1","undefined","1","left","34","0","34","34","0","0","34","34","0","0","34","34","34","34","0","10/21/21 16:48:46","The main experiment item","yes","SternbergTask.osexp","C:\Users\bryan\OneDrive\Documents\School\PSYC 5316  (Quant Methods)\Lab 3","no","mono","no","18","no","white","no","yes","768","legacy","22","11","C:/Users/bryan/OneDrive/Documents/School/PSYC 5316  (Quant Methods)/Lab 3/BS-subject-3.csv","legacy","8 5 1 3 9","Lentiform Loewenfeld","3.3.9","4","y","0","left","right","right","left","NA","558","50811","127092","558","NA","2","legacy","5","1024","2","48000","-16","experiment","3","odd","3","394611","53802","391251","392396","2983","256245","392400","379052","2989","129152","396621","393408","397180","396620","NA","Sternberg Task","30","27522","35","yes","1024"
"86.1111111111","86.1111111111","778.388888889","778.388888889","black","experiment","legacy","legacy","legacy","0","uniform","1","undefined","1","left","35","0","35","35","0","0","35","35","0","0","35","35","35","35","0","10/21/21 16:48:46","The main experiment item","yes","SternbergTask.osexp","C:\Users\bryan\OneDrive\Documents\School\PSYC 5316  (Quant Methods)\Lab 3","no","mono","no","18","no","white","no","yes","768","legacy","23","11","C:/Users/bryan/OneDrive/Documents/School/PSYC 5316  (Quant Methods)/Lab 3/BS-subject-3.csv","legacy","9 1 7 2","Lentiform Loewenfeld","3.3.9","2","y","0","left","right","right","left","NA","500","50811","127092","500","NA","2","legacy","4","1024","2","48000","-16","experiment","3","odd","1","400552","53802","397188","398337","2983","256245","398341","379052","2989","129152","402561","399350","403064","402560","NA","Sternberg Task","31","28022","36","yes","1024"
"86.4864864865","86.4864864865","777.972972973","777.972972973","black","experiment","legacy","legacy","legacy","0","uniform","1","undefined","1","right","36","0","36","36","0","0","36","36","0","0","36","36","36","36","0","10/21/21 16:48:46","The main experiment item","yes","SternbergTask.osexp","C:\Users\bryan\OneDrive\Documents\School\PSYC 5316  (Quant Methods)\Lab 3","no","mono","no","18","no","white","no","yes","768","legacy","24","11","C:/Users/bryan/OneDrive/Documents/School/PSYC 5316  (Quant Methods)/Lab 3/BS-subject-3.csv","legacy","3 9 1","Lentiform Loewenfeld","3.3.9","0","n","0","right","right","right","right","NA","763","50811","127092","763","NA","2","legacy","3","1024","2","48000","-16","experiment","3","odd","7","406455","53802","403083","404234","2983","256245","404238","379052","2989","129152","408465","405246","409231","408464","NA","Sternberg Task","32","28785","37","yes","1024"
"86.8421052632","86.8421052632","777.447368421","777.447368421","black","experiment","legacy","legacy","legacy","0","uniform","1","undefined","1","left","37","0","37","37","0","0","37","37","0","0","37","37","37","37","0","10/21/21 16:48:46","The main experiment item","yes","SternbergTask.osexp","C:\Users\bryan\OneDrive\Documents\School\PSYC 5316  (Quant Methods)\Lab 3","no","mono","no","18","no","white","no","yes","768","legacy","25","11","C:/Users/bryan/OneDrive/Documents/School/PSYC 5316  (Quant Methods)/Lab 3/BS-subject-3.csv","legacy","9 5 8 1","Lentiform Loewenfeld","3.3.9","2","y","0","left","right","right","left","NA","758","50811","127092","758","NA","2","legacy","4","1024","2","48000","-16","experiment","3","odd","5","412617","53802","409250","410396","2983","256245","410400","379052","2989","129152","414627","411408","415386","414626","NA","Sternberg Task","33","29543","38","yes","1024"
"87.1794871795","87.1794871795","767.923076923","767.923076923","black","experiment","legacy","legacy","legacy","0","uniform","1","undefined","1","right","38","0","38","38","0","0","38","38","0","0","38","38","38","38","0","10/21/21 16:48:46","The main experiment item","yes","SternbergTask.osexp","C:\Users\bryan\OneDrive\Documents\School\PSYC 5316  (Quant Methods)\Lab 3","no","mono","no","18","no","white","no","yes","768","legacy","26","11","C:/Users/bryan/OneDrive/Documents/School/PSYC 5316  (Quant Methods)/Lab 3/BS-subject-3.csv","legacy","5 2","Lentiform Loewenfeld","3.3.9","0","n","0","right","right","right","right","NA","406","50811","127092","406","NA","2","legacy","2","1024","2","48000","-16","experiment","3","odd","7","418759","53802","415395","416538","2983","256245","416542","379052","2989","129152","420763","417550","421170","420763","NA","Sternberg Task","34","29949","39","yes","1024"
"87.5","87.5","772.975","772.975","black","experiment","legacy","legacy","legacy","0","uniform","1","undefined","1","right","39","0","39","39","0","0","39","39","0","0","39","39","39","39","0","10/21/21 16:48:46","The main experiment item","yes","SternbergTask.osexp","C:\Users\bryan\OneDrive\Documents\School\PSYC 5316  (Quant Methods)\Lab 3","no","mono","no","18","no","white","no","yes","768","legacy","27","11","C:/Users/bryan/OneDrive/Documents/School/PSYC 5316  (Quant Methods)/Lab 3/BS-subject-3.csv","legacy","7 3 2 8","Lentiform Loewenfeld","3.3.9","0","n","0","right","right","right","right","NA","970","50811","127092","970","NA","2","legacy","4","1024","2","48000","-16","experiment","3","odd","4","424541","53802","421176","422330","2983","256245","422334","379052","2989","129152","426551","423337","427522","426550","NA","Sternberg Task","35","30919","40","yes","1024"
"87.8048780488","87.8048780488","775.902439024","775.902439024","black","experiment","legacy","legacy","legacy","0","uniform","1","undefined","1","right","40","0","40","40","0","0","40","40","0","0","40","40","40","40","0","10/21/21 16:48:46","The main experiment item","yes","SternbergTask.osexp","C:\Users\bryan\OneDrive\Documents\School\PSYC 5316  (Quant Methods)\Lab 3","no","mono","no","18","no","white","no","yes","768","legacy","28","11","C:/Users/bryan/OneDrive/Documents/School/PSYC 5316  (Quant Methods)/Lab 3/BS-subject-3.csv","legacy","7 4 2 8 1 9","Lentiform Loewenfeld","3.3.9","0","n","0","right","right","right","right","NA","893","50811","127092","893","NA","2","legacy","6","1024","2","48000","-16","experiment","3","odd","5","430905","53802","427531","428684","2983","256245","428688","379052","2989","129152","432915","429696","433808","432914","NA","Sternberg Task","36","31812","41","yes","1024"
"88.0952380952","88.0952380952","772.952380952","772.952380952","black","experiment","legacy","legacy","legacy","0","uniform","1","undefined","1","right","41","0","41","41","0","0","41","41","0","0","41","41","41","41","0","10/21/21 16:48:46","The main experiment item","yes","SternbergTask.osexp","C:\Users\bryan\OneDrive\Documents\School\PSYC 5316  (Quant Methods)\Lab 3","no","mono","no","18","no","white","no","yes","768","legacy","29","11","C:/Users/bryan/OneDrive/Documents/School/PSYC 5316  (Quant Methods)/Lab 3/BS-subject-3.csv","legacy","5 7 3","Lentiform Loewenfeld","3.3.9","0","n","0","right","right","right","right","NA","652","50811","127092","652","NA","2","legacy","3","1024","2","48000","-16","experiment","3","odd","9","437181","53802","433817","434961","2983","256245","434965","379052","2989","129152","439190","435973","439845","439189","NA","Sternberg Task","37","32464","42","yes","1024"
"88.3720930233","88.3720930233","773.11627907","773.11627907","black","experiment","legacy","legacy","legacy","0","uniform","1","undefined","1","left","42","0","42","42","0","0","42","42","0","0","42","42","42","42","0","10/21/21 16:48:46","The main experiment item","yes","SternbergTask.osexp","C:\Users\bryan\OneDrive\Documents\School\PSYC 5316  (Quant Methods)\Lab 3","no","mono","no","18","no","white","no","yes","768","legacy","30","11","C:/Users/bryan/OneDrive/Documents/School/PSYC 5316  (Quant Methods)/Lab 3/BS-subject-3.csv","legacy","6 1 2","Lentiform Loewenfeld","3.3.9","3","y","0","left","right","right","left","NA","780","50811","127092","780","NA","2","legacy","3","1024","2","48000","-16","experiment","3","odd","2","443236","53802","439864","441015","2983","256245","441019","379052","2989","129152","445246","442027","446029","445245","NA","Sternberg Task","38","33244","43","yes","1024"
"88.6363636364","88.6363636364","777.863636364","777.863636364","black","experiment","legacy","legacy","legacy","0","uniform","1","undefined","1","left","43","0","43","43","0","0","43","43","0","0","43","43","43","43","0","10/21/21 16:48:46","The main experiment item","yes","SternbergTask.osexp","C:\Users\bryan\OneDrive\Documents\School\PSYC 5316  (Quant Methods)\Lab 3","no","mono","no","18","no","white","no","yes","768","legacy","31","11","C:/Users/bryan/OneDrive/Documents/School/PSYC 5316  (Quant Methods)/Lab 3/BS-subject-3.csv","legacy","6 9 3 1","Lentiform Loewenfeld","3.3.9","4","y","0","left","right","right","left","NA","982","50811","127092","982","NA","2","legacy","4","1024","2","48000","-16","experiment","3","odd","1","449424","53802","446048","447203","2983","256245","447207","379052","2989","129152","451434","448215","452417","451433","NA","Sternberg Task","39","34226","44","yes","1024"
"88.8888888889","88.8888888889","772.8","772.8","black","experiment","legacy","legacy","legacy","0","uniform","1","undefined","1","left","44","0","44","44","0","0","44","44","0","0","44","44","44","44","0","10/21/21 16:48:46","The main experiment item","yes","SternbergTask.osexp","C:\Users\bryan\OneDrive\Documents\School\PSYC 5316  (Quant Methods)\Lab 3","no","mono","no","18","no","white","no","yes","768","legacy","32","11","C:/Users/bryan/OneDrive/Documents/School/PSYC 5316  (Quant Methods)/Lab 3/BS-subject-3.csv","legacy","6 8 9 3 4 9","Lentiform Loewenfeld","3.3.9","5","y","0","left","right","right","left","NA","550","50811","127092","550","NA","2","legacy","6","1024","2","48000","-16","experiment","3","odd","4","455820","53802","452426","453599","2983","256245","453603","379052","2989","129152","457830","454611","458383","457829","NA","Sternberg Task","40","34776","45","yes","1024"
"89.1304347826","89.1304347826","767.782608696","767.782608696","black","experiment","legacy","legacy","legacy","0","uniform","1","undefined","1","left","45","0","45","45","0","0","45","45","0","0","45","45","45","45","0","10/21/21 16:48:46","The main experiment item","yes","SternbergTask.osexp","C:\Users\bryan\OneDrive\Documents\School\PSYC 5316  (Quant Methods)\Lab 3","no","mono","no","18","no","white","no","yes","768","legacy","33","11","C:/Users/bryan/OneDrive/Documents/School/PSYC 5316  (Quant Methods)/Lab 3/BS-subject-3.csv","legacy","3 4","Lentiform Loewenfeld","3.3.9","1","y","0","left","right","right","left","NA","542","50811","127092","542","NA","2","legacy","2","1024","2","48000","-16","experiment","3","odd","3","461775","53802","458402","459553","2983","256245","459557","379052","2989","129152","463785","460566","464328","463784","NA","Sternberg Task","41","35318","46","yes","1024"
"87.2340425532","87.2340425532","777.70212766","777.70212766","black","experiment","legacy","legacy","legacy","0","uniform","0","undefined","0","right","46","0","46","46","0","0","46","46","0","0","46","46","46","46","0","10/21/21 16:48:46","The main experiment item","yes","SternbergTask.osexp","C:\Users\bryan\OneDrive\Documents\School\PSYC 5316  (Quant Methods)\Lab 3","no","mono","no","18","no","white","no","yes","768","legacy","34","11","C:/Users/bryan/OneDrive/Documents/School/PSYC 5316  (Quant Methods)/Lab 3/BS-subject-3.csv","legacy","1 6 4 3 9 7","Lentiform Loewenfeld","3.3.9","0","n","0","left","right","right","left","NA","1234","50811","127092","1234","NA","2","legacy","6","1024","2","48000","-16","experiment","3","odd","8","467713","53802","464337","465492","2983","256245","465496","379052","2989","129152","469723","466504","470959","469722","NA","Sternberg Task","41","36552","47","yes","1024"
"87.5","87.5","776.645833333","776.645833333","black","experiment","legacy","legacy","legacy","0","uniform","1","undefined","1","right","47","0","47","47","0","0","47","47","0","0","47","47","47","47","0","10/21/21 16:48:46","The main experiment item","yes","SternbergTask.osexp","C:\Users\bryan\OneDrive\Documents\School\PSYC 5316  (Quant Methods)\Lab 3","no","mono","no","18","no","white","no","yes","768","legacy","35","11","C:/Users/bryan/OneDrive/Documents/School/PSYC 5316  (Quant Methods)/Lab 3/BS-subject-3.csv","legacy","4 8 1 2","Lentiform Loewenfeld","3.3.9","0","n","0","right","right","right","right","NA","727","50811","127092","727","NA","2","legacy","4","1024","2","48000","-16","experiment","3","odd","7","474343","53802","464337","472123","2983","256245","472127","470967","2989","129152","476354","473135","477082","476352","NA","Sternberg Task","42","37279","48","yes","1024"
"85.7142857143","85.7142857143","780.897959184","780.897959184","black","experiment","legacy","legacy","legacy","0","uniform","0","undefined","0","right","48","0","48","48","0","0","48","48","0","0","48","48","48","48","0","10/21/21 16:48:46","The main experiment item","yes","SternbergTask.osexp","C:\Users\bryan\OneDrive\Documents\School\PSYC 5316  (Quant Methods)\Lab 3","no","mono","no","18","no","white","no","yes","768","legacy","36","11","C:/Users/bryan/OneDrive/Documents/School/PSYC 5316  (Quant Methods)/Lab 3/BS-subject-3.csv","legacy","8 5 7 3 6","Lentiform Loewenfeld","3.3.9","0","n","0","left","right","right","left","NA","985","50811","127092","985","NA","2","legacy","5","1024","2","48000","-16","experiment","3","odd","9","480460","53802","477088","478240","2983","256245","478244","470967","2989","129152","482470","479252","483457","482469","NA","Sternberg Task","42","38264","49","yes","1024"
"86","86","778.76","778.76","black","experiment","legacy","legacy","legacy","0","uniform","1","undefined","1","right","49","0","49","49","0","0","49","49","0","0","49","49","49","49","0","10/21/21 16:48:46","The main experiment item","yes","SternbergTask.osexp","C:\Users\bryan\OneDrive\Documents\School\PSYC 5316  (Quant Methods)\Lab 3","no","mono","no","18","no","white","no","yes","768","legacy","37","11","C:/Users/bryan/OneDrive/Documents/School/PSYC 5316  (Quant Methods)/Lab 3/BS-subject-3.csv","legacy","6 8 4","Lentiform Loewenfeld","3.3.9","0","n","0","right","right","right","right","NA","674","50811","127092","674","NA","2","legacy","3","1024","2","48000","-16","experiment","3","odd","1","486829","53802","477088","484609","2983","256245","484613","483463","2989","129152","488839","485621","489514","488838","NA","Sternberg Task","43","38938","50","yes","1024"
"86.2745098039","86.2745098039","783.705882353","783.705882353","black","experiment","legacy","legacy","legacy","0","uniform","1","undefined","1","left","50","0","50","50","0","0","50","50","0","0","50","50","50","50","0","10/21/21 16:48:46","The main experiment item","yes","SternbergTask.osexp","C:\Users\bryan\OneDrive\Documents\School\PSYC 5316  (Quant Methods)\Lab 3","no","mono","no","18","no","white","no","yes","768","legacy","38","11","C:/Users/bryan/OneDrive/Documents/School/PSYC 5316  (Quant Methods)/Lab 3/BS-subject-3.csv","legacy","3 5 4 7","Lentiform Loewenfeld","3.3.9","1","y","0","left","right","right","left","NA","1031","50811","127092","1031","NA","2","legacy","4","1024","2","48000","-16","experiment","3","odd","3","492892","53802","489522","490672","2983","256245","490676","483463","2989","129152","494902","491684","495934","494901","NA","Sternberg Task","44","39969","51","yes","1024"
"86.5384615385","86.5384615385","787.153846154","787.153846154","black","experiment","legacy","legacy","legacy","0","uniform","1","undefined","1","right","51","0","51","51","0","0","51","51","0","0","51","51","51","51","0","10/21/21 16:48:46","The main experiment item","yes","SternbergTask.osexp","C:\Users\bryan\OneDrive\Documents\School\PSYC 5316  (Quant Methods)\Lab 3","no","mono","no","18","no","white","no","yes","768","legacy","39","11","C:/Users/bryan/OneDrive/Documents/School/PSYC 5316  (Quant Methods)/Lab 3/BS-subject-3.csv","legacy","9 5 3 2 8 6","Lentiform Loewenfeld","3.3.9","0","n","0","right","right","right","right","NA","963","50811","127092","963","NA","2","legacy","6","1024","2","48000","-16","experiment","3","odd","7","499309","53802","495943","497088","2983","256245","497092","483463","2989","129152","501318","498100","502282","501317","NA","Sternberg Task","45","40932","52","yes","1024"
"86.7924528302","86.7924528302","786.603773585","786.603773585","black","experiment","legacy","legacy","legacy","0","uniform","1","undefined","1","left","52","0","52","52","0","0","52","52","0","0","52","52","52","52","0","10/21/21 16:48:46","The main experiment item","yes","SternbergTask.osexp","C:\Users\bryan\OneDrive\Documents\School\PSYC 5316  (Quant Methods)\Lab 3","no","mono","no","18","no","white","no","yes","768","legacy","40","11","C:/Users/bryan/OneDrive/Documents/School/PSYC 5316  (Quant Methods)/Lab 3/BS-subject-3.csv","legacy","1 4 9 3 2 5","Lentiform Loewenfeld","3.3.9","3","y","0","left","right","right","left","NA","758","50811","127092","758","NA","2","legacy","6","1024","2","48000","-16","experiment","3","odd","9","505663","53802","502290","503443","2983","256245","503446","483463","2989","129152","507672","504455","508431","507672","NA","Sternberg Task","46","41690","53","yes","1024"
"87.037037037","87.037037037","783.555555556","783.555555556","black","experiment","legacy","legacy","legacy","0","uniform","1","undefined","1","left","53","0","53","53","0","0","53","53","0","0","53","53","53","53","0","10/21/21 16:48:46","The main experiment item","yes","SternbergTask.osexp","C:\Users\bryan\OneDrive\Documents\School\PSYC 5316  (Quant Methods)\Lab 3","no","mono","no","18","no","white","no","yes","768","legacy","41","11","C:/Users/bryan/OneDrive/Documents/School/PSYC 5316  (Quant Methods)/Lab 3/BS-subject-3.csv","legacy","2 8 5 1","Lentiform Loewenfeld","3.3.9","4","y","0","left","right","right","left","NA","622","50811","127092","622","NA","2","legacy","4","1024","2","48000","-16","experiment","3","odd","1","511815","53802","508438","509594","2983","256245","509598","483463","2989","129152","513818","510606","514441","513818","NA","Sternberg Task","47","42312","54","yes","1024"
"87.2727272727","87.2727272727","783.181818182","783.181818182","black","experiment","legacy","legacy","legacy","0","uniform","1","undefined","1","left","54","0","54","54","0","0","54","54","0","0","54","54","54","54","0","10/21/21 16:48:46","The main experiment item","yes","SternbergTask.osexp","C:\Users\bryan\OneDrive\Documents\School\PSYC 5316  (Quant Methods)\Lab 3","no","mono","no","18","no","white","no","yes","768","legacy","42","11","C:/Users/bryan/OneDrive/Documents/School/PSYC 5316  (Quant Methods)/Lab 3/BS-subject-3.csv","legacy","3 9 6 2","Lentiform Loewenfeld","3.3.9","4","y","0","left","right","right","left","NA","763","50811","127092","763","NA","2","legacy","4","1024","2","48000","-16","experiment","3","odd","2","517817","53802","514449","515597","2983","256245","515601","483463","2989","129152","519827","516609","520591","519826","NA","Sternberg Task","48","43075","55","yes","1024"
"87.5","87.5","782.25","782.25","black","experiment","legacy","legacy","legacy","0","uniform","1","undefined","1","left","55","0","55","55","0","0","55","55","0","0","55","55","55","55","0","10/21/21 16:48:46","The main experiment item","yes","SternbergTask.osexp","C:\Users\bryan\OneDrive\Documents\School\PSYC 5316  (Quant Methods)\Lab 3","no","mono","no","18","no","white","no","yes","768","legacy","43","11","C:/Users/bryan/OneDrive/Documents/School/PSYC 5316  (Quant Methods)/Lab 3/BS-subject-3.csv","legacy","2 4 6 9","Lentiform Loewenfeld","3.3.9","3","y","0","left","right","right","left","NA","731","50811","127092","731","NA","2","legacy","4","1024","2","48000","-16","experiment","3","odd","6","523968","53802","520600","521748","2983","256245","521752","483463","2989","129152","525978","522760","526711","525977","NA","Sternberg Task","49","43806","56","yes","1024"
"87.7192982456","87.7192982456","780.561403509","780.561403509","black","experiment","legacy","legacy","legacy","0","uniform","1","undefined","1","right","56","0","56","56","0","0","56","56","0","0","56","56","56","56","0","10/21/21 16:48:46","The main experiment item","yes","SternbergTask.osexp","C:\Users\bryan\OneDrive\Documents\School\PSYC 5316  (Quant Methods)\Lab 3","no","mono","no","18","no","white","no","yes","768","legacy","44","11","C:/Users/bryan/OneDrive/Documents/School/PSYC 5316  (Quant Methods)/Lab 3/BS-subject-3.csv","legacy","9 8 2 7 4","Lentiform Loewenfeld","3.3.9","0","n","0","right","right","right","right","NA","686","50811","127092","686","NA","2","legacy","5","1024","2","48000","-16","experiment","3","odd","5","530087","53802","526717","527866","2983","256245","527870","483463","2989","129152","532097","528878","532784","532096","NA","Sternberg Task","50","44492","57","yes","1024"
"87.9310344828","87.9310344828","779.017241379","779.017241379","black","experiment","legacy","legacy","legacy","0","uniform","1","undefined","1","right","57","0","57","57","0","0","57","57","0","0","57","57","57","57","0","10/21/21 16:48:46","The main experiment item","yes","SternbergTask.osexp","C:\Users\bryan\OneDrive\Documents\School\PSYC 5316  (Quant Methods)\Lab 3","no","mono","no","18","no","white","no","yes","768","legacy","45","11","C:/Users/bryan/OneDrive/Documents/School/PSYC 5316  (Quant Methods)/Lab 3/BS-subject-3.csv","legacy","2 7 5","Lentiform Loewenfeld","3.3.9","0","n","0","right","right","right","right","NA","691","50811","127092","691","NA","2","legacy","3","1024","2","48000","-16","experiment","3","odd","8","536160","53802","532793","533939","2983","256245","533943","483463","2989","129152","538169","534951","538861","538168","NA","Sternberg Task","51","45183","58","yes","1024"
"88.1355932203","88.1355932203","788.508474576","788.508474576","black","experiment","legacy","legacy","legacy","0","uniform","1","undefined","1","left","58","0","58","58","0","0","58","58","0","0","58","58","58","58","0","10/21/21 16:48:46","The main experiment item","yes","SternbergTask.osexp","C:\Users\bryan\OneDrive\Documents\School\PSYC 5316  (Quant Methods)\Lab 3","no","mono","no","18","no","white","no","yes","768","legacy","46","11","C:/Users/bryan/OneDrive/Documents/School/PSYC 5316  (Quant Methods)/Lab 3/BS-subject-3.csv","legacy","9 8 4","Lentiform Loewenfeld","3.3.9","1","y","0","left","right","right","left","NA","1339","50811","127092","1339","NA","2","legacy","3","1024","2","48000","-16","experiment","3","odd","9","542239","53802","538870","540019","2983","256245","540022","483463","2989","129152","544248","541031","545589","544247","NA","Sternberg Task","52","46522","59","yes","1024"
"88.3333333333","88.3333333333","788.8","788.8","black","experiment","legacy","legacy","legacy","0","uniform","1","undefined","1","right","59","0","59","59","0","0","59","59","0","0","59","59","59","59","0","10/21/21 16:48:46","The main experiment item","yes","SternbergTask.osexp","C:\Users\bryan\OneDrive\Documents\School\PSYC 5316  (Quant Methods)\Lab 3","no","mono","no","18","no","white","no","yes","768","legacy","47","11","C:/Users/bryan/OneDrive/Documents/School/PSYC 5316  (Quant Methods)/Lab 3/BS-subject-3.csv","legacy","7 1 8 4 9 3","Lentiform Loewenfeld","3.3.9","0","n","0","right","right","right","right","NA","806","50811","127092","806","NA","2","legacy","6","1024","2","48000","-16","experiment","3","odd","6","548962","53802","545597","546742","2983","256245","546746","483463","2989","129152","550972","547754","551780","550971","NA","Sternberg Task","53","47328","60","yes","1024"
"88.5245901639","88.5245901639","796.852459016","796.852459016","black","experiment","legacy","legacy","legacy","0","uniform","1","undefined","1","left","60","0","60","60","0","0","60","60","0","0","60","60","60","60","0","10/21/21 16:48:46","The main experiment item","yes","SternbergTask.osexp","C:\Users\bryan\OneDrive\Documents\School\PSYC 5316  (Quant Methods)\Lab 3","no","mono","no","18","no","white","no","yes","768","legacy","48","11","C:/Users/bryan/OneDrive/Documents/School/PSYC 5316  (Quant Methods)/Lab 3/BS-subject-3.csv","legacy","9 3 1 2 5","Lentiform Loewenfeld","3.3.9","4","y","0","left","right","right","left","NA","1280","50811","127092","1280","NA","2","legacy","5","1024","2","48000","-16","experiment","3","odd","2","555160","53802","551786","552939","2983","256245","552942","483463","2989","129152","557169","553951","558451","557168","NA","Sternberg Task","54","48608","61","yes","1024"
"88.7096774194","88.7096774194","801.483870968","801.483870968","black","experiment","legacy","legacy","legacy","0","uniform","1","undefined","1","left","61","0","61","61","0","0","61","61","0","0","61","61","61","61","0","10/21/21 16:48:46","The main experiment item","yes","SternbergTask.osexp","C:\Users\bryan\OneDrive\Documents\School\PSYC 5316  (Quant Methods)\Lab 3","no","mono","no","18","no","white","no","yes","768","legacy","49","11","C:/Users/bryan/OneDrive/Documents/School/PSYC 5316  (Quant Methods)/Lab 3/BS-subject-3.csv","legacy","6 9 7 4 5 1","Lentiform Loewenfeld","3.3.9","2","y","0","left","right","right","left","NA","1084","50811","127092","1084","NA","2","legacy","6","1024","2","48000","-16","experiment","3","odd","9","561827","53802","558459","559607","2983","256245","559611","483463","2989","129152","563837","560619","564922","563836","NA","Sternberg Task","55","49692","62","yes","1024"
"88.8888888889","88.8888888889","800.523809524","800.523809524","black","experiment","legacy","legacy","legacy","0","uniform","1","undefined","1","left","62","0","62","62","0","0","62","62","0","0","62","62","62","62","0","10/21/21 16:48:46","The main experiment item","yes","SternbergTask.osexp","C:\Users\bryan\OneDrive\Documents\School\PSYC 5316  (Quant Methods)\Lab 3","no","mono","no","18","no","white","no","yes","768","legacy","50","11","C:/Users/bryan/OneDrive/Documents/School/PSYC 5316  (Quant Methods)/Lab 3/BS-subject-3.csv","legacy","5 2 9 6 1 7","Lentiform Loewenfeld","3.3.9","3","y","0","left","right","right","left","NA","741","50811","127092","741","NA","2","legacy","6","1024","2","48000","-16","experiment","3","odd","9","568298","53802","564931","566083","2983","256245","566087","483463","2989","129152","570308","567090","571050","570307","NA","Sternberg Task","56","50433","63","yes","1024"
"89.0625","89.0625","797.28125","797.28125","black","experiment","legacy","legacy","legacy","0","uniform","1","undefined","1","left","63","0","63","63","0","0","63","63","0","0","63","63","63","63","0","10/21/21 16:48:46","The main experiment item","yes","SternbergTask.osexp","C:\Users\bryan\OneDrive\Documents\School\PSYC 5316  (Quant Methods)\Lab 3","no","mono","no","18","no","white","no","yes","768","legacy","51","11","C:/Users/bryan/OneDrive/Documents/School/PSYC 5316  (Quant Methods)/Lab 3/BS-subject-3.csv","legacy","7 6","Lentiform Loewenfeld","3.3.9","2","y","0","left","right","right","left","NA","593","50811","127092","593","NA","2","legacy","2","1024","2","48000","-16","experiment","3","odd","6","574430","53802","571059","572210","2983","256245","572214","483463","2989","129152","576440","573222","577035","576439","NA","Sternberg Task","57","51026","64","yes","1024"
"87.6923076923","87.6923076923","798.692307692","798.692307692","black","experiment","legacy","legacy","legacy","0","uniform","0","undefined","0","right","64","0","64","64","0","0","64","64","0","0","64","64","64","64","0","10/21/21 16:48:46","The main experiment item","yes","SternbergTask.osexp","C:\Users\bryan\OneDrive\Documents\School\PSYC 5316  (Quant Methods)\Lab 3","no","mono","no","18","no","white","no","yes","768","legacy","52","11","C:/Users/bryan/OneDrive/Documents/School/PSYC 5316  (Quant Methods)/Lab 3/BS-subject-3.csv","legacy","5 9 2 3","Lentiform Loewenfeld","3.3.9","0","n","0","left","right","right","left","NA","889","50811","127092","889","NA","2","legacy","4","1024","2","48000","-16","experiment","3","odd","8","580405","53802","577043","578184","2983","256245","578188","483463","2989","129152","582415","579196","583305","582414","NA","Sternberg Task","57","51915","65","yes","1024"
"87.8787878788","87.8787878788","798.803030303","798.803030303","black","experiment","legacy","legacy","legacy","0","uniform","1","undefined","1","left","65","0","65","65","0","0","65","65","0","0","65","65","65","65","0","10/21/21 16:48:46","The main experiment item","yes","SternbergTask.osexp","C:\Users\bryan\OneDrive\Documents\School\PSYC 5316  (Quant Methods)\Lab 3","no","mono","no","18","no","white","no","yes","768","legacy","53","11","C:/Users/bryan/OneDrive/Documents/School/PSYC 5316  (Quant Methods)/Lab 3/BS-subject-3.csv","legacy","4 1 5","Lentiform Loewenfeld","3.3.9","2","y","0","left","right","right","left","NA","806","50811","127092","806","NA","2","legacy","3","1024","2","48000","-16","experiment","3","odd","1","586691","53802","577043","584471","2983","256245","584474","583314","2989","129152","588699","585482","589508","588699","NA","Sternberg Task","58","52721","66","yes","1024"
"86.5671641791","86.5671641791","801.940298507","801.940298507","black","experiment","legacy","legacy","legacy","0","uniform","0","undefined","0","right","66","0","66","66","0","0","66","66","0","0","66","66","66","66","0","10/21/21 16:48:46","The main experiment item","yes","SternbergTask.osexp","C:\Users\bryan\OneDrive\Documents\School\PSYC 5316  (Quant Methods)\Lab 3","no","mono","no","18","no","white","no","yes","768","legacy","54","11","C:/Users/bryan/OneDrive/Documents/School/PSYC 5316  (Quant Methods)/Lab 3/BS-subject-3.csv","legacy","2 3 8 5 6 7","Lentiform Loewenfeld","3.3.9","0","n","0","left","right","right","left","NA","1009","50811","127092","1009","NA","2","legacy","6","1024","2","48000","-16","experiment","3","odd","1","592883","53802","589515","590662","2983","256245","590666","583314","2989","129152","594893","591674","595904","594892","NA","Sternberg Task","58","53730","67","yes","1024"
"86.7647058824","86.7647058824","802.558823529","802.558823529","black","experiment","legacy","legacy","legacy","0","uniform","1","undefined","1","left","67","0","67","67","0","0","67","67","0","0","67","67","67","67","0","10/21/21 16:48:46","The main experiment item","yes","SternbergTask.osexp","C:\Users\bryan\OneDrive\Documents\School\PSYC 5316  (Quant Methods)\Lab 3","no","mono","no","18","no","white","no","yes","768","legacy","55","11","C:/Users/bryan/OneDrive/Documents/School/PSYC 5316  (Quant Methods)/Lab 3/BS-subject-3.csv","legacy","6 2","Lentiform Loewenfeld","3.3.9","1","y","0","left","right","right","left","NA","844","50811","127092","844","NA","2","legacy","2","1024","2","48000","-16","experiment","3","odd","6","599277","53802","589515","597056","2983","256245","597059","595913","2989","129152","601287","598068","602133","601286","NA","Sternberg Task","59","54574","68","yes","1024"
"85.5072463768","85.5072463768","804.956521739","804.956521739","black","experiment","legacy","legacy","legacy","0","uniform","0","undefined","0","right","68","0","68","68","0","0","68","68","0","0","68","68","68","68","0","10/21/21 16:48:46","The main experiment item","yes","SternbergTask.osexp","C:\Users\bryan\OneDrive\Documents\School\PSYC 5316  (Quant Methods)\Lab 3","no","mono","no","18","no","white","no","yes","768","legacy","56","11","C:/Users/bryan/OneDrive/Documents/School/PSYC 5316  (Quant Methods)/Lab 3/BS-subject-3.csv","legacy","2 8 6 3 1","Lentiform Loewenfeld","3.3.9","0","n","0","left","right","right","left","NA","968","50811","127092","968","NA","2","legacy","5","1024","2","48000","-16","experiment","3","odd","7","605508","53802","602141","603292","2983","256245","603296","595913","2989","129152","607517","604299","608486","607516","NA","Sternberg Task","59","55542","69","yes","1024"
"85.7142857143","85.7142857143","802.985714286","802.985714286","black","experiment","legacy","legacy","legacy","0","uniform","1","undefined","1","left","69","0","69","69","0","0","69","69","0","0","69","69","69","69","0","10/21/21 16:48:46","The main experiment item","yes","SternbergTask.osexp","C:\Users\bryan\OneDrive\Documents\School\PSYC 5316  (Quant Methods)\Lab 3","no","mono","no","18","no","white","no","yes","768","legacy","57","11","C:/Users/bryan/OneDrive/Documents/School/PSYC 5316  (Quant Methods)/Lab 3/BS-subject-3.csv","legacy","7 1 8 5 6 2","Lentiform Loewenfeld","3.3.9","2","y","0","left","right","right","left","NA","667","50811","127092","667","NA","2","legacy","6","1024","2","48000","-16","experiment","3","odd","1","611870","53802","602141","609650","2983","256245","609653","608495","2989","129152","613880","610662","614549","613879","NA","Sternberg Task","60","56209","70","yes","1024"
"85.9154929577","85.9154929577","805.281690141","805.281690141","black","experiment","legacy","legacy","legacy","0","uniform","1","undefined","1","right","70","0","70","70","0","0","70","70","0","0","70","70","70","70","0","10/21/21 16:48:46","The main experiment item","yes","SternbergTask.osexp","C:\Users\bryan\OneDrive\Documents\School\PSYC 5316  (Quant Methods)\Lab 3","no","mono","no","18","no","white","no","yes","768","legacy","58","11","C:/Users/bryan/OneDrive/Documents/School/PSYC 5316  (Quant Methods)/Lab 3/BS-subject-3.csv","legacy","4 2 7 6 1 3","Lentiform Loewenfeld","3.3.9","0","n","0","right","right","right","right","NA","966","50811","127092","966","NA","2","legacy","6","1024","2","48000","-16","experiment","3","odd","8","617926","53802","614557","615705","2983","256245","615709","608495","2989","129152","619936","616718","620903","619935","NA","Sternberg Task","61","57175","71","yes","1024"
"86.1111111111","86.1111111111","810.25","810.25","black","experiment","legacy","legacy","legacy","0","uniform","1","undefined","1","left","71","0","71","71","0","0","71","71","0","0","71","71","71","71","0","10/21/21 16:48:46","The main experiment item","yes","SternbergTask.osexp","C:\Users\bryan\OneDrive\Documents\School\PSYC 5316  (Quant Methods)\Lab 3","no","mono","no","18","no","white","no","yes","768","legacy","59","11","C:/Users/bryan/OneDrive/Documents/School/PSYC 5316  (Quant Methods)/Lab 3/BS-subject-3.csv","legacy","2 6 1 7 4","Lentiform Loewenfeld","3.3.9","2","y","0","left","right","right","left","NA","1163","50811","127092","1163","NA","2","legacy","5","1024","2","48000","-16","experiment","3","odd","6","624287","53802","620912","622066","2983","256245","622070","608495","2989","129152","626296","623078","627460","626295","NA","Sternberg Task","62","58338","72","yes","1024"
"86.301369863","86.301369863","807.98630137","807.98630137","black","experiment","legacy","legacy","legacy","0","uniform","1","undefined","1","left","72","0","72","72","0","0","72","72","0","0","72","72","72","72","0","10/21/21 16:48:46","The main experiment item","yes","SternbergTask.osexp","C:\Users\bryan\OneDrive\Documents\School\PSYC 5316  (Quant Methods)\Lab 3","no","mono","no","18","no","white","no","yes","768","legacy","60","11","C:/Users/bryan/OneDrive/Documents/School/PSYC 5316  (Quant Methods)/Lab 3/BS-subject-3.csv","legacy","7 2 3","Lentiform Loewenfeld","3.3.9","3","y","0","left","right","right","left","NA","645","50811","127092","645","NA","2","legacy","3","1024","2","48000","-16","experiment","3","odd","3","630836","53802","627469","628615","2983","256245","628619","608495","2989","129152","632846","629627","633493","632845","NA","Sternberg Task","63","58983","73","yes","1024"
"86.4864864865","86.4864864865","811.554054054","811.554054054","black","experiment","legacy","legacy","legacy","0","uniform","1","undefined","1","left","73","0","73","73","0","0","73","73","0","0","73","73","73","73","0","10/21/21 16:48:46","The main experiment item","yes","SternbergTask.osexp","C:\Users\bryan\OneDrive\Documents\School\PSYC 5316  (Quant Methods)\Lab 3","no","mono","no","18","no","white","no","yes","768","legacy","61","11","C:/Users/bryan/OneDrive/Documents/School/PSYC 5316  (Quant Methods)/Lab 3/BS-subject-3.csv","legacy","3 5 7 1","Lentiform Loewenfeld","3.3.9","3","y","0","left","right","right","left","NA","1072","50811","127092","1072","NA","2","legacy","4","1024","2","48000","-16","experiment","3","odd","7","636869","53802","633501","634648","2983","256245","634651","608495","2989","129152","638878","635661","639952","638877","NA","Sternberg Task","64","60055","74","yes","1024"
"85.3333333333","85.3333333333","818.946666667","818.946666667","black","experiment","legacy","legacy","legacy","0","uniform","0","undefined","0","left","74","0","74","74","0","0","74","74","0","0","74","74","74","74","0","10/21/21 16:48:46","The main experiment item","yes","SternbergTask.osexp","C:\Users\bryan\OneDrive\Documents\School\PSYC 5316  (Quant Methods)\Lab 3","no","mono","no","18","no","white","no","yes","768","legacy","62","11","C:/Users/bryan/OneDrive/Documents/School/PSYC 5316  (Quant Methods)/Lab 3/BS-subject-3.csv","legacy","6 7 8 5","Lentiform Loewenfeld","3.3.9","3","y","0","right","right","right","right","NA","1366","50811","127092","1366","NA","2","legacy","4","1024","2","48000","-16","experiment","3","odd","8","643335","53802","639960","641114","2983","256245","641118","608495","2989","129152","645345","642126","646712","645344","NA","Sternberg Task","64","61421","75","yes","1024"
"85.5263157895","85.5263157895","819.934210526","819.934210526","black","experiment","legacy","legacy","legacy","0","uniform","1","undefined","1","right","75","0","75","75","0","0","75","75","0","0","75","75","75","75","0","10/21/21 16:48:46","The main experiment item","yes","SternbergTask.osexp","C:\Users\bryan\OneDrive\Documents\School\PSYC 5316  (Quant Methods)\Lab 3","no","mono","no","18","no","white","no","yes","768","legacy","63","11","C:/Users/bryan/OneDrive/Documents/School/PSYC 5316  (Quant Methods)/Lab 3/BS-subject-3.csv","legacy","2 8 9 4 1","Lentiform Loewenfeld","3.3.9","0","n","0","right","right","right","right","NA","894","50811","127092","894","NA","2","legacy","5","1024","2","48000","-16","experiment","3","odd","5","650089","53802","639960","647869","2983","256245","647873","646720","2989","129152","652095","648881","652990","652095","NA","Sternberg Task","65","62315","76","yes","1024"
"84.4155844156","84.4155844156","823.727272727","823.727272727","black","experiment","legacy","legacy","legacy","0","uniform","0","undefined","0","left","76","0","76","76","0","0","76","76","0","0","76","76","76","76","0","10/21/21 16:48:46","The main experiment item","yes","SternbergTask.osexp","C:\Users\bryan\OneDrive\Documents\School\PSYC 5316  (Quant Methods)\Lab 3","no","mono","no","18","no","white","no","yes","768","legacy","64","11","C:/Users/bryan/OneDrive/Documents/School/PSYC 5316  (Quant Methods)/Lab 3/BS-subject-3.csv","legacy","8 9 6 1","Lentiform Loewenfeld","3.3.9","2","y","0","right","right","right","right","NA","1112","50811","127092","1112","NA","2","legacy","4","1024","2","48000","-16","experiment","3","odd","9","656361","53802","652999","654144","2983","256245","654149","646720","2989","129152","658371","655157","659485","658370","NA","Sternberg Task","65","63427","77","yes","1024"
"83.3333333333","83.3333333333","824.41025641","824.41025641","black","experiment","legacy","legacy","legacy","0","uniform","0","undefined","0","right","77","0","77","77","0","0","77","77","0","0","77","77","77","77","0","10/21/21 16:48:46","The main experiment item","yes","SternbergTask.osexp","C:\Users\bryan\OneDrive\Documents\School\PSYC 5316  (Quant Methods)\Lab 3","no","mono","no","18","no","white","no","yes","768","legacy","65","11","C:/Users/bryan/OneDrive/Documents/School/PSYC 5316  (Quant Methods)/Lab 3/BS-subject-3.csv","legacy","2 8 7 9 5 3","Lentiform Loewenfeld","3.3.9","0","n","0","left","right","right","left","NA","877","50811","127092","877","NA","2","legacy","6","1024","2","48000","-16","experiment","3","odd","6","662883","53802","652999","660662","2983","256245","660666","659493","2989","129152","664892","661674","665771","664891","NA","Sternberg Task","65","64304","78","yes","1024"
"83.5443037975","83.5443037975","826.936708861","826.936708861","black","experiment","legacy","legacy","legacy","0","uniform","1","undefined","1","right","78","0","78","78","0","0","78","78","0","0","78","78","78","78","0","10/21/21 16:48:46","The main experiment item","yes","SternbergTask.osexp","C:\Users\bryan\OneDrive\Documents\School\PSYC 5316  (Quant Methods)\Lab 3","no","mono","no","18","no","white","no","yes","768","legacy","66","11","C:/Users/bryan/OneDrive/Documents/School/PSYC 5316  (Quant Methods)/Lab 3/BS-subject-3.csv","legacy","2 8 9","Lentiform Loewenfeld","3.3.9","0","n","0","right","right","right","right","NA","1024","50811","127092","1024","NA","2","legacy","3","1024","2","48000","-16","experiment","3","odd","6","669143","53802","652999","666922","2983","256245","666926","665780","2989","129152","671153","667934","672178","671152","NA","Sternberg Task","66","65328","79","yes","1024"
"83.75","83.75","828.8125","828.8125","black","experiment","legacy","legacy","legacy","0","uniform","1","undefined","1","right","79","0","79","79","0","0","79","79","0","0","79","79","79","79","0","10/21/21 16:48:46","The main experiment item","yes","SternbergTask.osexp","C:\Users\bryan\OneDrive\Documents\School\PSYC 5316  (Quant Methods)\Lab 3","no","mono","no","18","no","white","no","yes","768","legacy","67","11","C:/Users/bryan/OneDrive/Documents/School/PSYC 5316  (Quant Methods)/Lab 3/BS-subject-3.csv","legacy","9 7 4 5 8","Lentiform Loewenfeld","3.3.9","0","n","0","right","right","right","right","NA","977","50811","127092","977","NA","2","legacy","5","1024","2","48000","-16","experiment","3","odd","6","675552","53802","672187","673336","2983","256245","673340","665780","2989","129152","677562","674344","678541","677561","NA","Sternberg Task","67","66305","80","yes","1024"
"83.950617284","83.950617284","833.75308642","833.75308642","black","experiment","legacy","legacy","legacy","0","uniform","1","undefined","1","left","80","0","80","80","0","0","80","80","0","0","80","80","80","80","0","10/21/21 16:48:46","The main experiment item","yes","SternbergTask.osexp","C:\Users\bryan\OneDrive\Documents\School\PSYC 5316  (Quant Methods)\Lab 3","no","mono","no","18","no","white","no","yes","768","legacy","68","11","C:/Users/bryan/OneDrive/Documents/School/PSYC 5316  (Quant Methods)/Lab 3/BS-subject-3.csv","legacy","8 9 5 6 7","Lentiform Loewenfeld","3.3.9","1","y","0","left","right","right","left","NA","1229","50811","127092","1229","NA","2","legacy","5","1024","2","48000","-16","experiment","3","odd","8","681918","53802","678550","679697","2983","256245","679701","665780","2989","129152","683928","680709","685159","683927","NA","Sternberg Task","68","67534","81","yes","1024"
"84.1463414634","84.1463414634","834.37804878","834.37804878","black","experiment","legacy","legacy","legacy","0","uniform","1","undefined","1","left","81","0","81","81","0","0","81","81","0","0","81","81","81","81","0","10/21/21 16:48:46","The main experiment item","yes","SternbergTask.osexp","C:\Users\bryan\OneDrive\Documents\School\PSYC 5316  (Quant Methods)\Lab 3","no","mono","no","18","no","white","no","yes","768","legacy","69","11","C:/Users/bryan/OneDrive/Documents/School/PSYC 5316  (Quant Methods)/Lab 3/BS-subject-3.csv","legacy","7 1 3","Lentiform Loewenfeld","3.3.9","2","y","0","left","right","right","left","NA","885","50811","127092","885","NA","2","legacy","3","1024","2","48000","-16","experiment","3","odd","1","688541","53802","685165","686320","2983","256245","686324","665780","2989","129152","690550","687332","691437","690549","NA","Sternberg Task","69","68419","82","yes","1024"
"84.3373493976","84.3373493976","834.457831325","834.457831325","black","experiment","legacy","legacy","legacy","0","uniform","1","undefined","1","left","82","0","82","82","0","0","82","82","0","0","82","82","82","82","0","10/21/21 16:48:46","The main experiment item","yes","SternbergTask.osexp","C:\Users\bryan\OneDrive\Documents\School\PSYC 5316  (Quant Methods)\Lab 3","no","mono","no","18","no","white","no","yes","768","legacy","70","11","C:/Users/bryan/OneDrive/Documents/School/PSYC 5316  (Quant Methods)/Lab 3/BS-subject-3.csv","legacy","4 1 8 7 5","Lentiform Loewenfeld","3.3.9","3","y","0","left","right","right","left","NA","841","50811","127092","841","NA","2","legacy","5","1024","2","48000","-16","experiment","3","odd","8","694813","53802","691446","692598","2983","256245","692602","665780","2989","129152","696823","693605","697666","696822","NA","Sternberg Task","70","69260","83","yes","1024"
"84.5238095238","84.5238095238","836.464285714","836.464285714","black","experiment","legacy","legacy","legacy","0","uniform","1","undefined","1","left","83","0","83","83","0","0","83","83","0","0","83","83","83","83","0","10/21/21 16:48:46","The main experiment item","yes","SternbergTask.osexp","C:\Users\bryan\OneDrive\Documents\School\PSYC 5316  (Quant Methods)\Lab 3","no","mono","no","18","no","white","no","yes","768","legacy","71","11","C:/Users/bryan/OneDrive/Documents/School/PSYC 5316  (Quant Methods)/Lab 3/BS-subject-3.csv","legacy","8 7 3","Lentiform Loewenfeld","3.3.9","1","y","0","left","right","right","left","NA","1003","50811","127092","1003","NA","2","legacy","3","1024","2","48000","-16","experiment","3","odd","8","701036","53802","697673","698815","2983","256245","698819","665780","2989","129152","703046","699827","704051","703045","NA","Sternberg Task","71","70263","84","yes","1024"
"84.7058823529","84.7058823529","835.035294118","835.035294118","black","experiment","legacy","legacy","legacy","0","uniform","1","undefined","1","left","84","0","84","84","0","0","84","84","0","0","84","84","84","84","0","10/21/21 16:48:46","The main experiment item","yes","SternbergTask.osexp","C:\Users\bryan\OneDrive\Documents\School\PSYC 5316  (Quant Methods)\Lab 3","no","mono","no","18","no","white","no","yes","768","legacy","72","11","C:/Users/bryan/OneDrive/Documents/School/PSYC 5316  (Quant Methods)/Lab 3/BS-subject-3.csv","legacy","8","Lentiform Loewenfeld","3.3.9","1","y","0","left","right","right","left","NA","715","50811","127092","715","NA","2","legacy","1","1024","2","48000","-16","experiment","3","odd","8","707422","53802","704058","705201","2983","256245","705205","665780","2989","129152","709431","706213","710148","709430","NA","Sternberg Task","72","70978","85","yes","1024"
"84.8837209302","84.8837209302","838.465116279","838.465116279","black","experiment","legacy","legacy","legacy","0","uniform","1","undefined","1","right","85","0","85","85","0","0","85","85","0","0","85","85","85","85","0","10/21/21 16:48:46","The main experiment item","yes","SternbergTask.osexp","C:\Users\bryan\OneDrive\Documents\School\PSYC 5316  (Quant Methods)\Lab 3","no","mono","no","18","no","white","no","yes","768","legacy","73","11","C:/Users/bryan/OneDrive/Documents/School/PSYC 5316  (Quant Methods)/Lab 3/BS-subject-3.csv","legacy","8 4 3 9","Lentiform Loewenfeld","3.3.9","0","n","0","right","right","right","right","NA","1130","50811","127092","1130","NA","2","legacy","4","1024","2","48000","-16","experiment","3","odd","5","713532","53802","710157","711311","2983","256245","711315","665780","2989","129152","715542","712323","716674","715541","NA","Sternberg Task","73","72108","86","yes","1024"
"85.0574712644","85.0574712644","836.620689655","836.620689655","black","experiment","legacy","legacy","legacy","0","uniform","1","undefined","1","right","86","0","86","86","0","0","86","86","0","0","86","86","86","86","0","10/21/21 16:48:46","The main experiment item","yes","SternbergTask.osexp","C:\Users\bryan\OneDrive\Documents\School\PSYC 5316  (Quant Methods)\Lab 3","no","mono","no","18","no","white","no","yes","768","legacy","74","11","C:/Users/bryan/OneDrive/Documents/School/PSYC 5316  (Quant Methods)/Lab 3/BS-subject-3.csv","legacy","9","Lentiform Loewenfeld","3.3.9","0","n","0","right","right","right","right","NA","678","50811","127092","678","NA","2","legacy","1","1024","2","48000","-16","experiment","3","odd","6","720049","53802","716682","717829","2983","256245","717833","665780","2989","129152","722058","718841","722737","722057","NA","Sternberg Task","74","72786","87","yes","1024"
"85.2272727273","85.2272727273","835.818181818","835.818181818","black","experiment","legacy","legacy","legacy","0","uniform","1","undefined","1","left","87","0","87","87","0","0","87","87","0","0","87","87","87","87","0","10/21/21 16:48:46","The main experiment item","yes","SternbergTask.osexp","C:\Users\bryan\OneDrive\Documents\School\PSYC 5316  (Quant Methods)\Lab 3","no","mono","no","18","no","white","no","yes","768","legacy","75","11","C:/Users/bryan/OneDrive/Documents/School/PSYC 5316  (Quant Methods)/Lab 3/BS-subject-3.csv","legacy","7","Lentiform Loewenfeld","3.3.9","1","y","0","left","right","right","left","NA","766","50811","127092","766","NA","2","legacy","1","1024","2","48000","-16","experiment","3","odd","7","726109","53802","722745","723889","2983","256245","723893","665780","2989","129152","728119","724901","728886","728118","NA","Sternberg Task","75","73552","88","yes","1024"
"85.393258427","85.393258427","836.617977528","836.617977528","black","experiment","legacy","legacy","legacy","0","uniform","1","undefined","1","left","88","0","88","88","0","0","88","88","0","0","88","88","88","88","0","10/21/21 16:48:46","The main experiment item","yes","SternbergTask.osexp","C:\Users\bryan\OneDrive\Documents\School\PSYC 5316  (Quant Methods)\Lab 3","no","mono","no","18","no","white","no","yes","768","legacy","76","11","C:/Users/bryan/OneDrive/Documents/School/PSYC 5316  (Quant Methods)/Lab 3/BS-subject-3.csv","legacy","9 4 2","Lentiform Loewenfeld","3.3.9","1","y","0","left","right","right","left","NA","907","50811","127092","907","NA","2","legacy","3","1024","2","48000","-16","experiment","3","odd","9","732260","53802","728895","730041","2983","256245","730044","665780","2989","129152","734269","731052","735177","734268","NA","Sternberg Task","76","74459","89","yes","1024"
"84.4444444444","84.4444444444","836.533333333","836.533333333","black","experiment","legacy","legacy","legacy","0","uniform","0","undefined","0","left","89","0","89","89","0","0","89","89","0","0","89","89","89","89","0","10/21/21 16:48:46","The main experiment item","yes","SternbergTask.osexp","C:\Users\bryan\OneDrive\Documents\School\PSYC 5316  (Quant Methods)\Lab 3","no","mono","no","18","no","white","no","yes","768","legacy","77","11","C:/Users/bryan/OneDrive/Documents/School/PSYC 5316  (Quant Methods)/Lab 3/BS-subject-3.csv","legacy","4 7 6 8 2 3","Lentiform Loewenfeld","3.3.9","6","y","0","right","right","right","right","NA","829","50811","127092","829","NA","2","legacy","6","1024","2","48000","-16","experiment","3","odd","3","738536","53802","735186","736316","2983","256245","736319","665780","2989","129152","740546","737328","741377","740545","NA","Sternberg Task","76","75288","90","yes","1024"
"84.6153846154","84.6153846154","839.098901099","839.098901099","black","experiment","legacy","legacy","legacy","0","uniform","1","undefined","1","left","90","0","90","90","0","0","90","90","0","0","90","90","90","90","0","10/21/21 16:48:46","The main experiment item","yes","SternbergTask.osexp","C:\Users\bryan\OneDrive\Documents\School\PSYC 5316  (Quant Methods)\Lab 3","no","mono","no","18","no","white","no","yes","768","legacy","78","11","C:/Users/bryan/OneDrive/Documents/School/PSYC 5316  (Quant Methods)/Lab 3/BS-subject-3.csv","legacy","3 2 1 4 7","Lentiform Loewenfeld","3.3.9","2","y","0","left","right","right","left","NA","1070","50811","127092","1070","NA","2","legacy","5","1024","2","48000","-16","experiment","3","odd","2","744761","53802","735186","742542","2983","256245","742545","741385","2989","129152","746771","743554","747842","746770","NA","Sternberg Task","77","76358","91","yes","1024"
"84.7826086957","84.7826086957","838.065217391","838.065217391","black","experiment","legacy","legacy","legacy","0","uniform","1","undefined","1","right","91","0","91","91","0","0","91","91","0","0","91","91","91","91","0","10/21/21 16:48:46","The main experiment item","yes","SternbergTask.osexp","C:\Users\bryan\OneDrive\Documents\School\PSYC 5316  (Quant Methods)\Lab 3","no","mono","no","18","no","white","no","yes","768","legacy","79","11","C:/Users/bryan/OneDrive/Documents/School/PSYC 5316  (Quant Methods)/Lab 3/BS-subject-3.csv","legacy","6 9 4 5 2","Lentiform Loewenfeld","3.3.9","0","n","0","right","right","right","right","NA","744","50811","127092","744","NA","2","legacy","5","1024","2","48000","-16","experiment","3","odd","1","751218","53802","747851","748998","2983","256245","749002","741385","2989","129152","753227","750010","753973","753226","NA","Sternberg Task","78","77102","92","yes","1024"
"84.9462365591","84.9462365591","838.462365591","838.462365591","black","experiment","legacy","legacy","legacy","0","uniform","1","undefined","1","left","92","0","92","92","0","0","92","92","0","0","92","92","92","92","0","10/21/21 16:48:46","The main experiment item","yes","SternbergTask.osexp","C:\Users\bryan\OneDrive\Documents\School\PSYC 5316  (Quant Methods)\Lab 3","no","mono","no","18","no","white","no","yes","768","legacy","80","11","C:/Users/bryan/OneDrive/Documents/School/PSYC 5316  (Quant Methods)/Lab 3/BS-subject-3.csv","legacy","2 5 4 8 7","Lentiform Loewenfeld","3.3.9","3","y","0","left","right","right","left","NA","875","50811","127092","875","NA","2","legacy","5","1024","2","48000","-16","experiment","3","odd","4","757346","53802","753981","755127","2983","256245","755130","741385","2989","129152","759356","756138","760232","759355","NA","Sternberg Task","79","77977","93","yes","1024"
"85.1063829787","85.1063829787","838.882978723","838.882978723","black","experiment","legacy","legacy","legacy","0","uniform","1","undefined","1","left","93","0","93","93","0","0","93","93","0","0","93","93","93","93","0","10/21/21 16:48:46","The main experiment item","yes","SternbergTask.osexp","C:\Users\bryan\OneDrive\Documents\School\PSYC 5316  (Quant Methods)\Lab 3","no","mono","no","18","no","white","no","yes","768","legacy","81","11","C:/Users/bryan/OneDrive/Documents/School/PSYC 5316  (Quant Methods)/Lab 3/BS-subject-3.csv","legacy","6 7 9 3 1 2","Lentiform Loewenfeld","3.3.9","1","y","0","left","right","right","left","NA","878","50811","127092","878","NA","2","legacy","6","1024","2","48000","-16","experiment","3","odd","6","763608","53802","760241","761388","2983","256245","761391","741385","2989","129152","765617","762400","766497","765617","NA","Sternberg Task","80","78855","94","yes","1024"
"85.2631578947","85.2631578947","838.336842105","838.336842105","black","experiment","legacy","legacy","legacy","0","uniform","1","undefined","1","right","94","0","94","94","0","0","94","94","0","0","94","94","94","94","0","10/21/21 16:48:46","The main experiment item","yes","SternbergTask.osexp","C:\Users\bryan\OneDrive\Documents\School\PSYC 5316  (Quant Methods)\Lab 3","no","mono","no","18","no","white","no","yes","768","legacy","82","11","C:/Users/bryan/OneDrive/Documents/School/PSYC 5316  (Quant Methods)/Lab 3/BS-subject-3.csv","legacy","8 5 4 2 9 6","Lentiform Loewenfeld","3.3.9","0","n","0","right","right","right","right","NA","787","50811","127092","787","NA","2","legacy","6","1024","2","48000","-16","experiment","3","odd","3","769875","53802","766506","767655","2983","256245","767659","741385","2989","129152","771885","768667","772673","771884","NA","Sternberg Task","81","79642","95","yes","1024"
"85.4166666667","85.4166666667","838.40625","838.40625","black","experiment","legacy","legacy","legacy","0","uniform","1","undefined","1","right","95","0","95","95","0","0","95","95","0","0","95","95","95","95","0","10/21/21 16:48:46","The main experiment item","yes","SternbergTask.osexp","C:\Users\bryan\OneDrive\Documents\School\PSYC 5316  (Quant Methods)\Lab 3","no","mono","no","18","no","white","no","yes","768","legacy","83","11","C:/Users/bryan/OneDrive/Documents/School/PSYC 5316  (Quant Methods)/Lab 3/BS-subject-3.csv","legacy","1 4 9 3","Lentiform Loewenfeld","3.3.9","0","n","0","right","right","right","right","NA","845","50811","127092","845","NA","2","legacy","4","1024","2","48000","-16","experiment","3","odd","5","776054","53802","772681","773833","2983","256245","773837","741385","2989","129152","778062","774845","778909","778062","NA","Sternberg Task","82","80487","96","yes","1024"
"85.5670103093","85.5670103093","837","837","black","experiment","legacy","legacy","legacy","0","uniform","1","undefined","1","right","96","0","96","96","0","0","96","96","0","0","96","96","96","96","0","10/21/21 16:48:46","The main experiment item","yes","SternbergTask.osexp","C:\Users\bryan\OneDrive\Documents\School\PSYC 5316  (Quant Methods)\Lab 3","no","mono","no","18","no","white","no","yes","768","legacy","84","11","C:/Users/bryan/OneDrive/Documents/School/PSYC 5316  (Quant Methods)/Lab 3/BS-subject-3.csv","legacy","6 8","Lentiform Loewenfeld","3.3.9","0","n","0","right","right","right","right","NA","702","50811","127092","702","NA","2","legacy","2","1024","2","48000","-16","experiment","3","odd","9","782290","53802","778915","780069","2983","256245","780073","741385","2989","129152","784299","781081","785003","784298","NA","Sternberg Task","83","81189","97","yes","1024"
"85.7142857143","85.7142857143","835.040816327","835.040816327","black","experiment","legacy","legacy","legacy","0","uniform","1","undefined","1","left","97","0","97","97","0","0","97","97","0","0","97","97","97","97","0","10/21/21 16:48:46","The main experiment item","yes","SternbergTask.osexp","C:\Users\bryan\OneDrive\Documents\School\PSYC 5316  (Quant Methods)\Lab 3","no","mono","no","18","no","white","no","yes","768","legacy","85","11","C:/Users/bryan/OneDrive/Documents/School/PSYC 5316  (Quant Methods)/Lab 3/BS-subject-3.csv","legacy","4","Lentiform Loewenfeld","3.3.9","1","y","0","left","right","right","left","NA","645","50811","127092","645","NA","2","legacy","1","1024","2","48000","-16","experiment","3","odd","4","788379","53802","785012","786164","2983","256245","786168","741385","2989","129152","790389","787176","791035","790388","NA","Sternberg Task","84","81834","98","yes","1024"
"85.8585858586","85.8585858586","835.444444444","835.444444444","black","experiment","legacy","legacy","legacy","0","uniform","1","undefined","1","right","98","0","98","98","0","0","98","98","0","0","98","98","98","98","0","10/21/21 16:48:46","The main experiment item","yes","SternbergTask.osexp","C:\Users\bryan\OneDrive\Documents\School\PSYC 5316  (Quant Methods)\Lab 3","no","mono","no","18","no","white","no","yes","768","legacy","86","11","C:/Users/bryan/OneDrive/Documents/School/PSYC 5316  (Quant Methods)/Lab 3/BS-subject-3.csv","legacy","3 9 8 1 6 4","Lentiform Loewenfeld","3.3.9","0","n","0","right","right","right","right","NA","875","50811","127092","875","NA","2","legacy","6","1024","2","48000","-16","experiment","3","odd","7","794416","53802","791044","792195","2983","256245","792199","741385","2989","129152","796426","793207","797302","796425","NA","Sternberg Task","85","82709","99","yes","1024"
"86","86","833.88","833.88","black","experiment","legacy","legacy","legacy","0","uniform","1","undefined","1","right","99","0","99","99","0","0","99","99","0","0","99","99","99","99","0","10/21/21 16:48:46","The main experiment item","yes","SternbergTask.osexp","C:\Users\bryan\OneDrive\Documents\School\PSYC 5316  (Quant Methods)\Lab 3","no","mono","no","18","no","white","no","yes","768","legacy","87","11","C:/Users/bryan/OneDrive/Documents/School/PSYC 5316  (Quant Methods)/Lab 3/BS-subject-3.csv","legacy","6 3 1 7 9 8","Lentiform Loewenfeld","3.3.9","0","n","0","right","right","right","right","NA","679","50811","127092","679","NA","2","legacy","6","1024","2","48000","-16","experiment","3","odd","4","800682","53802","797309","798462","2983","256245","798466","741385","2989","129152","802690","799474","803371","802690","NA","Sternberg Task","86","83388","100","yes","1024"
"86.1386138614","86.1386138614","838.227722772","838.227722772","black","experiment","legacy","legacy","legacy","0","uniform","1","undefined","1","left","100","0","100","100","0","0","100","100","0","0","100","100","100","100","0","10/21/21 16:48:46","The main experiment item","yes","SternbergTask.osexp","C:\Users\bryan\OneDrive\Documents\School\PSYC 5316  (Quant Methods)\Lab 3","no","mono","no","18","no","white","no","yes","768","legacy","88","11","C:/Users/bryan/OneDrive/Documents/School/PSYC 5316  (Quant Methods)/Lab 3/BS-subject-3.csv","legacy","5 7 3 6 2","Lentiform Loewenfeld","3.3.9","5","y","0","left","right","right","left","NA","1273","50811","127092","1273","NA","2","legacy","5","1024","2","48000","-16","experiment","3","odd","2","806747","53802","803380","804527","2983","256245","804531","741385","2989","129152","808756","805539","810031","808755","NA","Sternberg Task","87","84661","101","yes","1024"
"86.2745098039","86.2745098039","838.411764706","838.411764706","black","experiment","legacy","legacy","legacy","0","uniform","1","undefined","1","right","101","0","101","101","0","0","101","101","0","0","101","101","101","101","0","10/21/21 16:48:46","The main experiment item","yes","SternbergTask.osexp","C:\Users\bryan\OneDrive\Documents\School\PSYC 5316  (Quant Methods)\Lab 3","no","mono","no","18","no","white","no","yes","768","legacy","89","11","C:/Users/bryan/OneDrive/Documents/School/PSYC 5316  (Quant Methods)/Lab 3/BS-subject-3.csv","legacy","6 9 5","Lentiform Loewenfeld","3.3.9","0","n","0","right","right","right","right","NA","857","50811","127092","857","NA","2","legacy","3","1024","2","48000","-16","experiment","3","odd","8","813406","53802","810040","811187","2983","256245","811190","741385","2989","129152","815416","812198","816275","815415","NA","Sternberg Task","88","85518","102","yes","1024"
"85.4368932039","85.4368932039","839.213592233","839.213592233","black","experiment","legacy","legacy","legacy","0","uniform","0","undefined","0","left","102","0","102","102","0","0","102","102","0","0","102","102","102","102","0","10/21/21 16:48:46","The main experiment item","yes","SternbergTask.osexp","C:\Users\bryan\OneDrive\Documents\School\PSYC 5316  (Quant Methods)\Lab 3","no","mono","no","18","no","white","no","yes","768","legacy","90","11","C:/Users/bryan/OneDrive/Documents/School/PSYC 5316  (Quant Methods)/Lab 3/BS-subject-3.csv","legacy","9 3 8 2 1 4","Lentiform Loewenfeld","3.3.9","3","y","0","right","right","right","right","NA","921","50811","127092","921","NA","2","legacy","6","1024","2","48000","-16","experiment","3","odd","8","819650","53802","816284","817429","2983","256245","817432","741385","2989","129152","821659","818441","822581","821658","NA","Sternberg Task","88","86439","103","yes","1024"
"85.5769230769","85.5769230769","847.663461538","847.663461538","black","experiment","legacy","legacy","legacy","0","uniform","1","undefined","1","left","103","0","103","103","0","0","103","103","0","0","103","103","103","103","0","10/21/21 16:48:46","The main experiment item","yes","SternbergTask.osexp","C:\Users\bryan\OneDrive\Documents\School\PSYC 5316  (Quant Methods)\Lab 3","no","mono","no","18","no","white","no","yes","768","legacy","91","11","C:/Users/bryan/OneDrive/Documents/School/PSYC 5316  (Quant Methods)/Lab 3/BS-subject-3.csv","legacy","8 5 4 7 3 1","Lentiform Loewenfeld","3.3.9","2","y","0","left","right","right","left","NA","1718","50811","127092","1718","NA","2","legacy","6","1024","2","48000","-16","experiment","3","odd","5","825952","53802","816284","823732","2983","256245","823736","822590","2989","129152","827961","824744","829681","827960","NA","Sternberg Task","89","88157","104","yes","1024"
"85.7142857143","85.7142857143","846.866666667","846.866666667","black","experiment","legacy","legacy","legacy","0","uniform","1","undefined","1","right","104","0","104","104","0","0","104","104","0","0","104","104","104","104","0","10/21/21 16:48:46","The main experiment item","yes","SternbergTask.osexp","C:\Users\bryan\OneDrive\Documents\School\PSYC 5316  (Quant Methods)\Lab 3","no","mono","no","18","no","white","no","yes","768","legacy","92","11","C:/Users/bryan/OneDrive/Documents/School/PSYC 5316  (Quant Methods)/Lab 3/BS-subject-3.csv","legacy","8 4 3 5","Lentiform Loewenfeld","3.3.9","0","n","0","right","right","right","right","NA","764","50811","127092","764","NA","2","legacy","4","1024","2","48000","-16","experiment","3","odd","6","833057","53802","829689","830836","2983","256245","830839","822590","2989","129152","835067","831848","835833","835067","NA","Sternberg Task","90","88921","105","yes","1024"
"85.8490566038","85.8490566038","850.283018868","850.283018868","black","experiment","legacy","legacy","legacy","0","uniform","1","undefined","1","right","105","0","105","105","0","0","105","105","0","0","105","105","105","105","0","10/21/21 16:48:46","The main experiment item","yes","SternbergTask.osexp","C:\Users\bryan\OneDrive\Documents\School\PSYC 5316  (Quant Methods)\Lab 3","no","mono","no","18","no","white","no","yes","768","legacy","93","11","C:/Users/bryan/OneDrive/Documents/School/PSYC 5316  (Quant Methods)/Lab 3/BS-subject-3.csv","legacy","7 9 1 6","Lentiform Loewenfeld","3.3.9","0","n","0","right","right","right","right","NA","1209","50811","127092","1209","NA","2","legacy","4","1024","2","48000","-16","experiment","3","odd","4","839207","53802","835842","836987","2983","256245","836991","822590","2989","129152","841217","837999","842428","841216","NA","Sternberg Task","91","90130","106","yes","1024"
"85.9813084112","85.9813084112","851.981308411","851.981308411","black","experiment","legacy","legacy","legacy","0","uniform","1","undefined","1","right","106","0","106","106","0","0","106","106","0","0","106","106","106","106","0","10/21/21 16:48:46","The main experiment item","yes","SternbergTask.osexp","C:\Users\bryan\OneDrive\Documents\School\PSYC 5316  (Quant Methods)\Lab 3","no","mono","no","18","no","white","no","yes","768","legacy","94","11","C:/Users/bryan/OneDrive/Documents/School/PSYC 5316  (Quant Methods)/Lab 3/BS-subject-3.csv","legacy","8 9","Lentiform Loewenfeld","3.3.9","0","n","0","right","right","right","right","NA","1032","50811","127092","1032","NA","2","legacy","2","1024","2","48000","-16","experiment","3","odd","5","845805","53802","842434","843584","2983","256245","843587","822590","2989","129152","847815","844596","848849","847814","NA","Sternberg Task","92","91162","107","yes","1024"
"85.1851851852","85.1851851852","852.296296296","852.296296296","black","experiment","legacy","legacy","legacy","0","uniform","0","undefined","0","left","107","0","107","107","0","0","107","107","0","0","107","107","107","107","0","10/21/21 16:48:46","The main experiment item","yes","SternbergTask.osexp","C:\Users\bryan\OneDrive\Documents\School\PSYC 5316  (Quant Methods)\Lab 3","no","mono","no","18","no","white","no","yes","768","legacy","95","11","C:/Users/bryan/OneDrive/Documents/School/PSYC 5316  (Quant Methods)/Lab 3/BS-subject-3.csv","legacy","8 5 3 7 4 6","Lentiform Loewenfeld","3.3.9","6","y","0","right","right","right","right","NA","886","50811","127092","886","NA","2","legacy","6","1024","2","48000","-16","experiment","3","odd","6","852227","53802","848857","850006","2983","256245","850009","822590","2989","129152","854231","851018","855119","854230","NA","Sternberg Task","92","92048","108","yes","1024"
