acc,accuracy,average_response_time,avg_rt,background,block,canvas_backend,clock_backend,color_backend,correct,correct_instruction1,correct_keyboard_response,correct_response,count_ISI,count_correctFeedback,count_expSequence,count_experiment,count_experimentLoop,count_fixation,count_incorrectFeedback,count_instruction1,count_instructions2,count_keyboard_response,count_logger,count_memorySet,count_practiceLoop,count_probe,count_thankYou,datetime,description,disable_garbage_collection,experiment_file,experiment_path,font_bold,font_family,font_italic,font_size,font_underline,foreground,form_clicks,fullscreen,height,keyboard_backend,live_row,live_row_practiceLoop,logfile,mouse_backend,numberSet,opensesame_codename,opensesame_version,posInSet,present,repeat_cycle,response,response_instruction1,response_instructions2,response_keyboard_response,response_thankYou,response_time,response_time_instruction1,response_time_instructions2,response_time_keyboard_response,response_time_thankYou,round_decimals,sampler_backend,setSize,sound_buf_size,sound_channels,sound_freq,sound_sample_size,start,subject_nr,subject_parity,target,time_ISI,time_correctFeedback,time_expSequence,time_experiment,time_experimentLoop,time_fixation,time_incorrectFeedback,time_instruction1,time_instructions2,time_keyboard_response,time_logger,time_memorySet,time_practiceLoop,time_probe,time_thankYou,title,total_correct,total_response_time,total_responses,width
100,100,986,986,#000000,practice,legacy,legacy,legacy,1,undefined,1,left,0,0,0,0,0,0,0,0,0,0,0,0,0,0,0,Thu Oct 12 10:12:19 2023,The main experiment item,FALSE,SternbergTask.osexp,C:/Users/Simone/Desktop,FALSE,mono,FALSE,18,no,white,no,yes,768,legacy,0,0,C:/Users/Simone/Documents/subject-1.csv,legacy,1 5 2 9,Melodramatic Milgram,4.0.5,2,y,0,left,left,NA,left,NA,986,26242,NA,986,NA,2,legacy,4,1024,2,48000,-16,experiment,1,odd,5,30597,NA,28394,1861,NA,28395,NA,1864,NA,32598,33584,29396,28107,32598,NA,Sternberg Task,1,986,1,1024
100,100,865,865,#000000,practice,legacy,legacy,legacy,1,undefined,1,right,1,1,1,0,0,1,1,0,0,1,1,1,0,1,0,Thu Oct 12 10:12:19 2023,The main experiment item,FALSE,SternbergTask.osexp,C:/Users/Simone/Desktop,FALSE,mono,FALSE,18,no,white,no,yes,768,legacy,1,1,C:/Users/Simone/Documents/subject-1.csv,legacy,5 7 8 4 1 2,Melodramatic Milgram,4.0.5,0,n,0,right,left,NA,right,NA,745,26242,NA,745,NA,2,legacy,6,1024,2,48000,-16,experiment,1,odd,6,36849,33612,34645,1861,NA,34646,NA,1864,NA,38850,39596,35647,28107,38850,NA,Sternberg Task,2,1731,2,1024
100,100,751,751,#000000,practice,legacy,legacy,legacy,1,undefined,1,right,2,2,2,0,0,2,2,0,0,2,2,2,0,2,0,Thu Oct 12 10:12:19 2023,The main experiment item,FALSE,SternbergTask.osexp,C:/Users/Simone/Desktop,FALSE,mono,FALSE,18,no,white,no,yes,768,legacy,2,2,C:/Users/Simone/Documents/subject-1.csv,legacy,2 1,Melodramatic Milgram,4.0.5,0,n,0,right,left,NA,right,NA,523,26242,NA,523,NA,2,legacy,2,1024,2,48000,-16,experiment,1,odd,5,42847,39599,40643,1861,NA,40644,NA,1864,NA,44848,45371,41645,28107,44848,NA,Sternberg Task,3,2254,3,1024
100,100,714,714,#000000,practice,legacy,legacy,legacy,1,undefined,1,left,3,3,3,0,0,3,3,0,0,3,3,3,0,3,0,Thu Oct 12 10:12:19 2023,The main experiment item,FALSE,SternbergTask.osexp,C:/Users/Simone/Desktop,FALSE,mono,FALSE,18,no,white,no,yes,768,legacy,3,3,C:/Users/Simone/Documents/subject-1.csv,legacy,4 3 1 7 9 8,Melodramatic Milgram,4.0.5,1,y,0,left,left,NA,left,NA,602,26242,NA,602,NA,2,legacy,6,1024,2,48000,-16,experiment,1,odd,4,48618,45375,46413,1861,NA,46415,NA,1864,NA,50620,51223,47417,28107,50619,NA,Sternberg Task,4,2856,4,1024
100,100,691,691,#000000,practice,legacy,legacy,legacy,1,undefined,1,right,4,4,4,0,0,4,4,0,0,4,4,4,0,4,0,Thu Oct 12 10:12:19 2023,The main experiment item,FALSE,SternbergTask.osexp,C:/Users/Simone/Desktop,FALSE,mono,FALSE,18,no,white,no,yes,768,legacy,4,4,C:/Users/Simone/Documents/subject-1.csv,legacy,9 6 7 4 5,Melodramatic Milgram,4.0.5,0,n,0,right,left,NA,right,NA,601,26242,NA,601,NA,2,legacy,5,1024,2,48000,-16,experiment,1,odd,3,54466,51227,52260,1861,NA,52262,NA,1864,NA,56467,57068,53264,28107,56467,NA,Sternberg Task,5,3457,5,1024
100,100,705,705,#000000,practice,legacy,legacy,legacy,1,undefined,1,right,5,5,5,0,0,5,5,0,0,5,5,5,0,5,0,Thu Oct 12 10:12:19 2023,The main experiment item,FALSE,SternbergTask.osexp,C:/Users/Simone/Desktop,FALSE,mono,FALSE,18,no,white,no,yes,768,legacy,5,5,C:/Users/Simone/Documents/subject-1.csv,legacy,5,Melodramatic Milgram,4.0.5,0,n,0,right,left,NA,right,NA,773,26242,NA,773,NA,2,legacy,1,1024,2,48000,-16,experiment,1,odd,3,60311,57072,58107,1861,NA,58108,NA,1864,NA,62312,63085,59109,28107,62312,NA,Sternberg Task,6,4230,6,1024
100,100,688,688,#000000,practice,legacy,legacy,legacy,1,undefined,1,right,6,6,6,0,0,6,6,0,0,6,6,6,0,6,0,Thu Oct 12 10:12:19 2023,The main experiment item,FALSE,SternbergTask.osexp,C:/Users/Simone/Desktop,FALSE,mono,FALSE,18,no,white,no,yes,768,legacy,6,6,C:/Users/Simone/Documents/subject-1.csv,legacy,4 1 5,Melodramatic Milgram,4.0.5,0,n,0,right,left,NA,right,NA,588,26242,NA,588,NA,2,legacy,3,1024,2,48000,-16,experiment,1,odd,2,66326,63089,64122,1861,NA,64123,NA,1864,NA,68328,68917,65124,28107,68327,NA,Sternberg Task,7,4818,7,1024
100,100,706,706,#000000,practice,legacy,legacy,legacy,1,undefined,1,left,7,7,7,0,0,7,7,0,0,7,7,7,0,7,0,Thu Oct 12 10:12:19 2023,The main experiment item,FALSE,SternbergTask.osexp,C:/Users/Simone/Desktop,FALSE,mono,FALSE,18,no,white,no,yes,768,legacy,7,7,C:/Users/Simone/Documents/subject-1.csv,legacy,4 8,Melodramatic Milgram,4.0.5,1,y,0,left,left,NA,left,NA,833,26242,NA,833,NA,2,legacy,2,1024,2,48000,-16,experiment,1,odd,4,72164,68921,69960,1861,NA,69962,NA,1864,NA,74166,75000,70963,28107,74165,NA,Sternberg Task,8,5651,8,1024
100,100,687,687,#000000,practice,legacy,legacy,legacy,1,undefined,1,left,8,8,8,0,0,8,8,0,0,8,8,8,0,8,0,Thu Oct 12 10:12:19 2023,The main experiment item,FALSE,SternbergTask.osexp,C:/Users/Simone/Desktop,FALSE,mono,FALSE,18,no,white,no,yes,768,legacy,8,8,C:/Users/Simone/Documents/subject-1.csv,legacy,6,Melodramatic Milgram,4.0.5,1,y,0,left,left,NA,left,NA,538,26242,NA,538,NA,2,legacy,1,1024,2,48000,-16,experiment,1,odd,6,78249,75010,76045,1861,NA,76047,NA,1864,NA,80250,80788,77048,28107,80250,NA,Sternberg Task,9,6189,9,1024
90,90,687,687,#000000,practice,legacy,legacy,legacy,0,undefined,0,left,9,9,9,0,0,9,9,0,0,9,9,9,0,9,0,Thu Oct 12 10:12:19 2023,The main experiment item,FALSE,SternbergTask.osexp,C:/Users/Simone/Desktop,FALSE,mono,FALSE,18,no,white,no,yes,768,legacy,9,9,C:/Users/Simone/Documents/subject-1.csv,legacy,2 9 4,Melodramatic Milgram,4.0.5,3,y,0,right,left,NA,right,NA,683,26242,NA,683,NA,2,legacy,3,1024,2,48000,-16,experiment,1,odd,4,84030,80793,81826,1861,NA,81827,NA,1864,NA,86031,86714,82829,28107,86031,NA,Sternberg Task,9,6872,10,1024
90,90,703,703,#000000,practice,legacy,legacy,legacy,1,undefined,1,right,10,10,10,0,0,10,10,0,0,10,10,10,0,10,0,Thu Oct 12 10:12:19 2023,The main experiment item,FALSE,SternbergTask.osexp,C:/Users/Simone/Desktop,FALSE,mono,FALSE,18,no,white,no,yes,768,legacy,10,10,C:/Users/Simone/Documents/subject-1.csv,legacy,3 1 9 4,Melodramatic Milgram,4.0.5,0,n,0,right,left,NA,right,NA,870,26242,NA,870,NA,2,legacy,4,1024,2,48000,-16,experiment,1,odd,6,89959,80793,87755,1861,NA,87756,86719,1864,NA,91960,92830,88757,28107,91960,NA,Sternberg Task,10,7742,11,1024
83,83,702,702,#000000,practice,legacy,legacy,legacy,0,undefined,0,left,11,11,11,0,0,11,11,0,0,11,11,11,0,11,0,Thu Oct 12 10:12:19 2023,The main experiment item,FALSE,SternbergTask.osexp,C:/Users/Simone/Desktop,FALSE,mono,FALSE,18,no,white,no,yes,768,legacy,11,11,C:/Users/Simone/Documents/subject-1.csv,legacy,1 7 9 8 5,Melodramatic Milgram,4.0.5,4,y,0,right,left,NA,right,NA,686,26242,NA,686,NA,2,legacy,5,1024,2,48000,-16,experiment,1,odd,8,96070,92835,93865,1861,NA,93866,86719,1864,NA,98071,98758,94868,28107,98071,NA,Sternberg Task,10,8428,12,1024
84,84,697,697,#000000,experiment,legacy,legacy,legacy,1,undefined,1,right,12,12,12,0,0,12,12,0,0,12,12,12,0,12,0,Thu Oct 12 10:12:19 2023,The main experiment item,FALSE,SternbergTask.osexp,C:/Users/Simone/Desktop,FALSE,mono,FALSE,18,no,white,no,yes,768,legacy,0,11,C:/Users/Simone/Documents/subject-1.csv,legacy,7 3 2 8,Melodramatic Milgram,4.0.5,0,n,0,right,left,left,right,NA,637,26242,28992,637,NA,2,legacy,4,1024,2,48000,-16,experiment,1,odd,4,131063,92835,128860,1861,128755,128861,98762,1864,99763,133064,133702,129862,28107,133064,NA,Sternberg Task,11,9065,13,1024
78,78,692,692,#000000,experiment,legacy,legacy,legacy,0,undefined,0,left,13,13,13,0,0,13,13,0,0,13,13,13,0,13,0,Thu Oct 12 10:12:19 2023,The main experiment item,FALSE,SternbergTask.osexp,C:/Users/Simone/Desktop,FALSE,mono,FALSE,18,no,white,no,yes,768,legacy,1,11,C:/Users/Simone/Documents/subject-1.csv,legacy,8 9 6 1,Melodramatic Milgram,4.0.5,2,y,0,right,left,left,right,NA,634,26242,28992,634,NA,2,legacy,4,1024,2,48000,-16,experiment,1,odd,9,136947,133705,134743,1861,128755,134745,98762,1864,99763,138948,139582,135746,28107,138948,NA,Sternberg Task,11,9699,14,1024
80,80,690,690,#000000,experiment,legacy,legacy,legacy,1,undefined,1,left,14,14,14,0,0,14,14,0,0,14,14,14,0,14,0,Thu Oct 12 10:12:19 2023,The main experiment item,FALSE,SternbergTask.osexp,C:/Users/Simone/Desktop,FALSE,mono,FALSE,18,no,white,no,yes,768,legacy,2,11,C:/Users/Simone/Documents/subject-1.csv,legacy,6 8 9 3 4 9,Melodramatic Milgram,4.0.5,5,y,0,left,left,left,left,NA,664,26242,28992,664,NA,2,legacy,6,1024,2,48000,-16,experiment,1,odd,4,142820,133705,140615,1861,128755,140616,139586,1864,99763,144821,145485,141618,28107,144821,NA,Sternberg Task,12,10363,15,1024
75,75,680,680,#000000,experiment,legacy,legacy,legacy,0,undefined,0,left,15,15,15,0,0,15,15,0,0,15,15,15,0,15,0,Thu Oct 12 10:12:19 2023,The main experiment item,FALSE,SternbergTask.osexp,C:/Users/Simone/Desktop,FALSE,mono,FALSE,18,no,white,no,yes,768,legacy,3,11,C:/Users/Simone/Documents/subject-1.csv,legacy,3 9 6 2,Melodramatic Milgram,4.0.5,4,y,0,right,left,left,right,NA,525,26242,28992,525,NA,2,legacy,4,1024,2,48000,-16,experiment,1,odd,2,148726,145490,146523,1861,128755,146524,139586,1864,99763,150728,151254,147525,28107,150728,NA,Sternberg Task,12,10888,16,1024
76,76,680,680,#000000,experiment,legacy,legacy,legacy,1,undefined,1,right,16,16,16,0,0,16,16,0,0,16,16,16,0,16,0,Thu Oct 12 10:12:19 2023,The main experiment item,FALSE,SternbergTask.osexp,C:/Users/Simone/Desktop,FALSE,mono,FALSE,18,no,white,no,yes,768,legacy,4,11,C:/Users/Simone/Documents/subject-1.csv,legacy,7 6 4 8 1 2,Melodramatic Milgram,4.0.5,0,n,0,right,left,left,right,NA,681,26242,28992,681,NA,2,legacy,6,1024,2,48000,-16,experiment,1,odd,9,154498,145490,152294,1861,128755,152295,151258,1864,99763,156501,157182,153297,28107,156500,NA,Sternberg Task,13,11569,17,1024
77,77,686,686,#000000,experiment,legacy,legacy,legacy,1,undefined,1,right,17,17,17,0,0,17,17,0,0,17,17,17,0,17,0,Thu Oct 12 10:12:19 2023,The main experiment item,FALSE,SternbergTask.osexp,C:/Users/Simone/Desktop,FALSE,mono,FALSE,18,no,white,no,yes,768,legacy,5,11,C:/Users/Simone/Documents/subject-1.csv,legacy,1 6 4 3 9 7,Melodramatic Milgram,4.0.5,0,n,0,right,left,left,right,NA,779,26242,28992,779,NA,2,legacy,6,1024,2,48000,-16,experiment,1,odd,8,160424,157186,158221,1861,128755,158222,151258,1864,99763,162425,163204,159223,28107,162425,NA,Sternberg Task,14,12348,18,1024
73,73,692,692,#000000,experiment,legacy,legacy,legacy,0,undefined,0,right,18,18,18,0,0,18,18,0,0,18,18,18,0,18,0,Thu Oct 12 10:12:19 2023,The main experiment item,FALSE,SternbergTask.osexp,C:/Users/Simone/Desktop,FALSE,mono,FALSE,18,no,white,no,yes,768,legacy,6,11,C:/Users/Simone/Documents/subject-1.csv,legacy,7 8 6 1,Melodramatic Milgram,4.0.5,0,n,0,left,left,left,left,NA,810,26242,28992,810,NA,2,legacy,4,1024,2,48000,-16,experiment,1,odd,3,166450,163208,164245,1861,128755,164247,151258,1864,99763,168451,169262,165248,28107,168451,NA,Sternberg Task,14,13158,19,1024
75,75,701,701,#000000,experiment,legacy,legacy,legacy,1,undefined,1,right,19,19,19,0,0,19,19,0,0,19,19,19,0,19,0,Thu Oct 12 10:12:19 2023,The main experiment item,FALSE,SternbergTask.osexp,C:/Users/Simone/Desktop,FALSE,mono,FALSE,18,no,white,no,yes,768,legacy,7,11,C:/Users/Simone/Documents/subject-1.csv,legacy,7 1 8 4 9 3,Melodramatic Milgram,4.0.5,0,n,0,right,left,left,right,NA,880,26242,28992,880,NA,2,legacy,6,1024,2,48000,-16,experiment,1,odd,6,172509,163208,170303,1861,128755,170305,169272,1864,99763,174510,175391,171306,28107,174510,NA,Sternberg Task,15,14038,20,1024
76,76,703,703,#000000,experiment,legacy,legacy,legacy,1,undefined,1,right,20,20,20,0,0,20,20,0,0,20,20,20,0,20,0,Thu Oct 12 10:12:19 2023,The main experiment item,FALSE,SternbergTask.osexp,C:/Users/Simone/Desktop,FALSE,mono,FALSE,18,no,white,no,yes,768,legacy,8,11,C:/Users/Simone/Documents/subject-1.csv,legacy,7 1 5 6 3,Melodramatic Milgram,4.0.5,0,n,0,right,left,left,right,NA,732,26242,28992,732,NA,2,legacy,5,1024,2,48000,-16,experiment,1,odd,8,178626,175395,176423,1861,128755,176424,169272,1864,99763,180628,181360,177425,28107,180628,NA,Sternberg Task,16,14770,21,1024
77,77,703,703,#000000,experiment,legacy,legacy,legacy,1,undefined,1,right,21,21,21,0,0,21,21,0,0,21,21,21,0,21,0,Thu Oct 12 10:12:19 2023,The main experiment item,FALSE,SternbergTask.osexp,C:/Users/Simone/Desktop,FALSE,mono,FALSE,18,no,white,no,yes,768,legacy,9,11,C:/Users/Simone/Documents/subject-1.csv,legacy,5 9 2 3,Melodramatic Milgram,4.0.5,0,n,0,right,left,left,right,NA,701,26242,28992,701,NA,2,legacy,4,1024,2,48000,-16,experiment,1,odd,8,184603,181364,182397,1861,128755,182399,169272,1864,99763,186604,187306,183400,28107,186604,NA,Sternberg Task,17,15471,22,1024
78,78,704,704,#000000,experiment,legacy,legacy,legacy,1,undefined,1,right,22,22,22,0,0,22,22,0,0,22,22,22,0,22,0,Thu Oct 12 10:12:19 2023,The main experiment item,FALSE,SternbergTask.osexp,C:/Users/Simone/Desktop,FALSE,mono,FALSE,18,no,white,no,yes,768,legacy,10,11,C:/Users/Simone/Documents/subject-1.csv,legacy,4 2 7 6 1 3,Melodramatic Milgram,4.0.5,0,n,0,right,left,left,right,NA,739,26242,28992,739,NA,2,legacy,6,1024,2,48000,-16,experiment,1,odd,8,190553,187309,188347,1861,128755,188349,169272,1864,99763,192554,193293,189351,28107,192554,NA,Sternberg Task,18,16210,23,1024
79,79,702,702,#000000,experiment,legacy,legacy,legacy,1,undefined,1,right,23,23,23,0,0,23,23,0,0,23,23,23,0,23,0,Thu Oct 12 10:12:19 2023,The main experiment item,FALSE,SternbergTask.osexp,C:/Users/Simone/Desktop,FALSE,mono,FALSE,18,no,white,no,yes,768,legacy,11,11,C:/Users/Simone/Documents/subject-1.csv,legacy,2 3 8 5 6 7,Melodramatic Milgram,4.0.5,0,n,0,right,left,left,right,NA,659,26242,28992,659,NA,2,legacy,6,1024,2,48000,-16,experiment,1,odd,1,196543,193297,194340,1861,128755,194341,169272,1864,99763,198544,199204,195342,28107,198544,NA,Sternberg Task,19,16869,24,1024
80,80,689,689,#000000,experiment,legacy,legacy,legacy,1,undefined,1,left,24,24,24,0,0,24,24,0,0,24,24,24,0,24,0,Thu Oct 12 10:12:19 2023,The main experiment item,FALSE,SternbergTask.osexp,C:/Users/Simone/Desktop,FALSE,mono,FALSE,18,no,white,no,yes,768,legacy,12,11,C:/Users/Simone/Documents/subject-1.csv,legacy,4 9 7 8 5 3,Melodramatic Milgram,4.0.5,4,y,0,left,left,left,left,NA,365,26242,28992,365,NA,2,legacy,6,1024,2,48000,-16,experiment,1,odd,8,202452,199208,200248,1861,128755,200250,169272,1864,99763,204453,204819,201251,28107,204453,NA,Sternberg Task,20,17234,25,1024
80,80,682,682,#000000,experiment,legacy,legacy,legacy,1,undefined,1,right,25,25,25,0,0,25,25,0,0,25,25,25,0,25,0,Thu Oct 12 10:12:19 2023,The main experiment item,FALSE,SternbergTask.osexp,C:/Users/Simone/Desktop,FALSE,mono,FALSE,18,no,white,no,yes,768,legacy,13,11,C:/Users/Simone/Documents/subject-1.csv,legacy,1 6 4,Melodramatic Milgram,4.0.5,0,n,0,right,left,left,right,NA,516,26242,28992,516,NA,2,legacy,3,1024,2,48000,-16,experiment,1,odd,7,208059,204823,205855,1861,128755,205856,169272,1864,99763,210060,210577,206857,28107,210060,NA,Sternberg Task,21,17750,26,1024
81,81,675,675,#000000,experiment,legacy,legacy,legacy,1,undefined,1,left,26,26,26,0,0,26,26,0,0,26,26,26,0,26,0,Thu Oct 12 10:12:19 2023,The main experiment item,FALSE,SternbergTask.osexp,C:/Users/Simone/Desktop,FALSE,mono,FALSE,18,no,white,no,yes,768,legacy,14,11,C:/Users/Simone/Documents/subject-1.csv,legacy,3 4,Melodramatic Milgram,4.0.5,1,y,0,left,left,left,left,NA,480,26242,28992,480,NA,2,legacy,2,1024,2,48000,-16,experiment,1,odd,3,213820,210580,211615,1861,128755,211616,169272,1864,99763,215821,216302,212617,28107,215821,NA,Sternberg Task,22,18230,27,1024
82,82,673,673,#000000,experiment,legacy,legacy,legacy,1,undefined,1,left,27,27,27,0,0,27,27,0,0,27,27,27,0,27,0,Thu Oct 12 10:12:19 2023,The main experiment item,FALSE,SternbergTask.osexp,C:/Users/Simone/Desktop,FALSE,mono,FALSE,18,no,white,no,yes,768,legacy,15,11,C:/Users/Simone/Documents/subject-1.csv,legacy,5 7 8 2 3 8,Melodramatic Milgram,4.0.5,5,y,0,left,left,left,left,NA,615,26242,28992,615,NA,2,legacy,6,1024,2,48000,-16,experiment,1,odd,3,219549,216312,217344,1861,128755,217345,169272,1864,99763,221550,222165,218346,28107,221550,NA,Sternberg Task,23,18845,28,1024
82,82,669,669,#000000,experiment,legacy,legacy,legacy,1,undefined,1,right,28,28,28,0,0,28,28,0,0,28,28,28,0,28,0,Thu Oct 12 10:12:19 2023,The main experiment item,FALSE,SternbergTask.osexp,C:/Users/Simone/Desktop,FALSE,mono,FALSE,18,no,white,no,yes,768,legacy,16,11,C:/Users/Simone/Documents/subject-1.csv,legacy,2 6 4 3 9,Melodramatic Milgram,4.0.5,0,n,0,right,left,left,right,NA,560,26242,28992,560,NA,2,legacy,5,1024,2,48000,-16,experiment,1,odd,1,225406,222169,223202,1861,128755,223203,169272,1864,99763,227407,227967,224204,28107,227407,NA,Sternberg Task,24,19405,29,1024
83,83,667,667,#000000,experiment,legacy,legacy,legacy,1,undefined,1,left,29,29,29,0,0,29,29,0,0,29,29,29,0,29,0,Thu Oct 12 10:12:19 2023,The main experiment item,FALSE,SternbergTask.osexp,C:/Users/Simone/Desktop,FALSE,mono,FALSE,18,no,white,no,yes,768,legacy,17,11,C:/Users/Simone/Documents/subject-1.csv,legacy,8 1 6,Melodramatic Milgram,4.0.5,3,y,0,left,left,left,left,NA,605,26242,28992,605,NA,2,legacy,3,1024,2,48000,-16,experiment,1,odd,6,231206,227971,229002,1861,128755,229003,169272,1864,99763,233207,233812,230005,28107,233207,NA,Sternberg Task,25,20010,30,1024
83,83,662,662,#000000,experiment,legacy,legacy,legacy,1,undefined,1,left,30,30,30,0,0,30,30,0,0,30,30,30,0,30,0,Thu Oct 12 10:12:19 2023,The main experiment item,FALSE,SternbergTask.osexp,C:/Users/Simone/Desktop,FALSE,mono,FALSE,18,no,white,no,yes,768,legacy,18,11,C:/Users/Simone/Documents/subject-1.csv,legacy,8,Melodramatic Milgram,4.0.5,1,y,0,left,left,left,left,NA,520,26242,28992,520,NA,2,legacy,1,1024,2,48000,-16,experiment,1,odd,8,237056,233817,234851,1861,128755,234853,169272,1864,99763,239057,239577,235854,28107,239057,NA,Sternberg Task,26,20530,31,1024
84,84,665,665,#000000,experiment,legacy,legacy,legacy,1,undefined,1,right,31,31,31,0,0,31,31,0,0,31,31,31,0,31,0,Thu Oct 12 10:12:19 2023,The main experiment item,FALSE,SternbergTask.osexp,C:/Users/Simone/Desktop,FALSE,mono,FALSE,18,no,white,no,yes,768,legacy,19,11,C:/Users/Simone/Documents/subject-1.csv,legacy,3 9 1,Melodramatic Milgram,4.0.5,0,n,0,right,left,left,right,NA,770,26242,28992,770,NA,2,legacy,3,1024,2,48000,-16,experiment,1,odd,7,242831,239581,240626,1861,128755,240628,169272,1864,99763,244833,245603,241629,28107,244832,NA,Sternberg Task,27,21300,32,1024
84,84,681,681,#000000,experiment,legacy,legacy,legacy,1,undefined,1,right,32,32,32,0,0,32,32,0,0,32,32,32,0,32,0,Thu Oct 12 10:12:19 2023,The main experiment item,FALSE,SternbergTask.osexp,C:/Users/Simone/Desktop,FALSE,mono,FALSE,18,no,white,no,yes,768,legacy,20,11,C:/Users/Simone/Documents/subject-1.csv,legacy,1 8 7,Melodramatic Milgram,4.0.5,0,n,0,right,left,left,right,NA,1188,26242,28992,1188,NA,2,legacy,3,1024,2,48000,-16,experiment,1,odd,4,248839,245607,246634,1861,128755,246635,169272,1864,99763,250840,252029,247637,28107,250840,NA,Sternberg Task,28,22488,33,1024
85,85,675,675,#000000,experiment,legacy,legacy,legacy,1,undefined,1,left,33,33,33,0,0,33,33,0,0,33,33,33,0,33,0,Thu Oct 12 10:12:19 2023,The main experiment item,FALSE,SternbergTask.osexp,C:/Users/Simone/Desktop,FALSE,mono,FALSE,18,no,white,no,yes,768,legacy,21,11,C:/Users/Simone/Documents/subject-1.csv,legacy,6 7 9 3 1 2,Melodramatic Milgram,4.0.5,1,y,0,left,left,left,left,NA,482,26242,28992,482,NA,2,legacy,6,1024,2,48000,-16,experiment,1,odd,6,255271,252035,253068,1861,128755,253069,169272,1864,99763,257272,257755,254070,28107,257272,NA,Sternberg Task,29,22970,34,1024
85,85,671,671,#000000,experiment,legacy,legacy,legacy,1,undefined,1,right,34,34,34,0,0,34,34,0,0,34,34,34,0,34,0,Thu Oct 12 10:12:19 2023,The main experiment item,FALSE,SternbergTask.osexp,C:/Users/Simone/Desktop,FALSE,mono,FALSE,18,no,white,no,yes,768,legacy,22,11,C:/Users/Simone/Documents/subject-1.csv,legacy,5 2,Melodramatic Milgram,4.0.5,0,n,0,right,left,left,right,NA,524,26242,28992,524,NA,2,legacy,2,1024,2,48000,-16,experiment,1,odd,7,260996,257759,258790,1861,128755,258791,169272,1864,99763,262997,263522,259794,28107,262997,NA,Sternberg Task,30,23494,35,1024
86,86,665,665,#000000,experiment,legacy,legacy,legacy,1,undefined,1,left,35,35,35,0,0,35,35,0,0,35,35,35,0,35,0,Thu Oct 12 10:12:19 2023,The main experiment item,FALSE,SternbergTask.osexp,C:/Users/Simone/Desktop,FALSE,mono,FALSE,18,no,white,no,yes,768,legacy,23,11,C:/Users/Simone/Documents/subject-1.csv,legacy,4 3 2 5 8,Melodramatic Milgram,4.0.5,2,y,0,left,left,left,left,NA,470,26242,28992,470,NA,2,legacy,5,1024,2,48000,-16,experiment,1,odd,3,266773,263526,264570,1861,128755,264571,169272,1864,99763,268775,269246,265572,28107,268774,NA,Sternberg Task,31,23964,36,1024
86,86,663,663,#000000,experiment,legacy,legacy,legacy,1,undefined,1,right,36,36,36,0,0,36,36,0,0,36,36,36,0,36,0,Thu Oct 12 10:12:19 2023,The main experiment item,FALSE,SternbergTask.osexp,C:/Users/Simone/Desktop,FALSE,mono,FALSE,18,no,white,no,yes,768,legacy,24,11,C:/Users/Simone/Documents/subject-1.csv,legacy,1 7 5 2 9,Melodramatic Milgram,4.0.5,0,n,0,right,left,left,right,NA,570,26242,28992,570,NA,2,legacy,5,1024,2,48000,-16,experiment,1,odd,3,272492,269250,270288,1861,128755,270289,169272,1864,99763,274494,275065,271291,28107,274494,NA,Sternberg Task,32,24534,37,1024
86,86,657,657,#000000,experiment,legacy,legacy,legacy,1,undefined,1,left,37,37,37,0,0,37,37,0,0,37,37,37,0,37,0,Thu Oct 12 10:12:19 2023,The main experiment item,FALSE,SternbergTask.osexp,C:/Users/Simone/Desktop,FALSE,mono,FALSE,18,no,white,no,yes,768,legacy,25,11,C:/Users/Simone/Documents/subject-1.csv,legacy,6 2,Melodramatic Milgram,4.0.5,1,y,0,left,left,left,left,NA,450,26242,28992,450,NA,2,legacy,2,1024,2,48000,-16,experiment,1,odd,6,278304,275069,276100,1861,128755,276101,169272,1864,99763,280305,280755,277102,28107,280305,NA,Sternberg Task,33,24984,38,1024
87,87,654,654,#000000,experiment,legacy,legacy,legacy,1,undefined,1,right,38,38,38,0,0,38,38,0,0,38,38,38,0,38,0,Thu Oct 12 10:12:19 2023,The main experiment item,FALSE,SternbergTask.osexp,C:/Users/Simone/Desktop,FALSE,mono,FALSE,18,no,white,no,yes,768,legacy,26,11,C:/Users/Simone/Documents/subject-1.csv,legacy,6 3 1 7 9 8,Melodramatic Milgram,4.0.5,0,n,0,right,left,left,right,NA,544,26242,28992,544,NA,2,legacy,6,1024,2,48000,-16,experiment,1,odd,4,284010,280759,281805,1861,128755,281806,169272,1864,99763,286011,286556,282807,28107,286011,NA,Sternberg Task,34,25528,39,1024
87,87,655,655,#000000,experiment,legacy,legacy,legacy,1,undefined,1,left,39,39,39,0,0,39,39,0,0,39,39,39,0,39,0,Thu Oct 12 10:12:19 2023,The main experiment item,FALSE,SternbergTask.osexp,C:/Users/Simone/Desktop,FALSE,mono,FALSE,18,no,white,no,yes,768,legacy,27,11,C:/Users/Simone/Documents/subject-1.csv,legacy,7 1 3,Melodramatic Milgram,4.0.5,2,y,0,left,left,left,left,NA,676,26242,28992,676,NA,2,legacy,3,1024,2,48000,-16,experiment,1,odd,1,289796,286559,287593,1861,128755,287594,169272,1864,99763,291797,292473,288595,28107,291797,NA,Sternberg Task,35,26204,40,1024
87,87,653,653,#000000,experiment,legacy,legacy,legacy,1,undefined,1,right,40,40,40,0,0,40,40,0,0,40,40,40,0,40,0,Thu Oct 12 10:12:19 2023,The main experiment item,FALSE,SternbergTask.osexp,C:/Users/Simone/Desktop,FALSE,mono,FALSE,18,no,white,no,yes,768,legacy,28,11,C:/Users/Simone/Documents/subject-1.csv,legacy,7 9 1 6,Melodramatic Milgram,4.0.5,0,n,0,right,left,left,right,NA,593,26242,28992,593,NA,2,legacy,4,1024,2,48000,-16,experiment,1,odd,4,295713,292477,293510,1861,128755,293511,169272,1864,99763,297715,298309,294512,28107,297715,NA,Sternberg Task,36,26797,41,1024
88,88,658,658,#000000,experiment,legacy,legacy,legacy,1,undefined,1,left,41,41,41,0,0,41,41,0,0,41,41,41,0,41,0,Thu Oct 12 10:12:19 2023,The main experiment item,FALSE,SternbergTask.osexp,C:/Users/Simone/Desktop,FALSE,mono,FALSE,18,no,white,no,yes,768,legacy,29,11,C:/Users/Simone/Documents/subject-1.csv,legacy,8 5 4 7 3 1,Melodramatic Milgram,4.0.5,2,y,0,left,left,left,left,NA,875,26242,28992,875,NA,2,legacy,6,1024,2,48000,-16,experiment,1,odd,5,301549,298314,299344,1861,128755,299345,169272,1864,99763,303550,304426,300347,28107,303550,NA,Sternberg Task,37,27672,42,1024
88,88,658,658,#000000,experiment,legacy,legacy,legacy,1,undefined,1,right,42,42,42,0,0,42,42,0,0,42,42,42,0,42,0,Thu Oct 12 10:12:19 2023,The main experiment item,FALSE,SternbergTask.osexp,C:/Users/Simone/Desktop,FALSE,mono,FALSE,18,no,white,no,yes,768,legacy,30,11,C:/Users/Simone/Documents/subject-1.csv,legacy,6 9 5,Melodramatic Milgram,4.0.5,0,n,0,right,left,left,right,NA,655,26242,28992,655,NA,2,legacy,3,1024,2,48000,-16,experiment,1,odd,8,307667,304430,305464,1861,128755,305465,169272,1864,99763,309670,310326,306466,28107,309669,NA,Sternberg Task,38,28327,43,1024
88,88,657,657,#000000,experiment,legacy,legacy,legacy,1,undefined,1,right,43,43,43,0,0,43,43,0,0,43,43,43,0,43,0,Thu Oct 12 10:12:19 2023,The main experiment item,FALSE,SternbergTask.osexp,C:/Users/Simone/Desktop,FALSE,mono,FALSE,18,no,white,no,yes,768,legacy,31,11,C:/Users/Simone/Documents/subject-1.csv,legacy,8 4 3 9,Melodramatic Milgram,4.0.5,0,n,0,right,left,left,right,NA,616,26242,28992,616,NA,2,legacy,4,1024,2,48000,-16,experiment,1,odd,5,313569,310329,311364,1861,128755,311366,169272,1864,99763,315570,316187,312367,28107,315570,NA,Sternberg Task,39,28943,44,1024
88,88,657,657,#000000,experiment,legacy,legacy,legacy,1,undefined,1,right,44,44,44,0,0,44,44,0,0,44,44,44,0,44,0,Thu Oct 12 10:12:19 2023,The main experiment item,FALSE,SternbergTask.osexp,C:/Users/Simone/Desktop,FALSE,mono,FALSE,18,no,white,no,yes,768,legacy,32,11,C:/Users/Simone/Documents/subject-1.csv,legacy,9,Melodramatic Milgram,4.0.5,0,n,0,right,left,left,right,NA,662,26242,28992,662,NA,2,legacy,1,1024,2,48000,-16,experiment,1,odd,6,319424,316189,317219,1861,128755,317221,169272,1864,99763,321425,322087,318222,28107,321425,NA,Sternberg Task,40,29605,45,1024
89,89,658,658,#000000,experiment,legacy,legacy,legacy,1,undefined,1,right,45,45,45,0,0,45,45,0,0,45,45,45,0,45,0,Thu Oct 12 10:12:19 2023,The main experiment item,FALSE,SternbergTask.osexp,C:/Users/Simone/Desktop,FALSE,mono,FALSE,18,no,white,no,yes,768,legacy,33,11,C:/Users/Simone/Documents/subject-1.csv,legacy,6 2 9 3 8 4,Melodramatic Milgram,4.0.5,0,n,0,right,left,left,right,NA,707,26242,28992,707,NA,2,legacy,6,1024,2,48000,-16,experiment,1,odd,1,325331,322091,323127,1861,128755,323128,169272,1864,99763,327332,328039,324130,28107,327332,NA,Sternberg Task,41,30312,46,1024
89,89,658,658,#000000,experiment,legacy,legacy,legacy,1,undefined,1,right,46,46,46,0,0,46,46,0,0,46,46,46,0,46,0,Thu Oct 12 10:12:19 2023,The main experiment item,FALSE,SternbergTask.osexp,C:/Users/Simone/Desktop,FALSE,mono,FALSE,18,no,white,no,yes,768,legacy,34,11,C:/Users/Simone/Documents/subject-1.csv,legacy,1 5 3 2 8,Melodramatic Milgram,4.0.5,0,n,0,right,left,left,right,NA,620,26242,28992,620,NA,2,legacy,5,1024,2,48000,-16,experiment,1,odd,4,331290,328044,329086,1861,128755,329087,169272,1864,99763,333292,333912,330089,28107,333292,NA,Sternberg Task,42,30932,47,1024
89,89,655,655,#000000,experiment,legacy,legacy,legacy,1,undefined,1,right,47,47,47,0,0,47,47,0,0,47,47,47,0,47,0,Thu Oct 12 10:12:19 2023,The main experiment item,FALSE,SternbergTask.osexp,C:/Users/Simone/Desktop,FALSE,mono,FALSE,18,no,white,no,yes,768,legacy,35,11,C:/Users/Simone/Documents/subject-1.csv,legacy,2 8 7 9 5 3,Melodramatic Milgram,4.0.5,0,n,0,right,left,left,right,NA,521,26242,28992,521,NA,2,legacy,6,1024,2,48000,-16,experiment,1,odd,6,337156,333923,334953,1861,128755,334954,169272,1864,99763,339157,339678,335955,28107,339157,NA,Sternberg Task,43,31453,48,1024
89,89,657,657,#000000,experiment,legacy,legacy,legacy,1,undefined,1,right,48,48,48,0,0,48,48,0,0,48,48,48,0,48,0,Thu Oct 12 10:12:19 2023,The main experiment item,FALSE,SternbergTask.osexp,C:/Users/Simone/Desktop,FALSE,mono,FALSE,18,no,white,no,yes,768,legacy,36,11,C:/Users/Simone/Documents/subject-1.csv,legacy,8 5 4 2 9 6,Melodramatic Milgram,4.0.5,0,n,0,right,left,left,right,NA,741,26242,28992,741,NA,2,legacy,6,1024,2,48000,-16,experiment,1,odd,3,342927,339682,340723,1861,128755,340725,169272,1864,99763,344928,345669,341726,28107,344928,NA,Sternberg Task,44,32194,49,1024
90,90,660,660,#000000,experiment,legacy,legacy,legacy,1,undefined,1,right,49,49,49,0,0,49,49,0,0,49,49,49,0,49,0,Thu Oct 12 10:12:19 2023,The main experiment item,FALSE,SternbergTask.osexp,C:/Users/Simone/Desktop,FALSE,mono,FALSE,18,no,white,no,yes,768,legacy,37,11,C:/Users/Simone/Documents/subject-1.csv,legacy,4 8 1 2,Melodramatic Milgram,4.0.5,0,n,0,right,left,left,right,NA,810,26242,28992,810,NA,2,legacy,4,1024,2,48000,-16,experiment,1,odd,7,348913,345673,346709,1861,128755,346710,169272,1864,99763,350914,351725,347711,28107,350914,NA,Sternberg Task,45,33004,50,1024
90,90,659,659,#000000,experiment,legacy,legacy,legacy,1,undefined,1,right,50,50,50,0,0,50,50,0,0,50,50,50,0,50,0,Thu Oct 12 10:12:19 2023,The main experiment item,FALSE,SternbergTask.osexp,C:/Users/Simone/Desktop,FALSE,mono,FALSE,18,no,white,no,yes,768,legacy,38,11,C:/Users/Simone/Documents/subject-1.csv,legacy,7 4 2 8 1 9,Melodramatic Milgram,4.0.5,0,n,0,right,left,left,right,NA,624,26242,28992,624,NA,2,legacy,6,1024,2,48000,-16,experiment,1,odd,5,354973,351729,352770,1861,128755,352771,169272,1864,99763,356974,357599,353772,28107,356974,NA,Sternberg Task,46,33628,51,1024
90,90,656,656,#000000,experiment,legacy,legacy,legacy,1,undefined,1,right,51,51,51,0,0,51,51,0,0,51,51,51,0,51,0,Thu Oct 12 10:12:19 2023,The main experiment item,FALSE,SternbergTask.osexp,C:/Users/Simone/Desktop,FALSE,mono,FALSE,18,no,white,no,yes,768,legacy,39,11,C:/Users/Simone/Documents/subject-1.csv,legacy,4 2 6 9,Melodramatic Milgram,4.0.5,0,n,0,right,left,left,right,NA,484,26242,28992,484,NA,2,legacy,4,1024,2,48000,-16,experiment,1,odd,7,360849,357603,358645,1861,128755,358646,169272,1864,99763,362850,363335,359647,28107,362850,NA,Sternberg Task,47,34112,52,1024
90,90,655,655,#000000,experiment,legacy,legacy,legacy,1,undefined,1,left,52,52,52,0,0,52,52,0,0,52,52,52,0,52,0,Thu Oct 12 10:12:19 2023,The main experiment item,FALSE,SternbergTask.osexp,C:/Users/Simone/Desktop,FALSE,mono,FALSE,18,no,white,no,yes,768,legacy,40,11,C:/Users/Simone/Documents/subject-1.csv,legacy,9 5 3 8 4,Melodramatic Milgram,4.0.5,1,y,0,left,left,left,left,NA,606,26242,28992,606,NA,2,legacy,5,1024,2,48000,-16,experiment,1,odd,9,366577,363339,364374,1861,128755,364375,169272,1864,99763,368578,369184,365376,28107,368578,NA,Sternberg Task,48,34718,53,1024
90,90,658,658,#000000,experiment,legacy,legacy,legacy,1,undefined,1,left,53,53,53,0,0,53,53,0,0,53,53,53,0,53,0,Thu Oct 12 10:12:19 2023,The main experiment item,FALSE,SternbergTask.osexp,C:/Users/Simone/Desktop,FALSE,mono,FALSE,18,no,white,no,yes,768,legacy,41,11,C:/Users/Simone/Documents/subject-1.csv,legacy,9 3 1 2 5,Melodramatic Milgram,4.0.5,4,y,0,left,left,left,left,NA,841,26242,28992,841,NA,2,legacy,5,1024,2,48000,-16,experiment,1,odd,2,372434,369189,370230,1861,128755,370231,169272,1864,99763,374435,375277,371232,28107,374435,NA,Sternberg Task,49,35559,54,1024
90,90,659,659,#000000,experiment,legacy,legacy,legacy,1,undefined,1,right,54,54,54,0,0,54,54,0,0,54,54,54,0,54,0,Thu Oct 12 10:12:19 2023,The main experiment item,FALSE,SternbergTask.osexp,C:/Users/Simone/Desktop,FALSE,mono,FALSE,18,no,white,no,yes,768,legacy,42,11,C:/Users/Simone/Documents/subject-1.csv,legacy,1 4 9 3,Melodramatic Milgram,4.0.5,0,n,0,right,left,left,right,NA,693,26242,28992,693,NA,2,legacy,4,1024,2,48000,-16,experiment,1,odd,5,378530,375281,376326,1861,128755,376327,169272,1864,99763,380531,381225,377329,28107,380531,NA,Sternberg Task,50,36252,55,1024
91,91,656,656,#000000,experiment,legacy,legacy,legacy,1,undefined,1,right,55,55,55,0,0,55,55,0,0,55,55,55,0,55,0,Thu Oct 12 10:12:19 2023,The main experiment item,FALSE,SternbergTask.osexp,C:/Users/Simone/Desktop,FALSE,mono,FALSE,18,no,white,no,yes,768,legacy,43,11,C:/Users/Simone/Documents/subject-1.csv,legacy,2 8 6 3 1,Melodramatic Milgram,4.0.5,0,n,0,right,left,left,right,NA,498,26242,28992,498,NA,2,legacy,5,1024,2,48000,-16,experiment,1,odd,7,384472,381229,382268,1861,128755,382269,169272,1864,99763,386473,386972,383271,28107,386473,NA,Sternberg Task,51,36750,56,1024
91,91,653,653,#000000,experiment,legacy,legacy,legacy,1,undefined,1,right,56,56,56,0,0,56,56,0,0,56,56,56,0,56,0,Thu Oct 12 10:12:19 2023,The main experiment item,FALSE,SternbergTask.osexp,C:/Users/Simone/Desktop,FALSE,mono,FALSE,18,no,white,no,yes,768,legacy,44,11,C:/Users/Simone/Documents/subject-1.csv,legacy,8 2 1 4 5 9,Melodramatic Milgram,4.0.5,0,n,0,right,left,left,right,NA,492,26242,28992,492,NA,2,legacy,6,1024,2,48000,-16,experiment,1,odd,7,390220,386976,388015,1861,128755,388017,169272,1864,99763,392222,392714,389019,28107,392222,NA,Sternberg Task,52,37242,57,1024
91,91,650,650,#000000,experiment,legacy,legacy,legacy,1,undefined,1,left,57,57,57,0,0,57,57,0,0,57,57,57,0,57,0,Thu Oct 12 10:12:19 2023,The main experiment item,FALSE,SternbergTask.osexp,C:/Users/Simone/Desktop,FALSE,mono,FALSE,18,no,white,no,yes,768,legacy,45,11,C:/Users/Simone/Documents/subject-1.csv,legacy,2 3 7 4,Melodramatic Milgram,4.0.5,1,y,0,left,left,left,left,NA,494,26242,28992,494,NA,2,legacy,4,1024,2,48000,-16,experiment,1,odd,2,395953,392718,393748,1861,128755,393750,169272,1864,99763,397954,398448,394752,28107,397954,NA,Sternberg Task,53,37736,58,1024
91,91,649,649,#000000,experiment,legacy,legacy,legacy,1,undefined,1,left,58,58,58,0,0,58,58,0,0,58,58,58,0,58,0,Thu Oct 12 10:12:19 2023,The main experiment item,FALSE,SternbergTask.osexp,C:/Users/Simone/Desktop,FALSE,mono,FALSE,18,no,white,no,yes,768,legacy,46,11,C:/Users/Simone/Documents/subject-1.csv,legacy,4 1 8 7 5,Melodramatic Milgram,4.0.5,3,y,0,left,left,left,left,NA,613,26242,28992,613,NA,2,legacy,5,1024,2,48000,-16,experiment,1,odd,8,401690,398452,399485,1861,128755,399486,169272,1864,99763,403691,404304,400487,28107,403691,NA,Sternberg Task,54,38349,59,1024
91,91,648,648,#000000,experiment,legacy,legacy,legacy,1,undefined,1,right,59,59,59,0,0,59,59,0,0,59,59,59,0,59,0,Thu Oct 12 10:12:19 2023,The main experiment item,FALSE,SternbergTask.osexp,C:/Users/Simone/Desktop,FALSE,mono,FALSE,18,no,white,no,yes,768,legacy,47,11,C:/Users/Simone/Documents/subject-1.csv,legacy,6 9 4 5 2,Melodramatic Milgram,4.0.5,0,n,0,right,left,left,right,NA,557,26242,28992,557,NA,2,legacy,5,1024,2,48000,-16,experiment,1,odd,1,407554,404309,405351,1861,128755,405352,169272,1864,99763,409555,410113,406353,28107,409555,NA,Sternberg Task,55,38906,60,1024
91,91,646,646,#000000,experiment,legacy,legacy,legacy,1,undefined,1,left,60,60,60,0,0,60,60,0,0,60,60,60,0,60,0,Thu Oct 12 10:12:19 2023,The main experiment item,FALSE,SternbergTask.osexp,C:/Users/Simone/Desktop,FALSE,mono,FALSE,18,no,white,no,yes,768,legacy,48,11,C:/Users/Simone/Documents/subject-1.csv,legacy,6 7 8 5,Melodramatic Milgram,4.0.5,3,y,0,left,left,left,left,NA,537,26242,28992,537,NA,2,legacy,4,1024,2,48000,-16,experiment,1,odd,8,413360,410117,411155,1861,128755,411156,169272,1864,99763,415361,415898,412157,28107,415361,NA,Sternberg Task,56,39443,61,1024
90,90,646,646,#000000,experiment,legacy,legacy,legacy,0,undefined,0,left,61,61,61,0,0,61,61,0,0,61,61,61,0,61,0,Thu Oct 12 10:12:19 2023,The main experiment item,FALSE,SternbergTask.osexp,C:/Users/Simone/Desktop,FALSE,mono,FALSE,18,no,white,no,yes,768,legacy,49,11,C:/Users/Simone/Documents/subject-1.csv,legacy,2 8 5 1,Melodramatic Milgram,4.0.5,4,y,0,right,left,left,right,NA,617,26242,28992,617,NA,2,legacy,4,1024,2,48000,-16,experiment,1,odd,1,419157,415902,416952,1861,128755,416953,169272,1864,99763,421158,421775,417955,28107,421158,NA,Sternberg Task,56,40060,62,1024
90,90,645,645,#000000,experiment,legacy,legacy,legacy,1,undefined,1,left,62,62,62,0,0,62,62,0,0,62,62,62,0,62,0,Thu Oct 12 10:12:19 2023,The main experiment item,FALSE,SternbergTask.osexp,C:/Users/Simone/Desktop,FALSE,mono,FALSE,18,no,white,no,yes,768,legacy,50,11,C:/Users/Simone/Documents/subject-1.csv,legacy,6 9 3 1,Melodramatic Milgram,4.0.5,4,y,0,left,left,left,left,NA,631,26242,28992,631,NA,2,legacy,4,1024,2,48000,-16,experiment,1,odd,1,425017,415902,422814,1861,128755,422815,421780,1864,99763,427018,427650,423816,28107,427018,NA,Sternberg Task,57,40691,63,1024
90,90,644,644,#000000,experiment,legacy,legacy,legacy,1,undefined,1,right,63,63,63,0,0,63,63,0,0,63,63,63,0,63,0,Thu Oct 12 10:12:19 2023,The main experiment item,FALSE,SternbergTask.osexp,C:/Users/Simone/Desktop,FALSE,mono,FALSE,18,no,white,no,yes,768,legacy,51,11,C:/Users/Simone/Documents/subject-1.csv,legacy,3 9 8 1 6 4,Melodramatic Milgram,4.0.5,0,n,0,right,left,left,right,NA,567,26242,28992,567,NA,2,legacy,6,1024,2,48000,-16,experiment,1,odd,7,430890,427654,428687,1861,128755,428688,421780,1864,99763,432892,433459,429689,28107,432892,NA,Sternberg Task,58,41258,64,1024
90,90,643,643,#000000,experiment,legacy,legacy,legacy,1,undefined,1,right,64,64,64,0,0,64,64,0,0,64,64,64,0,64,0,Thu Oct 12 10:12:19 2023,The main experiment item,FALSE,SternbergTask.osexp,C:/Users/Simone/Desktop,FALSE,mono,FALSE,18,no,white,no,yes,768,legacy,52,11,C:/Users/Simone/Documents/subject-1.csv,legacy,4 1,Melodramatic Milgram,4.0.5,0,n,0,right,left,left,right,NA,548,26242,28992,548,NA,2,legacy,2,1024,2,48000,-16,experiment,1,odd,6,436702,433464,434497,1861,128755,434498,421780,1864,99763,438703,439252,435501,28107,438703,NA,Sternberg Task,59,41806,65,1024
90,90,643,643,#000000,experiment,legacy,legacy,legacy,1,undefined,1,left,65,65,65,0,0,65,65,0,0,65,65,65,0,65,0,Thu Oct 12 10:12:19 2023,The main experiment item,FALSE,SternbergTask.osexp,C:/Users/Simone/Desktop,FALSE,mono,FALSE,18,no,white,no,yes,768,legacy,53,11,C:/Users/Simone/Documents/subject-1.csv,legacy,2 5 4 8 7,Melodramatic Milgram,4.0.5,3,y,0,left,left,left,left,NA,696,26242,28992,696,NA,2,legacy,5,1024,2,48000,-16,experiment,1,odd,4,442492,439255,440289,1861,128755,440290,421780,1864,99763,444493,445189,441291,28107,444493,NA,Sternberg Task,60,42502,66,1024
91,91,643,643,#000000,experiment,legacy,legacy,legacy,1,undefined,1,left,66,66,66,0,0,66,66,0,0,66,66,66,0,66,0,Thu Oct 12 10:12:19 2023,The main experiment item,FALSE,SternbergTask.osexp,C:/Users/Simone/Desktop,FALSE,mono,FALSE,18,no,white,no,yes,768,legacy,54,11,C:/Users/Simone/Documents/subject-1.csv,legacy,6 1 2,Melodramatic Milgram,4.0.5,3,y,0,left,left,left,left,NA,640,26242,28992,640,NA,2,legacy,3,1024,2,48000,-16,experiment,1,odd,2,448435,445194,446232,1861,128755,446233,421780,1864,99763,450437,451077,447234,28107,450437,NA,Sternberg Task,61,43142,67,1024
91,91,646,646,#000000,experiment,legacy,legacy,legacy,1,undefined,1,left,67,67,67,0,0,67,67,0,0,67,67,67,0,67,0,Thu Oct 12 10:12:19 2023,The main experiment item,FALSE,SternbergTask.osexp,C:/Users/Simone/Desktop,FALSE,mono,FALSE,18,no,white,no,yes,768,legacy,55,11,C:/Users/Simone/Documents/subject-1.csv,legacy,8 9 5 6 7,Melodramatic Milgram,4.0.5,1,y,0,left,left,left,left,NA,794,26242,28992,794,NA,2,legacy,5,1024,2,48000,-16,experiment,1,odd,8,454319,451080,452114,1861,128755,452115,421780,1864,99763,456320,457115,453117,28107,456320,NA,Sternberg Task,62,43936,68,1024
89,89,648,648,#000000,experiment,legacy,legacy,legacy,0,undefined,0,right,68,68,68,0,0,68,68,0,0,68,68,68,0,68,0,Thu Oct 12 10:12:19 2023,The main experiment item,FALSE,SternbergTask.osexp,C:/Users/Simone/Desktop,FALSE,mono,FALSE,18,no,white,no,yes,768,legacy,56,11,C:/Users/Simone/Documents/subject-1.csv,legacy,2 8 9 4 1,Melodramatic Milgram,4.0.5,0,n,0,left,left,left,left,NA,815,26242,28992,815,NA,2,legacy,5,1024,2,48000,-16,experiment,1,odd,5,460364,457119,458160,1861,128755,458162,421780,1864,99763,462365,463180,459163,28107,462365,NA,Sternberg Task,62,44751,69,1024
90,90,646,646,#000000,experiment,legacy,legacy,legacy,1,undefined,1,left,69,69,69,0,0,69,69,0,0,69,69,69,0,69,0,Thu Oct 12 10:12:19 2023,The main experiment item,FALSE,SternbergTask.osexp,C:/Users/Simone/Desktop,FALSE,mono,FALSE,18,no,white,no,yes,768,legacy,57,11,C:/Users/Simone/Documents/subject-1.csv,legacy,8 7 3,Melodramatic Milgram,4.0.5,1,y,0,left,left,left,left,NA,492,26242,28992,492,NA,2,legacy,3,1024,2,48000,-16,experiment,1,odd,8,466421,457119,464218,1861,128755,464219,463184,1864,99763,468422,468915,465220,28107,468422,NA,Sternberg Task,63,45243,70,1024
90,90,644,644,#000000,experiment,legacy,legacy,legacy,1,undefined,1,right,70,70,70,0,0,70,70,0,0,70,70,70,0,70,0,Thu Oct 12 10:12:19 2023,The main experiment item,FALSE,SternbergTask.osexp,C:/Users/Simone/Desktop,FALSE,mono,FALSE,18,no,white,no,yes,768,legacy,58,11,C:/Users/Simone/Documents/subject-1.csv,legacy,6 8 4,Melodramatic Milgram,4.0.5,0,n,0,right,left,left,right,NA,511,26242,28992,511,NA,2,legacy,3,1024,2,48000,-16,experiment,1,odd,1,472153,468919,469949,1861,128755,469951,463184,1864,99763,474154,474666,470952,28107,474154,NA,Sternberg Task,64,45754,71,1024
90,90,641,641,#000000,experiment,legacy,legacy,legacy,1,undefined,1,left,71,71,71,0,0,71,71,0,0,71,71,71,0,71,0,Thu Oct 12 10:12:19 2023,The main experiment item,FALSE,SternbergTask.osexp,C:/Users/Simone/Desktop,FALSE,mono,FALSE,18,no,white,no,yes,768,legacy,59,11,C:/Users/Simone/Documents/subject-1.csv,legacy,9 5 8 1,Melodramatic Milgram,4.0.5,2,y,0,left,left,left,left,NA,427,26242,28992,427,NA,2,legacy,4,1024,2,48000,-16,experiment,1,odd,5,477913,474670,475710,1861,128755,475711,463184,1864,99763,479914,480341,476712,28107,479914,NA,Sternberg Task,65,46181,72,1024
90,90,640,640,#000000,experiment,legacy,legacy,legacy,1,undefined,1,left,72,72,72,0,0,72,72,0,0,72,72,72,0,72,0,Thu Oct 12 10:12:19 2023,The main experiment item,FALSE,SternbergTask.osexp,C:/Users/Simone/Desktop,FALSE,mono,FALSE,18,no,white,no,yes,768,legacy,60,11,C:/Users/Simone/Documents/subject-1.csv,legacy,4 6 5 8,Melodramatic Milgram,4.0.5,1,y,0,left,left,left,left,NA,572,26242,28992,572,NA,2,legacy,4,1024,2,48000,-16,experiment,1,odd,4,483582,480345,481378,1861,128755,481379,463184,1864,99763,485583,486156,482381,28107,485583,NA,Sternberg Task,66,46753,73,1024
90,90,639,639,#000000,experiment,legacy,legacy,legacy,1,undefined,1,right,73,73,73,0,0,73,73,0,0,73,73,73,0,73,0,Thu Oct 12 10:12:19 2023,The main experiment item,FALSE,SternbergTask.osexp,C:/Users/Simone/Desktop,FALSE,mono,FALSE,18,no,white,no,yes,768,legacy,61,11,C:/Users/Simone/Documents/subject-1.csv,legacy,1 7 5 2,Melodramatic Milgram,4.0.5,0,n,0,right,left,left,right,NA,576,26242,28992,576,NA,2,legacy,4,1024,2,48000,-16,experiment,1,odd,3,489400,486159,487195,1861,128755,487196,463184,1864,99763,491401,491978,488197,28107,491401,NA,Sternberg Task,67,47329,74,1024
90,90,639,639,#000000,experiment,legacy,legacy,legacy,1,undefined,1,left,74,74,74,0,0,74,74,0,0,74,74,74,0,74,0,Thu Oct 12 10:12:19 2023,The main experiment item,FALSE,SternbergTask.osexp,C:/Users/Simone/Desktop,FALSE,mono,FALSE,18,no,white,no,yes,768,legacy,62,11,C:/Users/Simone/Documents/subject-1.csv,legacy,6 5,Melodramatic Milgram,4.0.5,2,y,0,left,left,left,left,NA,642,26242,28992,642,NA,2,legacy,2,1024,2,48000,-16,experiment,1,odd,5,495225,491982,493022,1861,128755,493023,463184,1864,99763,497226,497869,494024,28107,497226,NA,Sternberg Task,68,47971,75,1024
90,90,641,641,#000000,experiment,legacy,legacy,legacy,1,undefined,1,left,75,75,75,0,0,75,75,0,0,75,75,75,0,75,0,Thu Oct 12 10:12:19 2023,The main experiment item,FALSE,SternbergTask.osexp,C:/Users/Simone/Desktop,FALSE,mono,FALSE,18,no,white,no,yes,768,legacy,63,11,C:/Users/Simone/Documents/subject-1.csv,legacy,2 6 1 7 4,Melodramatic Milgram,4.0.5,2,y,0,left,left,left,left,NA,771,26242,28992,771,NA,2,legacy,5,1024,2,48000,-16,experiment,1,odd,6,501111,497874,498906,1861,128755,498907,463184,1864,99763,503112,503884,499909,28107,503112,NA,Sternberg Task,69,48742,76,1024
90,90,644,644,#000000,experiment,legacy,legacy,legacy,1,undefined,1,right,76,76,76,0,0,76,76,0,0,76,76,76,0,76,0,Thu Oct 12 10:12:19 2023,The main experiment item,FALSE,SternbergTask.osexp,C:/Users/Simone/Desktop,FALSE,mono,FALSE,18,no,white,no,yes,768,legacy,64,11,C:/Users/Simone/Documents/subject-1.csv,legacy,3 4 2,Melodramatic Milgram,4.0.5,0,n,0,right,left,left,right,NA,894,26242,28992,894,NA,2,legacy,3,1024,2,48000,-16,experiment,1,odd,5,507130,503889,504926,1861,128755,504928,463184,1864,99763,509132,510027,505929,28107,509131,NA,Sternberg Task,70,49636,77,1024
91,91,643,643,#000000,experiment,legacy,legacy,legacy,1,undefined,1,left,77,77,77,0,0,77,77,0,0,77,77,77,0,77,0,Thu Oct 12 10:12:19 2023,The main experiment item,FALSE,SternbergTask.osexp,C:/Users/Simone/Desktop,FALSE,mono,FALSE,18,no,white,no,yes,768,legacy,65,11,C:/Users/Simone/Documents/subject-1.csv,legacy,7 6,Melodramatic Milgram,4.0.5,2,y,0,left,left,left,left,NA,593,26242,28992,593,NA,2,legacy,2,1024,2,48000,-16,experiment,1,odd,6,513263,510031,511060,1861,128755,511061,463184,1864,99763,515264,515858,512062,28107,515264,NA,Sternberg Task,71,50229,78,1024
91,91,642,642,#000000,experiment,legacy,legacy,legacy,1,undefined,1,left,78,78,78,0,0,78,78,0,0,78,78,78,0,78,0,Thu Oct 12 10:12:19 2023,The main experiment item,FALSE,SternbergTask.osexp,C:/Users/Simone/Desktop,FALSE,mono,FALSE,18,no,white,no,yes,768,legacy,66,11,C:/Users/Simone/Documents/subject-1.csv,legacy,3 5 9 6 2 4,Melodramatic Milgram,4.0.5,1,y,0,left,left,left,left,NA,515,26242,28992,515,NA,2,legacy,6,1024,2,48000,-16,experiment,1,odd,3,519101,515862,516898,1861,128755,516899,463184,1864,99763,521103,521618,517900,28107,521103,NA,Sternberg Task,72,50744,79,1024
91,91,645,645,#000000,experiment,legacy,legacy,legacy,1,undefined,1,left,79,79,79,0,0,79,79,0,0,79,79,79,0,79,0,Thu Oct 12 10:12:19 2023,The main experiment item,FALSE,SternbergTask.osexp,C:/Users/Simone/Desktop,FALSE,mono,FALSE,18,no,white,no,yes,768,legacy,67,11,C:/Users/Simone/Documents/subject-1.csv,legacy,1 4 9 3 2 5,Melodramatic Milgram,4.0.5,3,y,0,left,left,left,left,NA,865,26242,28992,865,NA,2,legacy,6,1024,2,48000,-16,experiment,1,odd,9,524865,521629,522662,1861,128755,522663,463184,1864,99763,526866,527731,523664,28107,526866,NA,Sternberg Task,73,51609,80,1024
91,91,646,646,#000000,experiment,legacy,legacy,legacy,1,undefined,1,right,80,80,80,0,0,80,80,0,0,80,80,80,0,80,0,Thu Oct 12 10:12:19 2023,The main experiment item,FALSE,SternbergTask.osexp,C:/Users/Simone/Desktop,FALSE,mono,FALSE,18,no,white,no,yes,768,legacy,68,11,C:/Users/Simone/Documents/subject-1.csv,legacy,8 9,Melodramatic Milgram,4.0.5,0,n,0,right,left,left,right,NA,778,26242,28992,778,NA,2,legacy,2,1024,2,48000,-16,experiment,1,odd,5,530977,527737,528773,1861,128755,528775,463184,1864,99763,532979,533758,529776,28107,532979,NA,Sternberg Task,74,52387,81,1024
91,91,647,647,#000000,experiment,legacy,legacy,legacy,1,undefined,1,right,81,81,81,0,0,81,81,0,0,81,81,81,0,81,0,Thu Oct 12 10:12:19 2023,The main experiment item,FALSE,SternbergTask.osexp,C:/Users/Simone/Desktop,FALSE,mono,FALSE,18,no,white,no,yes,768,legacy,69,11,C:/Users/Simone/Documents/subject-1.csv,legacy,1 3 2 6 9,Melodramatic Milgram,4.0.5,0,n,0,right,left,left,right,NA,713,26242,28992,713,NA,2,legacy,5,1024,2,48000,-16,experiment,1,odd,5,537007,533762,534804,1861,128755,534805,463184,1864,99763,539009,539722,535806,28107,539009,NA,Sternberg Task,75,53100,82,1024
91,91,647,647,#000000,experiment,legacy,legacy,legacy,1,undefined,1,left,82,82,82,0,0,82,82,0,0,82,82,82,0,82,0,Thu Oct 12 10:12:19 2023,The main experiment item,FALSE,SternbergTask.osexp,C:/Users/Simone/Desktop,FALSE,mono,FALSE,18,no,white,no,yes,768,legacy,70,11,C:/Users/Simone/Documents/subject-1.csv,legacy,7 4 2 6 3 5,Melodramatic Milgram,4.0.5,6,y,0,left,left,left,left,NA,637,26242,28992,637,NA,2,legacy,6,1024,2,48000,-16,experiment,1,odd,5,542963,539725,540759,1861,128755,540761,463184,1864,99763,544965,545603,541762,28107,544965,NA,Sternberg Task,76,53737,83,1024
91,91,645,645,#000000,experiment,legacy,legacy,legacy,1,undefined,1,left,83,83,83,0,0,83,83,0,0,83,83,83,0,83,0,Thu Oct 12 10:12:19 2023,The main experiment item,FALSE,SternbergTask.osexp,C:/Users/Simone/Desktop,FALSE,mono,FALSE,18,no,white,no,yes,768,legacy,71,11,C:/Users/Simone/Documents/subject-1.csv,legacy,9 1 7 2,Melodramatic Milgram,4.0.5,2,y,0,left,left,left,left,NA,473,26242,28992,473,NA,2,legacy,4,1024,2,48000,-16,experiment,1,odd,1,548850,545607,546647,1861,128755,546648,463184,1864,99763,550852,551325,547649,28107,550852,NA,Sternberg Task,77,54210,84,1024
91,91,645,645,#000000,experiment,legacy,legacy,legacy,1,undefined,1,left,84,84,84,0,0,84,84,0,0,84,84,84,0,84,0,Thu Oct 12 10:12:19 2023,The main experiment item,FALSE,SternbergTask.osexp,C:/Users/Simone/Desktop,FALSE,mono,FALSE,18,no,white,no,yes,768,legacy,72,11,C:/Users/Simone/Documents/subject-1.csv,legacy,8 3,Melodramatic Milgram,4.0.5,2,y,0,left,left,left,left,NA,618,26242,28992,618,NA,2,legacy,2,1024,2,48000,-16,experiment,1,odd,3,554565,551330,552360,1861,128755,552362,463184,1864,99763,556566,557185,553363,28107,556566,NA,Sternberg Task,78,54828,85,1024
91,91,648,648,#000000,experiment,legacy,legacy,legacy,1,undefined,1,left,85,85,85,0,0,85,85,0,0,85,85,85,0,85,0,Thu Oct 12 10:12:19 2023,The main experiment item,FALSE,SternbergTask.osexp,C:/Users/Simone/Desktop,FALSE,mono,FALSE,18,no,white,no,yes,768,legacy,73,11,C:/Users/Simone/Documents/subject-1.csv,legacy,6 9 7 4 5 1,Melodramatic Milgram,4.0.5,2,y,0,left,left,left,left,NA,966,26242,28992,966,NA,2,legacy,6,1024,2,48000,-16,experiment,1,odd,9,560420,557187,558216,1861,128755,558217,463184,1864,99763,562422,563389,559219,28107,562422,NA,Sternberg Task,79,55794,86,1024
91,91,648,648,#000000,experiment,legacy,legacy,legacy,1,undefined,1,right,86,86,86,0,0,86,86,0,0,86,86,86,0,86,0,Thu Oct 12 10:12:19 2023,The main experiment item,FALSE,SternbergTask.osexp,C:/Users/Simone/Desktop,FALSE,mono,FALSE,18,no,white,no,yes,768,legacy,74,11,C:/Users/Simone/Documents/subject-1.csv,legacy,8 5 7 3 6,Melodramatic Milgram,4.0.5,0,n,0,right,left,left,right,NA,655,26242,28992,655,NA,2,legacy,5,1024,2,48000,-16,experiment,1,odd,9,566627,563396,564424,1861,128755,564425,463184,1864,99763,568629,569284,565426,28107,568629,NA,Sternberg Task,80,56449,87,1024
92,92,647,647,#000000,experiment,legacy,legacy,legacy,1,undefined,1,left,87,87,87,0,0,87,87,0,0,87,87,87,0,87,0,Thu Oct 12 10:12:19 2023,The main experiment item,FALSE,SternbergTask.osexp,C:/Users/Simone/Desktop,FALSE,mono,FALSE,18,no,white,no,yes,768,legacy,75,11,C:/Users/Simone/Documents/subject-1.csv,legacy,7 8 6 3 1,Melodramatic Milgram,4.0.5,5,y,0,left,left,left,left,NA,548,26242,28992,548,NA,2,legacy,5,1024,2,48000,-16,experiment,1,odd,1,572526,569289,570323,1861,128755,570324,463184,1864,99763,574527,575075,571325,28107,574527,NA,Sternberg Task,81,56997,88,1024
92,92,646,646,#000000,experiment,legacy,legacy,legacy,1,undefined,1,right,88,88,88,0,0,88,88,0,0,88,88,88,0,88,0,Thu Oct 12 10:12:19 2023,The main experiment item,FALSE,SternbergTask.osexp,C:/Users/Simone/Desktop,FALSE,mono,FALSE,18,no,white,no,yes,768,legacy,76,11,C:/Users/Simone/Documents/subject-1.csv,legacy,5,Melodramatic Milgram,4.0.5,0,n,0,right,left,left,right,NA,531,26242,28992,531,NA,2,legacy,1,1024,2,48000,-16,experiment,1,odd,8,578322,575079,576118,1861,128755,576119,463184,1864,99763,580323,580854,577121,28107,580323,NA,Sternberg Task,82,57528,89,1024
92,92,650,650,#000000,experiment,legacy,legacy,legacy,1,undefined,1,right,89,89,89,0,0,89,89,0,0,89,89,89,0,89,0,Thu Oct 12 10:12:19 2023,The main experiment item,FALSE,SternbergTask.osexp,C:/Users/Simone/Desktop,FALSE,mono,FALSE,18,no,white,no,yes,768,legacy,77,11,C:/Users/Simone/Documents/subject-1.csv,legacy,1 7 8 3 9,Melodramatic Milgram,4.0.5,0,n,0,right,left,left,right,NA,1023,26242,28992,1023,NA,2,legacy,5,1024,2,48000,-16,experiment,1,odd,2,584099,580859,581894,1861,128755,581895,463184,1864,99763,586101,587125,582897,28107,586100,NA,Sternberg Task,83,58551,90,1024
92,92,654,654,#000000,experiment,legacy,legacy,legacy,1,undefined,1,right,90,90,90,0,0,90,90,0,0,90,90,90,0,90,0,Thu Oct 12 10:12:19 2023,The main experiment item,FALSE,SternbergTask.osexp,C:/Users/Simone/Desktop,FALSE,mono,FALSE,18,no,white,no,yes,768,legacy,78,11,C:/Users/Simone/Documents/subject-1.csv,legacy,5 3 2 6 9 8,Melodramatic Milgram,4.0.5,0,n,0,right,left,left,right,NA,974,26242,28992,974,NA,2,legacy,6,1024,2,48000,-16,experiment,1,odd,4,590367,587129,588162,1861,128755,588164,463184,1864,99763,592369,593344,589166,28107,592369,NA,Sternberg Task,84,59525,91,1024
92,92,653,653,#000000,experiment,legacy,legacy,legacy,1,undefined,1,left,91,91,91,0,0,91,91,0,0,91,91,91,0,91,0,Thu Oct 12 10:12:19 2023,The main experiment item,FALSE,SternbergTask.osexp,C:/Users/Simone/Desktop,FALSE,mono,FALSE,18,no,white,no,yes,768,legacy,79,11,C:/Users/Simone/Documents/subject-1.csv,legacy,5 2 6,Melodramatic Milgram,4.0.5,2,y,0,left,left,left,left,NA,627,26242,28992,627,NA,2,legacy,3,1024,2,48000,-16,experiment,1,odd,2,596611,593354,594408,1861,128755,594409,463184,1864,99763,598613,599241,595410,28107,598613,NA,Sternberg Task,85,60152,92,1024
92,92,652,652,#000000,experiment,legacy,legacy,legacy,1,undefined,1,left,92,92,92,0,0,92,92,0,0,92,92,92,0,92,0,Thu Oct 12 10:12:19 2023,The main experiment item,FALSE,SternbergTask.osexp,C:/Users/Simone/Desktop,FALSE,mono,FALSE,18,no,white,no,yes,768,legacy,80,11,C:/Users/Simone/Documents/subject-1.csv,legacy,4 1 5,Melodramatic Milgram,4.0.5,2,y,0,left,left,left,left,NA,545,26242,28992,545,NA,2,legacy,3,1024,2,48000,-16,experiment,1,odd,1,602495,599252,600290,1861,128755,600292,463184,1864,99763,604496,605042,601293,28107,604496,NA,Sternberg Task,86,60697,93,1024
92,92,655,655,#000000,experiment,legacy,legacy,legacy,1,undefined,1,right,93,93,93,0,0,93,93,0,0,93,93,93,0,93,0,Thu Oct 12 10:12:19 2023,The main experiment item,FALSE,SternbergTask.osexp,C:/Users/Simone/Desktop,FALSE,mono,FALSE,18,no,white,no,yes,768,legacy,81,11,C:/Users/Simone/Documents/subject-1.csv,legacy,6 9 4 5 3 2,Melodramatic Milgram,4.0.5,0,n,0,right,left,left,right,NA,895,26242,28992,895,NA,2,legacy,6,1024,2,48000,-16,experiment,1,odd,8,608288,605046,606084,1861,128755,606085,463184,1864,99763,610289,611185,607086,28107,610289,NA,Sternberg Task,87,61592,94,1024
92,92,657,657,#000000,experiment,legacy,legacy,legacy,1,undefined,1,left,94,94,94,0,0,94,94,0,0,94,94,94,0,94,0,Thu Oct 12 10:12:19 2023,The main experiment item,FALSE,SternbergTask.osexp,C:/Users/Simone/Desktop,FALSE,mono,FALSE,18,no,white,no,yes,768,legacy,82,11,C:/Users/Simone/Documents/subject-1.csv,legacy,8 5 1 3 9,Melodramatic Milgram,4.0.5,4,y,0,left,left,left,left,NA,885,26242,28992,885,NA,2,legacy,5,1024,2,48000,-16,experiment,1,odd,3,614424,611189,612220,1861,128755,612221,463184,1864,99763,616425,617311,613222,28107,616425,NA,Sternberg Task,88,62477,95,1024
92,92,657,657,#000000,experiment,legacy,legacy,legacy,1,undefined,1,left,95,95,95,0,0,95,95,0,0,95,95,95,0,95,0,Thu Oct 12 10:12:19 2023,The main experiment item,FALSE,SternbergTask.osexp,C:/Users/Simone/Desktop,FALSE,mono,FALSE,18,no,white,no,yes,768,legacy,83,11,C:/Users/Simone/Documents/subject-1.csv,legacy,7 8 4 6 9 5,Melodramatic Milgram,4.0.5,4,y,0,left,left,left,left,NA,611,26242,28992,611,NA,2,legacy,6,1024,2,48000,-16,experiment,1,odd,6,620553,617315,618350,1861,128755,618351,463184,1864,99763,622554,623166,619352,28107,622554,NA,Sternberg Task,89,63088,96,1024
92,92,663,663,#000000,experiment,legacy,legacy,legacy,1,undefined,1,right,96,96,96,0,0,96,96,0,0,96,96,96,0,96,0,Thu Oct 12 10:12:19 2023,The main experiment item,FALSE,SternbergTask.osexp,C:/Users/Simone/Desktop,FALSE,mono,FALSE,18,no,white,no,yes,768,legacy,84,11,C:/Users/Simone/Documents/subject-1.csv,legacy,9 8 2 7 4,Melodramatic Milgram,4.0.5,0,n,0,right,left,left,right,NA,1283,26242,28992,1283,NA,2,legacy,5,1024,2,48000,-16,experiment,1,odd,5,626406,623170,624202,1861,128755,624204,463184,1864,99763,628407,629691,625205,28107,628407,NA,Sternberg Task,90,64371,97,1024
91,91,664,664,#000000,experiment,legacy,legacy,legacy,0,undefined,0,left,97,97,97,0,0,97,97,0,0,97,97,97,0,97,0,Thu Oct 12 10:12:19 2023,The main experiment item,FALSE,SternbergTask.osexp,C:/Users/Simone/Desktop,FALSE,mono,FALSE,18,no,white,no,yes,768,legacy,85,11,C:/Users/Simone/Documents/subject-1.csv,legacy,5 2 9 6 1 7,Melodramatic Milgram,4.0.5,3,y,0,right,left,left,right,NA,740,26242,28992,740,NA,2,legacy,6,1024,2,48000,-16,experiment,1,odd,9,632951,629696,630745,1861,128755,630747,463184,1864,99763,634953,635693,631748,28107,634953,NA,Sternberg Task,90,65111,98,1024
91,91,662,662,#000000,experiment,legacy,legacy,legacy,1,undefined,1,left,98,98,98,0,0,98,98,0,0,98,98,98,0,98,0,Thu Oct 12 10:12:19 2023,The main experiment item,FALSE,SternbergTask.osexp,C:/Users/Simone/Desktop,FALSE,mono,FALSE,18,no,white,no,yes,768,legacy,86,11,C:/Users/Simone/Documents/subject-1.csv,legacy,7 1 8 5 6 2,Melodramatic Milgram,4.0.5,2,y,0,left,left,left,left,NA,519,26242,28992,519,NA,2,legacy,6,1024,2,48000,-16,experiment,1,odd,1,638961,629696,636757,1861,128755,636758,635697,1864,99763,640962,641481,637760,28107,640962,NA,Sternberg Task,91,65630,99,1024
92,92,661,661,#000000,experiment,legacy,legacy,legacy,1,undefined,1,right,99,99,99,0,0,99,99,0,0,99,99,99,0,99,0,Thu Oct 12 10:12:19 2023,The main experiment item,FALSE,SternbergTask.osexp,C:/Users/Simone/Desktop,FALSE,mono,FALSE,18,no,white,no,yes,768,legacy,87,11,C:/Users/Simone/Documents/subject-1.csv,legacy,5 3 8 7 2 4,Melodramatic Milgram,4.0.5,0,n,0,right,left,left,right,NA,559,26242,28992,559,NA,2,legacy,6,1024,2,48000,-16,experiment,1,odd,9,644717,641486,642513,1861,128755,642514,635697,1864,99763,646718,647278,643516,28107,646718,NA,Sternberg Task,92,66189,100,1024
92,92,663,663,#000000,experiment,legacy,legacy,legacy,1,undefined,1,right,100,100,100,0,0,100,100,0,0,100,100,100,0,100,0,Thu Oct 12 10:12:19 2023,The main experiment item,FALSE,SternbergTask.osexp,C:/Users/Simone/Desktop,FALSE,mono,FALSE,18,no,white,no,yes,768,legacy,88,11,C:/Users/Simone/Documents/subject-1.csv,legacy,6 8,Melodramatic Milgram,4.0.5,0,n,0,right,left,left,right,NA,842,26242,28992,842,NA,2,legacy,2,1024,2,48000,-16,experiment,1,odd,9,650526,647282,648322,1861,128755,648324,635697,1864,99763,652528,653371,649325,28107,652528,NA,Sternberg Task,93,67031,101,1024
92,92,664,664,#000000,experiment,legacy,legacy,legacy,1,undefined,1,right,101,101,101,0,0,101,101,0,0,101,101,101,0,101,0,Thu Oct 12 10:12:19 2023,The main experiment item,FALSE,SternbergTask.osexp,C:/Users/Simone/Desktop,FALSE,mono,FALSE,18,no,white,no,yes,768,legacy,89,11,C:/Users/Simone/Documents/subject-1.csv,legacy,9 7 4 5 8,Melodramatic Milgram,4.0.5,0,n,0,right,left,left,right,NA,736,26242,28992,736,NA,2,legacy,5,1024,2,48000,-16,experiment,1,odd,6,656621,653375,654416,1861,128755,654418,635697,1864,99763,658622,659359,655419,28107,658622,NA,Sternberg Task,94,67767,102,1024
92,92,663,663,#000000,experiment,legacy,legacy,legacy,1,undefined,1,right,102,102,102,0,0,102,102,0,0,102,102,102,0,102,0,Thu Oct 12 10:12:19 2023,The main experiment item,FALSE,SternbergTask.osexp,C:/Users/Simone/Desktop,FALSE,mono,FALSE,18,no,white,no,yes,768,legacy,90,11,C:/Users/Simone/Documents/subject-1.csv,legacy,1,Melodramatic Milgram,4.0.5,0,n,0,right,left,left,right,NA,569,26242,28992,569,NA,2,legacy,1,1024,2,48000,-16,experiment,1,odd,7,662611,659370,660407,1861,128755,660409,635697,1864,99763,664612,665182,661410,28107,664612,NA,Sternberg Task,95,68336,103,1024
91,91,666,666,#000000,experiment,legacy,legacy,legacy,0,undefined,0,left,103,103,103,0,0,103,103,0,0,103,103,103,0,103,0,Thu Oct 12 10:12:19 2023,The main experiment item,FALSE,SternbergTask.osexp,C:/Users/Simone/Desktop,FALSE,mono,FALSE,18,no,white,no,yes,768,legacy,91,11,C:/Users/Simone/Documents/subject-1.csv,legacy,3 2 1 4 7,Melodramatic Milgram,4.0.5,2,y,0,right,left,left,right,NA,941,26242,28992,941,NA,2,legacy,5,1024,2,48000,-16,experiment,1,odd,2,668426,665186,666222,1861,128755,666224,635697,1864,99763,670427,671369,667225,28107,670427,NA,Sternberg Task,95,69277,104,1024
90,90,677,677,#000000,experiment,legacy,legacy,legacy,0,undefined,0,right,104,104,104,0,0,104,104,0,0,104,104,104,0,104,0,Thu Oct 12 10:12:19 2023,The main experiment item,FALSE,SternbergTask.osexp,C:/Users/Simone/Desktop,FALSE,mono,FALSE,18,no,white,no,yes,768,legacy,92,11,C:/Users/Simone/Documents/subject-1.csv,legacy,9 5 3 2 8 6,Melodramatic Milgram,4.0.5,0,n,0,left,left,left,left,NA,1829,26242,28992,1829,NA,2,legacy,6,1024,2,48000,-16,experiment,1,odd,7,674614,665186,672411,1861,128755,672412,671372,1864,99763,676615,678445,673413,28107,676615,NA,Sternberg Task,95,71106,105,1024
89,89,689,689,#000000,experiment,legacy,legacy,legacy,0,undefined,0,left,105,105,105,0,0,105,105,0,0,105,105,105,0,105,0,Thu Oct 12 10:12:19 2023,The main experiment item,FALSE,SternbergTask.osexp,C:/Users/Simone/Desktop,FALSE,mono,FALSE,18,no,white,no,yes,768,legacy,93,11,C:/Users/Simone/Documents/subject-1.csv,legacy,4 6 2 5 1,Melodramatic Milgram,4.0.5,5,y,0,None,left,left,None,NA,2000,26242,28992,2000,NA,2,legacy,5,1024,2,48000,-16,experiment,1,odd,1,681684,665186,679479,1861,128755,679481,678449,1864,99763,2369822,2371822,680482,28107,683685,NA,Sternberg Task,95,73106,106,1024
89,89,689,689,#000000,experiment,legacy,legacy,legacy,1,undefined,1,left,106,106,106,0,0,106,106,0,0,106,106,106,0,106,0,Thu Oct 12 10:12:19 2023,The main experiment item,FALSE,SternbergTask.osexp,C:/Users/Simone/Desktop,FALSE,mono,FALSE,18,no,white,no,yes,768,legacy,94,11,C:/Users/Simone/Documents/subject-1.csv,legacy,8 9 5 7 1 6,Melodramatic Milgram,4.0.5,4,y,0,left,left,left,left,NA,716,26242,28992,716,NA,2,legacy,6,1024,2,48000,-16,experiment,1,odd,7,2375063,665186,2372859,1861,128755,2372860,2371826,1864,99763,2377064,2377781,2373861,28107,2377064,NA,Sternberg Task,96,73822,107,1024
89,89,688,688,#000000,experiment,legacy,legacy,legacy,1,undefined,1,left,107,107,107,0,0,107,107,0,0,107,107,107,0,107,0,Thu Oct 12 10:12:19 2023,The main experiment item,FALSE,SternbergTask.osexp,C:/Users/Simone/Desktop,FALSE,mono,FALSE,18,no,white,no,yes,768,legacy,95,11,C:/Users/Simone/Documents/subject-1.csv,legacy,3 5 4 7,Melodramatic Milgram,4.0.5,1,y,0,left,left,left,left,NA,503,26242,28992,503,NA,2,legacy,4,1024,2,48000,-16,experiment,1,odd,3,2381021,2377785,2378818,1861,128755,2378819,2371826,1864,99763,2383023,2383527,2379820,28107,2383023,NA,Sternberg Task,97,74325,108,1024
89,89,689,689,#000000,experiment,legacy,legacy,legacy,1,undefined,1,left,108,108,108,0,0,108,108,0,0,108,108,108,0,108,0,Thu Oct 12 10:12:19 2023,The main experiment item,FALSE,SternbergTask.osexp,C:/Users/Simone/Desktop,FALSE,mono,FALSE,18,no,white,no,yes,768,legacy,96,11,C:/Users/Simone/Documents/subject-1.csv,legacy,9 3 8 2 1 4,Melodramatic Milgram,4.0.5,3,y,0,left,left,left,left,NA,830,26242,28992,830,NA,2,legacy,6,1024,2,48000,-16,experiment,1,odd,8,2386775,2383531,2384570,1861,128755,2384572,2371826,1864,99763,2388776,2389608,2385573,28107,2388776,NA,Sternberg Task,98,75155,109,1024
90,90,687,687,#000000,experiment,legacy,legacy,legacy,1,undefined,1,left,109,109,109,0,0,109,109,0,0,109,109,109,0,109,0,Thu Oct 12 10:12:19 2023,The main experiment item,FALSE,SternbergTask.osexp,C:/Users/Simone/Desktop,FALSE,mono,FALSE,18,no,white,no,yes,768,legacy,97,11,C:/Users/Simone/Documents/subject-1.csv,legacy,3 5 7 1,Melodramatic Milgram,4.0.5,3,y,0,left,left,left,left,NA,503,26242,28992,503,NA,2,legacy,4,1024,2,48000,-16,experiment,1,odd,7,2392850,2389613,2390647,1861,128755,2390648,2371826,1864,99763,2394851,2395355,2391649,28107,2394851,NA,Sternberg Task,99,75658,110,1024
90,90,686,686,#000000,experiment,legacy,legacy,legacy,1,undefined,1,left,110,110,110,0,0,110,110,0,0,110,110,110,0,110,0,Thu Oct 12 10:12:19 2023,The main experiment item,FALSE,SternbergTask.osexp,C:/Users/Simone/Desktop,FALSE,mono,FALSE,18,no,white,no,yes,768,legacy,98,11,C:/Users/Simone/Documents/subject-1.csv,legacy,9 4 2,Melodramatic Milgram,4.0.5,1,y,0,left,left,left,left,NA,538,26242,28992,538,NA,2,legacy,3,1024,2,48000,-16,experiment,1,odd,9,2398604,2395366,2396399,1861,128755,2396400,2371826,1864,99763,2400605,2401143,2397401,28107,2400605,NA,Sternberg Task,100,76196,111,1024
90,90,687,687,#000000,experiment,legacy,legacy,legacy,1,undefined,1,right,111,111,111,0,0,111,111,0,0,111,111,111,0,111,0,Thu Oct 12 10:12:19 2023,The main experiment item,FALSE,SternbergTask.osexp,C:/Users/Simone/Desktop,FALSE,mono,FALSE,18,no,white,no,yes,768,legacy,99,11,C:/Users/Simone/Documents/subject-1.csv,legacy,1 4 9 2 5,Melodramatic Milgram,4.0.5,0,n,0,right,left,left,right,NA,794,26242,28992,794,NA,2,legacy,5,1024,2,48000,-16,experiment,1,odd,7,2404381,2401148,2402177,1861,128755,2402179,2371826,1864,99763,2406382,2407178,2403180,28107,2406382,NA,Sternberg Task,101,76990,112,1024
90,90,688,688,#000000,experiment,legacy,legacy,legacy,1,undefined,1,left,112,112,112,0,0,112,112,0,0,112,112,112,0,112,0,Thu Oct 12 10:12:19 2023,The main experiment item,FALSE,SternbergTask.osexp,C:/Users/Simone/Desktop,FALSE,mono,FALSE,18,no,white,no,yes,768,legacy,100,11,C:/Users/Simone/Documents/subject-1.csv,legacy,5 7 3 6 2,Melodramatic Milgram,4.0.5,5,y,0,left,left,left,left,NA,806,26242,28992,806,NA,2,legacy,5,1024,2,48000,-16,experiment,1,odd,2,2410428,2407182,2408224,1861,128755,2408226,2371826,1864,99763,2412429,2413237,2409227,28107,2412429,NA,Sternberg Task,102,77796,113,1024
90,90,687,687,#000000,experiment,legacy,legacy,legacy,1,undefined,1,right,113,113,113,0,0,113,113,0,0,113,113,113,0,113,0,Thu Oct 12 10:12:19 2023,The main experiment item,FALSE,SternbergTask.osexp,C:/Users/Simone/Desktop,FALSE,mono,FALSE,18,no,white,no,yes,768,legacy,101,11,C:/Users/Simone/Documents/subject-1.csv,legacy,1 4 3 6 5,Melodramatic Milgram,4.0.5,0,n,0,right,left,left,right,NA,544,26242,28992,544,NA,2,legacy,5,1024,2,48000,-16,experiment,1,odd,8,2416484,2413241,2414280,1861,128755,2414282,2371826,1864,99763,2418487,2419032,2415283,28107,2418486,NA,Sternberg Task,103,78340,114,1024
90,90,687,687,#000000,experiment,legacy,legacy,legacy,1,undefined,1,right,114,114,114,0,0,114,114,0,0,114,114,114,0,114,0,Thu Oct 12 10:12:19 2023,The main experiment item,FALSE,SternbergTask.osexp,C:/Users/Simone/Desktop,FALSE,mono,FALSE,18,no,white,no,yes,768,legacy,102,11,C:/Users/Simone/Documents/subject-1.csv,legacy,8 6 3 4 7,Melodramatic Milgram,4.0.5,0,n,0,right,left,left,right,NA,673,26242,28992,673,NA,2,legacy,5,1024,2,48000,-16,experiment,1,odd,1,2422268,2419036,2420064,1861,128755,2420065,2371826,1864,99763,2424269,2424942,2421066,28107,2424269,NA,Sternberg Task,104,79013,115,1024
90,90,689,689,#000000,experiment,legacy,legacy,legacy,1,undefined,1,right,115,115,115,0,0,115,115,0,0,115,115,115,0,115,0,Thu Oct 12 10:12:19 2023,The main experiment item,FALSE,SternbergTask.osexp,C:/Users/Simone/Desktop,FALSE,mono,FALSE,18,no,white,no,yes,768,legacy,103,11,C:/Users/Simone/Documents/subject-1.csv,legacy,6 7 5 9,Melodramatic Milgram,4.0.5,0,n,0,right,left,left,right,NA,935,26242,28992,935,NA,2,legacy,4,1024,2,48000,-16,experiment,1,odd,2,2428182,2424945,2425979,1861,128755,2425980,2371826,1864,99763,2430184,2431120,2426981,28107,2430184,NA,Sternberg Task,105,79948,116,1024
90,90,690,690,#000000,experiment,legacy,legacy,legacy,1,undefined,1,left,116,116,116,0,0,116,116,0,0,116,116,116,0,116,0,Thu Oct 12 10:12:19 2023,The main experiment item,FALSE,SternbergTask.osexp,C:/Users/Simone/Desktop,FALSE,mono,FALSE,18,no,white,no,yes,768,legacy,104,11,C:/Users/Simone/Documents/subject-1.csv,legacy,2 4 8 5 1 3,Melodramatic Milgram,4.0.5,1,y,0,left,left,left,left,NA,848,26242,28992,848,NA,2,legacy,6,1024,2,48000,-16,experiment,1,odd,2,2434371,2431124,2432167,1861,128755,2432169,2371826,1864,99763,2436372,2437220,2433170,28107,2436372,NA,Sternberg Task,106,80796,117,1024
90,90,691,691,#000000,experiment,legacy,legacy,legacy,1,undefined,1,left,117,117,117,0,0,117,117,0,0,117,117,117,0,117,0,Thu Oct 12 10:12:19 2023,The main experiment item,FALSE,SternbergTask.osexp,C:/Users/Simone/Desktop,FALSE,mono,FALSE,18,no,white,no,yes,768,legacy,105,11,C:/Users/Simone/Documents/subject-1.csv,legacy,4 7 6 8 2 3,Melodramatic Milgram,4.0.5,6,y,0,left,left,left,left,NA,751,26242,28992,751,NA,2,legacy,6,1024,2,48000,-16,experiment,1,odd,3,2440465,2437224,2438261,1861,128755,2438262,2371826,1864,99763,2442467,2443218,2439263,28107,2442466,NA,Sternberg Task,107,81547,118,1024
90,90,691,691,#000000,experiment,legacy,legacy,legacy,1,undefined,1,right,118,118,118,0,0,118,118,0,0,118,118,118,0,118,0,Thu Oct 12 10:12:19 2023,The main experiment item,FALSE,SternbergTask.osexp,C:/Users/Simone/Desktop,FALSE,mono,FALSE,18,no,white,no,yes,768,legacy,106,11,C:/Users/Simone/Documents/subject-1.csv,legacy,6 9 7 3 8 2,Melodramatic Milgram,4.0.5,0,n,0,right,left,left,right,NA,787,26242,28992,787,NA,2,legacy,6,1024,2,48000,-16,experiment,1,odd,5,2446468,2443222,2444263,1861,128755,2444264,2371826,1864,99763,2448469,2449257,2445265,28107,2448469,NA,Sternberg Task,108,82334,119,1024
90,90,695,695,#000000,experiment,legacy,legacy,legacy,1,undefined,1,right,119,119,119,0,0,119,119,0,0,119,119,119,0,119,0,Thu Oct 12 10:12:19 2023,The main experiment item,FALSE,SternbergTask.osexp,C:/Users/Simone/Desktop,FALSE,mono,FALSE,18,no,white,no,yes,768,legacy,107,11,C:/Users/Simone/Documents/subject-1.csv,legacy,2 7 5,Melodramatic Milgram,4.0.5,0,n,0,right,left,left,right,NA,1103,26242,28992,1103,NA,2,legacy,3,1024,2,48000,-16,experiment,1,odd,8,2452498,2449261,2450294,1861,128755,2450295,2371826,1864,99763,2454499,2455603,2451297,28107,2454499,NA,Sternberg Task,109,83437,120,1024
90,90,695,695,#000000,experiment,legacy,legacy,legacy,1,undefined,1,right,120,120,120,0,0,120,120,0,0,120,120,120,0,120,0,Thu Oct 12 10:12:19 2023,The main experiment item,FALSE,SternbergTask.osexp,C:/Users/Simone/Desktop,FALSE,mono,FALSE,18,no,white,no,yes,768,legacy,108,11,C:/Users/Simone/Documents/subject-1.csv,legacy,7 9,Melodramatic Milgram,4.0.5,0,n,0,right,left,left,right,NA,669,26242,28992,669,NA,2,legacy,2,1024,2,48000,-16,experiment,1,odd,1,2458847,2455607,2456642,1861,128755,2456643,2371826,1864,99763,2460848,2461518,2457645,28107,2460848,NA,Sternberg Task,110,84106,121,1024
90,90,694,694,#000000,experiment,legacy,legacy,legacy,1,undefined,1,left,121,121,121,0,0,121,121,0,0,121,121,121,0,121,0,Thu Oct 12 10:12:19 2023,The main experiment item,FALSE,SternbergTask.osexp,C:/Users/Simone/Desktop,FALSE,mono,FALSE,18,no,white,no,yes,768,legacy,109,11,C:/Users/Simone/Documents/subject-1.csv,legacy,7,Melodramatic Milgram,4.0.5,1,y,0,left,left,left,left,NA,629,26242,28992,629,NA,2,legacy,1,1024,2,48000,-16,experiment,1,odd,7,2464770,2461522,2462566,1861,128755,2462567,2371826,1864,99763,2466772,2467402,2463568,28107,2466771,NA,Sternberg Task,111,84735,122,1024
91,91,693,693,#000000,experiment,legacy,legacy,legacy,1,undefined,1,right,122,122,122,0,0,122,122,0,0,122,122,122,0,122,0,Thu Oct 12 10:12:19 2023,The main experiment item,FALSE,SternbergTask.osexp,C:/Users/Simone/Desktop,FALSE,mono,FALSE,18,no,white,no,yes,768,legacy,110,11,C:/Users/Simone/Documents/subject-1.csv,legacy,7 1,Melodramatic Milgram,4.0.5,0,n,0,right,left,left,right,NA,530,26242,28992,530,NA,2,legacy,2,1024,2,48000,-16,experiment,1,odd,8,2470654,2467412,2468450,1861,128755,2468452,2371826,1864,99763,2472655,2473186,2469453,28107,2472655,NA,Sternberg Task,112,85265,123,1024
91,91,693,693,#000000,experiment,legacy,legacy,legacy,1,undefined,1,right,123,123,123,0,0,123,123,0,0,123,123,123,0,123,0,Thu Oct 12 10:12:19 2023,The main experiment item,FALSE,SternbergTask.osexp,C:/Users/Simone/Desktop,FALSE,mono,FALSE,18,no,white,no,yes,768,legacy,111,11,C:/Users/Simone/Documents/subject-1.csv,legacy,2 5 1 4,Melodramatic Milgram,4.0.5,0,n,0,right,left,left,right,NA,776,26242,28992,776,NA,2,legacy,4,1024,2,48000,-16,experiment,1,odd,6,2476431,2473191,0,1861,128755,0,2371826,1864,99763,2478433,2479210,2475230,28107,2478433,NA,Sternberg Task,113,86041,124,1024
91,91,695,695,#000000,experiment,legacy,legacy,legacy,1,undefined,1,left,124,124,124,0,0,124,124,0,0,124,124,124,0,124,0,Thu Oct 12 10:12:19 2023,The main experiment item,FALSE,SternbergTask.osexp,C:/Users/Simone/Desktop,FALSE,mono,FALSE,18,no,white,no,yes,768,legacy,112,11,C:/Users/Simone/Documents/subject-1.csv,legacy,8 5 3 7 4 6,Melodramatic Milgram,4.0.5,6,y,0,left,left,left,left,NA,897,26242,28992,897,NA,2,legacy,6,1024,2,48000,-16,experiment,1,odd,6,2482455,2479214,2480251,1861,128755,2480252,2371826,1864,99763,2484457,2485355,2481254,28107,2484456,NA,Sternberg Task,114,86938,125,1024
91,91,695,695,#000000,experiment,legacy,legacy,legacy,1,undefined,1,right,125,125,125,0,0,125,125,0,0,125,125,125,0,125,0,Thu Oct 12 10:12:19 2023,The main experiment item,FALSE,SternbergTask.osexp,C:/Users/Simone/Desktop,FALSE,mono,FALSE,18,no,white,no,yes,768,legacy,113,11,C:/Users/Simone/Documents/subject-1.csv,legacy,5 7 3,Melodramatic Milgram,4.0.5,0,n,0,right,left,left,right,NA,724,26242,28992,724,NA,2,legacy,3,1024,2,48000,-16,experiment,1,odd,9,2488597,2485359,2486392,1861,128755,2486394,2371826,1864,99763,2490598,2491323,2487395,28107,2490598,NA,Sternberg Task,115,87662,126,1024
91,91,694,694,#000000,experiment,legacy,legacy,legacy,1,undefined,1,left,126,126,126,0,0,126,126,0,0,126,126,126,0,126,0,Thu Oct 12 10:12:19 2023,The main experiment item,FALSE,SternbergTask.osexp,C:/Users/Simone/Desktop,FALSE,mono,FALSE,18,no,white,no,yes,768,legacy,114,11,C:/Users/Simone/Documents/subject-1.csv,legacy,2 3,Melodramatic Milgram,4.0.5,1,y,0,left,left,left,left,NA,571,26242,28992,571,NA,2,legacy,2,1024,2,48000,-16,experiment,1,odd,2,2494564,2491327,2492360,1861,128755,2492362,2371826,1864,99763,2496565,2497137,2493363,28107,2496565,NA,Sternberg Task,116,88233,127,1024
91,91,693,693,#000000,experiment,legacy,legacy,legacy,1,undefined,1,left,127,127,127,0,0,127,127,0,0,127,127,127,0,127,0,Thu Oct 12 10:12:19 2023,The main experiment item,FALSE,SternbergTask.osexp,C:/Users/Simone/Desktop,FALSE,mono,FALSE,18,no,white,no,yes,768,legacy,115,11,C:/Users/Simone/Documents/subject-1.csv,legacy,4,Melodramatic Milgram,4.0.5,1,y,0,left,left,left,left,NA,531,26242,28992,531,NA,2,legacy,1,1024,2,48000,-16,experiment,1,odd,4,2500376,2497141,2498171,1861,128755,2498173,2371826,1864,99763,2502378,2502909,2499174,28107,2502378,NA,Sternberg Task,117,88764,128,1024
91,91,692,692,#000000,experiment,legacy,legacy,legacy,1,undefined,1,left,128,128,128,0,0,128,128,0,0,128,128,128,0,128,0,Thu Oct 12 10:12:19 2023,The main experiment item,FALSE,SternbergTask.osexp,C:/Users/Simone/Desktop,FALSE,mono,FALSE,18,no,white,no,yes,768,legacy,116,11,C:/Users/Simone/Documents/subject-1.csv,legacy,9 8 4,Melodramatic Milgram,4.0.5,1,y,0,left,left,left,left,NA,508,26242,28992,508,NA,2,legacy,3,1024,2,48000,-16,experiment,1,odd,9,2506161,2502913,2503958,1861,128755,2503959,2371826,1864,99763,2508162,2508671,2504960,28107,2508162,NA,Sternberg Task,118,89272,129,1024
91,91,692,692,#000000,experiment,legacy,legacy,legacy,1,undefined,1,right,129,129,129,0,0,129,129,0,0,129,129,129,0,129,0,Thu Oct 12 10:12:19 2023,The main experiment item,FALSE,SternbergTask.osexp,C:/Users/Simone/Desktop,FALSE,mono,FALSE,18,no,white,no,yes,768,legacy,117,11,C:/Users/Simone/Documents/subject-1.csv,legacy,3 4 9 6 7 8,Melodramatic Milgram,4.0.5,0,n,0,right,left,left,right,NA,718,26242,28992,718,NA,2,legacy,6,1024,2,48000,-16,experiment,1,odd,2,2511913,2508675,2509709,1861,128755,2509710,2371826,1864,99763,2513915,2514634,2510712,28107,2513915,NA,Sternberg Task,119,89990,130,1024
91,91,692,692,#000000,experiment,legacy,legacy,legacy,1,undefined,1,left,130,130,130,0,0,130,130,0,0,130,130,130,0,130,0,Thu Oct 12 10:12:19 2023,The main experiment item,FALSE,SternbergTask.osexp,C:/Users/Simone/Desktop,FALSE,mono,FALSE,18,no,white,no,yes,768,legacy,118,11,C:/Users/Simone/Documents/subject-1.csv,legacy,2 4 6 9,Melodramatic Milgram,4.0.5,3,y,0,left,left,left,left,NA,664,26242,28992,664,NA,2,legacy,4,1024,2,48000,-16,experiment,1,odd,6,2517877,2514638,2515672,1861,128755,2515674,2371826,1864,99763,2519878,2520543,2516675,28107,2519878,NA,Sternberg Task,120,90654,131,1024
91,91,691,691,#000000,experiment,legacy,legacy,legacy,1,undefined,1,left,131,131,131,0,0,131,131,0,0,131,131,131,0,131,0,Thu Oct 12 10:12:19 2023,The main experiment item,FALSE,SternbergTask.osexp,C:/Users/Simone/Desktop,FALSE,mono,FALSE,18,no,white,no,yes,768,legacy,119,11,C:/Users/Simone/Documents/subject-1.csv,legacy,9 6 2 4 1,Melodramatic Milgram,4.0.5,4,y,0,left,left,left,left,NA,561,26242,28992,561,NA,2,legacy,5,1024,2,48000,-16,experiment,1,odd,4,2523781,2520547,2521576,1861,128755,2521578,2371826,1864,99763,2525782,2526344,2522579,28107,2525782,NA,Sternberg Task,121,91215,132,1024
91,91,690,690,#000000,experiment,legacy,legacy,legacy,1,undefined,1,left,132,132,132,0,0,132,132,0,0,132,132,132,0,132,0,Thu Oct 12 10:12:19 2023,The main experiment item,FALSE,SternbergTask.osexp,C:/Users/Simone/Desktop,FALSE,mono,FALSE,18,no,white,no,yes,768,legacy,120,11,C:/Users/Simone/Documents/subject-1.csv,legacy,3 9 7 6 4,Melodramatic Milgram,4.0.5,3,y,0,left,left,left,left,NA,606,26242,28992,606,NA,2,legacy,5,1024,2,48000,-16,experiment,1,odd,7,2529579,2526348,2527375,1861,128755,2527376,2371826,1864,99763,2531580,2532186,2528378,28107,2531580,NA,Sternberg Task,122,91821,133,1024
91,91,689,689,#000000,experiment,legacy,legacy,legacy,1,undefined,1,left,133,133,133,0,0,133,133,0,0,133,133,133,0,133,0,Thu Oct 12 10:12:19 2023,The main experiment item,FALSE,SternbergTask.osexp,C:/Users/Simone/Desktop,FALSE,mono,FALSE,18,no,white,no,yes,768,legacy,121,11,C:/Users/Simone/Documents/subject-1.csv,legacy,7 2 3,Melodramatic Milgram,4.0.5,3,y,0,left,left,left,left,NA,606,26242,28992,606,NA,2,legacy,3,1024,2,48000,-16,experiment,1,odd,3,2535429,2532192,2533225,1861,128755,2533227,2371826,1864,99763,2537430,2538037,2534228,28107,2537430,NA,Sternberg Task,123,92427,134,1024
91,91,688,688,#000000,experiment,legacy,legacy,legacy,1,undefined,1,left,134,134,134,0,0,134,134,0,0,134,134,134,0,134,0,Thu Oct 12 10:12:19 2023,The main experiment item,FALSE,SternbergTask.osexp,C:/Users/Simone/Desktop,FALSE,mono,FALSE,18,no,white,no,yes,768,legacy,122,11,C:/Users/Simone/Documents/subject-1.csv,legacy,9 1 6 7 8,Melodramatic Milgram,4.0.5,1,y,0,left,left,left,left,NA,562,26242,28992,562,NA,2,legacy,5,1024,2,48000,-16,experiment,1,odd,9,2541285,2538041,2539082,1861,128755,2539083,2371826,1864,99763,2543288,2543851,2540084,28107,2543288,NA,Sternberg Task,124,92989,135,1024
91,91,688,688,#000000,experiment,legacy,legacy,legacy,1,undefined,1,left,135,135,135,0,0,135,135,0,0,135,135,135,0,135,0,Thu Oct 12 10:12:19 2023,The main experiment item,FALSE,SternbergTask.osexp,C:/Users/Simone/Desktop,FALSE,mono,FALSE,18,no,white,no,yes,768,legacy,123,11,C:/Users/Simone/Documents/subject-1.csv,legacy,3 4 9 6 2 9,Melodramatic Milgram,4.0.5,5,y,0,left,left,left,left,NA,636,26242,28992,636,NA,2,legacy,6,1024,2,48000,-16,experiment,1,odd,2,2547095,2543855,2544891,1861,128755,2544893,2371826,1864,99763,2549096,2549732,2545894,28107,2549096,NA,Sternberg Task,125,93625,136,1024
91,91,688,688,#000000,experiment,legacy,legacy,legacy,1,undefined,1,right,136,136,136,0,0,136,136,0,0,136,136,136,0,136,0,Thu Oct 12 10:12:19 2023,The main experiment item,FALSE,SternbergTask.osexp,C:/Users/Simone/Desktop,FALSE,mono,FALSE,18,no,white,no,yes,768,legacy,124,11,C:/Users/Simone/Documents/subject-1.csv,legacy,2 8 9,Melodramatic Milgram,4.0.5,0,n,0,right,left,left,right,NA,712,26242,28992,712,NA,2,legacy,3,1024,2,48000,-16,experiment,1,odd,6,2552988,2549737,2550784,1861,128755,2550786,2371826,1864,99763,2554989,2555702,2551787,28107,2554989,NA,Sternberg Task,126,94337,137,1024
92,92,688,688,#000000,experiment,legacy,legacy,legacy,1,undefined,1,right,137,137,137,0,0,137,137,0,0,137,137,137,0,137,0,Thu Oct 12 10:12:19 2023,The main experiment item,FALSE,SternbergTask.osexp,C:/Users/Simone/Desktop,FALSE,mono,FALSE,18,no,white,no,yes,768,legacy,125,11,C:/Users/Simone/Documents/subject-1.csv,legacy,8 4 3 5,Melodramatic Milgram,4.0.5,0,n,0,right,left,left,right,NA,691,26242,28992,691,NA,2,legacy,4,1024,2,48000,-16,experiment,1,odd,6,2558940,2555707,2556736,1861,128755,2556738,2371826,1864,99763,2560941,2561633,2557739,28107,2560941,NA,Sternberg Task,127,95028,138,1024
