acc,accuracy,average_response_time,avg_rt,background,block,canvas_backend,clock_backend,color_backend,compensation,coordinates,correct,correct_instruction1,correct_keyboard_response,correct_response,count_ISI,count_correctFeedback,count_expSequence,count_experiment,count_experimentLoop,count_fixation,count_incorrectFeedback,count_instruction1,count_instructions2,count_keyboard_response,count_logger,count_memorySet,count_practiceLoop,count_probe,count_thankYou,datetime,description,disable_garbage_collection,experiment_file,experiment_path,font_bold,font_family,font_italic,font_size,font_underline,foreground,form_clicks,fullscreen,height,keyboard_backend,live_row,live_row_practiceLoop,logfile,mouse_backend,numberSet,opensesame_codename,opensesame_version,posInSet,present,repeat_cycle,response,response_instruction1,response_instructions2,response_keyboard_response,response_thankYou,response_time,response_time_instruction1,response_time_instructions2,response_time_keyboard_response,response_time_thankYou,round_decimals,sampler_backend,setSize,sound_buf_size,sound_channels,sound_freq,sound_sample_size,start,subject_nr,subject_parity,target,time_ISI,time_correctFeedback,time_expSequence,time_experiment,time_experimentLoop,time_fixation,time_incorrectFeedback,time_instruction1,time_instructions2,time_keyboard_response,time_logger,time_memorySet,time_practiceLoop,time_probe,time_thankYou,title,total_correct,total_response_time,total_responses,uniform_coordinates,width
0,0,2000,2000,black,practice,legacy,legacy,legacy,0,uniform,0,undefined,0,right,0,0,0,0,0,0,0,0,0,0,0,0,0,0,0,Fri Oct 25 12:11:20 2019,The main experiment item,yes,SternbergTask.osexp,/Users/Zenny/Desktop,no,mono,no,18,no,white,no,no,768,legacy,0,0,/Users/Zenny/Desktop/quickrun.csv,legacy,9 6 7 4 5,Kafkaesque Koffka,3.2.8,0,n,0,None,right,NA,None,NA,2000,26206,NA,2000,NA,2,legacy,5,1024,2,48000,-16,experiment,999,odd,3,31306,NA,29011,2560,NA,29042,NA,2624,NA,33337,35337,30072,28838,33337,NA,SternbergTask,0,2000,1,yes,1024
50,50,1466,1466,black,practice,legacy,legacy,legacy,0,uniform,1,undefined,1,right,1,1,1,0,0,1,1,0,0,1,1,1,0,1,0,Fri Oct 25 12:11:20 2019,The main experiment item,yes,SternbergTask.osexp,/Users/Zenny/Desktop,no,mono,no,18,no,white,no,no,768,legacy,1,1,/Users/Zenny/Desktop/quickrun.csv,legacy,5,Kafkaesque Koffka,3.2.8,0,n,0,right,right,NA,right,NA,932,26206,NA,932,NA,2,legacy,1,1024,2,48000,-16,experiment,999,odd,3,38991,NA,36695,2560,NA,36727,35540,2624,NA,41022,41955,37758,28838,41022,NA,SternbergTask,1,2932,2,yes,1024
66.66666667,66.66666667,1170.666667,1170.666667,black,practice,legacy,legacy,legacy,0,uniform,1,undefined,1,right,2,2,2,0,0,2,2,0,0,2,2,2,0,2,0,Fri Oct 25 12:11:20 2019,The main experiment item,yes,SternbergTask.osexp,/Users/Zenny/Desktop,no,mono,no,18,no,white,no,no,768,legacy,2,2,/Users/Zenny/Desktop/quickrun.csv,legacy,4 1 5,Kafkaesque Koffka,3.2.8,0,n,0,right,right,NA,right,NA,580,26206,NA,580,NA,2,legacy,3,1024,2,48000,-16,experiment,999,odd,2,45439,41993,43133,2560,NA,43164,35540,2624,NA,47472,48053,44206,28838,47472,NA,SternbergTask,2,3512,3,yes,1024
75,75,970.75,970.75,black,practice,legacy,legacy,legacy,0,uniform,1,undefined,1,left,3,3,3,0,0,3,3,0,0,3,3,3,0,3,0,Fri Oct 25 12:11:20 2019,The main experiment item,yes,SternbergTask.osexp,/Users/Zenny/Desktop,no,mono,no,18,no,white,no,no,768,legacy,3,3,/Users/Zenny/Desktop/quickrun.csv,legacy,1 5 2 9,Kafkaesque Koffka,3.2.8,2,y,0,left,right,NA,left,NA,371,26206,NA,371,NA,2,legacy,4,1024,2,48000,-16,experiment,999,odd,5,51507,48101,49211,2560,NA,49243,35540,2624,NA,53541,53913,50275,28838,53541,NA,SternbergTask,3,3883,4,yes,1024
60,60,890.6,890.6,black,practice,legacy,legacy,legacy,0,uniform,0,undefined,0,left,4,4,4,0,0,4,4,0,0,4,4,4,0,4,0,Fri Oct 25 12:11:20 2019,The main experiment item,yes,SternbergTask.osexp,/Users/Zenny/Desktop,no,mono,no,18,no,white,no,no,768,legacy,4,4,/Users/Zenny/Desktop/quickrun.csv,legacy,2 9 4,Kafkaesque Koffka,3.2.8,3,y,0,right,right,NA,right,NA,570,26206,NA,570,NA,2,legacy,3,1024,2,48000,-16,experiment,999,odd,4,57406,53954,55104,2560,NA,55143,35540,2624,NA,59437,60008,56174,28838,59437,NA,SternbergTask,3,4453,5,yes,1024
66.66666667,66.66666667,881.3333333,881.3333333,black,practice,legacy,legacy,legacy,0,uniform,1,undefined,1,right,5,5,5,0,0,5,5,0,0,5,5,5,0,5,0,Fri Oct 25 12:11:20 2019,The main experiment item,yes,SternbergTask.osexp,/Users/Zenny/Desktop,no,mono,no,18,no,white,no,no,768,legacy,5,5,/Users/Zenny/Desktop/quickrun.csv,legacy,5 7 8 4 1 2,Kafkaesque Koffka,3.2.8,0,n,0,right,right,NA,right,NA,835,26206,NA,835,NA,2,legacy,6,1024,2,48000,-16,experiment,999,odd,6,63448,53954,61152,2560,NA,61183,60042,2624,NA,65529,66365,62215,28838,65528,NA,SternbergTask,4,5288,6,yes,1024
71.42857143,71.42857143,825,825,black,practice,legacy,legacy,legacy,0,uniform,1,undefined,1,left,6,6,6,0,0,6,6,0,0,6,6,6,0,6,0,Fri Oct 25 12:11:20 2019,The main experiment item,yes,SternbergTask.osexp,/Users/Zenny/Desktop,no,mono,no,18,no,white,no,no,768,legacy,6,6,/Users/Zenny/Desktop/quickrun.csv,legacy,6,Kafkaesque Koffka,3.2.8,1,y,0,left,right,NA,left,NA,487,26206,NA,487,NA,2,legacy,1,1024,2,48000,-16,experiment,999,odd,6,69852,66405,67556,2560,NA,67588,60042,2624,NA,71887,72375,68619,28838,71887,NA,SternbergTask,5,5775,7,yes,1024
75,75,788.875,788.875,black,practice,legacy,legacy,legacy,0,uniform,1,undefined,1,left,7,7,7,0,0,7,7,0,0,7,7,7,0,7,0,Fri Oct 25 12:11:20 2019,The main experiment item,yes,SternbergTask.osexp,/Users/Zenny/Desktop,no,mono,no,18,no,white,no,no,768,legacy,7,7,/Users/Zenny/Desktop/quickrun.csv,legacy,1 7 9 8 5,Kafkaesque Koffka,3.2.8,4,y,0,left,right,NA,left,NA,536,26206,NA,536,NA,2,legacy,5,1024,2,48000,-16,experiment,999,odd,8,75817,72408,73519,2560,NA,73550,60042,2624,NA,77848,78386,74583,28838,77848,NA,SternbergTask,6,6311,8,yes,1024
77.77777778,77.77777778,773.2222222,773.2222222,black,practice,legacy,legacy,legacy,0,uniform,1,undefined,1,left,8,8,8,0,0,8,8,0,0,8,8,8,0,8,0,Fri Oct 25 12:11:20 2019,The main experiment item,yes,SternbergTask.osexp,/Users/Zenny/Desktop,no,mono,no,18,no,white,no,no,768,legacy,8,8,/Users/Zenny/Desktop/quickrun.csv,legacy,4 3 1 7 9 8,Kafkaesque Koffka,3.2.8,1,y,0,left,right,NA,left,NA,648,26206,NA,648,NA,2,legacy,6,1024,2,48000,-16,experiment,999,odd,4,81867,78427,79571,2560,NA,79604,60042,2624,NA,83901,84550,80635,28838,83901,NA,SternbergTask,7,6959,9,yes,1024
80,80,746.2,746.2,black,practice,legacy,legacy,legacy,0,uniform,1,undefined,1,right,9,9,9,0,0,9,9,0,0,9,9,9,0,9,0,Fri Oct 25 12:11:20 2019,The main experiment item,yes,SternbergTask.osexp,/Users/Zenny/Desktop,no,mono,no,18,no,white,no,no,768,legacy,9,9,/Users/Zenny/Desktop/quickrun.csv,legacy,2 1,Kafkaesque Koffka,3.2.8,0,n,0,right,right,NA,right,NA,503,26206,NA,503,NA,2,legacy,2,1024,2,48000,-16,experiment,999,odd,5,87992,84586,85696,2560,NA,85727,60042,2624,NA,90023,90528,86758,28838,90023,NA,SternbergTask,8,7462,10,yes,1024
81.81818182,81.81818182,740.7272727,740.7272727,black,practice,legacy,legacy,legacy,0,uniform,1,undefined,1,right,10,10,10,0,0,10,10,0,0,10,10,10,0,10,0,Fri Oct 25 12:11:20 2019,The main experiment item,yes,SternbergTask.osexp,/Users/Zenny/Desktop,no,mono,no,18,no,white,no,no,768,legacy,10,10,/Users/Zenny/Desktop/quickrun.csv,legacy,3 1 9 4,Kafkaesque Koffka,3.2.8,0,n,0,right,right,NA,right,NA,686,26206,NA,686,NA,2,legacy,4,1024,2,48000,-16,experiment,999,odd,6,94008,90567,91713,2560,NA,91745,60042,2624,NA,96039,96726,92777,28838,96039,NA,SternbergTask,9,8148,11,yes,1024
83.33333333,83.33333333,726.8333333,726.8333333,black,practice,legacy,legacy,legacy,0,uniform,1,undefined,1,left,11,11,11,0,0,11,11,0,0,11,11,11,0,11,0,Fri Oct 25 12:11:20 2019,The main experiment item,yes,SternbergTask.osexp,/Users/Zenny/Desktop,no,mono,no,18,no,white,no,no,768,legacy,11,11,/Users/Zenny/Desktop/quickrun.csv,legacy,4 8,Kafkaesque Koffka,3.2.8,1,y,0,left,right,NA,left,NA,574,26206,NA,574,NA,2,legacy,2,1024,2,48000,-16,experiment,999,odd,4,100171,96768,97876,2560,NA,97907,60042,2624,NA,102203,102778,98939,28838,102203,NA,SternbergTask,10,8722,12,yes,1024
84.61538462,84.61538462,710.6923077,710.6923077,black,experiment,legacy,legacy,legacy,0,uniform,1,undefined,1,right,12,12,12,0,0,12,12,0,0,12,12,12,0,12,0,Fri Oct 25 12:11:20 2019,The main experiment item,yes,SternbergTask.osexp,/Users/Zenny/Desktop,no,mono,no,18,no,white,no,no,768,legacy,0,11,/Users/Zenny/Desktop/quickrun.csv,legacy,8 4 3 5,Kafkaesque Koffka,3.2.8,0,n,0,right,right,right,right,NA,517,26206,6267,517,NA,2,legacy,4,1024,2,48000,-16,experiment,999,odd,6,112647,102818,110351,2560,110149,110382,60042,2624,103881,114678,115196,111414,28838,114678,NA,SternbergTask,11,9239,13,yes,1024
78.57142857,78.57142857,685.4285714,685.4285714,black,experiment,legacy,legacy,legacy,0,uniform,0,undefined,0,left,13,13,13,0,0,13,13,0,0,13,13,13,0,13,0,Fri Oct 25 12:11:20 2019,The main experiment item,yes,SternbergTask.osexp,/Users/Zenny/Desktop,no,mono,no,18,no,white,no,no,768,legacy,1,11,/Users/Zenny/Desktop/quickrun.csv,legacy,4,Kafkaesque Koffka,3.2.8,1,y,0,right,right,right,right,NA,357,26206,6267,357,NA,2,legacy,1,1024,2,48000,-16,experiment,999,odd,4,118636,115230,116340,2560,110149,116371,60042,2624,103881,120668,121026,117402,28838,120668,NA,SternbergTask,11,9596,14,yes,1024
80,80,695.3333333,695.3333333,black,experiment,legacy,legacy,legacy,0,uniform,1,undefined,1,right,14,14,14,0,0,14,14,0,0,14,14,14,0,14,0,Fri Oct 25 12:11:20 2019,The main experiment item,yes,SternbergTask.osexp,/Users/Zenny/Desktop,no,mono,no,18,no,white,no,no,768,legacy,2,11,/Users/Zenny/Desktop/quickrun.csv,legacy,7 1 5 6 3,Kafkaesque Koffka,3.2.8,0,n,0,right,right,right,right,NA,834,26206,6267,834,NA,2,legacy,5,1024,2,48000,-16,experiment,999,odd,8,124539,115230,122211,2560,110149,122243,121066,2624,103881,126570,127406,123274,28838,126570,NA,SternbergTask,12,10430,15,yes,1024
81.25,81.25,691.875,691.875,black,experiment,legacy,legacy,legacy,0,uniform,1,undefined,1,left,15,15,15,0,0,15,15,0,0,15,15,15,0,15,0,Fri Oct 25 12:11:20 2019,The main experiment item,yes,SternbergTask.osexp,/Users/Zenny/Desktop,no,mono,no,18,no,white,no,no,768,legacy,3,11,/Users/Zenny/Desktop/quickrun.csv,legacy,5 2 6,Kafkaesque Koffka,3.2.8,2,y,0,left,right,right,left,NA,640,26206,6267,640,NA,2,legacy,3,1024,2,48000,-16,experiment,999,odd,2,130850,127443,128556,2560,110149,128588,121066,2624,103881,132887,133528,129619,28838,132886,NA,SternbergTask,13,11070,16,yes,1024
82.35294118,82.35294118,685.3529412,685.3529412,black,experiment,legacy,legacy,legacy,0,uniform,1,undefined,1,right,16,16,16,0,0,16,16,0,0,16,16,16,0,16,0,Fri Oct 25 12:11:20 2019,The main experiment item,yes,SternbergTask.osexp,/Users/Zenny/Desktop,no,mono,no,18,no,white,no,no,768,legacy,4,11,/Users/Zenny/Desktop/quickrun.csv,legacy,6 9 4 5 2,Kafkaesque Koffka,3.2.8,0,n,0,right,right,right,right,NA,581,26206,6267,581,NA,2,legacy,5,1024,2,48000,-16,experiment,999,odd,1,136997,133563,134700,2560,110149,134732,121066,2624,103881,139031,139613,135765,28838,139031,NA,SternbergTask,14,11651,17,yes,1024
83.33333333,83.33333333,685.1666667,685.1666667,black,experiment,legacy,legacy,legacy,0,uniform,1,undefined,1,left,17,17,17,0,0,17,17,0,0,17,17,17,0,17,0,Fri Oct 25 12:11:20 2019,The main experiment item,yes,SternbergTask.osexp,/Users/Zenny/Desktop,no,mono,no,18,no,white,no,no,768,legacy,5,11,/Users/Zenny/Desktop/quickrun.csv,legacy,8 5 4 7 3 1,Kafkaesque Koffka,3.2.8,2,y,0,left,right,right,left,NA,682,26206,6267,682,NA,2,legacy,6,1024,2,48000,-16,experiment,999,odd,5,143051,139647,140757,2560,110149,140788,121066,2624,103881,145083,145767,141819,28838,145083,NA,SternbergTask,15,12333,18,yes,1024
84.21052632,84.21052632,671.1578947,671.1578947,black,experiment,legacy,legacy,legacy,0,uniform,1,undefined,1,right,18,18,18,0,0,18,18,0,0,18,18,18,0,18,0,Fri Oct 25 12:11:20 2019,The main experiment item,yes,SternbergTask.osexp,/Users/Zenny/Desktop,no,mono,no,18,no,white,no,no,768,legacy,6,11,/Users/Zenny/Desktop/quickrun.csv,legacy,6 7 5 9,Kafkaesque Koffka,3.2.8,0,n,0,right,right,right,right,NA,419,26206,6267,419,NA,2,legacy,4,1024,2,48000,-16,experiment,999,odd,2,149263,145806,146962,2560,110149,146996,121066,2624,103881,151296,151716,148030,28838,151296,NA,SternbergTask,16,12752,19,yes,1024
85,85,667.15,667.15,black,experiment,legacy,legacy,legacy,0,uniform,1,undefined,1,right,19,19,19,0,0,19,19,0,0,19,19,19,0,19,0,Fri Oct 25 12:11:20 2019,The main experiment item,yes,SternbergTask.osexp,/Users/Zenny/Desktop,no,mono,no,18,no,white,no,no,768,legacy,7,11,/Users/Zenny/Desktop/quickrun.csv,legacy,5 3 8 7 2 4,Kafkaesque Koffka,3.2.8,0,n,0,right,right,right,right,NA,591,26206,6267,591,NA,2,legacy,6,1024,2,48000,-16,experiment,999,odd,9,155157,151749,152859,2560,110149,152891,121066,2624,103881,157188,157781,153924,28838,157188,NA,SternbergTask,17,13343,20,yes,1024
85.71428571,85.71428571,661.5238095,661.5238095,black,experiment,legacy,legacy,legacy,0,uniform,1,undefined,1,right,20,20,20,0,0,20,20,0,0,20,20,20,0,20,0,Fri Oct 25 12:11:20 2019,The main experiment item,yes,SternbergTask.osexp,/Users/Zenny/Desktop,no,mono,no,18,no,white,no,no,768,legacy,8,11,/Users/Zenny/Desktop/quickrun.csv,legacy,1 7 5 2 9,Kafkaesque Koffka,3.2.8,0,n,0,right,right,right,right,NA,549,26206,6267,549,NA,2,legacy,5,1024,2,48000,-16,experiment,999,odd,3,161252,157829,158956,2560,110149,158988,121066,2624,103881,163297,163847,160019,28838,163297,NA,SternbergTask,18,13892,21,yes,1024
86.36363636,86.36363636,662.2727273,662.2727273,black,experiment,legacy,legacy,legacy,0,uniform,1,undefined,1,right,21,21,21,0,0,21,21,0,0,21,21,21,0,21,0,Fri Oct 25 12:11:20 2019,The main experiment item,yes,SternbergTask.osexp,/Users/Zenny/Desktop,no,mono,no,18,no,white,no,no,768,legacy,9,11,/Users/Zenny/Desktop/quickrun.csv,legacy,9 5 3 2 8 6,Kafkaesque Koffka,3.2.8,0,n,0,right,right,right,right,NA,678,26206,6267,678,NA,2,legacy,6,1024,2,48000,-16,experiment,999,odd,7,167291,163886,164996,2560,110149,165026,121066,2624,103881,169322,170002,166058,28838,169322,NA,SternbergTask,19,14570,22,yes,1024
82.60869565,82.60869565,657.826087,657.826087,black,experiment,legacy,legacy,legacy,0,uniform,0,undefined,0,left,22,22,22,0,0,22,22,0,0,22,22,22,0,22,0,Fri Oct 25 12:11:20 2019,The main experiment item,yes,SternbergTask.osexp,/Users/Zenny/Desktop,no,mono,no,18,no,white,no,no,768,legacy,10,11,/Users/Zenny/Desktop/quickrun.csv,legacy,3 9 6 2,Kafkaesque Koffka,3.2.8,4,y,0,right,right,right,right,NA,560,26206,6267,560,NA,2,legacy,4,1024,2,48000,-16,experiment,999,odd,2,173465,170038,171167,2560,110149,171198,121066,2624,103881,175532,176094,172230,28838,175532,NA,SternbergTask,19,15130,23,yes,1024
83.33333333,83.33333333,656.125,656.125,black,experiment,legacy,legacy,legacy,0,uniform,1,undefined,1,right,23,23,23,0,0,23,23,0,0,23,23,23,0,23,0,Fri Oct 25 12:11:20 2019,The main experiment item,yes,SternbergTask.osexp,/Users/Zenny/Desktop,no,mono,no,18,no,white,no,no,768,legacy,11,11,/Users/Zenny/Desktop/quickrun.csv,legacy,8 6 3 4 7,Kafkaesque Koffka,3.2.8,0,n,0,right,right,right,right,NA,617,26206,6267,617,NA,2,legacy,5,1024,2,48000,-16,experiment,999,odd,1,179543,170038,177246,2560,110149,177277,176136,2624,103881,181574,182193,178309,28838,181574,NA,SternbergTask,20,15747,24,yes,1024
84,84,662.68,662.68,black,experiment,legacy,legacy,legacy,0,uniform,1,undefined,1,right,24,24,24,0,0,24,24,0,0,24,24,24,0,24,0,Fri Oct 25 12:11:20 2019,The main experiment item,yes,SternbergTask.osexp,/Users/Zenny/Desktop,no,mono,no,18,no,white,no,no,768,legacy,12,11,/Users/Zenny/Desktop/quickrun.csv,legacy,5 7 3,Kafkaesque Koffka,3.2.8,0,n,0,right,right,right,right,NA,820,26206,6267,820,NA,2,legacy,3,1024,2,48000,-16,experiment,999,odd,9,185679,182234,183383,2560,110149,183415,176136,2624,103881,187711,188533,184446,28838,187710,NA,SternbergTask,21,16567,25,yes,1024
84.61538462,84.61538462,662.6923077,662.6923077,black,experiment,legacy,legacy,legacy,0,uniform,1,undefined,1,right,25,25,25,0,0,25,25,0,0,25,25,25,0,25,0,Fri Oct 25 12:11:20 2019,The main experiment item,yes,SternbergTask.osexp,/Users/Zenny/Desktop,no,mono,no,18,no,white,no,no,768,legacy,13,11,/Users/Zenny/Desktop/quickrun.csv,legacy,1 7 8 3 9,Kafkaesque Koffka,3.2.8,0,n,0,right,right,right,right,NA,663,26206,6267,663,NA,2,legacy,5,1024,2,48000,-16,experiment,999,odd,2,191982,188577,189688,2560,110149,189719,176136,2624,103881,194012,194677,190750,28838,194012,NA,SternbergTask,22,17230,26,yes,1024
85.18518519,85.18518519,661.2222222,661.2222222,black,experiment,legacy,legacy,legacy,0,uniform,1,undefined,1,left,26,26,26,0,0,26,26,0,0,26,26,26,0,26,0,Fri Oct 25 12:11:20 2019,The main experiment item,yes,SternbergTask.osexp,/Users/Zenny/Desktop,no,mono,no,18,no,white,no,no,768,legacy,14,11,/Users/Zenny/Desktop/quickrun.csv,legacy,9 3 1 2 5,Kafkaesque Koffka,3.2.8,4,y,0,left,right,right,left,NA,623,26206,6267,623,NA,2,legacy,5,1024,2,48000,-16,experiment,999,odd,2,198155,194711,195860,2560,110149,195892,176136,2624,103881,200186,200810,196923,28838,200186,NA,SternbergTask,23,17853,27,yes,1024
85.71428571,85.71428571,656.1785714,656.1785714,black,experiment,legacy,legacy,legacy,0,uniform,1,undefined,1,right,27,27,27,0,0,27,27,0,0,27,27,27,0,27,0,Fri Oct 25 12:11:20 2019,The main experiment item,yes,SternbergTask.osexp,/Users/Zenny/Desktop,no,mono,no,18,no,white,no,no,768,legacy,15,11,/Users/Zenny/Desktop/quickrun.csv,legacy,7 4 2 8 1 9,Kafkaesque Koffka,3.2.8,0,n,0,right,right,right,right,NA,520,26206,6267,520,NA,2,legacy,6,1024,2,48000,-16,experiment,999,odd,5,204248,200843,201954,2560,110149,201985,176136,2624,103881,206279,206801,203015,28838,206279,NA,SternbergTask,24,18373,28,yes,1024
82.75862069,82.75862069,655.7586207,655.7586207,black,experiment,legacy,legacy,legacy,0,uniform,0,undefined,0,left,28,28,28,0,0,28,28,0,0,28,28,28,0,28,0,Fri Oct 25 12:11:20 2019,The main experiment item,yes,SternbergTask.osexp,/Users/Zenny/Desktop,no,mono,no,18,no,white,no,no,768,legacy,16,11,/Users/Zenny/Desktop/quickrun.csv,legacy,8 9 5 7 1 6,Kafkaesque Koffka,3.2.8,4,y,0,right,right,right,right,NA,644,26206,6267,644,NA,2,legacy,6,1024,2,48000,-16,experiment,999,odd,7,210283,206841,207986,2560,110149,208017,176136,2624,103881,212315,212960,209049,28838,212314,NA,SternbergTask,24,19017,29,yes,1024
83.33333333,83.33333333,653.8,653.8,black,experiment,legacy,legacy,legacy,0,uniform,1,undefined,1,right,29,29,29,0,0,29,29,0,0,29,29,29,0,29,0,Fri Oct 25 12:11:20 2019,The main experiment item,yes,SternbergTask.osexp,/Users/Zenny/Desktop,no,mono,no,18,no,white,no,no,768,legacy,17,11,/Users/Zenny/Desktop/quickrun.csv,legacy,3 4 9 6 7 8,Kafkaesque Koffka,3.2.8,0,n,0,right,right,right,right,NA,597,26206,6267,597,NA,2,legacy,6,1024,2,48000,-16,experiment,999,odd,2,216407,206841,214112,2560,110149,214142,213002,2624,103881,218438,219037,215173,28838,218438,NA,SternbergTask,25,19614,30,yes,1024
83.87096774,83.87096774,650.1935484,650.1935484,black,experiment,legacy,legacy,legacy,0,uniform,1,undefined,1,left,30,30,30,0,0,30,30,0,0,30,30,30,0,30,0,Fri Oct 25 12:11:20 2019,The main experiment item,yes,SternbergTask.osexp,/Users/Zenny/Desktop,no,mono,no,18,no,white,no,no,768,legacy,18,11,/Users/Zenny/Desktop/quickrun.csv,legacy,9 1 6 7 8,Kafkaesque Koffka,3.2.8,1,y,0,left,right,right,left,NA,542,26206,6267,542,NA,2,legacy,5,1024,2,48000,-16,experiment,999,odd,9,222532,219077,220227,2560,110149,220259,213002,2624,103881,224564,225108,221292,28838,224564,NA,SternbergTask,26,20156,31,yes,1024
81.25,81.25,647.40625,647.40625,black,experiment,legacy,legacy,legacy,0,uniform,0,undefined,0,left,31,31,31,0,0,31,31,0,0,31,31,31,0,31,0,Fri Oct 25 12:11:20 2019,The main experiment item,yes,SternbergTask.osexp,/Users/Zenny/Desktop,no,mono,no,18,no,white,no,no,768,legacy,19,11,/Users/Zenny/Desktop/quickrun.csv,legacy,6 1 2,Kafkaesque Koffka,3.2.8,3,y,0,right,right,right,right,NA,561,26206,6267,561,NA,2,legacy,3,1024,2,48000,-16,experiment,999,odd,2,228546,225141,226250,2560,110149,226281,213002,2624,103881,230577,231139,227312,28838,230577,NA,SternbergTask,26,20717,32,yes,1024
78.78787879,78.78787879,651.969697,651.969697,black,experiment,legacy,legacy,legacy,0,uniform,0,undefined,0,right,32,32,32,0,0,32,32,0,0,32,32,32,0,32,0,Fri Oct 25 12:11:20 2019,The main experiment item,yes,SternbergTask.osexp,/Users/Zenny/Desktop,no,mono,no,18,no,white,no,no,768,legacy,20,11,/Users/Zenny/Desktop/quickrun.csv,legacy,9 8 2 7 4,Kafkaesque Koffka,3.2.8,0,n,0,left,right,right,left,NA,798,26206,6267,798,NA,2,legacy,5,1024,2,48000,-16,experiment,999,odd,5,234622,225141,232325,2560,110149,232356,231178,2624,103881,236653,237453,233388,28838,236653,NA,SternbergTask,26,21515,33,yes,1024
79.41176471,79.41176471,649.6176471,649.6176471,black,experiment,legacy,legacy,legacy,0,uniform,1,undefined,1,left,33,33,33,0,0,33,33,0,0,33,33,33,0,33,0,Fri Oct 25 12:11:20 2019,The main experiment item,yes,SternbergTask.osexp,/Users/Zenny/Desktop,no,mono,no,18,no,white,no,no,768,legacy,21,11,/Users/Zenny/Desktop/quickrun.csv,legacy,8 7 3,Kafkaesque Koffka,3.2.8,1,y,0,left,right,right,left,NA,572,26206,6267,572,NA,2,legacy,3,1024,2,48000,-16,experiment,999,odd,8,240932,225141,238639,2560,110149,238670,237528,2624,103881,242964,243537,239701,28838,242964,NA,SternbergTask,27,22087,34,yes,1024
80,80,649.0285714,649.0285714,black,experiment,legacy,legacy,legacy,0,uniform,1,undefined,1,left,34,34,34,0,0,34,34,0,0,34,34,34,0,34,0,Fri Oct 25 12:11:20 2019,The main experiment item,yes,SternbergTask.osexp,/Users/Zenny/Desktop,no,mono,no,18,no,white,no,no,768,legacy,22,11,/Users/Zenny/Desktop/quickrun.csv,legacy,4 1 8 7 5,Kafkaesque Koffka,3.2.8,3,y,0,left,right,right,left,NA,629,26206,6267,629,NA,2,legacy,5,1024,2,48000,-16,experiment,999,odd,8,247023,243576,244727,2560,110149,244759,237528,2624,103881,249059,249690,245791,28838,249058,NA,SternbergTask,28,22716,35,yes,1024
80.55555556,80.55555556,647.5,647.5,black,experiment,legacy,legacy,legacy,0,uniform,1,undefined,1,right,35,35,35,0,0,35,35,0,0,35,35,35,0,35,0,Fri Oct 25 12:11:20 2019,The main experiment item,yes,SternbergTask.osexp,/Users/Zenny/Desktop,no,mono,no,18,no,white,no,no,768,legacy,23,11,/Users/Zenny/Desktop/quickrun.csv,legacy,9 7 4 5 8,Kafkaesque Koffka,3.2.8,0,n,0,right,right,right,right,NA,594,26206,6267,594,NA,2,legacy,5,1024,2,48000,-16,experiment,999,odd,6,253129,249726,250835,2560,110149,250866,237528,2624,103881,255161,255757,251897,28838,255160,NA,SternbergTask,29,23310,36,yes,1024
81.08108108,81.08108108,645.7567568,645.7567568,black,experiment,legacy,legacy,legacy,0,uniform,1,undefined,1,left,36,36,36,0,0,36,36,0,0,36,36,36,0,36,0,Fri Oct 25 12:11:20 2019,The main experiment item,yes,SternbergTask.osexp,/Users/Zenny/Desktop,no,mono,no,18,no,white,no,no,768,legacy,24,11,/Users/Zenny/Desktop/quickrun.csv,legacy,8 9 6 1,Kafkaesque Koffka,3.2.8,2,y,0,left,right,right,left,NA,583,26206,6267,583,NA,2,legacy,4,1024,2,48000,-16,experiment,999,odd,9,259235,255793,256938,2560,110149,256970,237528,2624,103881,261268,261853,258002,28838,261268,NA,SternbergTask,30,23893,37,yes,1024
81.57894737,81.57894737,643.5526316,643.5526316,black,experiment,legacy,legacy,legacy,0,uniform,1,undefined,1,right,37,37,37,0,0,37,37,0,0,37,37,37,0,37,0,Fri Oct 25 12:11:20 2019,The main experiment item,yes,SternbergTask.osexp,/Users/Zenny/Desktop,no,mono,no,18,no,white,no,no,768,legacy,25,11,/Users/Zenny/Desktop/quickrun.csv,legacy,2 3 8 5 6 7,Kafkaesque Koffka,3.2.8,0,n,0,right,right,right,right,NA,562,26206,6267,562,NA,2,legacy,6,1024,2,48000,-16,experiment,999,odd,1,265296,261890,263000,2560,110149,263031,237528,2624,103881,267327,267891,264062,28838,267327,NA,SternbergTask,31,24455,38,yes,1024
79.48717949,79.48717949,644.2307692,644.2307692,black,experiment,legacy,legacy,legacy,0,uniform,0,undefined,0,right,38,38,38,0,0,38,38,0,0,38,38,38,0,38,0,Fri Oct 25 12:11:20 2019,The main experiment item,yes,SternbergTask.osexp,/Users/Zenny/Desktop,no,mono,no,18,no,white,no,no,768,legacy,26,11,/Users/Zenny/Desktop/quickrun.csv,legacy,6 9 5,Kafkaesque Koffka,3.2.8,0,n,0,left,right,right,left,NA,670,26206,6267,670,NA,2,legacy,3,1024,2,48000,-16,experiment,999,odd,8,271371,267929,269076,2560,110149,269109,237528,2624,103881,273402,274075,270140,28838,273402,NA,SternbergTask,31,25125,39,yes,1024
80,80,640.975,640.975,black,experiment,legacy,legacy,legacy,0,uniform,1,undefined,1,right,39,39,39,0,0,39,39,0,0,39,39,39,0,39,0,Fri Oct 25 12:11:20 2019,The main experiment item,yes,SternbergTask.osexp,/Users/Zenny/Desktop,no,mono,no,18,no,white,no,no,768,legacy,27,11,/Users/Zenny/Desktop/quickrun.csv,legacy,4 2 6 9,Kafkaesque Koffka,3.2.8,0,n,0,right,right,right,right,NA,514,26206,6267,514,NA,2,legacy,4,1024,2,48000,-16,experiment,999,odd,7,277528,267929,275225,2560,110149,275255,274116,2624,103881,279559,280075,276287,28838,279559,NA,SternbergTask,32,25639,40,yes,1024
80.48780488,80.48780488,634.1219512,634.1219512,black,experiment,legacy,legacy,legacy,0,uniform,1,undefined,1,left,40,40,40,0,0,40,40,0,0,40,40,40,0,40,0,Fri Oct 25 12:11:20 2019,The main experiment item,yes,SternbergTask.osexp,/Users/Zenny/Desktop,no,mono,no,18,no,white,no,no,768,legacy,28,11,/Users/Zenny/Desktop/quickrun.csv,legacy,8,Kafkaesque Koffka,3.2.8,1,y,0,left,right,right,left,NA,360,26206,6267,360,NA,2,legacy,1,1024,2,48000,-16,experiment,999,odd,8,283556,280110,281261,2560,110149,281292,274116,2624,103881,285588,285950,282324,28838,285588,NA,SternbergTask,33,25999,41,yes,1024
80.95238095,80.95238095,633.9285714,633.9285714,black,experiment,legacy,legacy,legacy,0,uniform,1,undefined,1,right,41,41,41,0,0,41,41,0,0,41,41,41,0,41,0,Fri Oct 25 12:11:20 2019,The main experiment item,yes,SternbergTask.osexp,/Users/Zenny/Desktop,no,mono,no,18,no,white,no,no,768,legacy,29,11,/Users/Zenny/Desktop/quickrun.csv,legacy,2 5 1 4,Kafkaesque Koffka,3.2.8,0,n,0,right,right,right,right,NA,626,26206,6267,626,NA,2,legacy,4,1024,2,48000,-16,experiment,999,odd,6,289388,285983,287092,2560,110149,287123,274116,2624,103881,291420,292048,288155,28838,291419,NA,SternbergTask,34,26625,42,yes,1024
81.39534884,81.39534884,631.1860465,631.1860465,black,experiment,legacy,legacy,legacy,0,uniform,1,undefined,1,right,42,42,42,0,0,42,42,0,0,42,42,42,0,42,0,Fri Oct 25 12:11:20 2019,The main experiment item,yes,SternbergTask.osexp,/Users/Zenny/Desktop,no,mono,no,18,no,white,no,no,768,legacy,30,11,/Users/Zenny/Desktop/quickrun.csv,legacy,4 1,Kafkaesque Koffka,3.2.8,0,n,0,right,right,right,right,NA,516,26206,6267,516,NA,2,legacy,2,1024,2,48000,-16,experiment,999,odd,6,295544,292087,293241,2560,110149,293279,274116,2624,103881,297575,298093,294309,28838,297575,NA,SternbergTask,35,27141,43,yes,1024
81.81818182,81.81818182,633.5454545,633.5454545,black,experiment,legacy,legacy,legacy,0,uniform,1,undefined,1,right,43,43,43,0,0,43,43,0,0,43,43,43,0,43,0,Fri Oct 25 12:11:20 2019,The main experiment item,yes,SternbergTask.osexp,/Users/Zenny/Desktop,no,mono,no,18,no,white,no,no,768,legacy,31,11,/Users/Zenny/Desktop/quickrun.csv,legacy,4 2 7 6 1 3,Kafkaesque Koffka,3.2.8,0,n,0,right,right,right,right,NA,735,26206,6267,735,NA,2,legacy,6,1024,2,48000,-16,experiment,999,odd,8,301542,298127,299237,2560,110149,299267,274116,2624,103881,303573,304310,300299,28838,303573,NA,SternbergTask,36,27876,44,yes,1024
80,80,639.1555556,639.1555556,black,experiment,legacy,legacy,legacy,0,uniform,0,undefined,0,right,44,44,44,0,0,44,44,0,0,44,44,44,0,44,0,Fri Oct 25 12:11:20 2019,The main experiment item,yes,SternbergTask.osexp,/Users/Zenny/Desktop,no,mono,no,18,no,white,no,no,768,legacy,32,11,/Users/Zenny/Desktop/quickrun.csv,legacy,5 3 2 6 9 8,Kafkaesque Koffka,3.2.8,0,n,0,left,right,right,left,NA,886,26206,6267,886,NA,2,legacy,6,1024,2,48000,-16,experiment,999,odd,4,307811,304347,305510,2560,110149,305546,274116,2624,103881,309842,310730,306578,28838,309842,NA,SternbergTask,36,28762,45,yes,1024
80.43478261,80.43478261,638.8478261,638.8478261,black,experiment,legacy,legacy,legacy,0,uniform,1,undefined,1,right,45,45,45,0,0,45,45,0,0,45,45,45,0,45,0,Fri Oct 25 12:11:20 2019,The main experiment item,yes,SternbergTask.osexp,/Users/Zenny/Desktop,no,mono,no,18,no,white,no,no,768,legacy,33,11,/Users/Zenny/Desktop/quickrun.csv,legacy,1 6 4 3 9 7,Kafkaesque Koffka,3.2.8,0,n,0,right,right,right,right,NA,625,26206,6267,625,NA,2,legacy,6,1024,2,48000,-16,experiment,999,odd,8,314178,304347,311882,2560,110149,311914,310765,2624,103881,316209,316836,312947,28838,316209,NA,SternbergTask,37,29387,46,yes,1024
78.72340426,78.72340426,637.9787234,637.9787234,black,experiment,legacy,legacy,legacy,0,uniform,0,undefined,0,left,46,46,46,0,0,46,46,0,0,46,46,46,0,46,0,Fri Oct 25 12:11:20 2019,The main experiment item,yes,SternbergTask.osexp,/Users/Zenny/Desktop,no,mono,no,18,no,white,no,no,768,legacy,34,11,/Users/Zenny/Desktop/quickrun.csv,legacy,2 8 5 1,Kafkaesque Koffka,3.2.8,4,y,0,right,right,right,right,NA,598,26206,6267,598,NA,2,legacy,4,1024,2,48000,-16,experiment,999,odd,1,320307,316872,318009,2560,110149,318044,310765,2624,103881,322338,322938,319075,28838,322338,NA,SternbergTask,37,29985,47,yes,1024
79.16666667,79.16666667,637.4375,637.4375,black,experiment,legacy,legacy,legacy,0,uniform,1,undefined,1,left,47,47,47,0,0,47,47,0,0,47,47,47,0,47,0,Fri Oct 25 12:11:20 2019,The main experiment item,yes,SternbergTask.osexp,/Users/Zenny/Desktop,no,mono,no,18,no,white,no,no,768,legacy,35,11,/Users/Zenny/Desktop/quickrun.csv,legacy,8 9 5 6 7,Kafkaesque Koffka,3.2.8,1,y,0,left,right,right,left,NA,612,26206,6267,612,NA,2,legacy,5,1024,2,48000,-16,experiment,999,odd,8,326375,316872,324080,2560,110149,324110,322971,2624,103881,328406,329020,325141,28838,328406,NA,SternbergTask,38,30597,48,yes,1024
79.59183673,79.59183673,637.1836735,637.1836735,black,experiment,legacy,legacy,legacy,0,uniform,1,undefined,1,left,48,48,48,0,0,48,48,0,0,48,48,48,0,48,0,Fri Oct 25 12:11:20 2019,The main experiment item,yes,SternbergTask.osexp,/Users/Zenny/Desktop,no,mono,no,18,no,white,no,no,768,legacy,36,11,/Users/Zenny/Desktop/quickrun.csv,legacy,7 2 3,Kafkaesque Koffka,3.2.8,3,y,0,left,right,right,left,NA,625,26206,6267,625,NA,2,legacy,3,1024,2,48000,-16,experiment,999,odd,3,332533,329061,330207,2560,110149,330239,322971,2624,103881,334565,335191,331271,28838,334565,NA,SternbergTask,39,31222,49,yes,1024
80,80,635.12,635.12,black,experiment,legacy,legacy,legacy,0,uniform,1,undefined,1,left,49,49,49,0,0,49,49,0,0,49,49,49,0,49,0,Fri Oct 25 12:11:20 2019,The main experiment item,yes,SternbergTask.osexp,/Users/Zenny/Desktop,no,mono,no,18,no,white,no,no,768,legacy,37,11,/Users/Zenny/Desktop/quickrun.csv,legacy,6 5,Kafkaesque Koffka,3.2.8,2,y,0,left,right,right,left,NA,534,26206,6267,534,NA,2,legacy,2,1024,2,48000,-16,experiment,999,odd,5,338630,335225,336333,2560,110149,336364,322971,2624,103881,340661,341197,337395,28838,340661,NA,SternbergTask,40,31756,50,yes,1024
80.39215686,80.39215686,637.5490196,637.5490196,black,experiment,legacy,legacy,legacy,0,uniform,1,undefined,1,left,50,50,50,0,0,50,50,0,0,50,50,50,0,50,0,Fri Oct 25 12:11:20 2019,The main experiment item,yes,SternbergTask.osexp,/Users/Zenny/Desktop,no,mono,no,18,no,white,no,no,768,legacy,38,11,/Users/Zenny/Desktop/quickrun.csv,legacy,7 8 4 6 9 5,Kafkaesque Koffka,3.2.8,4,y,0,left,right,right,left,NA,759,26206,6267,759,NA,2,legacy,6,1024,2,48000,-16,experiment,999,odd,6,344672,341232,342374,2560,110149,342407,322971,2624,103881,346703,347465,343438,28838,346703,NA,SternbergTask,41,32515,51,yes,1024
80.76923077,80.76923077,636.3269231,636.3269231,black,experiment,legacy,legacy,legacy,0,uniform,1,undefined,1,right,51,51,51,0,0,51,51,0,0,51,51,51,0,51,0,Fri Oct 25 12:11:20 2019,The main experiment item,yes,SternbergTask.osexp,/Users/Zenny/Desktop,no,mono,no,18,no,white,no,no,768,legacy,39,11,/Users/Zenny/Desktop/quickrun.csv,legacy,3 4 2,Kafkaesque Koffka,3.2.8,0,n,0,right,right,right,right,NA,574,26206,6267,574,NA,2,legacy,3,1024,2,48000,-16,experiment,999,odd,5,350934,347531,348640,2560,110149,348672,322971,2624,103881,352965,353541,349703,28838,352965,NA,SternbergTask,42,33089,52,yes,1024
81.13207547,81.13207547,633.3962264,633.3962264,black,experiment,legacy,legacy,legacy,0,uniform,1,undefined,1,left,52,52,52,0,0,52,52,0,0,52,52,52,0,52,0,Fri Oct 25 12:11:20 2019,The main experiment item,yes,SternbergTask.osexp,/Users/Zenny/Desktop,no,mono,no,18,no,white,no,no,768,legacy,40,11,/Users/Zenny/Desktop/quickrun.csv,legacy,7 6,Kafkaesque Koffka,3.2.8,2,y,0,left,right,right,left,NA,481,26206,6267,481,NA,2,legacy,2,1024,2,48000,-16,experiment,999,odd,6,357027,353581,354733,2560,110149,354765,322971,2624,103881,359058,359540,355796,28838,359058,NA,SternbergTask,43,33570,53,yes,1024
81.48148148,81.48148148,631.5185185,631.5185185,black,experiment,legacy,legacy,legacy,0,uniform,1,undefined,1,left,53,53,53,0,0,53,53,0,0,53,53,53,0,53,0,Fri Oct 25 12:11:20 2019,The main experiment item,yes,SternbergTask.osexp,/Users/Zenny/Desktop,no,mono,no,18,no,white,no,no,768,legacy,41,11,/Users/Zenny/Desktop/quickrun.csv,legacy,9 3 8 2 1 4,Kafkaesque Koffka,3.2.8,3,y,0,left,right,right,left,NA,532,26206,6267,532,NA,2,legacy,6,1024,2,48000,-16,experiment,999,odd,8,362980,359575,360685,2560,110149,360716,322971,2624,103881,365010,365544,361747,28838,365010,NA,SternbergTask,44,34102,54,yes,1024
81.81818182,81.81818182,628.5636364,628.5636364,black,experiment,legacy,legacy,legacy,0,uniform,1,undefined,1,left,54,54,54,0,0,54,54,0,0,54,54,54,0,54,0,Fri Oct 25 12:11:20 2019,The main experiment item,yes,SternbergTask.osexp,/Users/Zenny/Desktop,no,mono,no,18,no,white,no,no,768,legacy,42,11,/Users/Zenny/Desktop/quickrun.csv,legacy,6 2,Kafkaesque Koffka,3.2.8,1,y,0,left,right,right,left,NA,469,26206,6267,469,NA,2,legacy,2,1024,2,48000,-16,experiment,999,odd,6,369030,365586,366733,2560,110149,366764,322971,2624,103881,371065,371536,367797,28838,371064,NA,SternbergTask,45,34571,55,yes,1024
82.14285714,82.14285714,626.9464286,626.9464286,black,experiment,legacy,legacy,legacy,0,uniform,1,undefined,1,left,55,55,55,0,0,55,55,0,0,55,55,55,0,55,0,Fri Oct 25 12:11:20 2019,The main experiment item,yes,SternbergTask.osexp,/Users/Zenny/Desktop,no,mono,no,18,no,white,no,no,768,legacy,43,11,/Users/Zenny/Desktop/quickrun.csv,legacy,3 2 1 4 7,Kafkaesque Koffka,3.2.8,2,y,0,left,right,right,left,NA,538,26206,6267,538,NA,2,legacy,5,1024,2,48000,-16,experiment,999,odd,2,374976,371570,372680,2560,110149,372711,322971,2624,103881,377006,377546,373742,28838,377006,NA,SternbergTask,46,35109,56,yes,1024
82.45614035,82.45614035,626.4035088,626.4035088,black,experiment,legacy,legacy,legacy,0,uniform,1,undefined,1,right,56,56,56,0,0,56,56,0,0,56,56,56,0,56,0,Fri Oct 25 12:11:20 2019,The main experiment item,yes,SternbergTask.osexp,/Users/Zenny/Desktop,no,mono,no,18,no,white,no,no,768,legacy,44,11,/Users/Zenny/Desktop/quickrun.csv,legacy,5 2,Kafkaesque Koffka,3.2.8,0,n,0,right,right,right,right,NA,596,26206,6267,596,NA,2,legacy,2,1024,2,48000,-16,experiment,999,odd,7,381027,377585,378733,2560,110149,378765,322971,2624,103881,383058,383656,379796,28838,383058,NA,SternbergTask,47,35705,57,yes,1024
82.75862069,82.75862069,626.2068966,626.2068966,black,experiment,legacy,legacy,legacy,0,uniform,1,undefined,1,left,57,57,57,0,0,57,57,0,0,57,57,57,0,57,0,Fri Oct 25 12:11:20 2019,The main experiment item,yes,SternbergTask.osexp,/Users/Zenny/Desktop,no,mono,no,18,no,white,no,no,768,legacy,45,11,/Users/Zenny/Desktop/quickrun.csv,legacy,9 4 2,Kafkaesque Koffka,3.2.8,1,y,0,left,right,right,left,NA,615,26206,6267,615,NA,2,legacy,3,1024,2,48000,-16,experiment,999,odd,9,387093,383689,384797,2560,110149,384828,322971,2624,103881,389125,389742,385859,28838,389125,NA,SternbergTask,48,36320,58,yes,1024
83.05084746,83.05084746,627.1864407,627.1864407,black,experiment,legacy,legacy,legacy,0,uniform,1,undefined,1,right,58,58,58,0,0,58,58,0,0,58,58,58,0,58,0,Fri Oct 25 12:11:20 2019,The main experiment item,yes,SternbergTask.osexp,/Users/Zenny/Desktop,no,mono,no,18,no,white,no,no,768,legacy,46,11,/Users/Zenny/Desktop/quickrun.csv,legacy,2 8 9,Kafkaesque Koffka,3.2.8,0,n,0,right,right,right,right,NA,684,26206,6267,684,NA,2,legacy,3,1024,2,48000,-16,experiment,999,odd,6,393224,389777,390928,2560,110149,390960,322971,2624,103881,395255,395941,391993,28838,395255,NA,SternbergTask,49,37004,59,yes,1024
81.66666667,81.66666667,625.3,625.3,black,experiment,legacy,legacy,legacy,0,uniform,0,undefined,0,left,59,59,59,0,0,59,59,0,0,59,59,59,0,59,0,Fri Oct 25 12:11:20 2019,The main experiment item,yes,SternbergTask.osexp,/Users/Zenny/Desktop,no,mono,no,18,no,white,no,no,768,legacy,47,11,/Users/Zenny/Desktop/quickrun.csv,legacy,3 5 7 1,Kafkaesque Koffka,3.2.8,3,y,0,right,right,right,right,NA,514,26206,6267,514,NA,2,legacy,4,1024,2,48000,-16,experiment,999,odd,7,399380,395975,397084,2560,110149,397115,322971,2624,103881,401411,401927,398147,28838,401411,NA,SternbergTask,49,37518,60,yes,1024
81.96721311,81.96721311,624.3114754,624.3114754,black,experiment,legacy,legacy,legacy,0,uniform,1,undefined,1,right,60,60,60,0,0,60,60,0,0,60,60,60,0,60,0,Fri Oct 25 12:11:20 2019,The main experiment item,yes,SternbergTask.osexp,/Users/Zenny/Desktop,no,mono,no,18,no,white,no,no,768,legacy,48,11,/Users/Zenny/Desktop/quickrun.csv,legacy,7 9,Kafkaesque Koffka,3.2.8,0,n,0,right,right,right,right,NA,565,26206,6267,565,NA,2,legacy,2,1024,2,48000,-16,experiment,999,odd,1,405405,395975,403110,2560,110149,403141,401967,2624,103881,407437,408004,404172,28838,407437,NA,SternbergTask,50,38083,61,yes,1024
82.25806452,82.25806452,627.2903226,627.2903226,black,experiment,legacy,legacy,legacy,0,uniform,1,undefined,1,left,61,61,61,0,0,61,61,0,0,61,61,61,0,61,0,Fri Oct 25 12:11:20 2019,The main experiment item,yes,SternbergTask.osexp,/Users/Zenny/Desktop,no,mono,no,18,no,white,no,no,768,legacy,49,11,/Users/Zenny/Desktop/quickrun.csv,legacy,7 1 8 5 6 2,Kafkaesque Koffka,3.2.8,2,y,0,left,right,right,left,NA,809,26206,6267,809,NA,2,legacy,6,1024,2,48000,-16,experiment,999,odd,1,411445,408037,409149,2560,110149,409180,401967,2624,103881,413477,414288,410212,28838,413477,NA,SternbergTask,51,38892,62,yes,1024
82.53968254,82.53968254,623.9365079,623.9365079,black,experiment,legacy,legacy,legacy,0,uniform,1,undefined,1,left,62,62,62,0,0,62,62,0,0,62,62,62,0,62,0,Fri Oct 25 12:11:20 2019,The main experiment item,yes,SternbergTask.osexp,/Users/Zenny/Desktop,no,mono,no,18,no,white,no,no,768,legacy,50,11,/Users/Zenny/Desktop/quickrun.csv,legacy,2 3,Kafkaesque Koffka,3.2.8,1,y,0,left,right,right,left,NA,416,26206,6267,416,NA,2,legacy,2,1024,2,48000,-16,experiment,999,odd,2,417782,414324,415476,2560,110149,415514,401967,2624,103881,419813,420231,416549,28838,419813,NA,SternbergTask,52,39308,63,yes,1024
82.8125,82.8125,624.359375,624.359375,black,experiment,legacy,legacy,legacy,0,uniform,1,undefined,1,left,63,63,63,0,0,63,63,0,0,63,63,63,0,63,0,Fri Oct 25 12:11:20 2019,The main experiment item,yes,SternbergTask.osexp,/Users/Zenny/Desktop,no,mono,no,18,no,white,no,no,768,legacy,51,11,/Users/Zenny/Desktop/quickrun.csv,legacy,5 7 8 2 3 8,Kafkaesque Koffka,3.2.8,5,y,0,left,right,right,left,NA,651,26206,6267,651,NA,2,legacy,6,1024,2,48000,-16,experiment,999,odd,3,423671,420264,421373,2560,110149,421404,401967,2624,103881,425703,426356,422436,28838,425703,NA,SternbergTask,53,39959,64,yes,1024
81.53846154,81.53846154,623.8615385,623.8615385,black,experiment,legacy,legacy,legacy,0,uniform,0,undefined,0,left,64,64,64,0,0,64,64,0,0,64,64,64,0,64,0,Fri Oct 25 12:11:20 2019,The main experiment item,yes,SternbergTask.osexp,/Users/Zenny/Desktop,no,mono,no,18,no,white,no,no,768,legacy,52,11,/Users/Zenny/Desktop/quickrun.csv,legacy,5 2 9 6 1 7,Kafkaesque Koffka,3.2.8,3,y,0,right,right,right,right,NA,592,26206,6267,592,NA,2,legacy,6,1024,2,48000,-16,experiment,999,odd,9,429837,426391,427541,2560,110149,427573,401967,2624,103881,431869,432463,428605,28838,431869,NA,SternbergTask,53,40551,65,yes,1024
81.81818182,81.81818182,621.1363636,621.1363636,black,experiment,legacy,legacy,legacy,0,uniform,1,undefined,1,left,65,65,65,0,0,65,65,0,0,65,65,65,0,65,0,Fri Oct 25 12:11:20 2019,The main experiment item,yes,SternbergTask.osexp,/Users/Zenny/Desktop,no,mono,no,18,no,white,no,no,768,legacy,53,11,/Users/Zenny/Desktop/quickrun.csv,legacy,7 4 2 6 3 5,Kafkaesque Koffka,3.2.8,6,y,0,left,right,right,left,NA,444,26206,6267,444,NA,2,legacy,6,1024,2,48000,-16,experiment,999,odd,5,435948,426391,433651,2560,110149,433682,432540,2624,103881,437979,438425,434714,28838,437979,NA,SternbergTask,54,40995,66,yes,1024
82.08955224,82.08955224,619.5373134,619.5373134,black,experiment,legacy,legacy,legacy,0,uniform,1,undefined,1,left,66,66,66,0,0,66,66,0,0,66,66,66,0,66,0,Fri Oct 25 12:11:20 2019,The main experiment item,yes,SternbergTask.osexp,/Users/Zenny/Desktop,no,mono,no,18,no,white,no,no,768,legacy,54,11,/Users/Zenny/Desktop/quickrun.csv,legacy,9 8 4,Kafkaesque Koffka,3.2.8,1,y,0,left,right,right,left,NA,514,26206,6267,514,NA,2,legacy,3,1024,2,48000,-16,experiment,999,odd,9,441906,438466,439606,2560,110149,439642,432540,2624,103881,443939,444455,440673,28838,443939,NA,SternbergTask,55,41509,67,yes,1024
82.35294118,82.35294118,617.8235294,617.8235294,black,experiment,legacy,legacy,legacy,0,uniform,1,undefined,1,right,67,67,67,0,0,67,67,0,0,67,67,67,0,67,0,Fri Oct 25 12:11:20 2019,The main experiment item,yes,SternbergTask.osexp,/Users/Zenny/Desktop,no,mono,no,18,no,white,no,no,768,legacy,55,11,/Users/Zenny/Desktop/quickrun.csv,legacy,6 8,Kafkaesque Koffka,3.2.8,0,n,0,right,right,right,right,NA,503,26206,6267,503,NA,2,legacy,2,1024,2,48000,-16,experiment,999,odd,9,447906,444500,445610,2560,110149,445641,432540,2624,103881,449937,450443,446672,28838,449937,NA,SternbergTask,56,42012,68,yes,1024
82.60869565,82.60869565,616.6086957,616.6086957,black,experiment,legacy,legacy,legacy,0,uniform,1,undefined,1,left,68,68,68,0,0,68,68,0,0,68,68,68,0,68,0,Fri Oct 25 12:11:20 2019,The main experiment item,yes,SternbergTask.osexp,/Users/Zenny/Desktop,no,mono,no,18,no,white,no,no,768,legacy,56,11,/Users/Zenny/Desktop/quickrun.csv,legacy,3 4 9 6 2 9,Kafkaesque Koffka,3.2.8,5,y,0,left,right,right,left,NA,534,26206,6267,534,NA,2,legacy,6,1024,2,48000,-16,experiment,999,odd,2,453958,450531,451661,2560,110149,451694,432540,2624,103881,455990,456526,452725,28838,455989,NA,SternbergTask,57,42546,69,yes,1024
81.42857143,81.42857143,614.5428571,614.5428571,black,experiment,legacy,legacy,legacy,0,uniform,0,undefined,0,right,69,69,69,0,0,69,69,0,0,69,69,69,0,69,0,Fri Oct 25 12:11:20 2019,The main experiment item,yes,SternbergTask.osexp,/Users/Zenny/Desktop,no,mono,no,18,no,white,no,no,768,legacy,57,11,/Users/Zenny/Desktop/quickrun.csv,legacy,7 6 4 8 1 2,Kafkaesque Koffka,3.2.8,0,n,0,left,right,right,left,NA,472,26206,6267,472,NA,2,legacy,6,1024,2,48000,-16,experiment,999,odd,9,459971,456564,457674,2560,110149,457705,432540,2624,103881,462001,462475,458737,28838,462001,NA,SternbergTask,57,43018,70,yes,1024
80.28169014,80.28169014,615.2535211,615.2535211,black,experiment,legacy,legacy,legacy,0,uniform,0,undefined,0,right,70,70,70,0,0,70,70,0,0,70,70,70,0,70,0,Fri Oct 25 12:11:20 2019,The main experiment item,yes,SternbergTask.osexp,/Users/Zenny/Desktop,no,mono,no,18,no,white,no,no,768,legacy,58,11,/Users/Zenny/Desktop/quickrun.csv,legacy,1 6 4,Kafkaesque Koffka,3.2.8,0,n,0,left,right,right,left,NA,665,26206,6267,665,NA,2,legacy,3,1024,2,48000,-16,experiment,999,odd,7,465977,456564,463682,2560,110149,463714,462536,2624,103881,468010,468677,464745,28838,468010,NA,SternbergTask,57,43683,71,yes,1024
80.55555556,80.55555556,615.0555556,615.0555556,black,experiment,legacy,legacy,legacy,0,uniform,1,undefined,1,left,71,71,71,0,0,71,71,0,0,71,71,71,0,71,0,Fri Oct 25 12:11:20 2019,The main experiment item,yes,SternbergTask.osexp,/Users/Zenny/Desktop,no,mono,no,18,no,white,no,no,768,legacy,59,11,/Users/Zenny/Desktop/quickrun.csv,legacy,2 5 4 8 7,Kafkaesque Koffka,3.2.8,3,y,0,left,right,right,left,NA,601,26206,6267,601,NA,2,legacy,5,1024,2,48000,-16,experiment,999,odd,4,472117,456564,469821,2560,110149,469853,468711,2624,103881,474148,474751,470884,28838,474148,NA,SternbergTask,58,44284,72,yes,1024
80.82191781,80.82191781,618.0958904,618.0958904,black,experiment,legacy,legacy,legacy,0,uniform,1,undefined,1,right,72,72,72,0,0,72,72,0,0,72,72,72,0,72,0,Fri Oct 25 12:11:20 2019,The main experiment item,yes,SternbergTask.osexp,/Users/Zenny/Desktop,no,mono,no,18,no,white,no,no,768,legacy,60,11,/Users/Zenny/Desktop/quickrun.csv,legacy,5 9 2 3,Kafkaesque Koffka,3.2.8,0,n,0,right,right,right,right,NA,837,26206,6267,837,NA,2,legacy,4,1024,2,48000,-16,experiment,999,odd,8,478236,474792,475943,2560,110149,475975,468711,2624,103881,480267,481106,477005,28838,480267,NA,SternbergTask,59,45121,73,yes,1024
79.72972973,79.72972973,616.7567568,616.7567568,black,experiment,legacy,legacy,legacy,0,uniform,0,undefined,0,left,73,73,73,0,0,73,73,0,0,73,73,73,0,73,0,Fri Oct 25 12:11:20 2019,The main experiment item,yes,SternbergTask.osexp,/Users/Zenny/Desktop,no,mono,no,18,no,white,no,no,768,legacy,61,11,/Users/Zenny/Desktop/quickrun.csv,legacy,3 5 4 7,Kafkaesque Koffka,3.2.8,1,y,0,right,right,right,right,NA,519,26206,6267,519,NA,2,legacy,4,1024,2,48000,-16,experiment,999,odd,3,484548,481141,482250,2560,110149,482282,468711,2624,103881,486583,487104,483314,28838,486583,NA,SternbergTask,59,45640,74,yes,1024
80,80,616.88,616.88,black,experiment,legacy,legacy,legacy,0,uniform,1,undefined,1,left,74,74,74,0,0,74,74,0,0,74,74,74,0,74,0,Fri Oct 25 12:11:20 2019,The main experiment item,yes,SternbergTask.osexp,/Users/Zenny/Desktop,no,mono,no,18,no,white,no,no,768,legacy,62,11,/Users/Zenny/Desktop/quickrun.csv,legacy,6 8 9 3 4 9,Kafkaesque Koffka,3.2.8,5,y,0,left,right,right,left,NA,626,26206,6267,626,NA,2,legacy,6,1024,2,48000,-16,experiment,999,odd,4,490591,481141,488295,2560,110149,488326,487145,2624,103881,492623,493251,489357,28838,492623,NA,SternbergTask,60,46266,75,yes,1024
80.26315789,80.26315789,615.9868421,615.9868421,black,experiment,legacy,legacy,legacy,0,uniform,1,undefined,1,left,75,75,75,0,0,75,75,0,0,75,75,75,0,75,0,Fri Oct 25 12:11:20 2019,The main experiment item,yes,SternbergTask.osexp,/Users/Zenny/Desktop,no,mono,no,18,no,white,no,no,768,legacy,63,11,/Users/Zenny/Desktop/quickrun.csv,legacy,2 3 7 4,Kafkaesque Koffka,3.2.8,1,y,0,left,right,right,left,NA,549,26206,6267,549,NA,2,legacy,4,1024,2,48000,-16,experiment,999,odd,2,496689,493286,494394,2560,110149,494425,487145,2624,103881,498720,499272,495457,28838,498720,NA,SternbergTask,61,46815,76,yes,1024
80.51948052,80.51948052,615.0649351,615.0649351,black,experiment,legacy,legacy,legacy,0,uniform,1,undefined,1,right,76,76,76,0,0,76,76,0,0,76,76,76,0,76,0,Fri Oct 25 12:11:20 2019,The main experiment item,yes,SternbergTask.osexp,/Users/Zenny/Desktop,no,mono,no,18,no,white,no,no,768,legacy,64,11,/Users/Zenny/Desktop/quickrun.csv,legacy,2 8 7 9 5 3,Kafkaesque Koffka,3.2.8,0,n,0,right,right,right,right,NA,545,26206,6267,545,NA,2,legacy,6,1024,2,48000,-16,experiment,999,odd,6,502805,499310,500456,2560,110149,500541,487145,2624,103881,504837,505384,501572,28838,504837,NA,SternbergTask,62,47360,77,yes,1024
80.76923077,80.76923077,613.3461538,613.3461538,black,experiment,legacy,legacy,legacy,0,uniform,1,undefined,1,right,77,77,77,0,0,77,77,0,0,77,77,77,0,77,0,Fri Oct 25 12:11:20 2019,The main experiment item,yes,SternbergTask.osexp,/Users/Zenny/Desktop,no,mono,no,18,no,white,no,no,768,legacy,65,11,/Users/Zenny/Desktop/quickrun.csv,legacy,1,Kafkaesque Koffka,3.2.8,0,n,0,right,right,right,right,NA,481,26206,6267,481,NA,2,legacy,1,1024,2,48000,-16,experiment,999,odd,7,508825,505418,506528,2560,110149,506560,487145,2624,103881,510856,511339,507591,28838,510856,NA,SternbergTask,63,47841,78,yes,1024
81.01265823,81.01265823,613.0253165,613.0253165,black,experiment,legacy,legacy,legacy,0,uniform,1,undefined,1,right,78,78,78,0,0,78,78,0,0,78,78,78,0,78,0,Fri Oct 25 12:11:20 2019,The main experiment item,yes,SternbergTask.osexp,/Users/Zenny/Desktop,no,mono,no,18,no,white,no,no,768,legacy,66,11,/Users/Zenny/Desktop/quickrun.csv,legacy,7 9 1 6,Kafkaesque Koffka,3.2.8,0,n,0,right,right,right,right,NA,588,26206,6267,588,NA,2,legacy,4,1024,2,48000,-16,experiment,999,odd,4,514821,511375,512524,2560,110149,512556,487145,2624,103881,516853,517443,513588,28838,516853,NA,SternbergTask,64,48429,79,yes,1024
81.25,81.25,610.925,610.925,black,experiment,legacy,legacy,legacy,0,uniform,1,undefined,1,left,79,79,79,0,0,79,79,0,0,79,79,79,0,79,0,Fri Oct 25 12:11:20 2019,The main experiment item,yes,SternbergTask.osexp,/Users/Zenny/Desktop,no,mono,no,18,no,white,no,no,768,legacy,67,11,/Users/Zenny/Desktop/quickrun.csv,legacy,7 1 3,Kafkaesque Koffka,3.2.8,2,y,0,left,right,right,left,NA,445,26206,6267,445,NA,2,legacy,3,1024,2,48000,-16,experiment,999,odd,1,520937,517530,518641,2560,110149,518672,487145,2624,103881,522969,523417,519704,28838,522969,NA,SternbergTask,65,48874,80,yes,1024
81.48148148,81.48148148,611.1358025,611.1358025,black,experiment,legacy,legacy,legacy,0,uniform,1,undefined,1,right,80,80,80,0,0,80,80,0,0,80,80,80,0,80,0,Fri Oct 25 12:11:20 2019,The main experiment item,yes,SternbergTask.osexp,/Users/Zenny/Desktop,no,mono,no,18,no,white,no,no,768,legacy,68,11,/Users/Zenny/Desktop/quickrun.csv,legacy,1 4 9 2 5,Kafkaesque Koffka,3.2.8,0,n,0,right,right,right,right,NA,628,26206,6267,628,NA,2,legacy,5,1024,2,48000,-16,experiment,999,odd,7,526904,523455,524608,2560,110149,524641,487145,2624,103881,528935,529565,525672,28838,528935,NA,SternbergTask,66,49502,81,yes,1024
81.70731707,81.70731707,610.3536585,610.3536585,black,experiment,legacy,legacy,legacy,0,uniform,1,undefined,1,right,81,81,81,0,0,81,81,0,0,81,81,81,0,81,0,Fri Oct 25 12:11:20 2019,The main experiment item,yes,SternbergTask.osexp,/Users/Zenny/Desktop,no,mono,no,18,no,white,no,no,768,legacy,69,11,/Users/Zenny/Desktop/quickrun.csv,legacy,2 8 6 3 1,Kafkaesque Koffka,3.2.8,0,n,0,right,right,right,right,NA,547,26206,6267,547,NA,2,legacy,5,1024,2,48000,-16,experiment,999,odd,7,533002,529599,530708,2560,110149,530739,487145,2624,103881,535034,535583,531770,28838,535034,NA,SternbergTask,67,50049,82,yes,1024
81.92771084,81.92771084,609.2771084,609.2771084,black,experiment,legacy,legacy,legacy,0,uniform,1,undefined,1,left,82,82,82,0,0,82,82,0,0,82,82,82,0,82,0,Fri Oct 25 12:11:20 2019,The main experiment item,yes,SternbergTask.osexp,/Users/Zenny/Desktop,no,mono,no,18,no,white,no,no,768,legacy,70,11,/Users/Zenny/Desktop/quickrun.csv,legacy,9 6 2 4 1,Kafkaesque Koffka,3.2.8,4,y,0,left,right,right,left,NA,521,26206,6267,521,NA,2,legacy,5,1024,2,48000,-16,experiment,999,odd,4,539066,535625,536772,2560,110149,536803,487145,2624,103881,541100,541623,537834,28838,541100,NA,SternbergTask,68,50570,83,yes,1024
82.14285714,82.14285714,608.1309524,608.1309524,black,experiment,legacy,legacy,legacy,0,uniform,1,undefined,1,right,83,83,83,0,0,83,83,0,0,83,83,83,0,83,0,Fri Oct 25 12:11:20 2019,The main experiment item,yes,SternbergTask.osexp,/Users/Zenny/Desktop,no,mono,no,18,no,white,no,no,768,legacy,71,11,/Users/Zenny/Desktop/quickrun.csv,legacy,8 2 1 4 5 9,Kafkaesque Koffka,3.2.8,0,n,0,right,right,right,right,NA,513,26206,6267,513,NA,2,legacy,6,1024,2,48000,-16,experiment,999,odd,7,545061,541657,542766,2560,110149,542797,487145,2624,103881,547094,547609,543829,28838,547094,NA,SternbergTask,69,51083,84,yes,1024
81.17647059,81.17647059,607.8470588,607.8470588,black,experiment,legacy,legacy,legacy,0,uniform,0,undefined,0,left,84,84,84,0,0,84,84,0,0,84,84,84,0,84,0,Fri Oct 25 12:11:20 2019,The main experiment item,yes,SternbergTask.osexp,/Users/Zenny/Desktop,no,mono,no,18,no,white,no,no,768,legacy,72,11,/Users/Zenny/Desktop/quickrun.csv,legacy,8 5 3 7 4 6,Kafkaesque Koffka,3.2.8,6,y,0,right,right,right,right,NA,584,26206,6267,584,NA,2,legacy,6,1024,2,48000,-16,experiment,999,odd,6,551086,547645,548791,2560,110149,548822,487145,2624,103881,553117,553703,549853,28838,553117,NA,SternbergTask,69,51667,85,yes,1024
81.39534884,81.39534884,606.6511628,606.6511628,black,experiment,legacy,legacy,legacy,0,uniform,1,undefined,1,right,85,85,85,0,0,85,85,0,0,85,85,85,0,85,0,Fri Oct 25 12:11:20 2019,The main experiment item,yes,SternbergTask.osexp,/Users/Zenny/Desktop,no,mono,no,18,no,white,no,no,768,legacy,73,11,/Users/Zenny/Desktop/quickrun.csv,legacy,6 2 9 3 8 4,Kafkaesque Koffka,3.2.8,0,n,0,right,right,right,right,NA,505,26206,6267,505,NA,2,legacy,6,1024,2,48000,-16,experiment,999,odd,1,557141,547645,554846,2560,110149,554877,553736,2624,103881,559173,559681,555908,28838,559172,NA,SternbergTask,70,52172,86,yes,1024
80.45977011,80.45977011,606.8390805,606.8390805,black,experiment,legacy,legacy,legacy,0,uniform,0,undefined,0,left,86,86,86,0,0,86,86,0,0,86,86,86,0,86,0,Fri Oct 25 12:11:20 2019,The main experiment item,yes,SternbergTask.osexp,/Users/Zenny/Desktop,no,mono,no,18,no,white,no,no,768,legacy,74,11,/Users/Zenny/Desktop/quickrun.csv,legacy,2 4 6 9,Kafkaesque Koffka,3.2.8,3,y,0,right,right,right,right,NA,623,26206,6267,623,NA,2,legacy,4,1024,2,48000,-16,experiment,999,odd,6,563170,559720,560873,2560,110149,560906,553736,2624,103881,565205,565830,561937,28838,565205,NA,SternbergTask,70,52795,87,yes,1024
79.54545455,79.54545455,606.0909091,606.0909091,black,experiment,legacy,legacy,legacy,0,uniform,0,undefined,0,left,87,87,87,0,0,87,87,0,0,87,87,87,0,87,0,Fri Oct 25 12:11:20 2019,The main experiment item,yes,SternbergTask.osexp,/Users/Zenny/Desktop,no,mono,no,18,no,white,no,no,768,legacy,75,11,/Users/Zenny/Desktop/quickrun.csv,legacy,8 5 1 3 9,Kafkaesque Koffka,3.2.8,4,y,0,right,right,right,right,NA,541,26206,6267,541,NA,2,legacy,5,1024,2,48000,-16,experiment,999,odd,3,569273,559720,566978,2560,110149,567009,565869,2624,103881,571304,571848,568040,28838,571304,NA,SternbergTask,70,53336,88,yes,1024
79.7752809,79.7752809,605.1235955,605.1235955,black,experiment,legacy,legacy,legacy,0,uniform,1,undefined,1,left,88,88,88,0,0,88,88,0,0,88,88,88,0,88,0,Fri Oct 25 12:11:20 2019,The main experiment item,yes,SternbergTask.osexp,/Users/Zenny/Desktop,no,mono,no,18,no,white,no,no,768,legacy,76,11,/Users/Zenny/Desktop/quickrun.csv,legacy,9 5 8 1,Kafkaesque Koffka,3.2.8,2,y,0,left,right,right,left,NA,520,26206,6267,520,NA,2,legacy,4,1024,2,48000,-16,experiment,999,odd,5,575333,559720,573039,2560,110149,573071,571889,2624,103881,577365,577887,574102,28838,577365,NA,SternbergTask,71,53856,89,yes,1024
80,80,605.0111111,605.0111111,black,experiment,legacy,legacy,legacy,0,uniform,1,undefined,1,right,89,89,89,0,0,89,89,0,0,89,89,89,0,89,0,Fri Oct 25 12:11:20 2019,The main experiment item,yes,SternbergTask.osexp,/Users/Zenny/Desktop,no,mono,no,18,no,white,no,no,768,legacy,77,11,/Users/Zenny/Desktop/quickrun.csv,legacy,6 8 4,Kafkaesque Koffka,3.2.8,0,n,0,right,right,right,right,NA,595,26206,6267,595,NA,2,legacy,3,1024,2,48000,-16,experiment,999,odd,1,581327,577923,579030,2560,110149,579061,571889,2624,103881,583358,583956,580093,28838,583358,NA,SternbergTask,72,54451,90,yes,1024
80.21978022,80.21978022,604.2967033,604.2967033,black,experiment,legacy,legacy,legacy,0,uniform,1,undefined,1,left,90,90,90,0,0,90,90,0,0,90,90,90,0,90,0,Fri Oct 25 12:11:20 2019,The main experiment item,yes,SternbergTask.osexp,/Users/Zenny/Desktop,no,mono,no,18,no,white,no,no,768,legacy,78,11,/Users/Zenny/Desktop/quickrun.csv,legacy,6 7 9 3 1 2,Kafkaesque Koffka,3.2.8,1,y,0,left,right,right,left,NA,540,26206,6267,540,NA,2,legacy,6,1024,2,48000,-16,experiment,999,odd,6,587429,583993,585136,2560,110149,585167,571889,2624,103881,589460,590001,586198,28838,589460,NA,SternbergTask,73,54991,91,yes,1024
80.43478261,80.43478261,604.0326087,604.0326087,black,experiment,legacy,legacy,legacy,0,uniform,1,undefined,1,right,91,91,91,0,0,91,91,0,0,91,91,91,0,91,0,Fri Oct 25 12:11:20 2019,The main experiment item,yes,SternbergTask.osexp,/Users/Zenny/Desktop,no,mono,no,18,no,white,no,no,768,legacy,79,11,/Users/Zenny/Desktop/quickrun.csv,legacy,6 9 4 5 3 2,Kafkaesque Koffka,3.2.8,0,n,0,right,right,right,right,NA,580,26206,6267,580,NA,2,legacy,6,1024,2,48000,-16,experiment,999,odd,8,593441,590034,591145,2560,110149,591176,571889,2624,103881,595475,596058,592208,28838,595475,NA,SternbergTask,74,55571,92,yes,1024
80.64516129,80.64516129,603.4946237,603.4946237,black,experiment,legacy,legacy,legacy,0,uniform,1,undefined,1,left,92,92,92,0,0,92,92,0,0,92,92,92,0,92,0,Fri Oct 25 12:11:20 2019,The main experiment item,yes,SternbergTask.osexp,/Users/Zenny/Desktop,no,mono,no,18,no,white,no,no,768,legacy,80,11,/Users/Zenny/Desktop/quickrun.csv,legacy,6 7 8 5,Kafkaesque Koffka,3.2.8,3,y,0,left,right,right,left,NA,554,26206,6267,554,NA,2,legacy,4,1024,2,48000,-16,experiment,999,odd,8,599544,596096,597247,2560,110149,597280,571889,2624,103881,601576,602132,598312,28838,601575,NA,SternbergTask,75,56125,93,yes,1024
80.85106383,80.85106383,601.1914894,601.1914894,black,experiment,legacy,legacy,legacy,0,uniform,1,undefined,1,right,93,93,93,0,0,93,93,0,0,93,93,93,0,93,0,Fri Oct 25 12:11:20 2019,The main experiment item,yes,SternbergTask.osexp,/Users/Zenny/Desktop,no,mono,no,18,no,white,no,no,768,legacy,81,11,/Users/Zenny/Desktop/quickrun.csv,legacy,5,Kafkaesque Koffka,3.2.8,0,n,0,right,right,right,right,NA,387,26206,6267,387,NA,2,legacy,1,1024,2,48000,-16,experiment,999,odd,8,605567,602166,603274,2560,110149,603306,571889,2624,103881,607599,607988,604337,28838,607599,NA,SternbergTask,76,56512,94,yes,1024
81.05263158,81.05263158,601.5789474,601.5789474,black,experiment,legacy,legacy,legacy,0,uniform,1,undefined,1,right,94,94,94,0,0,94,94,0,0,94,94,94,0,94,0,Fri Oct 25 12:11:20 2019,The main experiment item,yes,SternbergTask.osexp,/Users/Zenny/Desktop,no,mono,no,18,no,white,no,no,768,legacy,82,11,/Users/Zenny/Desktop/quickrun.csv,legacy,1 5 3 2 8,Kafkaesque Koffka,3.2.8,0,n,0,right,right,right,right,NA,638,26206,6267,638,NA,2,legacy,5,1024,2,48000,-16,experiment,999,odd,4,611469,608025,609172,2560,110149,609204,571889,2624,103881,613537,614177,610235,28838,613536,NA,SternbergTask,77,57150,95,yes,1024
81.25,81.25,601.4166667,601.4166667,black,experiment,legacy,legacy,legacy,0,uniform,1,undefined,1,left,95,95,95,0,0,95,95,0,0,95,95,95,0,95,0,Fri Oct 25 12:11:20 2019,The main experiment item,yes,SternbergTask.osexp,/Users/Zenny/Desktop,no,mono,no,18,no,white,no,no,768,legacy,83,11,/Users/Zenny/Desktop/quickrun.csv,legacy,9 1 7 2,Kafkaesque Koffka,3.2.8,2,y,0,left,right,right,left,NA,586,26206,6267,586,NA,2,legacy,4,1024,2,48000,-16,experiment,999,odd,1,617618,614210,615320,2560,110149,615352,571889,2624,103881,619649,620237,616383,28838,619649,NA,SternbergTask,78,57736,96,yes,1024
81.44329897,81.44329897,601.1546392,601.1546392,black,experiment,legacy,legacy,legacy,0,uniform,1,undefined,1,left,96,96,96,0,0,96,96,0,0,96,96,96,0,96,0,Fri Oct 25 12:11:20 2019,The main experiment item,yes,SternbergTask.osexp,/Users/Zenny/Desktop,no,mono,no,18,no,white,no,no,768,legacy,84,11,/Users/Zenny/Desktop/quickrun.csv,legacy,2 6 1 7 4,Kafkaesque Koffka,3.2.8,2,y,0,left,right,right,left,NA,576,26206,6267,576,NA,2,legacy,5,1024,2,48000,-16,experiment,999,odd,6,623775,620277,621426,2560,110149,621459,571889,2624,103881,625806,626384,622542,28838,625806,NA,SternbergTask,79,58312,97,yes,1024
80.6122449,80.6122449,600.0408163,600.0408163,black,experiment,legacy,legacy,legacy,0,uniform,0,undefined,0,left,97,97,97,0,0,97,97,0,0,97,97,97,0,97,0,Fri Oct 25 12:11:20 2019,The main experiment item,yes,SternbergTask.osexp,/Users/Zenny/Desktop,no,mono,no,18,no,white,no,no,768,legacy,85,11,/Users/Zenny/Desktop/quickrun.csv,legacy,1 4 9 3 2 5,Kafkaesque Koffka,3.2.8,3,y,0,right,right,right,right,NA,492,26206,6267,492,NA,2,legacy,6,1024,2,48000,-16,experiment,999,odd,9,629825,626418,627531,2560,110149,627562,571889,2624,103881,631856,632351,628593,28838,631856,NA,SternbergTask,79,58804,98,yes,1024
80.80808081,80.80808081,599.979798,599.979798,black,experiment,legacy,legacy,legacy,0,uniform,1,undefined,1,right,98,98,98,0,0,98,98,0,0,98,98,98,0,98,0,Fri Oct 25 12:11:20 2019,The main experiment item,yes,SternbergTask.osexp,/Users/Zenny/Desktop,no,mono,no,18,no,white,no,no,768,legacy,86,11,/Users/Zenny/Desktop/quickrun.csv,legacy,3 9 8 1 6 4,Kafkaesque Koffka,3.2.8,0,n,0,right,right,right,right,NA,594,26206,6267,594,NA,2,legacy,6,1024,2,48000,-16,experiment,999,odd,7,635846,626418,633544,2560,110149,633581,632391,2624,103881,637877,638474,634613,28838,637877,NA,SternbergTask,80,59398,99,yes,1024
80,80,599.63,599.63,black,experiment,legacy,legacy,legacy,0,uniform,0,undefined,0,right,99,99,99,0,0,99,99,0,0,99,99,99,0,99,0,Fri Oct 25 12:11:20 2019,The main experiment item,yes,SternbergTask.osexp,/Users/Zenny/Desktop,no,mono,no,18,no,white,no,no,768,legacy,87,11,/Users/Zenny/Desktop/quickrun.csv,legacy,8 4 3 9,Kafkaesque Koffka,3.2.8,0,n,0,left,right,right,left,NA,565,26206,6267,565,NA,2,legacy,4,1024,2,48000,-16,experiment,999,odd,5,641938,638530,639642,2560,110149,639673,632391,2624,103881,643970,644537,640704,28838,643970,NA,SternbergTask,80,59963,100,yes,1024
80.1980198,80.1980198,601.2376238,601.2376238,black,experiment,legacy,legacy,legacy,0,uniform,1,undefined,1,left,100,100,100,0,0,100,100,0,0,100,100,100,0,100,0,Fri Oct 25 12:11:20 2019,The main experiment item,yes,SternbergTask.osexp,/Users/Zenny/Desktop,no,mono,no,18,no,white,no,no,768,legacy,88,11,/Users/Zenny/Desktop/quickrun.csv,legacy,3 9 7 6 4,Kafkaesque Koffka,3.2.8,3,y,0,left,right,right,left,NA,762,26206,6267,762,NA,2,legacy,5,1024,2,48000,-16,experiment,999,odd,7,648020,638530,645722,2560,110149,645755,644576,2624,103881,650051,650815,646788,28838,650051,NA,SternbergTask,81,60725,101,yes,1024
79.41176471,79.41176471,600.372549,600.372549,black,experiment,legacy,legacy,legacy,0,uniform,0,undefined,0,left,101,101,101,0,0,101,101,0,0,101,101,101,0,101,0,Fri Oct 25 12:11:20 2019,The main experiment item,yes,SternbergTask.osexp,/Users/Zenny/Desktop,no,mono,no,18,no,white,no,no,768,legacy,89,11,/Users/Zenny/Desktop/quickrun.csv,legacy,4 7 6 8 2 3,Kafkaesque Koffka,3.2.8,6,y,0,right,right,right,right,NA,513,26206,6267,513,NA,2,legacy,6,1024,2,48000,-16,experiment,999,odd,3,654258,650849,651960,2560,110149,651991,644576,2624,103881,656289,656804,653022,28838,656289,NA,SternbergTask,81,61238,102,yes,1024
79.61165049,79.61165049,600.4271845,600.4271845,black,experiment,legacy,legacy,legacy,0,uniform,1,undefined,1,right,102,102,102,0,0,102,102,0,0,102,102,102,0,102,0,Fri Oct 25 12:11:20 2019,The main experiment item,yes,SternbergTask.osexp,/Users/Zenny/Desktop,no,mono,no,18,no,white,no,no,768,legacy,90,11,/Users/Zenny/Desktop/quickrun.csv,legacy,1 7 5 2,Kafkaesque Koffka,3.2.8,0,n,0,right,right,right,right,NA,606,26206,6267,606,NA,2,legacy,4,1024,2,48000,-16,experiment,999,odd,3,660295,650849,657996,2560,110149,658029,656845,2624,103881,662326,662935,659061,28838,662326,NA,SternbergTask,82,61844,103,yes,1024
79.80769231,79.80769231,600.7211538,600.7211538,black,experiment,legacy,legacy,legacy,0,uniform,1,undefined,1,left,103,103,103,0,0,103,103,0,0,103,103,103,0,103,0,Fri Oct 25 12:11:20 2019,The main experiment item,yes,SternbergTask.osexp,/Users/Zenny/Desktop,no,mono,no,18,no,white,no,no,768,legacy,91,11,/Users/Zenny/Desktop/quickrun.csv,legacy,8 1 6,Kafkaesque Koffka,3.2.8,3,y,0,left,right,right,left,NA,631,26206,6267,631,NA,2,legacy,3,1024,2,48000,-16,experiment,999,odd,6,666372,662968,664075,2560,110149,664107,656845,2624,103881,668403,669041,665139,28838,668403,NA,SternbergTask,83,62475,104,yes,1024
80,80,599.3714286,599.3714286,black,experiment,legacy,legacy,legacy,0,uniform,1,undefined,1,right,104,104,104,0,0,104,104,0,0,104,104,104,0,104,0,Fri Oct 25 12:11:20 2019,The main experiment item,yes,SternbergTask.osexp,/Users/Zenny/Desktop,no,mono,no,18,no,white,no,no,768,legacy,92,11,/Users/Zenny/Desktop/quickrun.csv,legacy,8 9,Kafkaesque Koffka,3.2.8,0,n,0,right,right,right,right,NA,459,26206,6267,459,NA,2,legacy,2,1024,2,48000,-16,experiment,999,odd,5,672531,669082,670220,2560,110149,670257,656845,2624,103881,674562,675024,671288,28838,674562,NA,SternbergTask,84,62934,105,yes,1024
80.18867925,80.18867925,598.5566038,598.5566038,black,experiment,legacy,legacy,legacy,0,uniform,1,undefined,1,right,105,105,105,0,0,105,105,0,0,105,105,105,0,105,0,Fri Oct 25 12:11:20 2019,The main experiment item,yes,SternbergTask.osexp,/Users/Zenny/Desktop,no,mono,no,18,no,white,no,no,768,legacy,93,11,/Users/Zenny/Desktop/quickrun.csv,legacy,7 1,Kafkaesque Koffka,3.2.8,0,n,0,right,right,right,right,NA,513,26206,6267,513,NA,2,legacy,2,1024,2,48000,-16,experiment,999,odd,8,678461,675058,676166,2560,110149,676197,656845,2624,103881,680537,681053,677228,28838,680537,NA,SternbergTask,85,63447,106,yes,1024
80.37383178,80.37383178,597.0841122,597.0841122,black,experiment,legacy,legacy,legacy,0,uniform,1,undefined,1,right,106,106,106,0,0,106,106,0,0,106,106,106,0,106,0,Fri Oct 25 12:11:20 2019,The main experiment item,yes,SternbergTask.osexp,/Users/Zenny/Desktop,no,mono,no,18,no,white,no,no,768,legacy,94,11,/Users/Zenny/Desktop/quickrun.csv,legacy,2 6 4 3 9,Kafkaesque Koffka,3.2.8,0,n,0,right,right,right,right,NA,441,26206,6267,441,NA,2,legacy,5,1024,2,48000,-16,experiment,999,odd,1,684548,681095,682247,2560,110149,682285,656845,2624,103881,686580,687024,683316,28838,686580,NA,SternbergTask,86,63888,107,yes,1024
79.62962963,79.62962963,595.9907407,595.9907407,black,experiment,legacy,legacy,legacy,0,uniform,0,undefined,0,right,107,107,107,0,0,107,107,0,0,107,107,107,0,107,0,Fri Oct 25 12:11:20 2019,The main experiment item,yes,SternbergTask.osexp,/Users/Zenny/Desktop,no,mono,no,18,no,white,no,no,768,legacy,95,11,/Users/Zenny/Desktop/quickrun.csv,legacy,6 3 1 7 9 8,Kafkaesque Koffka,3.2.8,0,n,0,left,right,right,left,NA,479,26206,6267,479,NA,2,legacy,6,1024,2,48000,-16,experiment,999,odd,4,690467,687058,688169,2560,110149,688200,656845,2624,103881,692536,693018,689231,28838,692536,NA,SternbergTask,86,64367,108,yes,1024
79.81651376,79.81651376,594.3761468,594.3761468,black,experiment,legacy,legacy,legacy,0,uniform,1,undefined,1,left,108,108,108,0,0,108,108,0,0,108,108,108,0,108,0,Fri Oct 25 12:11:20 2019,The main experiment item,yes,SternbergTask.osexp,/Users/Zenny/Desktop,no,mono,no,18,no,white,no,no,768,legacy,96,11,/Users/Zenny/Desktop/quickrun.csv,legacy,9 5 3 8 4,Kafkaesque Koffka,3.2.8,1,y,0,left,right,right,left,NA,420,26206,6267,420,NA,2,legacy,5,1024,2,48000,-16,experiment,999,odd,9,696496,687058,694197,2560,110149,694229,693053,2624,103881,698541,698963,695260,28838,698540,NA,SternbergTask,87,64787,109,yes,1024
80,80,593.5636364,593.5636364,black,experiment,legacy,legacy,legacy,0,uniform,1,undefined,1,right,109,109,109,0,0,109,109,0,0,109,109,109,0,109,0,Fri Oct 25 12:11:20 2019,The main experiment item,yes,SternbergTask.osexp,/Users/Zenny/Desktop,no,mono,no,18,no,white,no,no,768,legacy,97,11,/Users/Zenny/Desktop/quickrun.csv,legacy,7 8 6 1,Kafkaesque Koffka,3.2.8,0,n,0,right,right,right,right,NA,505,26206,6267,505,NA,2,legacy,4,1024,2,48000,-16,experiment,999,odd,3,702400,698996,700104,2560,110149,700135,693053,2624,103881,704431,704939,701166,28838,704431,NA,SternbergTask,88,65292,110,yes,1024
80.18018018,80.18018018,592.8558559,592.8558559,black,experiment,legacy,legacy,legacy,0,uniform,1,undefined,1,left,110,110,110,0,0,110,110,0,0,110,110,110,0,110,0,Fri Oct 25 12:11:20 2019,The main experiment item,yes,SternbergTask.osexp,/Users/Zenny/Desktop,no,mono,no,18,no,white,no,no,768,legacy,98,11,/Users/Zenny/Desktop/quickrun.csv,legacy,7 8 6 3 1,Kafkaesque Koffka,3.2.8,5,y,0,left,right,right,left,NA,515,26206,6267,515,NA,2,legacy,5,1024,2,48000,-16,experiment,999,odd,1,708417,704974,706123,2560,110149,706154,693053,2624,103881,710448,710965,707185,28838,710448,NA,SternbergTask,89,65807,111,yes,1024
80.35714286,80.35714286,593.4642857,593.4642857,black,experiment,legacy,legacy,legacy,0,uniform,1,undefined,1,left,111,111,111,0,0,111,111,0,0,111,111,111,0,111,0,Fri Oct 25 12:11:20 2019,The main experiment item,yes,SternbergTask.osexp,/Users/Zenny/Desktop,no,mono,no,18,no,white,no,no,768,legacy,99,11,/Users/Zenny/Desktop/quickrun.csv,legacy,4 9 7 8 5 3,Kafkaesque Koffka,3.2.8,4,y,0,left,right,right,left,NA,661,26206,6267,661,NA,2,legacy,6,1024,2,48000,-16,experiment,999,odd,8,714403,711000,712108,2560,110149,712139,693053,2624,103881,716435,717099,713170,28838,716435,NA,SternbergTask,90,66468,112,yes,1024
80.53097345,80.53097345,593.4690265,593.4690265,black,experiment,legacy,legacy,legacy,0,uniform,1,undefined,1,left,112,112,112,0,0,112,112,0,0,112,112,112,0,112,0,Fri Oct 25 12:11:20 2019,The main experiment item,yes,SternbergTask.osexp,/Users/Zenny/Desktop,no,mono,no,18,no,white,no,no,768,legacy,100,11,/Users/Zenny/Desktop/quickrun.csv,legacy,4 1 5,Kafkaesque Koffka,3.2.8,2,y,0,left,right,right,left,NA,594,26206,6267,594,NA,2,legacy,3,1024,2,48000,-16,experiment,999,odd,1,720589,717133,718283,2560,110149,718324,693053,2624,103881,722620,723216,719355,28838,722620,NA,SternbergTask,91,67062,113,yes,1024
80.70175439,80.70175439,593.5614035,593.5614035,black,experiment,legacy,legacy,legacy,0,uniform,1,undefined,1,left,113,113,113,0,0,113,113,0,0,113,113,113,0,113,0,Fri Oct 25 12:11:20 2019,The main experiment item,yes,SternbergTask.osexp,/Users/Zenny/Desktop,no,mono,no,18,no,white,no,no,768,legacy,101,11,/Users/Zenny/Desktop/quickrun.csv,legacy,3 4,Kafkaesque Koffka,3.2.8,1,y,0,left,right,right,left,NA,604,26206,6267,604,NA,2,legacy,2,1024,2,48000,-16,experiment,999,odd,3,726654,723249,724358,2560,110149,724389,693053,2624,103881,728685,729292,725420,28838,728685,NA,SternbergTask,92,67666,114,yes,1024
80.86956522,80.86956522,593.4173913,593.4173913,black,experiment,legacy,legacy,legacy,0,uniform,1,undefined,1,right,114,114,114,0,0,114,114,0,0,114,114,114,0,114,0,Fri Oct 25 12:11:20 2019,The main experiment item,yes,SternbergTask.osexp,/Users/Zenny/Desktop,no,mono,no,18,no,white,no,no,768,legacy,102,11,/Users/Zenny/Desktop/quickrun.csv,legacy,7 1 8 4 9 3,Kafkaesque Koffka,3.2.8,0,n,0,right,right,right,right,NA,577,26206,6267,577,NA,2,legacy,6,1024,2,48000,-16,experiment,999,odd,6,732794,729330,730480,2560,110149,730529,693053,2624,103881,734825,735405,731560,28838,734825,NA,SternbergTask,93,68243,115,yes,1024
81.03448276,81.03448276,592.8017241,592.8017241,black,experiment,legacy,legacy,legacy,0,uniform,1,undefined,1,left,115,115,115,0,0,115,115,0,0,115,115,115,0,115,0,Fri Oct 25 12:11:20 2019,The main experiment item,yes,SternbergTask.osexp,/Users/Zenny/Desktop,no,mono,no,18,no,white,no,no,768,legacy,103,11,/Users/Zenny/Desktop/quickrun.csv,legacy,4 6 5 8,Kafkaesque Koffka,3.2.8,1,y,0,left,right,right,left,NA,522,26206,6267,522,NA,2,legacy,4,1024,2,48000,-16,experiment,999,odd,4,738847,735438,736553,2560,110149,736584,693053,2624,103881,740878,741402,737615,28838,740878,NA,SternbergTask,94,68765,116,yes,1024
81.1965812,81.1965812,593.2051282,593.2051282,black,experiment,legacy,legacy,legacy,0,uniform,1,undefined,1,left,116,116,116,0,0,116,116,0,0,116,116,116,0,116,0,Fri Oct 25 12:11:20 2019,The main experiment item,yes,SternbergTask.osexp,/Users/Zenny/Desktop,no,mono,no,18,no,white,no,no,768,legacy,104,11,/Users/Zenny/Desktop/quickrun.csv,legacy,8 3,Kafkaesque Koffka,3.2.8,2,y,0,left,right,right,left,NA,640,26206,6267,640,NA,2,legacy,2,1024,2,48000,-16,experiment,999,odd,3,744888,741439,742593,2560,110149,742624,693053,2624,103881,746920,747563,743655,28838,746920,NA,SternbergTask,95,69405,117,yes,1024
81.3559322,81.3559322,593.3220339,593.3220339,black,experiment,legacy,legacy,legacy,0,uniform,1,undefined,1,right,117,117,117,0,0,117,117,0,0,117,117,117,0,117,0,Fri Oct 25 12:11:20 2019,The main experiment item,yes,SternbergTask.osexp,/Users/Zenny/Desktop,no,mono,no,18,no,white,no,no,768,legacy,105,11,/Users/Zenny/Desktop/quickrun.csv,legacy,6 9 7 3 8 2,Kafkaesque Koffka,3.2.8,0,n,0,right,right,right,right,NA,607,26206,6267,607,NA,2,legacy,6,1024,2,48000,-16,experiment,999,odd,5,751001,747598,748709,2560,110149,748739,693053,2624,103881,753034,753644,749770,28838,753034,NA,SternbergTask,96,70012,118,yes,1024
81.51260504,81.51260504,592.4285714,592.4285714,black,experiment,legacy,legacy,legacy,0,uniform,1,undefined,1,right,118,118,118,0,0,118,118,0,0,118,118,118,0,118,0,Fri Oct 25 12:11:20 2019,The main experiment item,yes,SternbergTask.osexp,/Users/Zenny/Desktop,no,mono,no,18,no,white,no,no,768,legacy,106,11,/Users/Zenny/Desktop/quickrun.csv,legacy,9,Kafkaesque Koffka,3.2.8,0,n,0,right,right,right,right,NA,487,26206,6267,487,NA,2,legacy,1,1024,2,48000,-16,experiment,999,odd,6,757125,753685,754827,2560,110149,754860,693053,2624,103881,759158,759648,755893,28838,759157,NA,SternbergTask,97,70499,119,yes,1024
81.66666667,81.66666667,593.25,593.25,black,experiment,legacy,legacy,legacy,0,uniform,1,undefined,1,left,119,119,119,0,0,119,119,0,0,119,119,119,0,119,0,Fri Oct 25 12:11:20 2019,The main experiment item,yes,SternbergTask.osexp,/Users/Zenny/Desktop,no,mono,no,18,no,white,no,no,768,legacy,107,11,/Users/Zenny/Desktop/quickrun.csv,legacy,3 5 9 6 2 4,Kafkaesque Koffka,3.2.8,1,y,0,left,right,right,left,NA,691,26206,6267,691,NA,2,legacy,6,1024,2,48000,-16,experiment,999,odd,3,763088,759682,760793,2560,110149,760823,693053,2624,103881,765120,765814,761855,28838,765120,NA,SternbergTask,98,71190,120,yes,1024
81.81818182,81.81818182,595.5371901,595.5371901,black,experiment,legacy,legacy,legacy,0,uniform,1,undefined,1,right,120,120,120,0,0,120,120,0,0,120,120,120,0,120,0,Fri Oct 25 12:11:20 2019,The main experiment item,yes,SternbergTask.osexp,/Users/Zenny/Desktop,no,mono,no,18,no,white,no,no,768,legacy,108,11,/Users/Zenny/Desktop/quickrun.csv,legacy,1 3 2 6 9,Kafkaesque Koffka,3.2.8,0,n,0,right,right,right,right,NA,870,26206,6267,870,NA,2,legacy,5,1024,2,48000,-16,experiment,999,odd,5,769304,765853,767002,2560,110149,767040,693053,2624,103881,771335,772207,768071,28838,771335,NA,SternbergTask,99,72060,121,yes,1024
81.96721311,81.96721311,594.2868852,594.2868852,black,experiment,legacy,legacy,legacy,0,uniform,1,undefined,1,left,121,121,121,0,0,121,121,0,0,121,121,121,0,121,0,Fri Oct 25 12:11:20 2019,The main experiment item,yes,SternbergTask.osexp,/Users/Zenny/Desktop,no,mono,no,18,no,white,no,no,768,legacy,109,11,/Users/Zenny/Desktop/quickrun.csv,legacy,4 3 2 5 8,Kafkaesque Koffka,3.2.8,2,y,0,left,right,right,left,NA,443,26206,6267,443,NA,2,legacy,5,1024,2,48000,-16,experiment,999,odd,3,775651,772240,773355,2560,110149,773386,693053,2624,103881,777683,778129,774418,28838,777682,NA,SternbergTask,100,72503,122,yes,1024
81.30081301,81.30081301,593.6260163,593.6260163,black,experiment,legacy,legacy,legacy,0,uniform,0,undefined,0,left,122,122,122,0,0,122,122,0,0,122,122,122,0,122,0,Fri Oct 25 12:11:20 2019,The main experiment item,yes,SternbergTask.osexp,/Users/Zenny/Desktop,no,mono,no,18,no,white,no,no,768,legacy,110,11,/Users/Zenny/Desktop/quickrun.csv,legacy,5 7 3 6 2,Kafkaesque Koffka,3.2.8,5,y,0,right,right,right,right,NA,513,26206,6267,513,NA,2,legacy,5,1024,2,48000,-16,experiment,999,odd,2,781618,778167,779325,2560,110149,779356,693053,2624,103881,783649,784165,780387,28838,783649,NA,SternbergTask,100,73016,123,yes,1024
80.64516129,80.64516129,594.3951613,594.3951613,black,experiment,legacy,legacy,legacy,0,uniform,0,undefined,0,right,123,123,123,0,0,123,123,0,0,123,123,123,0,123,0,Fri Oct 25 12:11:20 2019,The main experiment item,yes,SternbergTask.osexp,/Users/Zenny/Desktop,no,mono,no,18,no,white,no,no,768,legacy,111,11,/Users/Zenny/Desktop/quickrun.csv,legacy,8 5 7 3 6,Kafkaesque Koffka,3.2.8,0,n,0,left,right,right,left,NA,689,26206,6267,689,NA,2,legacy,5,1024,2,48000,-16,experiment,999,odd,9,787604,778167,785308,2560,110149,785339,784199,2624,103881,789636,790328,786371,28838,789636,NA,SternbergTask,100,73705,124,yes,1024
80.8,80.8,594.608,594.608,black,experiment,legacy,legacy,legacy,0,uniform,1,undefined,1,right,124,124,124,0,0,124,124,0,0,124,124,124,0,124,0,Fri Oct 25 12:11:20 2019,The main experiment item,yes,SternbergTask.osexp,/Users/Zenny/Desktop,no,mono,no,18,no,white,no,no,768,legacy,112,11,/Users/Zenny/Desktop/quickrun.csv,legacy,1 4 9 3,Kafkaesque Koffka,3.2.8,0,n,0,right,right,right,right,NA,621,26206,6267,621,NA,2,legacy,4,1024,2,48000,-16,experiment,999,odd,5,793814,778167,791516,2560,110149,791549,790365,2624,103881,795846,796470,792581,28838,795846,NA,SternbergTask,101,74326,125,yes,1024
80.95238095,80.95238095,594.8015873,594.8015873,black,experiment,legacy,legacy,legacy,0,uniform,1,undefined,1,right,125,125,125,0,0,125,125,0,0,125,125,125,0,125,0,Fri Oct 25 12:11:20 2019,The main experiment item,yes,SternbergTask.osexp,/Users/Zenny/Desktop,no,mono,no,18,no,white,no,no,768,legacy,113,11,/Users/Zenny/Desktop/quickrun.csv,legacy,2 7 5,Kafkaesque Koffka,3.2.8,0,n,0,right,right,right,right,NA,619,26206,6267,619,NA,2,legacy,3,1024,2,48000,-16,experiment,999,odd,8,799934,796528,797639,2560,110149,797670,790365,2624,103881,801965,802587,798701,28838,801965,NA,SternbergTask,102,74945,126,yes,1024
80.31496063,80.31496063,594.8267717,594.8267717,black,experiment,legacy,legacy,legacy,0,uniform,0,undefined,0,left,126,126,126,0,0,126,126,0,0,126,126,126,0,126,0,Fri Oct 25 12:11:20 2019,The main experiment item,yes,SternbergTask.osexp,/Users/Zenny/Desktop,no,mono,no,18,no,white,no,no,768,legacy,114,11,/Users/Zenny/Desktop/quickrun.csv,legacy,6 9 3 1,Kafkaesque Koffka,3.2.8,4,y,0,right,right,right,right,NA,598,26206,6267,598,NA,2,legacy,4,1024,2,48000,-16,experiment,999,odd,1,806071,802626,803776,2560,110149,803807,790365,2624,103881,808102,808703,804838,28838,808102,NA,SternbergTask,102,75543,127,yes,1024
80.46875,80.46875,594.0859375,594.0859375,black,experiment,legacy,legacy,legacy,0,uniform,1,undefined,1,right,127,127,127,0,0,127,127,0,0,127,127,127,0,127,0,Fri Oct 25 12:11:20 2019,The main experiment item,yes,SternbergTask.osexp,/Users/Zenny/Desktop,no,mono,no,18,no,white,no,no,768,legacy,115,11,/Users/Zenny/Desktop/quickrun.csv,legacy,1 4 3 6 5,Kafkaesque Koffka,3.2.8,0,n,0,right,right,right,right,NA,500,26206,6267,500,NA,2,legacy,5,1024,2,48000,-16,experiment,999,odd,8,812140,802626,809846,2560,110149,809876,808736,2624,103881,814171,814674,810907,28838,814171,NA,SternbergTask,103,76043,128,yes,1024
80.62015504,80.62015504,593.4573643,593.4573643,black,experiment,legacy,legacy,legacy,0,uniform,1,undefined,1,left,128,128,128,0,0,128,128,0,0,128,128,128,0,128,0,Fri Oct 25 12:11:20 2019,The main experiment item,yes,SternbergTask.osexp,/Users/Zenny/Desktop,no,mono,no,18,no,white,no,no,768,legacy,116,11,/Users/Zenny/Desktop/quickrun.csv,legacy,2 4 8 5 1 3,Kafkaesque Koffka,3.2.8,1,y,0,left,right,right,left,NA,513,26206,6267,513,NA,2,legacy,6,1024,2,48000,-16,experiment,999,odd,2,818155,814711,815856,2560,110149,815888,808736,2624,103881,820186,820702,816922,28838,820186,NA,SternbergTask,104,76556,129,yes,1024
80.76923077,80.76923077,594.8,594.8,black,experiment,legacy,legacy,legacy,0,uniform,1,undefined,1,right,129,129,129,0,0,129,129,0,0,129,129,129,0,129,0,Fri Oct 25 12:11:20 2019,The main experiment item,yes,SternbergTask.osexp,/Users/Zenny/Desktop,no,mono,no,18,no,white,no,no,768,legacy,117,11,/Users/Zenny/Desktop/quickrun.csv,legacy,2 8 9 4 1,Kafkaesque Koffka,3.2.8,0,n,0,right,right,right,right,NA,768,26206,6267,768,NA,2,legacy,5,1024,2,48000,-16,experiment,999,odd,5,824140,820736,821846,2560,110149,821877,808736,2624,103881,826173,826943,822908,28838,826173,NA,SternbergTask,105,77324,130,yes,1024
80.91603053,80.91603053,595.9847328,595.9847328,black,experiment,legacy,legacy,legacy,0,uniform,1,undefined,1,left,130,130,130,0,0,130,130,0,0,130,130,130,0,130,0,Fri Oct 25 12:11:20 2019,The main experiment item,yes,SternbergTask.osexp,/Users/Zenny/Desktop,no,mono,no,18,no,white,no,no,768,legacy,118,11,/Users/Zenny/Desktop/quickrun.csv,legacy,4 6 2 5 1,Kafkaesque Koffka,3.2.8,5,y,0,left,right,right,left,NA,750,26206,6267,750,NA,2,legacy,5,1024,2,48000,-16,experiment,999,odd,1,830425,826983,828128,2560,110149,828160,808736,2624,103881,832457,833210,829192,28838,832457,NA,SternbergTask,106,78074,131,yes,1024
80.3030303,80.3030303,595.0606061,595.0606061,black,experiment,legacy,legacy,legacy,0,uniform,0,undefined,0,left,131,131,131,0,0,131,131,0,0,131,131,131,0,131,0,Fri Oct 25 12:11:20 2019,The main experiment item,yes,SternbergTask.osexp,/Users/Zenny/Desktop,no,mono,no,18,no,white,no,no,768,legacy,119,11,/Users/Zenny/Desktop/quickrun.csv,legacy,6 9 7 4 5 1,Kafkaesque Koffka,3.2.8,2,y,0,right,right,right,right,NA,474,26206,6267,474,NA,2,legacy,6,1024,2,48000,-16,experiment,999,odd,9,836648,833244,834354,2560,110149,834385,808736,2624,103881,838681,839158,835416,28838,838681,NA,SternbergTask,106,78548,132,yes,1024
80.45112782,80.45112782,593.9924812,593.9924812,black,experiment,legacy,legacy,legacy,0,uniform,1,undefined,1,right,132,132,132,0,0,132,132,0,0,132,132,132,0,132,0,Fri Oct 25 12:11:20 2019,The main experiment item,yes,SternbergTask.osexp,/Users/Zenny/Desktop,no,mono,no,18,no,white,no,no,768,legacy,120,11,/Users/Zenny/Desktop/quickrun.csv,legacy,1 8 7,Kafkaesque Koffka,3.2.8,0,n,0,right,right,right,right,NA,453,26206,6267,453,NA,2,legacy,3,1024,2,48000,-16,experiment,999,odd,4,842643,833244,840347,2560,110149,840379,839198,2624,103881,844674,845129,841410,28838,844674,NA,SternbergTask,107,79001,133,yes,1024
79.85074627,79.85074627,592.7089552,592.7089552,black,experiment,legacy,legacy,legacy,0,uniform,0,undefined,0,left,133,133,133,0,0,133,133,0,0,133,133,133,0,133,0,Fri Oct 25 12:11:20 2019,The main experiment item,yes,SternbergTask.osexp,/Users/Zenny/Desktop,no,mono,no,18,no,white,no,no,768,legacy,121,11,/Users/Zenny/Desktop/quickrun.csv,legacy,7,Kafkaesque Koffka,3.2.8,1,y,0,right,right,right,right,NA,422,26206,6267,422,NA,2,legacy,1,1024,2,48000,-16,experiment,999,odd,7,848567,845164,846271,2560,110149,846303,839198,2624,103881,850599,851024,847334,28838,850599,NA,SternbergTask,107,79423,134,yes,1024
79.25925926,79.25925926,593.2444444,593.2444444,black,experiment,legacy,legacy,legacy,0,uniform,0,undefined,0,right,134,134,134,0,0,134,134,0,0,134,134,134,0,134,0,Fri Oct 25 12:11:20 2019,The main experiment item,yes,SternbergTask.osexp,/Users/Zenny/Desktop,no,mono,no,18,no,white,no,no,768,legacy,122,11,/Users/Zenny/Desktop/quickrun.csv,legacy,3 9 1,Kafkaesque Koffka,3.2.8,0,n,0,left,right,right,left,NA,665,26206,6267,665,NA,2,legacy,3,1024,2,48000,-16,experiment,999,odd,7,854536,845164,852211,2560,110149,852242,851064,2624,103881,856568,857236,853274,28838,856568,NA,SternbergTask,107,80088,135,yes,1024
79.41176471,79.41176471,592.3970588,592.3970588,black,experiment,legacy,legacy,legacy,0,uniform,1,undefined,1,right,135,135,135,0,0,135,135,0,0,135,135,135,0,135,0,Fri Oct 25 12:11:20 2019,The main experiment item,yes,SternbergTask.osexp,/Users/Zenny/Desktop,no,mono,no,18,no,white,no,no,768,legacy,123,11,/Users/Zenny/Desktop/quickrun.csv,legacy,8 5 4 2 9 6,Kafkaesque Koffka,3.2.8,0,n,0,right,right,right,right,NA,478,26206,6267,478,NA,2,legacy,6,1024,2,48000,-16,experiment,999,odd,3,860675,845164,858379,2560,110149,858410,857269,2624,103881,862706,863187,859441,28838,862706,NA,SternbergTask,108,80566,136,yes,1024
79.5620438,79.5620438,591.7080292,591.7080292,black,experiment,legacy,legacy,legacy,0,uniform,1,undefined,1,right,136,136,136,0,0,136,136,0,0,136,136,136,0,136,0,Fri Oct 25 12:11:20 2019,The main experiment item,yes,SternbergTask.osexp,/Users/Zenny/Desktop,no,mono,no,18,no,white,no,no,768,legacy,124,11,/Users/Zenny/Desktop/quickrun.csv,legacy,7 3 2 8,Kafkaesque Koffka,3.2.8,0,n,0,right,right,right,right,NA,498,26206,6267,498,NA,2,legacy,4,1024,2,48000,-16,experiment,999,odd,4,866667,863227,864367,2560,110149,864404,857269,2624,103881,868698,869199,865436,28838,868698,NA,SternbergTask,109,81064,137,yes,1024
79.71014493,79.71014493,591.4202899,591.4202899,black,experiment,legacy,legacy,legacy,0,uniform,1,undefined,1,right,137,137,137,0,0,137,137,0,0,137,137,137,0,137,0,Fri Oct 25 12:11:20 2019,The main experiment item,yes,SternbergTask.osexp,/Users/Zenny/Desktop,no,mono,no,18,no,white,no,no,768,legacy,125,11,/Users/Zenny/Desktop/quickrun.csv,legacy,4 8 1 2,Kafkaesque Koffka,3.2.8,0,n,0,right,right,right,right,NA,552,26206,6267,552,NA,2,legacy,4,1024,2,48000,-16,experiment,999,odd,7,872637,869232,870340,2560,110149,870371,857269,2624,103881,874668,875224,871402,28838,874668,NA,SternbergTask,110,81616,138,yes,1024