"acc","accuracy","average_response_time","avg_rt","background","block","canvas_backend","clock_backend","color_backend","correct","correct_instruction1","correct_keyboard_response","correct_response","count_ISI","count_correctFeedback","count_expSequence","count_experiment","count_experimentLoop","count_fixation","count_incorrectFeedback","count_instruction1","count_instructions2","count_keyboard_response","count_logger","count_memorySet","count_practiceLoop","count_probe","count_thankYou","datetime","description","disable_garbage_collection","experiment_file","experiment_path","font_bold","font_family","font_italic","font_size","font_underline","foreground","form_clicks","fullscreen","height","keyboard_backend","live_row","live_row_practiceLoop","logfile","mouse_backend","numberSet","opensesame_codename","opensesame_version","posInSet","present","repeat_cycle","response","response_instruction1","response_instructions2","response_keyboard_response","response_thankYou","response_time","response_time_instruction1","response_time_instructions2","response_time_keyboard_response","response_time_thankYou","round_decimals","sampler_backend","setSize","sound_buf_size","sound_channels","sound_freq","sound_sample_size","start","subject_nr","subject_parity","target","time_ISI","time_correctFeedback","time_expSequence","time_experiment","time_experimentLoop","time_fixation","time_incorrectFeedback","time_instruction1","time_instructions2","time_keyboard_response","time_logger","time_memorySet","time_practiceLoop","time_probe","time_thankYou","title","total_correct","total_response_time","total_responses","width"
"0","0","2000","2000","#3d3846","practice","legacy","legacy","legacy","0","undefined","0","left","0","0","0","0","0","0","0","0","0","0","0","0","0","0","0","Sun Oct 15 17:52:21 2023","The main experiment item","False","SternbergTask.osexp","C:\Users\juzal\OneDrive\Documents\Masters of Equine Science\Advanced Quantitative Methods and Experiment Design","False","mono","False","18","no","white","no","yes","768","legacy","0","0","C:/Users/juzal/OneDrive/Documents/Masters of Equine Science/Advanced Quantitative Methods and Experiment Design/CH-subject-4.csv","legacy","6","Melodramatic Milgram","4.0.5","1","y","0","None","right","NA","None","NA","2000.0","152199","NA","2000","NA","2","legacy","1","1024","2","48000","-16","experiment","4","even","6","157071","NA","154868","2169","NA","154869","NA","2178","NA","159071","161071","155870","154378","159071","NA","Sternberg Task","0","2000.0","1","1024"
"0","0","1270","1270","#3d3846","practice","legacy","legacy","legacy","0","undefined","0","right","1","1","1","0","0","1","1","0","0","1","1","1","0","1","0","Sun Oct 15 17:52:21 2023","The main experiment item","False","SternbergTask.osexp","C:\Users\juzal\OneDrive\Documents\Masters of Equine Science\Advanced Quantitative Methods and Experiment Design","False","mono","False","18","no","white","no","yes","768","legacy","1","1","C:/Users/juzal/OneDrive/Documents/Masters of Equine Science/Advanced Quantitative Methods and Experiment Design/CH-subject-4.csv","legacy","5","Melodramatic Milgram","4.0.5","0","n","0","left","right","NA","left","NA","540.0","152199","NA","540","NA","2","legacy","1","1024","2","48000","-16","experiment","4","even","3","164356","NA","162154","2169","NA","162154","161122","2178","NA","166356","166897","163155","154378","166356","NA","Sternberg Task","0","2540.0","2","1024"
"33","33","1226","1226","#3d3846","practice","legacy","legacy","legacy","1","undefined","1","left","2","2","2","0","0","2","2","0","0","2","2","2","0","2","0","Sun Oct 15 17:52:21 2023","The main experiment item","False","SternbergTask.osexp","C:\Users\juzal\OneDrive\Documents\Masters of Equine Science\Advanced Quantitative Methods and Experiment Design","False","mono","False","18","no","white","no","yes","768","legacy","2","2","C:/Users/juzal/OneDrive/Documents/Masters of Equine Science/Advanced Quantitative Methods and Experiment Design/CH-subject-4.csv","legacy","1 7 9 8 5","Melodramatic Milgram","4.0.5","4","y","0","left","right","NA","left","NA","1140.0","152199","NA","1140","NA","2","legacy","5","1024","2","48000","-16","experiment","4","even","8","170150","NA","167948","2169","NA","167949","166921","2178","NA","172150","173291","168949","154378","172150","NA","Sternberg Task","1","3680.0","3","1024"
"25","25","1107","1107","#3d3846","practice","legacy","legacy","legacy","0","undefined","0","left","3","3","3","0","0","3","3","0","0","3","3","3","0","3","0","Sun Oct 15 17:52:21 2023","The main experiment item","False","SternbergTask.osexp","C:\Users\juzal\OneDrive\Documents\Masters of Equine Science\Advanced Quantitative Methods and Experiment Design","False","mono","False","18","no","white","no","yes","768","legacy","3","3","C:/Users/juzal/OneDrive/Documents/Masters of Equine Science/Advanced Quantitative Methods and Experiment Design/CH-subject-4.csv","legacy","2 9 4","Melodramatic Milgram","4.0.5","3","y","0","right","right","NA","right","NA","749.0","152199","NA","749","NA","2","legacy","3","1024","2","48000","-16","experiment","4","even","4","176544","173317","174343","2169","NA","174344","166921","2178","NA","178545","179294","175344","154378","178544","NA","Sternberg Task","1","4429.0","4","1024"
"40","40","1017","1017","#3d3846","practice","legacy","legacy","legacy","1","undefined","1","right","4","4","4","0","0","4","4","0","0","4","4","4","0","4","0","Sun Oct 15 17:52:21 2023","The main experiment item","False","SternbergTask.osexp","C:\Users\juzal\OneDrive\Documents\Masters of Equine Science\Advanced Quantitative Methods and Experiment Design","False","mono","False","18","no","white","no","yes","768","legacy","4","4","C:/Users/juzal/OneDrive/Documents/Masters of Equine Science/Advanced Quantitative Methods and Experiment Design/CH-subject-4.csv","legacy","3 1 9 4","Melodramatic Milgram","4.0.5","0","n","0","right","right","NA","right","NA","656.0","152199","NA","656","NA","2","legacy","4","1024","2","48000","-16","experiment","4","even","6","182563","173317","180361","2169","NA","180362","179335","2178","NA","184563","185221","181362","154378","184563","NA","Sternberg Task","2","5085.0","5","1024"
"50","50","968","968","#3d3846","practice","legacy","legacy","legacy","1","undefined","1","left","5","5","5","0","0","5","5","0","0","5","5","5","0","5","0","Sun Oct 15 17:52:21 2023","The main experiment item","False","SternbergTask.osexp","C:\Users\juzal\OneDrive\Documents\Masters of Equine Science\Advanced Quantitative Methods and Experiment Design","False","mono","False","18","no","white","no","yes","768","legacy","5","5","C:/Users/juzal/OneDrive/Documents/Masters of Equine Science/Advanced Quantitative Methods and Experiment Design/CH-subject-4.csv","legacy","4 3 1 7 9 8","Melodramatic Milgram","4.0.5","1","y","0","left","right","NA","left","NA","726.0","152199","NA","726","NA","2","legacy","6","1024","2","48000","-16","experiment","4","even","4","188454","185225","186251","2169","NA","186252","179335","2178","NA","190454","191181","187253","154378","190454","NA","Sternberg Task","3","5811.0","6","1024"
"42","42","963","963","#3d3846","practice","legacy","legacy","legacy","0","undefined","0","left","6","6","6","0","0","6","6","0","0","6","6","6","0","6","0","Sun Oct 15 17:52:21 2023","The main experiment item","False","SternbergTask.osexp","C:\Users\juzal\OneDrive\Documents\Masters of Equine Science\Advanced Quantitative Methods and Experiment Design","False","mono","False","18","no","white","no","yes","768","legacy","6","6","C:/Users/juzal/OneDrive/Documents/Masters of Equine Science/Advanced Quantitative Methods and Experiment Design/CH-subject-4.csv","legacy","1 5 2 9","Melodramatic Milgram","4.0.5","2","y","0","right","right","NA","right","NA","935.0","152199","NA","935","NA","2","legacy","4","1024","2","48000","-16","experiment","4","even","5","194448","191216","192245","2169","NA","192246","179335","2178","NA","196448","197383","193247","154378","196448","NA","Sternberg Task","3","6746.0","7","1024"
"50","50","905","905","#3d3846","practice","legacy","legacy","legacy","1","undefined","1","right","7","7","7","0","0","7","7","0","0","7","7","7","0","7","0","Sun Oct 15 17:52:21 2023","The main experiment item","False","SternbergTask.osexp","C:\Users\juzal\OneDrive\Documents\Masters of Equine Science\Advanced Quantitative Methods and Experiment Design","False","mono","False","18","no","white","no","yes","768","legacy","7","7","C:/Users/juzal/OneDrive/Documents/Masters of Equine Science/Advanced Quantitative Methods and Experiment Design/CH-subject-4.csv","legacy","2 1","Melodramatic Milgram","4.0.5","0","n","0","right","right","NA","right","NA","494.0","152199","NA","494","NA","2","legacy","2","1024","2","48000","-16","experiment","4","even","5","200657","191216","198456","2169","NA","198456","197423","2178","NA","202658","203155","199457","154378","202658","NA","Sternberg Task","4","7240.0","8","1024"
"55","55","874","874","#3d3846","practice","legacy","legacy","legacy","1","undefined","1","right","8","8","8","0","0","8","8","0","0","8","8","8","0","8","0","Sun Oct 15 17:52:21 2023","The main experiment item","False","SternbergTask.osexp","C:\Users\juzal\OneDrive\Documents\Masters of Equine Science\Advanced Quantitative Methods and Experiment Design","False","mono","False","18","no","white","no","yes","768","legacy","8","8","C:/Users/juzal/OneDrive/Documents/Masters of Equine Science/Advanced Quantitative Methods and Experiment Design/CH-subject-4.csv","legacy","9 6 7 4 5","Melodramatic Milgram","4.0.5","0","n","0","right","right","NA","right","NA","626.0","152199","NA","626","NA","2","legacy","5","1024","2","48000","-16","experiment","4","even","3","206422","203194","204220","2169","NA","204221","197423","2178","NA","208422","209048","205221","154378","208422","NA","Sternberg Task","5","7866.0","9","1024"
"60","60","850","850","#3d3846","practice","legacy","legacy","legacy","1","undefined","1","right","9","9","9","0","0","9","9","0","0","9","9","9","0","9","0","Sun Oct 15 17:52:21 2023","The main experiment item","False","SternbergTask.osexp","C:\Users\juzal\OneDrive\Documents\Masters of Equine Science\Advanced Quantitative Methods and Experiment Design","False","mono","False","18","no","white","no","yes","768","legacy","9","9","C:/Users/juzal/OneDrive/Documents/Masters of Equine Science/Advanced Quantitative Methods and Experiment Design/CH-subject-4.csv","legacy","4 1 5","Melodramatic Milgram","4.0.5","0","n","0","right","right","NA","right","NA","636.0","152199","NA","636","NA","2","legacy","3","1024","2","48000","-16","experiment","4","even","2","212310","209082","210108","2169","NA","210109","197423","2178","NA","214310","214946","211109","154378","214310","NA","Sternberg Task","6","8502.0","10","1024"
"54","54","830","830","#3d3846","practice","legacy","legacy","legacy","0","undefined","0","left","10","10","10","0","0","10","10","0","0","10","10","10","0","10","0","Sun Oct 15 17:52:21 2023","The main experiment item","False","SternbergTask.osexp","C:\Users\juzal\OneDrive\Documents\Masters of Equine Science\Advanced Quantitative Methods and Experiment Design","False","mono","False","18","no","white","no","yes","768","legacy","10","10","C:/Users/juzal/OneDrive/Documents/Masters of Equine Science/Advanced Quantitative Methods and Experiment Design/CH-subject-4.csv","legacy","4 8","Melodramatic Milgram","4.0.5","1","y","0","right","right","NA","right","NA","629.0","152199","NA","629","NA","2","legacy","2","1024","2","48000","-16","experiment","4","even","4","218222","214995","216020","2169","NA","216021","197423","2178","NA","220222","220851","217021","154378","220222","NA","Sternberg Task","6","9131.0","11","1024"
"58","58","815","815","#3d3846","practice","legacy","legacy","legacy","1","undefined","1","right","11","11","11","0","0","11","11","0","0","11","11","11","0","11","0","Sun Oct 15 17:52:21 2023","The main experiment item","False","SternbergTask.osexp","C:\Users\juzal\OneDrive\Documents\Masters of Equine Science\Advanced Quantitative Methods and Experiment Design","False","mono","False","18","no","white","no","yes","768","legacy","11","11","C:/Users/juzal/OneDrive/Documents/Masters of Equine Science/Advanced Quantitative Methods and Experiment Design/CH-subject-4.csv","legacy","5 7 8 4 1 2","Melodramatic Milgram","4.0.5","0","n","0","right","right","NA","right","NA","654.0","152199","NA","654","NA","2","legacy","6","1024","2","48000","-16","experiment","4","even","6","224117","214995","221916","2169","NA","221916","220889","2178","NA","226117","226771","222916","154378","226117","NA","Sternberg Task","7","9785.0","12","1024"
"61","61","786","786","#3d3846","experiment","legacy","legacy","legacy","1","undefined","1","right","12","12","12","0","0","12","12","0","0","12","12","12","0","12","0","Sun Oct 15 17:52:21 2023","The main experiment item","False","SternbergTask.osexp","C:\Users\juzal\OneDrive\Documents\Masters of Equine Science\Advanced Quantitative Methods and Experiment Design","False","mono","False","18","no","white","no","yes","768","legacy","0","11","C:/Users/juzal/OneDrive/Documents/Masters of Equine Science/Advanced Quantitative Methods and Experiment Design/CH-subject-4.csv","legacy","7 6 4 8 1 2","Melodramatic Milgram","4.0.5","0","n","0","right","right","left","right","NA","436.0","152199","5113","436","NA","2","legacy","6","1024","2","48000","-16","experiment","4","even","9","235198","226796","232995","2169","232910","232997","220889","2178","227797","237198","237634","233997","154378","237198","NA","Sternberg Task","8","10221.0","13","1024"
"64","64","759","759","#3d3846","experiment","legacy","legacy","legacy","1","undefined","1","right","13","13","13","0","0","13","13","0","0","13","13","13","0","13","0","Sun Oct 15 17:52:21 2023","The main experiment item","False","SternbergTask.osexp","C:\Users\juzal\OneDrive\Documents\Masters of Equine Science\Advanced Quantitative Methods and Experiment Design","False","mono","False","18","no","white","no","yes","768","legacy","1","11","C:/Users/juzal/OneDrive/Documents/Masters of Equine Science/Advanced Quantitative Methods and Experiment Design/CH-subject-4.csv","legacy","4 1","Melodramatic Milgram","4.0.5","0","n","0","right","right","left","right","NA","407.0","152199","5113","407","NA","2","legacy","2","1024","2","48000","-16","experiment","4","even","6","240894","237667","238692","2169","232910","238693","220889","2178","227797","242895","243303","239693","154378","242895","NA","Sternberg Task","9","10628.0","14","1024"
"66","66","743","743","#3d3846","experiment","legacy","legacy","legacy","1","undefined","1","left","14","14","14","0","0","14","14","0","0","14","14","14","0","14","0","Sun Oct 15 17:52:21 2023","The main experiment item","False","SternbergTask.osexp","C:\Users\juzal\OneDrive\Documents\Masters of Equine Science\Advanced Quantitative Methods and Experiment Design","False","mono","False","18","no","white","no","yes","768","legacy","2","11","C:/Users/juzal/OneDrive/Documents/Masters of Equine Science/Advanced Quantitative Methods and Experiment Design/CH-subject-4.csv","legacy","4 7 6 8 2 3","Melodramatic Milgram","4.0.5","6","y","0","left","right","left","left","NA","526.0","152199","5113","526","NA","2","legacy","6","1024","2","48000","-16","experiment","4","even","3","246537","243306","244334","2169","232910","244335","220889","2178","227797","248537","249063","245336","154378","248537","NA","Sternberg Task","10","11154.0","15","1024"
"68","68","733","733","#3d3846","experiment","legacy","legacy","legacy","1","undefined","1","left","15","15","15","0","0","15","15","0","0","15","15","15","0","15","0","Sun Oct 15 17:52:21 2023","The main experiment item","False","SternbergTask.osexp","C:\Users\juzal\OneDrive\Documents\Masters of Equine Science\Advanced Quantitative Methods and Experiment Design","False","mono","False","18","no","white","no","yes","768","legacy","3","11","C:/Users/juzal/OneDrive/Documents/Masters of Equine Science/Advanced Quantitative Methods and Experiment Design/CH-subject-4.csv","legacy","9 6 2 4 1","Melodramatic Milgram","4.0.5","4","y","0","left","right","left","left","NA","574.0","152199","5113","574","NA","2","legacy","5","1024","2","48000","-16","experiment","4","even","4","252319","249091","250116","2169","232910","250117","220889","2178","227797","254319","254893","251117","154378","254319","NA","Sternberg Task","11","11728.0","16","1024"
"70","70","726","726","#3d3846","experiment","legacy","legacy","legacy","1","undefined","1","right","16","16","16","0","0","16","16","0","0","16","16","16","0","16","0","Sun Oct 15 17:52:21 2023","The main experiment item","False","SternbergTask.osexp","C:\Users\juzal\OneDrive\Documents\Masters of Equine Science\Advanced Quantitative Methods and Experiment Design","False","mono","False","18","no","white","no","yes","768","legacy","4","11","C:/Users/juzal/OneDrive/Documents/Masters of Equine Science/Advanced Quantitative Methods and Experiment Design/CH-subject-4.csv","legacy","1 8 7","Melodramatic Milgram","4.0.5","0","n","0","right","right","left","right","NA","617.0","152199","5113","617","NA","2","legacy","3","1024","2","48000","-16","experiment","4","even","4","258154","254921","255951","2169","232910","255952","220889","2178","227797","260154","260771","256953","154378","260154","NA","Sternberg Task","12","12345.0","17","1024"
"72","72","711","711","#3d3846","experiment","legacy","legacy","legacy","1","undefined","1","right","17","17","17","0","0","17","17","0","0","17","17","17","0","17","0","Sun Oct 15 17:52:21 2023","The main experiment item","False","SternbergTask.osexp","C:\Users\juzal\OneDrive\Documents\Masters of Equine Science\Advanced Quantitative Methods and Experiment Design","False","mono","False","18","no","white","no","yes","768","legacy","5","11","C:/Users/juzal/OneDrive/Documents/Masters of Equine Science/Advanced Quantitative Methods and Experiment Design/CH-subject-4.csv","legacy","5","Melodramatic Milgram","4.0.5","0","n","0","right","right","left","right","NA","458.0","152199","5113","458","NA","2","legacy","1","1024","2","48000","-16","experiment","4","even","8","264030","260800","261827","2169","232910","261828","220889","2178","227797","266031","266489","262828","154378","266030","NA","Sternberg Task","13","12803.0","18","1024"
"68","68","704","704","#3d3846","experiment","legacy","legacy","legacy","0","undefined","0","left","18","18","18","0","0","18","18","0","0","18","18","18","0","18","0","Sun Oct 15 17:52:21 2023","The main experiment item","False","SternbergTask.osexp","C:\Users\juzal\OneDrive\Documents\Masters of Equine Science\Advanced Quantitative Methods and Experiment Design","False","mono","False","18","no","white","no","yes","768","legacy","6","11","C:/Users/juzal/OneDrive/Documents/Masters of Equine Science/Advanced Quantitative Methods and Experiment Design/CH-subject-4.csv","legacy","2 5 4 8 7","Melodramatic Milgram","4.0.5","3","y","0","right","right","left","right","NA","577.0","152199","5113","577","NA","2","legacy","5","1024","2","48000","-16","experiment","4","even","4","269756","266527","267554","2169","232910","267555","220889","2178","227797","271756","272334","268555","154378","271756","NA","Sternberg Task","13","13380.0","19","1024"
"70","70","707","707","#3d3846","experiment","legacy","legacy","legacy","1","undefined","1","right","19","19","19","0","0","19","19","0","0","19","19","19","0","19","0","Sun Oct 15 17:52:21 2023","The main experiment item","False","SternbergTask.osexp","C:\Users\juzal\OneDrive\Documents\Masters of Equine Science\Advanced Quantitative Methods and Experiment Design","False","mono","False","18","no","white","no","yes","768","legacy","7","11","C:/Users/juzal/OneDrive/Documents/Masters of Equine Science/Advanced Quantitative Methods and Experiment Design/CH-subject-4.csv","legacy","3 9 8 1 6 4","Melodramatic Milgram","4.0.5","0","n","0","right","right","left","right","NA","764.0","152199","5113","764","NA","2","legacy","6","1024","2","48000","-16","experiment","4","even","7","275592","266527","273389","2169","232910","273390","272362","2178","227797","277592","278356","274390","154378","277592","NA","Sternberg Task","14","14144.0","20","1024"
"71","71","712","712","#3d3846","experiment","legacy","legacy","legacy","1","undefined","1","left","20","20","20","0","0","20","20","0","0","20","20","20","0","20","0","Sun Oct 15 17:52:21 2023","The main experiment item","False","SternbergTask.osexp","C:\Users\juzal\OneDrive\Documents\Masters of Equine Science\Advanced Quantitative Methods and Experiment Design","False","mono","False","18","no","white","no","yes","768","legacy","8","11","C:/Users/juzal/OneDrive/Documents/Masters of Equine Science/Advanced Quantitative Methods and Experiment Design/CH-subject-4.csv","legacy","2 4 6 9","Melodramatic Milgram","4.0.5","3","y","0","left","right","left","left","NA","818.0","152199","5113","818","NA","2","legacy","4","1024","2","48000","-16","experiment","4","even","6","281614","278385","279413","2169","232910","279413","272362","2178","227797","283614","284432","280413","154378","283614","NA","Sternberg Task","15","14962.0","21","1024"
"72","72","708","708","#3d3846","experiment","legacy","legacy","legacy","1","undefined","1","right","21","21","21","0","0","21","21","0","0","21","21","21","0","21","0","Sun Oct 15 17:52:21 2023","The main experiment item","False","SternbergTask.osexp","C:\Users\juzal\OneDrive\Documents\Masters of Equine Science\Advanced Quantitative Methods and Experiment Design","False","mono","False","18","no","white","no","yes","768","legacy","9","11","C:/Users/juzal/OneDrive/Documents/Masters of Equine Science/Advanced Quantitative Methods and Experiment Design/CH-subject-4.csv","legacy","1 6 4 3 9 7","Melodramatic Milgram","4.0.5","0","n","0","right","right","left","right","NA","630.0","152199","5113","630","NA","2","legacy","6","1024","2","48000","-16","experiment","4","even","8","287706","284467","285504","2169","232910","285505","272362","2178","227797","289706","290337","286505","154378","289706","NA","Sternberg Task","16","15592.0","22","1024"
"73","73","702","702","#3d3846","experiment","legacy","legacy","legacy","1","undefined","1","left","22","22","22","0","0","22","22","0","0","22","22","22","0","22","0","Sun Oct 15 17:52:21 2023","The main experiment item","False","SternbergTask.osexp","C:\Users\juzal\OneDrive\Documents\Masters of Equine Science\Advanced Quantitative Methods and Experiment Design","False","mono","False","18","no","white","no","yes","768","legacy","10","11","C:/Users/juzal/OneDrive/Documents/Masters of Equine Science/Advanced Quantitative Methods and Experiment Design/CH-subject-4.csv","legacy","1 4 9 3 2 5","Melodramatic Milgram","4.0.5","3","y","0","left","right","left","left","NA","563.0","152199","5113","563","NA","2","legacy","6","1024","2","48000","-16","experiment","4","even","9","293603","290365","291400","2169","232910","291401","272362","2178","227797","295603","296166","292402","154378","295603","NA","Sternberg Task","17","16155.0","23","1024"
"75","75","704","704","#3d3846","experiment","legacy","legacy","legacy","1","undefined","1","left","23","23","23","0","0","23","23","0","0","23","23","23","0","23","0","Sun Oct 15 17:52:21 2023","The main experiment item","False","SternbergTask.osexp","C:\Users\juzal\OneDrive\Documents\Masters of Equine Science\Advanced Quantitative Methods and Experiment Design","False","mono","False","18","no","white","no","yes","768","legacy","11","11","C:/Users/juzal/OneDrive/Documents/Masters of Equine Science/Advanced Quantitative Methods and Experiment Design/CH-subject-4.csv","legacy","8 5 3 7 4 6","Melodramatic Milgram","4.0.5","6","y","0","left","right","left","left","NA","762.0","152199","5113","762","NA","2","legacy","6","1024","2","48000","-16","experiment","4","even","6","299432","296191","297230","2169","232910","297231","272362","2178","227797","301432","302195","298231","154378","301432","NA","Sternberg Task","18","16917.0","24","1024"
"76","76","702","702","#3d3846","experiment","legacy","legacy","legacy","1","undefined","1","right","24","24","24","0","0","24","24","0","0","24","24","24","0","24","0","Sun Oct 15 17:52:21 2023","The main experiment item","False","SternbergTask.osexp","C:\Users\juzal\OneDrive\Documents\Masters of Equine Science\Advanced Quantitative Methods and Experiment Design","False","mono","False","18","no","white","no","yes","768","legacy","12","11","C:/Users/juzal/OneDrive/Documents/Masters of Equine Science/Advanced Quantitative Methods and Experiment Design/CH-subject-4.csv","legacy","8 6 3 4 7","Melodramatic Milgram","4.0.5","0","n","0","right","right","left","right","NA","641.0","152199","5113","641","NA","2","legacy","5","1024","2","48000","-16","experiment","4","even","1","305447","302220","303246","2169","232910","303246","272362","2178","227797","307448","308090","304246","154378","307448","NA","Sternberg Task","19","17558.0","25","1024"
"76","76","700","700","#3d3846","experiment","legacy","legacy","legacy","1","undefined","1","right","25","25","25","0","0","25","25","0","0","25","25","25","0","25","0","Sun Oct 15 17:52:21 2023","The main experiment item","False","SternbergTask.osexp","C:\Users\juzal\OneDrive\Documents\Masters of Equine Science\Advanced Quantitative Methods and Experiment Design","False","mono","False","18","no","white","no","yes","768","legacy","13","11","C:/Users/juzal/OneDrive/Documents/Masters of Equine Science/Advanced Quantitative Methods and Experiment Design/CH-subject-4.csv","legacy","3 4 9 6 7 8","Melodramatic Milgram","4.0.5","0","n","0","right","right","left","right","NA","647.0","152199","5113","647","NA","2","legacy","6","1024","2","48000","-16","experiment","4","even","2","311343","308115","309141","2169","232910","309142","272362","2178","227797","313343","313990","310142","154378","313343","NA","Sternberg Task","20","18205.0","26","1024"
"77","77","698","698","#3d3846","experiment","legacy","legacy","legacy","1","undefined","1","right","26","26","26","0","0","26","26","0","0","26","26","26","0","26","0","Sun Oct 15 17:52:21 2023","The main experiment item","False","SternbergTask.osexp","C:\Users\juzal\OneDrive\Documents\Masters of Equine Science\Advanced Quantitative Methods and Experiment Design","False","mono","False","18","no","white","no","yes","768","legacy","14","11","C:/Users/juzal/OneDrive/Documents/Masters of Equine Science/Advanced Quantitative Methods and Experiment Design/CH-subject-4.csv","legacy","2 7 5","Melodramatic Milgram","4.0.5","0","n","0","right","right","left","right","NA","667.0","152199","5113","667","NA","2","legacy","3","1024","2","48000","-16","experiment","4","even","8","317242","314015","315040","2169","232910","315041","272362","2178","227797","319242","319909","316041","154378","319242","NA","Sternberg Task","21","18872.0","27","1024"
"78","78","692","692","#3d3846","experiment","legacy","legacy","legacy","1","undefined","1","right","27","27","27","0","0","27","27","0","0","27","27","27","0","27","0","Sun Oct 15 17:52:21 2023","The main experiment item","False","SternbergTask.osexp","C:\Users\juzal\OneDrive\Documents\Masters of Equine Science\Advanced Quantitative Methods and Experiment Design","False","mono","False","18","no","white","no","yes","768","legacy","15","11","C:/Users/juzal/OneDrive/Documents/Masters of Equine Science/Advanced Quantitative Methods and Experiment Design/CH-subject-4.csv","legacy","2 8 6 3 1","Melodramatic Milgram","4.0.5","0","n","0","right","right","left","right","NA","528.0","152199","5113","528","NA","2","legacy","5","1024","2","48000","-16","experiment","4","even","7","323179","319951","320978","2169","232910","320978","272362","2178","227797","325179","325708","321978","154378","325179","NA","Sternberg Task","22","19400.0","28","1024"
"75","75","691","691","#3d3846","experiment","legacy","legacy","legacy","0","undefined","0","right","28","28","28","0","0","28","28","0","0","28","28","28","0","28","0","Sun Oct 15 17:52:21 2023","The main experiment item","False","SternbergTask.osexp","C:\Users\juzal\OneDrive\Documents\Masters of Equine Science\Advanced Quantitative Methods and Experiment Design","False","mono","False","18","no","white","no","yes","768","legacy","16","11","C:/Users/juzal/OneDrive/Documents/Masters of Equine Science/Advanced Quantitative Methods and Experiment Design/CH-subject-4.csv","legacy","2 5 1 4","Melodramatic Milgram","4.0.5","0","n","0","left","right","left","left","NA","658.0","152199","5113","658","NA","2","legacy","4","1024","2","48000","-16","experiment","4","even","6","328983","325755","326781","2169","232910","326782","272362","2178","227797","330984","331643","327782","154378","330984","NA","Sternberg Task","22","20058.0","29","1024"
"76","76","695","695","#3d3846","experiment","legacy","legacy","legacy","1","undefined","1","left","29","29","29","0","0","29","29","0","0","29","29","29","0","29","0","Sun Oct 15 17:52:21 2023","The main experiment item","False","SternbergTask.osexp","C:\Users\juzal\OneDrive\Documents\Masters of Equine Science\Advanced Quantitative Methods and Experiment Design","False","mono","False","18","no","white","no","yes","768","legacy","17","11","C:/Users/juzal/OneDrive/Documents/Masters of Equine Science/Advanced Quantitative Methods and Experiment Design/CH-subject-4.csv","legacy","9 5 3 8 4","Melodramatic Milgram","4.0.5","1","y","0","left","right","left","left","NA","810.0","152199","5113","810","NA","2","legacy","5","1024","2","48000","-16","experiment","4","even","9","334903","325755","332702","2169","232910","332702","331674","2178","227797","336904","337714","333702","154378","336903","NA","Sternberg Task","23","20868.0","30","1024"
"77","77","693","693","#3d3846","experiment","legacy","legacy","legacy","1","undefined","1","right","30","30","30","0","0","30","30","0","0","30","30","30","0","30","0","Sun Oct 15 17:52:21 2023","The main experiment item","False","SternbergTask.osexp","C:\Users\juzal\OneDrive\Documents\Masters of Equine Science\Advanced Quantitative Methods and Experiment Design","False","mono","False","18","no","white","no","yes","768","legacy","18","11","C:/Users/juzal/OneDrive/Documents/Masters of Equine Science/Advanced Quantitative Methods and Experiment Design/CH-subject-4.csv","legacy","6 3 1 7 9 8","Melodramatic Milgram","4.0.5","0","n","0","right","right","left","right","NA","641.0","152199","5113","641","NA","2","legacy","6","1024","2","48000","-16","experiment","4","even","4","341003","337767","338801","2169","232910","338802","331674","2178","227797","343003","343644","339802","154378","343003","NA","Sternberg Task","24","21509.0","31","1024"
"78","78","693","693","#3d3846","experiment","legacy","legacy","legacy","1","undefined","1","right","31","31","31","0","0","31","31","0","0","31","31","31","0","31","0","Sun Oct 15 17:52:21 2023","The main experiment item","False","SternbergTask.osexp","C:\Users\juzal\OneDrive\Documents\Masters of Equine Science\Advanced Quantitative Methods and Experiment Design","False","mono","False","18","no","white","no","yes","768","legacy","19","11","C:/Users/juzal/OneDrive/Documents/Masters of Equine Science/Advanced Quantitative Methods and Experiment Design/CH-subject-4.csv","legacy","5 7 3","Melodramatic Milgram","4.0.5","0","n","0","right","right","left","right","NA","688.0","152199","5113","688","NA","2","legacy","3","1024","2","48000","-16","experiment","4","even","9","346921","343687","344719","2169","232910","344719","331674","2178","227797","348922","349610","345720","154378","348922","NA","Sternberg Task","25","22197.0","32","1024"
"78","78","693","693","#3d3846","experiment","legacy","legacy","legacy","1","undefined","1","right","32","32","32","0","0","32","32","0","0","32","32","32","0","32","0","Sun Oct 15 17:52:21 2023","The main experiment item","False","SternbergTask.osexp","C:\Users\juzal\OneDrive\Documents\Masters of Equine Science\Advanced Quantitative Methods and Experiment Design","False","mono","False","18","no","white","no","yes","768","legacy","20","11","C:/Users/juzal/OneDrive/Documents/Masters of Equine Science/Advanced Quantitative Methods and Experiment Design/CH-subject-4.csv","legacy","6 8 4","Melodramatic Milgram","4.0.5","0","n","0","right","right","left","right","NA","672.0","152199","5113","672","NA","2","legacy","3","1024","2","48000","-16","experiment","4","even","1","352880","349653","350678","2169","232910","350679","331674","2178","227797","354880","355553","351679","154378","354880","NA","Sternberg Task","26","22869.0","33","1024"
"76","76","694","694","#3d3846","experiment","legacy","legacy","legacy","0","undefined","0","left","33","33","33","0","0","33","33","0","0","33","33","33","0","33","0","Sun Oct 15 17:52:21 2023","The main experiment item","False","SternbergTask.osexp","C:\Users\juzal\OneDrive\Documents\Masters of Equine Science\Advanced Quantitative Methods and Experiment Design","False","mono","False","18","no","white","no","yes","768","legacy","21","11","C:/Users/juzal/OneDrive/Documents/Masters of Equine Science/Advanced Quantitative Methods and Experiment Design/CH-subject-4.csv","legacy","7 1 8 5 6 2","Melodramatic Milgram","4.0.5","2","y","0","right","right","left","right","NA","743.0","152199","5113","743","NA","2","legacy","6","1024","2","48000","-16","experiment","4","even","1","358814","355586","356612","2169","232910","356613","331674","2178","227797","360815","361558","357613","154378","360815","NA","Sternberg Task","26","23612.0","34","1024"
"77","77","697","697","#3d3846","experiment","legacy","legacy","legacy","1","undefined","1","right","34","34","34","0","0","34","34","0","0","34","34","34","0","34","0","Sun Oct 15 17:52:21 2023","The main experiment item","False","SternbergTask.osexp","C:\Users\juzal\OneDrive\Documents\Masters of Equine Science\Advanced Quantitative Methods and Experiment Design","False","mono","False","18","no","white","no","yes","768","legacy","22","11","C:/Users/juzal/OneDrive/Documents/Masters of Equine Science/Advanced Quantitative Methods and Experiment Design/CH-subject-4.csv","legacy","2 3 8 5 6 7","Melodramatic Milgram","4.0.5","0","n","0","right","right","left","right","NA","816.0","152199","5113","816","NA","2","legacy","6","1024","2","48000","-16","experiment","4","even","1","364826","355586","362624","2169","232910","362625","361597","2178","227797","366826","367643","363625","154378","366826","NA","Sternberg Task","27","24428.0","35","1024"
"77","77","698","698","#3d3846","experiment","legacy","legacy","legacy","1","undefined","1","right","35","35","35","0","0","35","35","0","0","35","35","35","0","35","0","Sun Oct 15 17:52:21 2023","The main experiment item","False","SternbergTask.osexp","C:\Users\juzal\OneDrive\Documents\Masters of Equine Science\Advanced Quantitative Methods and Experiment Design","False","mono","False","18","no","white","no","yes","768","legacy","23","11","C:/Users/juzal/OneDrive/Documents/Masters of Equine Science/Advanced Quantitative Methods and Experiment Design/CH-subject-4.csv","legacy","7 1 5 6 3","Melodramatic Milgram","4.0.5","0","n","0","right","right","left","right","NA","704.0","152199","5113","704","NA","2","legacy","5","1024","2","48000","-16","experiment","4","even","8","370897","367668","368695","2169","232910","368696","361597","2178","227797","372898","373603","369696","154378","372898","NA","Sternberg Task","28","25132.0","36","1024"
"78","78","693","693","#3d3846","experiment","legacy","legacy","legacy","1","undefined","1","right","36","36","36","0","0","36","36","0","0","36","36","36","0","36","0","Sun Oct 15 17:52:21 2023","The main experiment item","False","SternbergTask.osexp","C:\Users\juzal\OneDrive\Documents\Masters of Equine Science\Advanced Quantitative Methods and Experiment Design","False","mono","False","18","no","white","no","yes","768","legacy","24","11","C:/Users/juzal/OneDrive/Documents/Masters of Equine Science/Advanced Quantitative Methods and Experiment Design/CH-subject-4.csv","legacy","7 1","Melodramatic Milgram","4.0.5","0","n","0","right","right","left","right","NA","533.0","152199","5113","533","NA","2","legacy","2","1024","2","48000","-16","experiment","4","even","8","376859","373632","374657","2169","232910","374658","361597","2178","227797","378859","379392","375658","154378","378859","NA","Sternberg Task","29","25665.0","37","1024"
"78","78","697","697","#3d3846","experiment","legacy","legacy","legacy","1","undefined","1","right","37","37","37","0","0","37","37","0","0","37","37","37","0","37","0","Sun Oct 15 17:52:21 2023","The main experiment item","False","SternbergTask.osexp","C:\Users\juzal\OneDrive\Documents\Masters of Equine Science\Advanced Quantitative Methods and Experiment Design","False","mono","False","18","no","white","no","yes","768","legacy","25","11","C:/Users/juzal/OneDrive/Documents/Masters of Equine Science/Advanced Quantitative Methods and Experiment Design/CH-subject-4.csv","legacy","8 2 1 4 5 9","Melodramatic Milgram","4.0.5","0","n","0","right","right","left","right","NA","827.0","152199","5113","827","NA","2","legacy","6","1024","2","48000","-16","experiment","4","even","7","382663","379436","380461","2169","232910","380462","361597","2178","227797","384663","385491","381462","154378","384663","NA","Sternberg Task","30","26492.0","38","1024"
"79","79","702","702","#3d3846","experiment","legacy","legacy","legacy","1","undefined","1","left","38","38","38","0","0","38","38","0","0","38","38","38","0","38","0","Sun Oct 15 17:52:21 2023","The main experiment item","False","SternbergTask.osexp","C:\Users\juzal\OneDrive\Documents\Masters of Equine Science\Advanced Quantitative Methods and Experiment Design","False","mono","False","18","no","white","no","yes","768","legacy","26","11","C:/Users/juzal/OneDrive/Documents/Masters of Equine Science/Advanced Quantitative Methods and Experiment Design/CH-subject-4.csv","legacy","6 8 9 3 4 9","Melodramatic Milgram","4.0.5","5","y","0","left","right","left","left","NA","907.0","152199","5113","907","NA","2","legacy","6","1024","2","48000","-16","experiment","4","even","4","388758","385525","386556","2169","232910","386557","361597","2178","227797","390758","391667","387557","154378","390758","NA","Sternberg Task","31","27399.0","39","1024"
"77","77","703","703","#3d3846","experiment","legacy","legacy","legacy","0","undefined","0","left","39","39","39","0","0","39","39","0","0","39","39","39","0","39","0","Sun Oct 15 17:52:21 2023","The main experiment item","False","SternbergTask.osexp","C:\Users\juzal\OneDrive\Documents\Masters of Equine Science\Advanced Quantitative Methods and Experiment Design","False","mono","False","18","no","white","no","yes","768","legacy","27","11","C:/Users/juzal/OneDrive/Documents/Masters of Equine Science/Advanced Quantitative Methods and Experiment Design/CH-subject-4.csv","legacy","4 6 2 5 1","Melodramatic Milgram","4.0.5","5","y","0","right","right","left","right","NA","735.0","152199","5113","735","NA","2","legacy","5","1024","2","48000","-16","experiment","4","even","1","394936","391706","392733","2169","232910","392734","361597","2178","227797","396936","397672","393734","154378","396936","NA","Sternberg Task","31","28134.0","40","1024"
"78","78","705","705","#3d3846","experiment","legacy","legacy","legacy","1","undefined","1","left","40","40","40","0","0","40","40","0","0","40","40","40","0","40","0","Sun Oct 15 17:52:21 2023","The main experiment item","False","SternbergTask.osexp","C:\Users\juzal\OneDrive\Documents\Masters of Equine Science\Advanced Quantitative Methods and Experiment Design","False","mono","False","18","no","white","no","yes","768","legacy","28","11","C:/Users/juzal/OneDrive/Documents/Masters of Equine Science/Advanced Quantitative Methods and Experiment Design/CH-subject-4.csv","legacy","3 2 1 4 7","Melodramatic Milgram","4.0.5","2","y","0","left","right","left","left","NA","771.0","152199","5113","771","NA","2","legacy","5","1024","2","48000","-16","experiment","4","even","2","400936","391706","398733","2169","232910","398734","397707","2178","227797","402936","403708","399735","154378","402936","NA","Sternberg Task","32","28905.0","41","1024"
"78","78","707","707","#3d3846","experiment","legacy","legacy","legacy","1","undefined","1","right","41","41","41","0","0","41","41","0","0","41","41","41","0","41","0","Sun Oct 15 17:52:21 2023","The main experiment item","False","SternbergTask.osexp","C:\Users\juzal\OneDrive\Documents\Masters of Equine Science\Advanced Quantitative Methods and Experiment Design","False","mono","False","18","no","white","no","yes","768","legacy","29","11","C:/Users/juzal/OneDrive/Documents/Masters of Equine Science/Advanced Quantitative Methods and Experiment Design/CH-subject-4.csv","legacy","6 7 5 9","Melodramatic Milgram","4.0.5","0","n","0","right","right","left","right","NA","792.0","152199","5113","792","NA","2","legacy","4","1024","2","48000","-16","experiment","4","even","2","406941","403712","404739","2169","232910","404740","397707","2178","227797","408941","409734","405740","154378","408941","NA","Sternberg Task","33","29697.0","42","1024"
"79","79","709","709","#3d3846","experiment","legacy","legacy","legacy","1","undefined","1","left","42","42","42","0","0","42","42","0","0","42","42","42","0","42","0","Sun Oct 15 17:52:21 2023","The main experiment item","False","SternbergTask.osexp","C:\Users\juzal\OneDrive\Documents\Masters of Equine Science\Advanced Quantitative Methods and Experiment Design","False","mono","False","18","no","white","no","yes","768","legacy","30","11","C:/Users/juzal/OneDrive/Documents/Masters of Equine Science/Advanced Quantitative Methods and Experiment Design/CH-subject-4.csv","legacy","4 1 8 7 5","Melodramatic Milgram","4.0.5","3","y","0","left","right","left","left","NA","829.0","152199","5113","829","NA","2","legacy","5","1024","2","48000","-16","experiment","4","even","8","412993","409765","410791","2169","232910","410792","397707","2178","227797","414993","415823","411792","154378","414993","NA","Sternberg Task","34","30526.0","43","1024"
"77","77","709","709","#3d3846","experiment","legacy","legacy","legacy","0","undefined","0","right","43","43","43","0","0","43","43","0","0","43","43","43","0","43","0","Sun Oct 15 17:52:21 2023","The main experiment item","False","SternbergTask.osexp","C:\Users\juzal\OneDrive\Documents\Masters of Equine Science\Advanced Quantitative Methods and Experiment Design","False","mono","False","18","no","white","no","yes","768","legacy","31","11","C:/Users/juzal/OneDrive/Documents/Masters of Equine Science/Advanced Quantitative Methods and Experiment Design/CH-subject-4.csv","legacy","6 9 5","Melodramatic Milgram","4.0.5","0","n","0","left","right","left","left","NA","709.0","152199","5113","709","NA","2","legacy","3","1024","2","48000","-16","experiment","4","even","8","419076","415847","416873","2169","232910","416874","397707","2178","227797","421076","421786","417875","154378","421076","NA","Sternberg Task","34","31235.0","44","1024"
"77","77","725","725","#3d3846","experiment","legacy","legacy","legacy","1","undefined","1","right","44","44","44","0","0","44","44","0","0","44","44","44","0","44","0","Sun Oct 15 17:52:21 2023","The main experiment item","False","SternbergTask.osexp","C:\Users\juzal\OneDrive\Documents\Masters of Equine Science\Advanced Quantitative Methods and Experiment Design","False","mono","False","18","no","white","no","yes","768","legacy","32","11","C:/Users/juzal/OneDrive/Documents/Masters of Equine Science/Advanced Quantitative Methods and Experiment Design/CH-subject-4.csv","legacy","5 2","Melodramatic Milgram","4.0.5","0","n","0","right","right","left","right","NA","1419.0","152199","5113","1419","NA","2","legacy","2","1024","2","48000","-16","experiment","4","even","7","425069","415847","422867","2169","232910","422868","421838","2178","227797","427069","428489","423868","154378","427069","NA","Sternberg Task","35","32654.0","45","1024"
"78","78","729","729","#3d3846","experiment","legacy","legacy","legacy","1","undefined","1","right","45","45","45","0","0","45","45","0","0","45","45","45","0","45","0","Sun Oct 15 17:52:21 2023","The main experiment item","False","SternbergTask.osexp","C:\Users\juzal\OneDrive\Documents\Masters of Equine Science\Advanced Quantitative Methods and Experiment Design","False","mono","False","18","no","white","no","yes","768","legacy","33","11","C:/Users/juzal/OneDrive/Documents/Masters of Equine Science/Advanced Quantitative Methods and Experiment Design/CH-subject-4.csv","legacy","8 4 3 5","Melodramatic Milgram","4.0.5","0","n","0","right","right","left","right","NA","922.0","152199","5113","922","NA","2","legacy","4","1024","2","48000","-16","experiment","4","even","6","431723","428493","429520","2169","232910","429521","421838","2178","227797","433723","434646","430522","154378","433723","NA","Sternberg Task","36","33576.0","46","1024"
"78","78","728","728","#3d3846","experiment","legacy","legacy","legacy","1","undefined","1","right","46","46","46","0","0","46","46","0","0","46","46","46","0","46","0","Sun Oct 15 17:52:21 2023","The main experiment item","False","SternbergTask.osexp","C:\Users\juzal\OneDrive\Documents\Masters of Equine Science\Advanced Quantitative Methods and Experiment Design","False","mono","False","18","no","white","no","yes","768","legacy","34","11","C:/Users/juzal/OneDrive/Documents/Masters of Equine Science/Advanced Quantitative Methods and Experiment Design/CH-subject-4.csv","legacy","1 4 9 2 5","Melodramatic Milgram","4.0.5","0","n","0","right","right","left","right","NA","681.0","152199","5113","681","NA","2","legacy","5","1024","2","48000","-16","experiment","4","even","7","437908","434675","435706","2169","232910","435707","421838","2178","227797","439908","440589","436707","154378","439908","NA","Sternberg Task","37","34257.0","47","1024"
"79","79","728","728","#3d3846","experiment","legacy","legacy","legacy","1","undefined","1","left","47","47","47","0","0","47","47","0","0","47","47","47","0","47","0","Sun Oct 15 17:52:21 2023","The main experiment item","False","SternbergTask.osexp","C:\Users\juzal\OneDrive\Documents\Masters of Equine Science\Advanced Quantitative Methods and Experiment Design","False","mono","False","18","no","white","no","yes","768","legacy","35","11","C:/Users/juzal/OneDrive/Documents/Masters of Equine Science/Advanced Quantitative Methods and Experiment Design/CH-subject-4.csv","legacy","9 3 8 2 1 4","Melodramatic Milgram","4.0.5","3","y","0","left","right","left","left","NA","725.0","152199","5113","725","NA","2","legacy","6","1024","2","48000","-16","experiment","4","even","8","443821","440594","441620","2169","232910","441620","421838","2178","227797","445821","446547","442620","154378","445821","NA","Sternberg Task","38","34982.0","48","1024"
"79","79","731","731","#3d3846","experiment","legacy","legacy","legacy","1","undefined","1","right","48","48","48","0","0","48","48","0","0","48","48","48","0","48","0","Sun Oct 15 17:52:21 2023","The main experiment item","False","SternbergTask.osexp","C:\Users\juzal\OneDrive\Documents\Masters of Equine Science\Advanced Quantitative Methods and Experiment Design","False","mono","False","18","no","white","no","yes","768","legacy","36","11","C:/Users/juzal/OneDrive/Documents/Masters of Equine Science/Advanced Quantitative Methods and Experiment Design/CH-subject-4.csv","legacy","5 3 2 6 9 8","Melodramatic Milgram","4.0.5","0","n","0","right","right","left","right","NA","855.0","152199","5113","855","NA","2","legacy","6","1024","2","48000","-16","experiment","4","even","4","449808","446580","447606","2169","232910","447607","421838","2178","227797","451808","452664","448607","154378","451808","NA","Sternberg Task","39","35837.0","49","1024"
"80","80","726","726","#3d3846","experiment","legacy","legacy","legacy","1","undefined","1","left","49","49","49","0","0","49","49","0","0","49","49","49","0","49","0","Sun Oct 15 17:52:21 2023","The main experiment item","False","SternbergTask.osexp","C:\Users\juzal\OneDrive\Documents\Masters of Equine Science\Advanced Quantitative Methods and Experiment Design","False","mono","False","18","no","white","no","yes","768","legacy","37","11","C:/Users/juzal/OneDrive/Documents/Masters of Equine Science/Advanced Quantitative Methods and Experiment Design/CH-subject-4.csv","legacy","6 2","Melodramatic Milgram","4.0.5","1","y","0","left","right","left","left","NA","494.0","152199","5113","494","NA","2","legacy","2","1024","2","48000","-16","experiment","4","even","6","455896","452668","453694","2169","232910","453695","421838","2178","227797","457896","458391","454695","154378","457896","NA","Sternberg Task","40","36331.0","50","1024"
"78","78","727","727","#3d3846","experiment","legacy","legacy","legacy","0","undefined","0","right","50","50","50","0","0","50","50","0","0","50","50","50","0","50","0","Sun Oct 15 17:52:21 2023","The main experiment item","False","SternbergTask.osexp","C:\Users\juzal\OneDrive\Documents\Masters of Equine Science\Advanced Quantitative Methods and Experiment Design","False","mono","False","18","no","white","no","yes","768","legacy","38","11","C:/Users/juzal/OneDrive/Documents/Masters of Equine Science/Advanced Quantitative Methods and Experiment Design/CH-subject-4.csv","legacy","2 8 7 9 5 3","Melodramatic Milgram","4.0.5","0","n","0","left","right","left","left","NA","765.0","152199","5113","765","NA","2","legacy","6","1024","2","48000","-16","experiment","4","even","6","461650","458420","459447","2169","232910","459448","421838","2178","227797","463651","464417","460449","154378","463650","NA","Sternberg Task","40","37096.0","51","1024"
"78","78","727","727","#3d3846","experiment","legacy","legacy","legacy","1","undefined","1","left","51","51","51","0","0","51","51","0","0","51","51","51","0","51","0","Sun Oct 15 17:52:21 2023","The main experiment item","False","SternbergTask.osexp","C:\Users\juzal\OneDrive\Documents\Masters of Equine Science\Advanced Quantitative Methods and Experiment Design","False","mono","False","18","no","white","no","yes","768","legacy","39","11","C:/Users/juzal/OneDrive/Documents/Masters of Equine Science/Advanced Quantitative Methods and Experiment Design/CH-subject-4.csv","legacy","6 7 9 3 1 2","Melodramatic Milgram","4.0.5","1","y","0","left","right","left","left","NA","751.0","152199","5113","751","NA","2","legacy","6","1024","2","48000","-16","experiment","4","even","6","467673","458420","465470","2169","232910","465471","464443","2178","227797","469673","470425","466472","154378","469673","NA","Sternberg Task","41","37847.0","52","1024"
"79","79","727","727","#3d3846","experiment","legacy","legacy","legacy","1","undefined","1","right","52","52","52","0","0","52","52","0","0","52","52","52","0","52","0","Sun Oct 15 17:52:21 2023","The main experiment item","False","SternbergTask.osexp","C:\Users\juzal\OneDrive\Documents\Masters of Equine Science\Advanced Quantitative Methods and Experiment Design","False","mono","False","18","no","white","no","yes","768","legacy","40","11","C:/Users/juzal/OneDrive/Documents/Masters of Equine Science/Advanced Quantitative Methods and Experiment Design/CH-subject-4.csv","legacy","8 5 4 2 9 6","Melodramatic Milgram","4.0.5","0","n","0","right","right","left","right","NA","703.0","152199","5113","703","NA","2","legacy","6","1024","2","48000","-16","experiment","4","even","3","473677","470450","471476","2169","232910","471476","464443","2178","227797","475677","476381","472476","154378","475677","NA","Sternberg Task","42","38550.0","53","1024"
"79","79","723","723","#3d3846","experiment","legacy","legacy","legacy","1","undefined","1","left","53","53","53","0","0","53","53","0","0","53","53","53","0","53","0","Sun Oct 15 17:52:21 2023","The main experiment item","False","SternbergTask.osexp","C:\Users\juzal\OneDrive\Documents\Masters of Equine Science\Advanced Quantitative Methods and Experiment Design","False","mono","False","18","no","white","no","yes","768","legacy","41","11","C:/Users/juzal/OneDrive/Documents/Masters of Equine Science/Advanced Quantitative Methods and Experiment Design/CH-subject-4.csv","legacy","3 4","Melodramatic Milgram","4.0.5","1","y","0","left","right","left","left","NA","532.0","152199","5113","532","NA","2","legacy","2","1024","2","48000","-16","experiment","4","even","3","479658","476421","477455","2169","232910","477456","464443","2178","227797","481658","482190","478457","154378","481658","NA","Sternberg Task","43","39082.0","54","1024"
"80","80","722","722","#3d3846","experiment","legacy","legacy","legacy","1","undefined","1","right","54","54","54","0","0","54","54","0","0","54","54","54","0","54","0","Sun Oct 15 17:52:21 2023","The main experiment item","False","SternbergTask.osexp","C:\Users\juzal\OneDrive\Documents\Masters of Equine Science\Advanced Quantitative Methods and Experiment Design","False","mono","False","18","no","white","no","yes","768","legacy","42","11","C:/Users/juzal/OneDrive/Documents/Masters of Equine Science/Advanced Quantitative Methods and Experiment Design/CH-subject-4.csv","legacy","3 9 1","Melodramatic Milgram","4.0.5","0","n","0","right","right","left","right","NA","661.0","152199","5113","661","NA","2","legacy","3","1024","2","48000","-16","experiment","4","even","7","485462","482231","483261","2169","232910","483261","464443","2178","227797","487462","488124","484261","154378","487462","NA","Sternberg Task","44","39743.0","55","1024"
"80","80","720","720","#3d3846","experiment","legacy","legacy","legacy","1","undefined","1","right","55","55","55","0","0","55","55","0","0","55","55","55","0","55","0","Sun Oct 15 17:52:21 2023","The main experiment item","False","SternbergTask.osexp","C:\Users\juzal\OneDrive\Documents\Masters of Equine Science\Advanced Quantitative Methods and Experiment Design","False","mono","False","18","no","white","no","yes","768","legacy","43","11","C:/Users/juzal/OneDrive/Documents/Masters of Equine Science/Advanced Quantitative Methods and Experiment Design/CH-subject-4.csv","legacy","6 2 9 3 8 4","Melodramatic Milgram","4.0.5","0","n","0","right","right","left","right","NA","605.0","152199","5113","605","NA","2","legacy","6","1024","2","48000","-16","experiment","4","even","1","491393","488165","489191","2169","232910","489192","464443","2178","227797","493393","494001","490192","154378","493393","NA","Sternberg Task","45","40348.0","56","1024"
"80","80","719","719","#3d3846","experiment","legacy","legacy","legacy","1","undefined","1","right","56","56","56","0","0","56","56","0","0","56","56","56","0","56","0","Sun Oct 15 17:52:21 2023","The main experiment item","False","SternbergTask.osexp","C:\Users\juzal\OneDrive\Documents\Masters of Equine Science\Advanced Quantitative Methods and Experiment Design","False","mono","False","18","no","white","no","yes","768","legacy","44","11","C:/Users/juzal/OneDrive/Documents/Masters of Equine Science/Advanced Quantitative Methods and Experiment Design/CH-subject-4.csv","legacy","2 8 9 4 1","Melodramatic Milgram","4.0.5","0","n","0","right","right","left","right","NA","655.0","152199","5113","655","NA","2","legacy","5","1024","2","48000","-16","experiment","4","even","5","497258","494028","495056","2169","232910","495057","464443","2178","227797","499258","499914","496057","154378","499258","NA","Sternberg Task","46","41003.0","57","1024"
"81","81","717","717","#3d3846","experiment","legacy","legacy","legacy","1","undefined","1","right","57","57","57","0","0","57","57","0","0","57","57","57","0","57","0","Sun Oct 15 17:52:21 2023","The main experiment item","False","SternbergTask.osexp","C:\Users\juzal\OneDrive\Documents\Masters of Equine Science\Advanced Quantitative Methods and Experiment Design","False","mono","False","18","no","white","no","yes","768","legacy","45","11","C:/Users/juzal/OneDrive/Documents/Masters of Equine Science/Advanced Quantitative Methods and Experiment Design/CH-subject-4.csv","legacy","7 9","Melodramatic Milgram","4.0.5","0","n","0","right","right","left","right","NA","591.0","152199","5113","591","NA","2","legacy","2","1024","2","48000","-16","experiment","4","even","1","503182","499954","500979","2169","232910","500980","464443","2178","227797","505182","505774","501981","154378","505182","NA","Sternberg Task","47","41594.0","58","1024"
"81","81","718","718","#3d3846","experiment","legacy","legacy","legacy","1","undefined","1","left","58","58","58","0","0","58","58","0","0","58","58","58","0","58","0","Sun Oct 15 17:52:21 2023","The main experiment item","False","SternbergTask.osexp","C:\Users\juzal\OneDrive\Documents\Masters of Equine Science\Advanced Quantitative Methods and Experiment Design","False","mono","False","18","no","white","no","yes","768","legacy","46","11","C:/Users/juzal/OneDrive/Documents/Masters of Equine Science/Advanced Quantitative Methods and Experiment Design/CH-subject-4.csv","legacy","7 8 6 3 1","Melodramatic Milgram","4.0.5","5","y","0","left","right","left","left","NA","803.0","152199","5113","803","NA","2","legacy","5","1024","2","48000","-16","experiment","4","even","1","509046","505818","506844","2169","232910","506845","464443","2178","227797","511047","511850","507845","154378","511046","NA","Sternberg Task","48","42397.0","59","1024"
"81","81","717","717","#3d3846","experiment","legacy","legacy","legacy","1","undefined","1","left","59","59","59","0","0","59","59","0","0","59","59","59","0","59","0","Sun Oct 15 17:52:21 2023","The main experiment item","False","SternbergTask.osexp","C:\Users\juzal\OneDrive\Documents\Masters of Equine Science\Advanced Quantitative Methods and Experiment Design","False","mono","False","18","no","white","no","yes","768","legacy","47","11","C:/Users/juzal/OneDrive/Documents/Masters of Equine Science/Advanced Quantitative Methods and Experiment Design/CH-subject-4.csv","legacy","5 7 3 6 2","Melodramatic Milgram","4.0.5","5","y","0","left","right","left","left","NA","631.0","152199","5113","631","NA","2","legacy","5","1024","2","48000","-16","experiment","4","even","2","515113","511885","512911","2169","232910","512912","464443","2178","227797","517114","517745","513912","154378","517114","NA","Sternberg Task","49","43028.0","60","1024"
"81","81","716","716","#3d3846","experiment","legacy","legacy","legacy","1","undefined","1","left","60","60","60","0","0","60","60","0","0","60","60","60","0","60","0","Sun Oct 15 17:52:21 2023","The main experiment item","False","SternbergTask.osexp","C:\Users\juzal\OneDrive\Documents\Masters of Equine Science\Advanced Quantitative Methods and Experiment Design","False","mono","False","18","no","white","no","yes","768","legacy","48","11","C:/Users/juzal/OneDrive/Documents/Masters of Equine Science/Advanced Quantitative Methods and Experiment Design/CH-subject-4.csv","legacy","5 7 8 2 3 8","Melodramatic Milgram","4.0.5","5","y","0","left","right","left","left","NA","687.0","152199","5113","687","NA","2","legacy","6","1024","2","48000","-16","experiment","4","even","3","521001","517774","518800","2169","232910","518800","464443","2178","227797","523001","523688","519800","154378","523001","NA","Sternberg Task","50","43715.0","61","1024"
"82","82","715","715","#3d3846","experiment","legacy","legacy","legacy","1","undefined","1","right","61","61","61","0","0","61","61","0","0","61","61","61","0","61","0","Sun Oct 15 17:52:21 2023","The main experiment item","False","SternbergTask.osexp","C:\Users\juzal\OneDrive\Documents\Masters of Equine Science\Advanced Quantitative Methods and Experiment Design","False","mono","False","18","no","white","no","yes","768","legacy","49","11","C:/Users/juzal/OneDrive/Documents/Masters of Equine Science/Advanced Quantitative Methods and Experiment Design/CH-subject-4.csv","legacy","6 9 4 5 2","Melodramatic Milgram","4.0.5","0","n","0","right","right","left","right","NA","639.0","152199","5113","639","NA","2","legacy","5","1024","2","48000","-16","experiment","4","even","1","526952","523718","524750","2169","232910","524750","464443","2178","227797","528952","529592","525751","154378","528952","NA","Sternberg Task","51","44354.0","62","1024"
"82","82","713","713","#3d3846","experiment","legacy","legacy","legacy","1","undefined","1","right","62","62","62","0","0","62","62","0","0","62","62","62","0","62","0","Sun Oct 15 17:52:21 2023","The main experiment item","False","SternbergTask.osexp","C:\Users\juzal\OneDrive\Documents\Masters of Equine Science\Advanced Quantitative Methods and Experiment Design","False","mono","False","18","no","white","no","yes","768","legacy","50","11","C:/Users/juzal/OneDrive/Documents/Masters of Equine Science/Advanced Quantitative Methods and Experiment Design/CH-subject-4.csv","legacy","9","Melodramatic Milgram","4.0.5","0","n","0","right","right","left","right","NA","573.0","152199","5113","573","NA","2","legacy","1","1024","2","48000","-16","experiment","4","even","6","532843","529616","530641","2169","232910","530642","464443","2178","227797","534843","535416","531642","154378","534843","NA","Sternberg Task","52","44927.0","63","1024"
"82","82","714","714","#3d3846","experiment","legacy","legacy","legacy","1","undefined","1","left","63","63","63","0","0","63","63","0","0","63","63","63","0","63","0","Sun Oct 15 17:52:21 2023","The main experiment item","False","SternbergTask.osexp","C:\Users\juzal\OneDrive\Documents\Masters of Equine Science\Advanced Quantitative Methods and Experiment Design","False","mono","False","18","no","white","no","yes","768","legacy","51","11","C:/Users/juzal/OneDrive/Documents/Masters of Equine Science/Advanced Quantitative Methods and Experiment Design/CH-subject-4.csv","legacy","9 1 6 7 8","Melodramatic Milgram","4.0.5","1","y","0","left","right","left","left","NA","792.0","152199","5113","792","NA","2","legacy","5","1024","2","48000","-16","experiment","4","even","9","538689","535460","536486","2169","232910","536487","464443","2178","227797","540690","541482","537488","154378","540689","NA","Sternberg Task","53","45719.0","64","1024"
"83","83","715","715","#3d3846","experiment","legacy","legacy","legacy","1","undefined","1","right","64","64","64","0","0","64","64","0","0","64","64","64","0","64","0","Sun Oct 15 17:52:21 2023","The main experiment item","False","SternbergTask.osexp","C:\Users\juzal\OneDrive\Documents\Masters of Equine Science\Advanced Quantitative Methods and Experiment Design","False","mono","False","18","no","white","no","yes","768","legacy","52","11","C:/Users/juzal/OneDrive/Documents/Masters of Equine Science/Advanced Quantitative Methods and Experiment Design/CH-subject-4.csv","legacy","1 6 4","Melodramatic Milgram","4.0.5","0","n","0","right","right","left","right","NA","808.0","152199","5113","808","NA","2","legacy","3","1024","2","48000","-16","experiment","4","even","7","544735","541507","542533","2169","232910","542534","464443","2178","227797","546735","547544","543534","154378","546735","NA","Sternberg Task","54","46527.0","65","1024"
"83","83","714","714","#3d3846","experiment","legacy","legacy","legacy","1","undefined","1","right","65","65","65","0","0","65","65","0","0","65","65","65","0","65","0","Sun Oct 15 17:52:21 2023","The main experiment item","False","SternbergTask.osexp","C:\Users\juzal\OneDrive\Documents\Masters of Equine Science\Advanced Quantitative Methods and Experiment Design","False","mono","False","18","no","white","no","yes","768","legacy","53","11","C:/Users/juzal/OneDrive/Documents/Masters of Equine Science/Advanced Quantitative Methods and Experiment Design/CH-subject-4.csv","legacy","1 7 8 3 9","Melodramatic Milgram","4.0.5","0","n","0","right","right","left","right","NA","639.0","152199","5113","639","NA","2","legacy","5","1024","2","48000","-16","experiment","4","even","2","550799","547569","548597","2169","232910","548597","464443","2178","227797","552799","553439","549598","154378","552799","NA","Sternberg Task","55","47166.0","66","1024"
"83","83","713","713","#3d3846","experiment","legacy","legacy","legacy","1","undefined","1","left","66","66","66","0","0","66","66","0","0","66","66","66","0","66","0","Sun Oct 15 17:52:21 2023","The main experiment item","False","SternbergTask.osexp","C:\Users\juzal\OneDrive\Documents\Masters of Equine Science\Advanced Quantitative Methods and Experiment Design","False","mono","False","18","no","white","no","yes","768","legacy","54","11","C:/Users/juzal/OneDrive/Documents/Masters of Equine Science/Advanced Quantitative Methods and Experiment Design/CH-subject-4.csv","legacy","6 1 2","Melodramatic Milgram","4.0.5","3","y","0","left","right","left","left","NA","656.0","152199","5113","656","NA","2","legacy","3","1024","2","48000","-16","experiment","4","even","2","556713","553479","554510","2169","232910","554511","464443","2178","227797","558713","559370","555512","154378","558713","NA","Sternberg Task","56","47822.0","67","1024"
"83","83","714","714","#3d3846","experiment","legacy","legacy","legacy","1","undefined","1","right","67","67","67","0","0","67","67","0","0","67","67","67","0","67","0","Sun Oct 15 17:52:21 2023","The main experiment item","False","SternbergTask.osexp","C:\Users\juzal\OneDrive\Documents\Masters of Equine Science\Advanced Quantitative Methods and Experiment Design","False","mono","False","18","no","white","no","yes","768","legacy","55","11","C:/Users/juzal/OneDrive/Documents/Masters of Equine Science/Advanced Quantitative Methods and Experiment Design/CH-subject-4.csv","legacy","1 3 2 6 9","Melodramatic Milgram","4.0.5","0","n","0","right","right","left","right","NA","754.0","152199","5113","754","NA","2","legacy","5","1024","2","48000","-16","experiment","4","even","5","562606","559374","560404","2169","232910","560405","464443","2178","227797","564606","565361","561406","154378","564606","NA","Sternberg Task","57","48576.0","68","1024"
"84","84","715","715","#3d3846","experiment","legacy","legacy","legacy","1","undefined","1","right","68","68","68","0","0","68","68","0","0","68","68","68","0","68","0","Sun Oct 15 17:52:21 2023","The main experiment item","False","SternbergTask.osexp","C:\Users\juzal\OneDrive\Documents\Masters of Equine Science\Advanced Quantitative Methods and Experiment Design","False","mono","False","18","no","white","no","yes","768","legacy","56","11","C:/Users/juzal/OneDrive/Documents/Masters of Equine Science/Advanced Quantitative Methods and Experiment Design/CH-subject-4.csv","legacy","6 9 4 5 3 2","Melodramatic Milgram","4.0.5","0","n","0","right","right","left","right","NA","764.0","152199","5113","764","NA","2","legacy","6","1024","2","48000","-16","experiment","4","even","8","568608","565366","566405","2169","232910","566406","464443","2178","227797","570608","571375","567407","154378","570608","NA","Sternberg Task","58","49340.0","69","1024"
"84","84","714","714","#3d3846","experiment","legacy","legacy","legacy","1","undefined","1","right","69","69","69","0","0","69","69","0","0","69","69","69","0","69","0","Sun Oct 15 17:52:21 2023","The main experiment item","False","SternbergTask.osexp","C:\Users\juzal\OneDrive\Documents\Masters of Equine Science\Advanced Quantitative Methods and Experiment Design","False","mono","False","18","no","white","no","yes","768","legacy","57","11","C:/Users/juzal/OneDrive/Documents/Masters of Equine Science/Advanced Quantitative Methods and Experiment Design/CH-subject-4.csv","legacy","3 4 2","Melodramatic Milgram","4.0.5","0","n","0","right","right","left","right","NA","696.0","152199","5113","696","NA","2","legacy","3","1024","2","48000","-16","experiment","4","even","5","574607","571380","572405","2169","232910","572406","464443","2178","227797","576607","577303","573406","154378","576607","NA","Sternberg Task","59","50036.0","70","1024"
"84","84","715","715","#3d3846","experiment","legacy","legacy","legacy","1","undefined","1","right","70","70","70","0","0","70","70","0","0","70","70","70","0","70","0","Sun Oct 15 17:52:21 2023","The main experiment item","False","SternbergTask.osexp","C:\Users\juzal\OneDrive\Documents\Masters of Equine Science\Advanced Quantitative Methods and Experiment Design","False","mono","False","18","no","white","no","yes","768","legacy","58","11","C:/Users/juzal/OneDrive/Documents/Masters of Equine Science/Advanced Quantitative Methods and Experiment Design/CH-subject-4.csv","legacy","5 9 2 3","Melodramatic Milgram","4.0.5","0","n","0","right","right","left","right","NA","778.0","152199","5113","778","NA","2","legacy","4","1024","2","48000","-16","experiment","4","even","8","580566","577338","578365","2169","232910","578365","464443","2178","227797","582566","583345","579365","154378","582566","NA","Sternberg Task","60","50814.0","71","1024"
"84","84","715","715","#3d3846","experiment","legacy","legacy","legacy","1","undefined","1","right","71","71","71","0","0","71","71","0","0","71","71","71","0","71","0","Sun Oct 15 17:52:21 2023","The main experiment item","False","SternbergTask.osexp","C:\Users\juzal\OneDrive\Documents\Masters of Equine Science\Advanced Quantitative Methods and Experiment Design","False","mono","False","18","no","white","no","yes","768","legacy","59","11","C:/Users/juzal/OneDrive/Documents/Masters of Equine Science/Advanced Quantitative Methods and Experiment Design/CH-subject-4.csv","legacy","4 2 6 9","Melodramatic Milgram","4.0.5","0","n","0","right","right","left","right","NA","694.0","152199","5113","694","NA","2","legacy","4","1024","2","48000","-16","experiment","4","even","7","586602","583373","584400","2169","232910","584400","464443","2178","227797","588602","589297","585400","154378","588602","NA","Sternberg Task","61","51508.0","72","1024"
"84","84","712","712","#3d3846","experiment","legacy","legacy","legacy","1","undefined","1","left","72","72","72","0","0","72","72","0","0","72","72","72","0","72","0","Sun Oct 15 17:52:21 2023","The main experiment item","False","SternbergTask.osexp","C:\Users\juzal\OneDrive\Documents\Masters of Equine Science\Advanced Quantitative Methods and Experiment Design","False","mono","False","18","no","white","no","yes","768","legacy","60","11","C:/Users/juzal/OneDrive/Documents/Masters of Equine Science/Advanced Quantitative Methods and Experiment Design/CH-subject-4.csv","legacy","3 9 6 2","Melodramatic Milgram","4.0.5","4","y","0","left","right","left","left","NA","529.0","152199","5113","529","NA","2","legacy","4","1024","2","48000","-16","experiment","4","even","2","592531","589301","590329","2169","232910","590330","464443","2178","227797","594531","595061","591330","154378","594531","NA","Sternberg Task","62","52037.0","73","1024"
"85","85","713","713","#3d3846","experiment","legacy","legacy","legacy","1","undefined","1","left","73","73","73","0","0","73","73","0","0","73","73","73","0","73","0","Sun Oct 15 17:52:21 2023","The main experiment item","False","SternbergTask.osexp","C:\Users\juzal\OneDrive\Documents\Masters of Equine Science\Advanced Quantitative Methods and Experiment Design","False","mono","False","18","no","white","no","yes","768","legacy","61","11","C:/Users/juzal/OneDrive/Documents/Masters of Equine Science/Advanced Quantitative Methods and Experiment Design/CH-subject-4.csv","legacy","8 1 6","Melodramatic Milgram","4.0.5","3","y","0","left","right","left","left","NA","737.0","152199","5113","737","NA","2","legacy","3","1024","2","48000","-16","experiment","4","even","6","598314","595085","596111","2169","232910","596112","464443","2178","227797","600314","601052","597113","154378","600314","NA","Sternberg Task","63","52774.0","74","1024"
"85","85","713","713","#3d3846","experiment","legacy","legacy","legacy","1","undefined","1","right","74","74","74","0","0","74","74","0","0","74","74","74","0","74","0","Sun Oct 15 17:52:21 2023","The main experiment item","False","SternbergTask.osexp","C:\Users\juzal\OneDrive\Documents\Masters of Equine Science\Advanced Quantitative Methods and Experiment Design","False","mono","False","18","no","white","no","yes","768","legacy","62","11","C:/Users/juzal/OneDrive/Documents/Masters of Equine Science/Advanced Quantitative Methods and Experiment Design/CH-subject-4.csv","legacy","7 1 8 4 9 3","Melodramatic Milgram","4.0.5","0","n","0","right","right","left","right","NA","733.0","152199","5113","733","NA","2","legacy","6","1024","2","48000","-16","experiment","4","even","6","604306","601077","602104","2169","232910","602105","464443","2178","227797","606306","607040","603105","154378","606306","NA","Sternberg Task","64","53507.0","75","1024"
"85","85","715","715","#3d3846","experiment","legacy","legacy","legacy","1","undefined","1","right","75","75","75","0","0","75","75","0","0","75","75","75","0","75","0","Sun Oct 15 17:52:21 2023","The main experiment item","False","SternbergTask.osexp","C:\Users\juzal\OneDrive\Documents\Masters of Equine Science\Advanced Quantitative Methods and Experiment Design","False","mono","False","18","no","white","no","yes","768","legacy","63","11","C:/Users/juzal/OneDrive/Documents/Masters of Equine Science/Advanced Quantitative Methods and Experiment Design/CH-subject-4.csv","legacy","5 3 8 7 2 4","Melodramatic Milgram","4.0.5","0","n","0","right","right","left","right","NA","841.0","152199","5113","841","NA","2","legacy","6","1024","2","48000","-16","experiment","4","even","9","610300","607073","608100","2169","232910","608100","464443","2178","227797","612300","613141","609100","154378","612300","NA","Sternberg Task","65","54348.0","76","1024"
"85","85","711","711","#3d3846","experiment","legacy","legacy","legacy","1","undefined","1","left","76","76","76","0","0","76","76","0","0","76","76","76","0","76","0","Sun Oct 15 17:52:21 2023","The main experiment item","False","SternbergTask.osexp","C:\Users\juzal\OneDrive\Documents\Masters of Equine Science\Advanced Quantitative Methods and Experiment Design","False","mono","False","18","no","white","no","yes","768","legacy","64","11","C:/Users/juzal/OneDrive/Documents/Masters of Equine Science/Advanced Quantitative Methods and Experiment Design/CH-subject-4.csv","legacy","7","Melodramatic Milgram","4.0.5","1","y","0","left","right","left","left","NA","439.0","152199","5113","439","NA","2","legacy","1","1024","2","48000","-16","experiment","4","even","7","616399","613166","614197","2169","232910","614197","464443","2178","227797","618399","618839","615198","154378","618399","NA","Sternberg Task","66","54787.0","77","1024"
"85","85","712","712","#3d3846","experiment","legacy","legacy","legacy","1","undefined","1","right","77","77","77","0","0","77","77","0","0","77","77","77","0","77","0","Sun Oct 15 17:52:21 2023","The main experiment item","False","SternbergTask.osexp","C:\Users\juzal\OneDrive\Documents\Masters of Equine Science\Advanced Quantitative Methods and Experiment Design","False","mono","False","18","no","white","no","yes","768","legacy","65","11","C:/Users/juzal/OneDrive/Documents/Masters of Equine Science/Advanced Quantitative Methods and Experiment Design/CH-subject-4.csv","legacy","4 2 7 6 1 3","Melodramatic Milgram","4.0.5","0","n","0","right","right","left","right","NA","774.0","152199","5113","774","NA","2","legacy","6","1024","2","48000","-16","experiment","4","even","8","622101","618873","619900","2169","232910","619900","464443","2178","227797","624101","624876","620900","154378","624101","NA","Sternberg Task","67","55561.0","78","1024"
"86","86","715","715","#3d3846","experiment","legacy","legacy","legacy","1","undefined","1","right","78","78","78","0","0","78","78","0","0","78","78","78","0","78","0","Sun Oct 15 17:52:21 2023","The main experiment item","False","SternbergTask.osexp","C:\Users\juzal\OneDrive\Documents\Masters of Equine Science\Advanced Quantitative Methods and Experiment Design","False","mono","False","18","no","white","no","yes","768","legacy","66","11","C:/Users/juzal/OneDrive/Documents/Masters of Equine Science/Advanced Quantitative Methods and Experiment Design/CH-subject-4.csv","legacy","7 9 1 6","Melodramatic Milgram","4.0.5","0","n","0","right","right","left","right","NA","978.0","152199","5113","978","NA","2","legacy","4","1024","2","48000","-16","experiment","4","even","4","628137","624907","625933","2169","232910","625934","464443","2178","227797","630137","631115","626935","154378","630137","NA","Sternberg Task","68","56539.0","79","1024"
"86","86","715","715","#3d3846","experiment","legacy","legacy","legacy","1","undefined","1","right","79","79","79","0","0","79","79","0","0","79","79","79","0","79","0","Sun Oct 15 17:52:21 2023","The main experiment item","False","SternbergTask.osexp","C:\Users\juzal\OneDrive\Documents\Masters of Equine Science\Advanced Quantitative Methods and Experiment Design","False","mono","False","18","no","white","no","yes","768","legacy","67","11","C:/Users/juzal/OneDrive/Documents/Masters of Equine Science/Advanced Quantitative Methods and Experiment Design/CH-subject-4.csv","legacy","9 5 3 2 8 6","Melodramatic Milgram","4.0.5","0","n","0","right","right","left","right","NA","682.0","152199","5113","682","NA","2","legacy","6","1024","2","48000","-16","experiment","4","even","7","634372","631144","632169","2169","232910","632170","464443","2178","227797","636372","637055","633171","154378","636372","NA","Sternberg Task","69","57221.0","80","1024"
"86","86","714","714","#3d3846","experiment","legacy","legacy","legacy","1","undefined","1","left","80","80","80","0","0","80","80","0","0","80","80","80","0","80","0","Sun Oct 15 17:52:21 2023","The main experiment item","False","SternbergTask.osexp","C:\Users\juzal\OneDrive\Documents\Masters of Equine Science\Advanced Quantitative Methods and Experiment Design","False","mono","False","18","no","white","no","yes","768","legacy","68","11","C:/Users/juzal/OneDrive/Documents/Masters of Equine Science/Advanced Quantitative Methods and Experiment Design/CH-subject-4.csv","legacy","2 3","Melodramatic Milgram","4.0.5","1","y","0","left","right","left","left","NA","663.0","152199","5113","663","NA","2","legacy","2","1024","2","48000","-16","experiment","4","even","2","640315","637086","638113","2169","232910","638114","464443","2178","227797","642315","642979","639114","154378","642315","NA","Sternberg Task","70","57884.0","81","1024"
"86","86","714","714","#3d3846","experiment","legacy","legacy","legacy","1","undefined","1","right","81","81","81","0","0","81","81","0","0","81","81","81","0","81","0","Sun Oct 15 17:52:21 2023","The main experiment item","False","SternbergTask.osexp","C:\Users\juzal\OneDrive\Documents\Masters of Equine Science\Advanced Quantitative Methods and Experiment Design","False","mono","False","18","no","white","no","yes","768","legacy","69","11","C:/Users/juzal/OneDrive/Documents/Masters of Equine Science/Advanced Quantitative Methods and Experiment Design/CH-subject-4.csv","legacy","8 4 3 9","Melodramatic Milgram","4.0.5","0","n","0","right","right","left","right","NA","693.0","152199","5113","693","NA","2","legacy","4","1024","2","48000","-16","experiment","4","even","5","646237","643007","644034","2169","232910","644035","464443","2178","227797","648237","648930","645036","154378","648237","NA","Sternberg Task","71","58577.0","82","1024"
"86","86","713","713","#3d3846","experiment","legacy","legacy","legacy","1","undefined","1","left","82","82","82","0","0","82","82","0","0","82","82","82","0","82","0","Sun Oct 15 17:52:21 2023","The main experiment item","False","SternbergTask.osexp","C:\Users\juzal\OneDrive\Documents\Masters of Equine Science\Advanced Quantitative Methods and Experiment Design","False","mono","False","18","no","white","no","yes","768","legacy","70","11","C:/Users/juzal/OneDrive/Documents/Masters of Equine Science/Advanced Quantitative Methods and Experiment Design/CH-subject-4.csv","legacy","4 9 7 8 5 3","Melodramatic Milgram","4.0.5","4","y","0","left","right","left","left","NA","683.0","152199","5113","683","NA","2","legacy","6","1024","2","48000","-16","experiment","4","even","8","652187","648956","649985","2169","232910","649986","464443","2178","227797","654188","654872","650986","154378","654188","NA","Sternberg Task","72","59260.0","83","1024"
"85","85","712","712","#3d3846","experiment","legacy","legacy","legacy","0","undefined","0","left","83","83","83","0","0","83","83","0","0","83","83","83","0","83","0","Sun Oct 15 17:52:21 2023","The main experiment item","False","SternbergTask.osexp","C:\Users\juzal\OneDrive\Documents\Masters of Equine Science\Advanced Quantitative Methods and Experiment Design","False","mono","False","18","no","white","no","yes","768","legacy","71","11","C:/Users/juzal/OneDrive/Documents/Masters of Equine Science/Advanced Quantitative Methods and Experiment Design/CH-subject-4.csv","legacy","5 2 6","Melodramatic Milgram","4.0.5","2","y","0","right","right","left","right","NA","559.0","152199","5113","559","NA","2","legacy","3","1024","2","48000","-16","experiment","4","even","2","658137","654903","655935","2169","232910","655936","464443","2178","227797","660137","660697","656936","154378","660137","NA","Sternberg Task","72","59819.0","84","1024"
"85","85","712","712","#3d3846","experiment","legacy","legacy","legacy","1","undefined","1","right","84","84","84","0","0","84","84","0","0","84","84","84","0","84","0","Sun Oct 15 17:52:21 2023","The main experiment item","False","SternbergTask.osexp","C:\Users\juzal\OneDrive\Documents\Masters of Equine Science\Advanced Quantitative Methods and Experiment Design","False","mono","False","18","no","white","no","yes","768","legacy","72","11","C:/Users/juzal/OneDrive/Documents/Masters of Equine Science/Advanced Quantitative Methods and Experiment Design/CH-subject-4.csv","legacy","6 9 7 3 8 2","Melodramatic Milgram","4.0.5","0","n","0","right","right","left","right","NA","737.0","152199","5113","737","NA","2","legacy","6","1024","2","48000","-16","experiment","4","even","5","663956","654903","661754","2169","232910","661755","660728","2178","227797","665956","666694","662755","154378","665956","NA","Sternberg Task","73","60556.0","85","1024"
"86","86","714","714","#3d3846","experiment","legacy","legacy","legacy","1","undefined","1","right","85","85","85","0","0","85","85","0","0","85","85","85","0","85","0","Sun Oct 15 17:52:21 2023","The main experiment item","False","SternbergTask.osexp","C:\Users\juzal\OneDrive\Documents\Masters of Equine Science\Advanced Quantitative Methods and Experiment Design","False","mono","False","18","no","white","no","yes","768","legacy","73","11","C:/Users/juzal/OneDrive/Documents/Masters of Equine Science/Advanced Quantitative Methods and Experiment Design/CH-subject-4.csv","legacy","1 7 5 2 9","Melodramatic Milgram","4.0.5","0","n","0","right","right","left","right","NA","864.0","152199","5113","864","NA","2","legacy","5","1024","2","48000","-16","experiment","4","even","3","669957","666724","667755","2169","232910","667756","660728","2178","227797","671957","672821","668756","154378","671957","NA","Sternberg Task","74","61420.0","86","1024"
"86","86","712","712","#3d3846","experiment","legacy","legacy","legacy","1","undefined","1","left","86","86","86","0","0","86","86","0","0","86","86","86","0","86","0","Sun Oct 15 17:52:21 2023","The main experiment item","False","SternbergTask.osexp","C:\Users\juzal\OneDrive\Documents\Masters of Equine Science\Advanced Quantitative Methods and Experiment Design","False","mono","False","18","no","white","no","yes","768","legacy","74","11","C:/Users/juzal/OneDrive/Documents/Masters of Equine Science/Advanced Quantitative Methods and Experiment Design/CH-subject-4.csv","legacy","8 9 5 6 7","Melodramatic Milgram","4.0.5","1","y","0","left","right","left","left","NA","605.0","152199","5113","605","NA","2","legacy","5","1024","2","48000","-16","experiment","4","even","8","676081","672853","673879","2169","232910","673880","660728","2178","227797","678081","678687","674880","154378","678081","NA","Sternberg Task","75","62025.0","87","1024"
"86","86","712","712","#3d3846","experiment","legacy","legacy","legacy","1","undefined","1","left","87","87","87","0","0","87","87","0","0","87","87","87","0","87","0","Sun Oct 15 17:52:21 2023","The main experiment item","False","SternbergTask.osexp","C:\Users\juzal\OneDrive\Documents\Masters of Equine Science\Advanced Quantitative Methods and Experiment Design","False","mono","False","18","no","white","no","yes","768","legacy","75","11","C:/Users/juzal/OneDrive/Documents/Masters of Equine Science/Advanced Quantitative Methods and Experiment Design/CH-subject-4.csv","legacy","6 9 3 1","Melodramatic Milgram","4.0.5","4","y","0","left","right","left","left","NA","689.0","152199","5113","689","NA","2","legacy","4","1024","2","48000","-16","experiment","4","even","1","681943","678715","679740","2169","232910","679741","660728","2178","227797","683944","684634","680742","154378","683944","NA","Sternberg Task","76","62714.0","88","1024"
"86","86","710","710","#3d3846","experiment","legacy","legacy","legacy","1","undefined","1","left","88","88","88","0","0","88","88","0","0","88","88","88","0","88","0","Sun Oct 15 17:52:21 2023","The main experiment item","False","SternbergTask.osexp","C:\Users\juzal\OneDrive\Documents\Masters of Equine Science\Advanced Quantitative Methods and Experiment Design","False","mono","False","18","no","white","no","yes","768","legacy","76","11","C:/Users/juzal/OneDrive/Documents/Masters of Equine Science/Advanced Quantitative Methods and Experiment Design/CH-subject-4.csv","legacy","7 1 3","Melodramatic Milgram","4.0.5","2","y","0","left","right","left","left","NA","534.0","152199","5113","534","NA","2","legacy","3","1024","2","48000","-16","experiment","4","even","1","687899","684669","685697","2169","232910","685697","660728","2178","227797","689899","690433","686697","154378","689899","NA","Sternberg Task","77","63248.0","89","1024"
"86","86","711","711","#3d3846","experiment","legacy","legacy","legacy","1","undefined","1","right","89","89","89","0","0","89","89","0","0","89","89","89","0","89","0","Sun Oct 15 17:52:21 2023","The main experiment item","False","SternbergTask.osexp","C:\Users\juzal\OneDrive\Documents\Masters of Equine Science\Advanced Quantitative Methods and Experiment Design","False","mono","False","18","no","white","no","yes","768","legacy","77","11","C:/Users/juzal/OneDrive/Documents/Masters of Equine Science/Advanced Quantitative Methods and Experiment Design/CH-subject-4.csv","legacy","4 8 1 2","Melodramatic Milgram","4.0.5","0","n","0","right","right","left","right","NA","771.0","152199","5113","771","NA","2","legacy","4","1024","2","48000","-16","experiment","4","even","7","693668","690438","691466","2169","232910","691467","660728","2178","227797","695668","696440","692467","154378","695668","NA","Sternberg Task","78","64019.0","90","1024"
"86","86","710","710","#3d3846","experiment","legacy","legacy","legacy","1","undefined","1","right","90","90","90","0","0","90","90","0","0","90","90","90","0","90","0","Sun Oct 15 17:52:21 2023","The main experiment item","False","SternbergTask.osexp","C:\Users\juzal\OneDrive\Documents\Masters of Equine Science\Advanced Quantitative Methods and Experiment Design","False","mono","False","18","no","white","no","yes","768","legacy","78","11","C:/Users/juzal/OneDrive/Documents/Masters of Equine Science/Advanced Quantitative Methods and Experiment Design/CH-subject-4.csv","legacy","1","Melodramatic Milgram","4.0.5","0","n","0","right","right","left","right","NA","616.0","152199","5113","616","NA","2","legacy","1","1024","2","48000","-16","experiment","4","even","7","699699","696467","697498","2169","232910","697498","660728","2178","227797","701699","702316","698498","154378","701699","NA","Sternberg Task","79","64635.0","91","1024"
"86","86","710","710","#3d3846","experiment","legacy","legacy","legacy","1","undefined","1","right","91","91","91","0","0","91","91","0","0","91","91","91","0","91","0","Sun Oct 15 17:52:21 2023","The main experiment item","False","SternbergTask.osexp","C:\Users\juzal\OneDrive\Documents\Masters of Equine Science\Advanced Quantitative Methods and Experiment Design","False","mono","False","18","no","white","no","yes","768","legacy","79","11","C:/Users/juzal/OneDrive/Documents/Masters of Equine Science/Advanced Quantitative Methods and Experiment Design/CH-subject-4.csv","legacy","6 8","Melodramatic Milgram","4.0.5","0","n","0","right","right","left","right","NA","742.0","152199","5113","742","NA","2","legacy","2","1024","2","48000","-16","experiment","4","even","9","705554","702320","703352","2169","232910","703353","660728","2178","227797","707554","708297","704353","154378","707554","NA","Sternberg Task","80","65377.0","92","1024"
"87","87","711","711","#3d3846","experiment","legacy","legacy","legacy","1","undefined","1","right","92","92","92","0","0","92","92","0","0","92","92","92","0","92","0","Sun Oct 15 17:52:21 2023","The main experiment item","False","SternbergTask.osexp","C:\Users\juzal\OneDrive\Documents\Masters of Equine Science\Advanced Quantitative Methods and Experiment Design","False","mono","False","18","no","white","no","yes","768","legacy","80","11","C:/Users/juzal/OneDrive/Documents/Masters of Equine Science/Advanced Quantitative Methods and Experiment Design/CH-subject-4.csv","legacy","2 6 4 3 9","Melodramatic Milgram","4.0.5","0","n","0","right","right","left","right","NA","747.0","152199","5113","747","NA","2","legacy","5","1024","2","48000","-16","experiment","4","even","1","711551","708323","709349","2169","232910","709350","660728","2178","227797","713551","714298","710350","154378","713551","NA","Sternberg Task","81","66124.0","93","1024"
"87","87","711","711","#3d3846","experiment","legacy","legacy","legacy","1","undefined","1","left","93","93","93","0","0","93","93","0","0","93","93","93","0","93","0","Sun Oct 15 17:52:21 2023","The main experiment item","False","SternbergTask.osexp","C:\Users\juzal\OneDrive\Documents\Masters of Equine Science\Advanced Quantitative Methods and Experiment Design","False","mono","False","18","no","white","no","yes","768","legacy","81","11","C:/Users/juzal/OneDrive/Documents/Masters of Equine Science/Advanced Quantitative Methods and Experiment Design/CH-subject-4.csv","legacy","4 6 5 8","Melodramatic Milgram","4.0.5","1","y","0","left","right","left","left","NA","748.0","152199","5113","748","NA","2","legacy","4","1024","2","48000","-16","experiment","4","even","4","717556","714328","715354","2169","232910","715355","660728","2178","227797","719556","720305","716355","154378","719556","NA","Sternberg Task","82","66872.0","94","1024"
"87","87","711","711","#3d3846","experiment","legacy","legacy","legacy","1","undefined","1","right","94","94","94","0","0","94","94","0","0","94","94","94","0","94","0","Sun Oct 15 17:52:21 2023","The main experiment item","False","SternbergTask.osexp","C:\Users\juzal\OneDrive\Documents\Masters of Equine Science\Advanced Quantitative Methods and Experiment Design","False","mono","False","18","no","white","no","yes","768","legacy","82","11","C:/Users/juzal/OneDrive/Documents/Masters of Equine Science/Advanced Quantitative Methods and Experiment Design/CH-subject-4.csv","legacy","7 8 6 1","Melodramatic Milgram","4.0.5","0","n","0","right","right","left","right","NA","708.0","152199","5113","708","NA","2","legacy","4","1024","2","48000","-16","experiment","4","even","3","723562","720335","721361","2169","232910","721361","660728","2178","227797","725562","726271","722361","154378","725562","NA","Sternberg Task","83","67580.0","95","1024"
"87","87","709","709","#3d3846","experiment","legacy","legacy","legacy","1","undefined","1","left","95","95","95","0","0","95","95","0","0","95","95","95","0","95","0","Sun Oct 15 17:52:21 2023","The main experiment item","False","SternbergTask.osexp","C:\Users\juzal\OneDrive\Documents\Masters of Equine Science\Advanced Quantitative Methods and Experiment Design","False","mono","False","18","no","white","no","yes","768","legacy","83","11","C:/Users/juzal/OneDrive/Documents/Masters of Equine Science/Advanced Quantitative Methods and Experiment Design/CH-subject-4.csv","legacy","8","Melodramatic Milgram","4.0.5","1","y","0","left","right","left","left","NA","526.0","152199","5113","526","NA","2","legacy","1","1024","2","48000","-16","experiment","4","even","8","729535","726307","727332","2169","232910","727333","660728","2178","227797","731535","732063","728334","154378","731535","NA","Sternberg Task","84","68106.0","96","1024"
"87","87","709","709","#3d3846","experiment","legacy","legacy","legacy","1","undefined","1","right","96","96","96","0","0","96","96","0","0","96","96","96","0","96","0","Sun Oct 15 17:52:21 2023","The main experiment item","False","SternbergTask.osexp","C:\Users\juzal\OneDrive\Documents\Masters of Equine Science\Advanced Quantitative Methods and Experiment Design","False","mono","False","18","no","white","no","yes","768","legacy","84","11","C:/Users/juzal/OneDrive/Documents/Masters of Equine Science/Advanced Quantitative Methods and Experiment Design/CH-subject-4.csv","legacy","9 7 4 5 8","Melodramatic Milgram","4.0.5","0","n","0","right","right","left","right","NA","725.0","152199","5113","725","NA","2","legacy","5","1024","2","48000","-16","experiment","4","even","6","735333","732105","733131","2169","232910","733132","660728","2178","227797","737334","738060","734132","154378","737334","NA","Sternberg Task","85","68831.0","97","1024"
"87","87","709","709","#3d3846","experiment","legacy","legacy","legacy","1","undefined","1","left","97","97","97","0","0","97","97","0","0","97","97","97","0","97","0","Sun Oct 15 17:52:21 2023","The main experiment item","False","SternbergTask.osexp","C:\Users\juzal\OneDrive\Documents\Masters of Equine Science\Advanced Quantitative Methods and Experiment Design","False","mono","False","18","no","white","no","yes","768","legacy","85","11","C:/Users/juzal/OneDrive/Documents/Masters of Equine Science/Advanced Quantitative Methods and Experiment Design/CH-subject-4.csv","legacy","2 4 8 5 1 3","Melodramatic Milgram","4.0.5","1","y","0","left","right","left","left","NA","693.0","152199","5113","693","NA","2","legacy","6","1024","2","48000","-16","experiment","4","even","2","741319","738089","739117","2169","232910","739118","660728","2178","227797","743319","744013","740118","154378","743319","NA","Sternberg Task","86","69524.0","98","1024"
"87","87","708","708","#3d3846","experiment","legacy","legacy","legacy","1","undefined","1","left","98","98","98","0","0","98","98","0","0","98","98","98","0","98","0","Sun Oct 15 17:52:21 2023","The main experiment item","False","SternbergTask.osexp","C:\Users\juzal\OneDrive\Documents\Masters of Equine Science\Advanced Quantitative Methods and Experiment Design","False","mono","False","18","no","white","no","yes","768","legacy","86","11","C:/Users/juzal/OneDrive/Documents/Masters of Equine Science/Advanced Quantitative Methods and Experiment Design/CH-subject-4.csv","legacy","9 5 8 1","Melodramatic Milgram","4.0.5","2","y","0","left","right","left","left","NA","593.0","152199","5113","593","NA","2","legacy","4","1024","2","48000","-16","experiment","4","even","5","747279","744045","745077","2169","232910","745078","660728","2178","227797","749279","749873","746078","154378","749279","NA","Sternberg Task","87","70117.0","99","1024"
"87","87","711","711","#3d3846","experiment","legacy","legacy","legacy","0","undefined","0","left","99","99","99","0","0","99","99","0","0","99","99","99","0","99","0","Sun Oct 15 17:52:21 2023","The main experiment item","False","SternbergTask.osexp","C:\Users\juzal\OneDrive\Documents\Masters of Equine Science\Advanced Quantitative Methods and Experiment Design","False","mono","False","18","no","white","no","yes","768","legacy","87","11","C:/Users/juzal/OneDrive/Documents/Masters of Equine Science/Advanced Quantitative Methods and Experiment Design/CH-subject-4.csv","legacy","6 9 7 4 5 1","Melodramatic Milgram","4.0.5","2","y","0","right","right","left","right","NA","1009.0","152199","5113","1009","NA","2","legacy","6","1024","2","48000","-16","experiment","4","even","9","753129","749901","750927","2169","232910","750928","660728","2178","227797","755129","756139","751928","154378","755129","NA","Sternberg Task","87","71126.0","100","1024"
"87","87","710","710","#3d3846","experiment","legacy","legacy","legacy","1","undefined","1","left","100","100","100","0","0","100","100","0","0","100","100","100","0","100","0","Sun Oct 15 17:52:21 2023","The main experiment item","False","SternbergTask.osexp","C:\Users\juzal\OneDrive\Documents\Masters of Equine Science\Advanced Quantitative Methods and Experiment Design","False","mono","False","18","no","white","no","yes","768","legacy","88","11","C:/Users/juzal/OneDrive/Documents/Masters of Equine Science/Advanced Quantitative Methods and Experiment Design/CH-subject-4.csv","legacy","9 3 1 2 5","Melodramatic Milgram","4.0.5","4","y","0","left","right","left","left","NA","619.0","152199","5113","619","NA","2","legacy","5","1024","2","48000","-16","experiment","4","even","2","759402","749901","757201","2169","232910","757201","756175","2178","227797","761402","762022","758201","154378","761402","NA","Sternberg Task","88","71745.0","101","1024"
"87","87","710","710","#3d3846","experiment","legacy","legacy","legacy","1","undefined","1","right","101","101","101","0","0","101","101","0","0","101","101","101","0","101","0","Sun Oct 15 17:52:21 2023","The main experiment item","False","SternbergTask.osexp","C:\Users\juzal\OneDrive\Documents\Masters of Equine Science\Advanced Quantitative Methods and Experiment Design","False","mono","False","18","no","white","no","yes","768","legacy","89","11","C:/Users/juzal/OneDrive/Documents/Masters of Equine Science/Advanced Quantitative Methods and Experiment Design/CH-subject-4.csv","legacy","1 4 9 3","Melodramatic Milgram","4.0.5","0","n","0","right","right","left","right","NA","776.0","152199","5113","776","NA","2","legacy","4","1024","2","48000","-16","experiment","4","even","5","765275","762046","763072","2169","232910","763073","756175","2178","227797","767276","768053","764074","154378","767276","NA","Sternberg Task","89","72521.0","102","1024"
"87","87","714","714","#3d3846","experiment","legacy","legacy","legacy","1","undefined","1","right","102","102","102","0","0","102","102","0","0","102","102","102","0","102","0","Sun Oct 15 17:52:21 2023","The main experiment item","False","SternbergTask.osexp","C:\Users\juzal\OneDrive\Documents\Masters of Equine Science\Advanced Quantitative Methods and Experiment Design","False","mono","False","18","no","white","no","yes","768","legacy","90","11","C:/Users/juzal/OneDrive/Documents/Masters of Equine Science/Advanced Quantitative Methods and Experiment Design/CH-subject-4.csv","legacy","7 4 2 8 1 9","Melodramatic Milgram","4.0.5","0","n","0","right","right","left","right","NA","1036.0","152199","5113","1036","NA","2","legacy","6","1024","2","48000","-16","experiment","4","even","5","771310","768081","769107","2169","232910","769108","756175","2178","227797","773310","774346","770109","154378","773310","NA","Sternberg Task","90","73557.0","103","1024"
