"acc","accuracy","average_response_time","avg_rt","background","block","canvas_backend","clock_backend","color_backend","compensation","coordinates","correct","correct_Instruction_1","correct_Keyboard_Response","correct_response","count_Correct_Feedback","count_Experimental_Loop","count_Fixation","count_ISI","count_Incorrect_Feedback","count_Instruction_1","count_Instructions_2","count_Instructions_3_Thanks","count_Keyboard_Response","count_Logger","count_Memory_Set","count_Practice_Loop","count_Probe","count_expSequence","count_experiment","count_new_sketchpad","datetime","description","disable_garbage_collection","experiment_file","experiment_path","font_bold","font_family","font_italic","font_size","font_underline","foreground","form_clicks","fullscreen","height","keyboard_backend","live_row","live_row_Practice_Loop","logfile","mouse_backend","numberSet","opensesame_codename","opensesame_version","posInSet","present","repeat_cycle","response","response_Incorrect_Feedback","response_Instruction_1","response_Instructions_2","response_Instructions_3_Thanks","response_Keyboard_Response","response_new_sketchpad","response_time","response_time_Incorrect_Feedback","response_time_Instruction_1","response_time_Instructions_2","response_time_Instructions_3_Thanks","response_time_Keyboard_Response","response_time_new_sketchpad","round_decimals","sampler_backend","setSize","sound_buf_size","sound_channels","sound_freq","sound_sample_size","start","subject_nr","subject_parity","target","time_Correct_Feedback","time_Experimental_Loop","time_Fixation","time_ISI","time_Incorrect_Feedback","time_Instruction_1","time_Instructions_2","time_Instructions_3_Thanks","time_Keyboard_Response","time_Logger","time_Memory_Set","time_Practice_Loop","time_Probe","time_expSequence","time_experiment","time_new_sketchpad","title","total_correct","total_response_time","total_responses","uniform_coordinates","width"
"100","100","781","781","black","practice","legacy","legacy","legacy","0","uniform","1","undefined","1","right","0","0","0","0","0","0","0","0","0","0","0","0","0","0","0","NA","Sun Oct 25 19:04:45 2020","The main experiment item","yes","SternbergTask (1).osexp","/Users/jacobspurling/Downloads","no","mono","no","18","no","white","no","yes","768","legacy","0","0","/Users/jacobspurling/Desktop/KS-subject-3.csv","legacy","3 1 9 4","Lentiform Loewenfeld","3.3.5","0","n","0","right","NA","left","NA","NA","right","NA","781","NA","2922","NA","NA","781","NA","2","legacy","4","1024","2","48000","-16","experiment","3","odd","6","NA","NA","7972","10204","NA","4609","NA","NA","12217","13000","8988","7560","12217","7959","4586","NA","Sternberg Task","1","781","1","yes","1024"
"100","100","813","813","black","practice","legacy","legacy","legacy","0","uniform","1","undefined","1","right","1","0","1","1","1","0","0","0","1","1","1","0","1","1","0","NA","Sun Oct 25 19:04:45 2020","The main experiment item","yes","SternbergTask (1).osexp","/Users/jacobspurling/Downloads","no","mono","no","18","no","white","no","yes","768","legacy","1","1","/Users/jacobspurling/Desktop/KS-subject-3.csv","legacy","5 7 8 4 1 2","Lentiform Loewenfeld","3.3.5","0","n","0","right","NA","left","NA","NA","right","NA","845","NA","2922","NA","NA","845","NA","2","legacy","6","1024","2","48000","-16","experiment","3","odd","6","13073","NA","14222","16455","NA","4609","NA","NA","18469","19316","15238","7560","18469","14210","4586","NA","Sternberg Task","2","1626","2","yes","1024"
"100","100","800.6666666666666","800.6666666666666","black","practice","legacy","legacy","legacy","0","uniform","1","undefined","1","left","2","0","2","2","2","0","0","0","2","2","2","0","2","2","0","NA","Sun Oct 25 19:04:45 2020","The main experiment item","yes","SternbergTask (1).osexp","/Users/jacobspurling/Downloads","no","mono","no","18","no","white","no","yes","768","legacy","2","2","/Users/jacobspurling/Desktop/KS-subject-3.csv","legacy","2 9 4","Lentiform Loewenfeld","3.3.5","3","y","0","left","NA","left","NA","NA","left","NA","776","NA","2922","NA","NA","776","NA","2","legacy","3","1024","2","48000","-16","experiment","3","odd","4","19342","NA","20448","22681","NA","4609","NA","NA","24694","25471","21464","7560","24694","20436","4586","NA","Sternberg Task","3","2402","3","yes","1024"
"100","100","744.5","744.5","black","practice","legacy","legacy","legacy","0","uniform","1","undefined","1","right","3","0","3","3","3","0","0","0","3","3","3","0","3","3","0","NA","Sun Oct 25 19:04:45 2020","The main experiment item","yes","SternbergTask (1).osexp","/Users/jacobspurling/Downloads","no","mono","no","18","no","white","no","yes","768","legacy","3","3","/Users/jacobspurling/Desktop/KS-subject-3.csv","legacy","9 6 7 4 5","Lentiform Loewenfeld","3.3.5","0","n","0","right","NA","left","NA","NA","right","NA","576","NA","2922","NA","NA","576","NA","2","legacy","5","1024","2","48000","-16","experiment","3","odd","3","25497","NA","26607","28838","NA","4609","NA","NA","30851","31428","27621","7560","30851","26595","4586","NA","Sternberg Task","4","2978","4","yes","1024"
"100","100","687.4","687.4","black","practice","legacy","legacy","legacy","0","uniform","1","undefined","1","left","4","0","4","4","4","0","0","0","4","4","4","0","4","4","0","NA","Sun Oct 25 19:04:45 2020","The main experiment item","yes","SternbergTask (1).osexp","/Users/jacobspurling/Downloads","no","mono","no","18","no","white","no","yes","768","legacy","4","4","/Users/jacobspurling/Desktop/KS-subject-3.csv","legacy","6","Lentiform Loewenfeld","3.3.5","1","y","0","left","NA","left","NA","NA","left","NA","459","NA","2922","NA","NA","459","NA","2","legacy","1","1024","2","48000","-16","experiment","3","odd","6","31454","NA","32577","34809","NA","4609","NA","NA","36824","37285","33592","7560","36824","32561","4586","NA","Sternberg Task","5","3437","5","yes","1024"
"100","100","663.8333333333334","663.8333333333334","black","practice","legacy","legacy","legacy","0","uniform","1","undefined","1","right","5","0","5","5","5","0","0","0","5","5","5","0","5","5","0","NA","Sun Oct 25 19:04:45 2020","The main experiment item","yes","SternbergTask (1).osexp","/Users/jacobspurling/Downloads","no","mono","no","18","no","white","no","yes","768","legacy","5","5","/Users/jacobspurling/Desktop/KS-subject-3.csv","legacy","4 1 5","Lentiform Loewenfeld","3.3.5","0","n","0","right","NA","left","NA","NA","right","NA","546","NA","2922","NA","NA","546","NA","2","legacy","3","1024","2","48000","-16","experiment","3","odd","2","37312","NA","38430","40662","NA","4609","NA","NA","42677","43225","39444","7560","42676","38413","4586","NA","Sternberg Task","6","3983","6","yes","1024"
"100","100","650.2857142857143","650.2857142857143","black","practice","legacy","legacy","legacy","0","uniform","1","undefined","1","right","6","0","6","6","6","0","0","0","6","6","6","0","6","6","0","NA","Sun Oct 25 19:04:45 2020","The main experiment item","yes","SternbergTask (1).osexp","/Users/jacobspurling/Downloads","no","mono","no","18","no","white","no","yes","768","legacy","6","6","/Users/jacobspurling/Desktop/KS-subject-3.csv","legacy","2 1","Lentiform Loewenfeld","3.3.5","0","n","0","right","NA","left","NA","NA","right","NA","569","NA","2922","NA","NA","569","NA","2","legacy","2","1024","2","48000","-16","experiment","3","odd","5","43249","NA","44358","46590","NA","4609","NA","NA","48604","49175","45372","7560","48603","44346","4586","NA","Sternberg Task","7","4552","7","yes","1024"
"100","100","646.75","646.75","black","practice","legacy","legacy","legacy","0","uniform","1","undefined","1","left","7","0","7","7","7","0","0","0","7","7","7","0","7","7","0","NA","Sun Oct 25 19:04:45 2020","The main experiment item","yes","SternbergTask (1).osexp","/Users/jacobspurling/Downloads","no","mono","no","18","no","white","no","yes","768","legacy","7","7","/Users/jacobspurling/Desktop/KS-subject-3.csv","legacy","4 3 1 7 9 8","Lentiform Loewenfeld","3.3.5","1","y","0","left","NA","left","NA","NA","left","NA","622","NA","2922","NA","NA","622","NA","2","legacy","6","1024","2","48000","-16","experiment","3","odd","4","49190","NA","50296","52527","NA","4609","NA","NA","54541","55164","51311","7560","54541","50284","4586","NA","Sternberg Task","8","5174","8","yes","1024"
"100","100","630.7777777777778","630.7777777777778","black","practice","legacy","legacy","legacy","0","uniform","1","undefined","1","left","8","0","8","8","8","0","0","0","8","8","8","0","8","8","0","NA","Sun Oct 25 19:04:45 2020","The main experiment item","yes","SternbergTask (1).osexp","/Users/jacobspurling/Downloads","no","mono","no","18","no","white","no","yes","768","legacy","8","8","/Users/jacobspurling/Desktop/KS-subject-3.csv","legacy","4 8","Lentiform Loewenfeld","3.3.5","1","y","0","left","NA","left","NA","NA","left","NA","503","NA","2922","NA","NA","503","NA","2","legacy","2","1024","2","48000","-16","experiment","3","odd","4","55192","NA","56297","58528","NA","4609","NA","NA","60542","61047","57312","7560","60542","56284","4586","NA","Sternberg Task","9","5677","9","yes","1024"
"100","100","618.3","618.3","black","practice","legacy","legacy","legacy","0","uniform","1","undefined","1","right","9","0","9","9","9","0","0","0","9","9","9","0","9","9","0","NA","Sun Oct 25 19:04:45 2020","The main experiment item","yes","SternbergTask (1).osexp","/Users/jacobspurling/Downloads","no","mono","no","18","no","white","no","yes","768","legacy","9","9","/Users/jacobspurling/Desktop/KS-subject-3.csv","legacy","5","Lentiform Loewenfeld","3.3.5","0","n","0","right","NA","left","NA","NA","right","NA","506","NA","2922","NA","NA","506","NA","2","legacy","1","1024","2","48000","-16","experiment","3","odd","3","61072","NA","62177","64406","NA","4609","NA","NA","66422","66930","63190","7560","66422","62164","4586","NA","Sternberg Task","10","6183","10","yes","1024"
"100","100","614.0909090909091","614.0909090909091","black","practice","legacy","legacy","legacy","0","uniform","1","undefined","1","left","10","0","10","10","10","0","0","0","10","10","10","0","10","10","0","NA","Sun Oct 25 19:04:45 2020","The main experiment item","yes","SternbergTask (1).osexp","/Users/jacobspurling/Downloads","no","mono","no","18","no","white","no","yes","768","legacy","10","10","/Users/jacobspurling/Desktop/KS-subject-3.csv","legacy","1 5 2 9","Lentiform Loewenfeld","3.3.5","2","y","0","left","NA","left","NA","NA","left","NA","572","NA","2922","NA","NA","572","NA","2","legacy","4","1024","2","48000","-16","experiment","3","odd","5","66953","NA","68059","70297","NA","4609","NA","NA","72312","72886","69074","7560","72312","68047","4586","NA","Sternberg Task","11","6755","11","yes","1024"
"100","100","612.4166666666666","612.4166666666666","black","practice","legacy","legacy","legacy","0","uniform","1","undefined","1","left","11","0","11","11","11","0","0","0","11","11","11","0","11","11","0","NA","Sun Oct 25 19:04:45 2020","The main experiment item","yes","SternbergTask (1).osexp","/Users/jacobspurling/Downloads","no","mono","no","18","no","white","no","yes","768","legacy","11","11","/Users/jacobspurling/Desktop/KS-subject-3.csv","legacy","1 7 9 8 5","Lentiform Loewenfeld","3.3.5","4","y","0","left","NA","left","NA","NA","left","NA","594","NA","2922","NA","NA","594","NA","2","legacy","5","1024","2","48000","-16","experiment","3","odd","8","72912","NA","74039","76275","NA","4609","NA","NA","78288","78884","75057","7560","78288","74024","4586","NA","Sternberg Task","12","7349","12","yes","1024"
"100","100","596","596","black","experiment","legacy","legacy","legacy","0","uniform","1","undefined","1","right","12","0","12","12","12","0","0","0","12","12","12","0","12","12","0","NA","Sun Oct 25 19:04:45 2020","The main experiment item","yes","SternbergTask (1).osexp","/Users/jacobspurling/Downloads","no","mono","no","18","no","white","no","yes","768","legacy","0","11","/Users/jacobspurling/Desktop/KS-subject-3.csv","legacy","5 2","Lentiform Loewenfeld","3.3.5","0","n","0","right","NA","left","left","NA","right","NA","399","NA","2922","3584","NA","399","NA","2","legacy","2","1024","2","48000","-16","experiment","3","odd","7","78903","83549","83656","85889","NA","4609","79964","NA","87903","88303","84673","7560","87903","83642","4586","NA","Sternberg Task","13","7748","13","yes","1024"
"100","100","587.5714285714286","587.5714285714286","black","experiment","legacy","legacy","legacy","0","uniform","1","undefined","1","right","13","0","13","13","13","0","0","0","13","13","13","0","13","13","0","NA","Sun Oct 25 19:04:45 2020","The main experiment item","yes","SternbergTask (1).osexp","/Users/jacobspurling/Downloads","no","mono","no","18","no","white","no","yes","768","legacy","1","11","/Users/jacobspurling/Desktop/KS-subject-3.csv","legacy","9 8 2 7 4","Lentiform Loewenfeld","3.3.5","0","n","0","right","NA","left","left","NA","right","NA","478","NA","2922","3584","NA","478","NA","2","legacy","5","1024","2","48000","-16","experiment","3","odd","5","88331","83549","89444","91672","NA","4609","79964","NA","93686","94165","90457","7560","93685","89432","4586","NA","Sternberg Task","14","8226","14","yes","1024"
"100","100","589.4","589.4","black","experiment","legacy","legacy","legacy","0","uniform","1","undefined","1","left","14","0","14","14","14","0","0","0","14","14","14","0","14","14","0","NA","Sun Oct 25 19:04:45 2020","The main experiment item","yes","SternbergTask (1).osexp","/Users/jacobspurling/Downloads","no","mono","no","18","no","white","no","yes","768","legacy","2","11","/Users/jacobspurling/Desktop/KS-subject-3.csv","legacy","3 4 9 6 2 9","Lentiform Loewenfeld","3.3.5","5","y","0","left","NA","left","left","NA","left","NA","615","NA","2922","3584","NA","615","NA","2","legacy","6","1024","2","48000","-16","experiment","3","odd","2","94192","83549","95299","97534","NA","4609","79964","NA","99548","100164","96316","7560","99548","95287","4586","NA","Sternberg Task","15","8841","15","yes","1024"
"100","100","598","598","black","experiment","legacy","legacy","legacy","0","uniform","1","undefined","1","left","15","0","15","15","15","0","0","0","15","15","15","0","15","15","0","NA","Sun Oct 25 19:04:45 2020","The main experiment item","yes","SternbergTask (1).osexp","/Users/jacobspurling/Downloads","no","mono","no","18","no","white","no","yes","768","legacy","3","11","/Users/jacobspurling/Desktop/KS-subject-3.csv","legacy","2 5 4 8 7","Lentiform Loewenfeld","3.3.5","3","y","0","left","NA","left","left","NA","left","NA","727","NA","2922","3584","NA","727","NA","2","legacy","5","1024","2","48000","-16","experiment","3","odd","4","100192","83549","101298","103531","NA","4609","79964","NA","105546","106274","102312","7560","105545","101285","4586","NA","Sternberg Task","16","9568","16","yes","1024"
"94.11764705882354","94.11764705882354","578.0588235294117","578.0588235294117","black","experiment","legacy","legacy","legacy","0","uniform","0","undefined","0","left","16","0","16","16","16","0","0","0","16","16","16","0","16","16","0","NA","Sun Oct 25 19:04:45 2020","The main experiment item","yes","SternbergTask (1).osexp","/Users/jacobspurling/Downloads","no","mono","no","18","no","white","no","yes","768","legacy","4","11","/Users/jacobspurling/Desktop/KS-subject-3.csv","legacy","7","Lentiform Loewenfeld","3.3.5","1","y","0","right","NA","left","left","NA","right","NA","259","NA","2922","3584","NA","259","NA","2","legacy","1","1024","2","48000","-16","experiment","3","odd","7","106301","83549","107407","109639","NA","4609","79964","NA","111654","111915","108421","7560","111654","107395","4586","NA","Sternberg Task","16","9827","17","yes","1024"
"94.44444444444444","94.44444444444444","585.3333333333334","585.3333333333334","black","experiment","legacy","legacy","legacy","0","uniform","1","undefined","1","right","17","0","17","17","17","0","0","0","17","17","17","0","17","17","0","NA","Sun Oct 25 19:04:45 2020","The main experiment item","yes","SternbergTask (1).osexp","/Users/jacobspurling/Downloads","no","mono","no","18","no","white","no","yes","768","legacy","5","11","/Users/jacobspurling/Desktop/KS-subject-3.csv","legacy","7 6 4 8 1 2","Lentiform Loewenfeld","3.3.5","0","n","0","right","left","left","left","NA","right","NA","709","3368","2922","3584","NA","709","NA","2","legacy","6","1024","2","48000","-16","experiment","3","odd","9","106301","83549","115425","117658","111940","4609","79964","NA","119671","120381","116440","7560","119671","115404","4586","NA","Sternberg Task","17","10536","18","yes","1024"
"94.73684210526316","94.73684210526316","578.6842105263158","578.6842105263158","black","experiment","legacy","legacy","legacy","0","uniform","1","undefined","1","left","18","0","18","18","18","0","0","0","18","18","18","0","18","18","0","NA","Sun Oct 25 19:04:45 2020","The main experiment item","yes","SternbergTask (1).osexp","/Users/jacobspurling/Downloads","no","mono","no","18","no","white","no","yes","768","legacy","6","11","/Users/jacobspurling/Desktop/KS-subject-3.csv","legacy","2 8 5 1","Lentiform Loewenfeld","3.3.5","4","y","0","left","left","left","left","NA","left","NA","459","3368","2922","3584","NA","459","NA","2","legacy","4","1024","2","48000","-16","experiment","3","odd","1","120407","83549","121518","123748","111940","4609","79964","NA","125761","126222","122532","7560","125761","121506","4586","NA","Sternberg Task","18","10995","19","yes","1024"
"90","90","594.05","594.05","black","experiment","legacy","legacy","legacy","0","uniform","0","undefined","0","left","19","0","19","19","19","0","0","0","19","19","19","0","19","19","0","NA","Sun Oct 25 19:04:45 2020","The main experiment item","yes","SternbergTask (1).osexp","/Users/jacobspurling/Downloads","no","mono","no","18","no","white","no","yes","768","legacy","7","11","/Users/jacobspurling/Desktop/KS-subject-3.csv","legacy","8 9 5 6 7","Lentiform Loewenfeld","3.3.5","1","y","0","right","left","left","left","NA","right","NA","886","3368","2922","3584","NA","886","NA","2","legacy","5","1024","2","48000","-16","experiment","3","odd","8","126248","83549","127354","129586","111940","4609","79964","NA","131600","132487","128369","7560","131600","127341","4586","NA","Sternberg Task","18","11881","20","yes","1024"
"90.47619047619048","90.47619047619048","599.3333333333334","599.3333333333334","black","experiment","legacy","legacy","legacy","0","uniform","1","undefined","1","right","20","0","20","20","20","0","0","0","20","20","20","0","20","20","0","NA","Sun Oct 25 19:04:45 2020","The main experiment item","yes","SternbergTask (1).osexp","/Users/jacobspurling/Downloads","no","mono","no","18","no","white","no","yes","768","legacy","8","11","/Users/jacobspurling/Desktop/KS-subject-3.csv","legacy","1 3 2 6 9","Lentiform Loewenfeld","3.3.5","0","n","0","right","right","left","left","NA","right","NA","705","784","2922","3584","NA","705","NA","2","legacy","5","1024","2","48000","-16","experiment","3","odd","5","126248","83549","133411","135641","132514","4609","79964","NA","137654","138361","134426","7560","137654","133399","4586","NA","Sternberg Task","19","12586","21","yes","1024"
"90.9090909090909","90.9090909090909","595.9090909090909","595.9090909090909","black","experiment","legacy","legacy","legacy","0","uniform","1","undefined","1","right","21","0","21","21","21","0","0","0","21","21","21","0","21","21","0","NA","Sun Oct 25 19:04:45 2020","The main experiment item","yes","SternbergTask (1).osexp","/Users/jacobspurling/Downloads","no","mono","no","18","no","white","no","yes","768","legacy","9","11","/Users/jacobspurling/Desktop/KS-subject-3.csv","legacy","3 4 9 6 7 8","Lentiform Loewenfeld","3.3.5","0","n","0","right","right","left","left","NA","right","NA","524","784","2922","3584","NA","524","NA","2","legacy","6","1024","2","48000","-16","experiment","3","odd","2","138388","83549","139494","141725","132514","4609","79964","NA","143738","144264","140508","7560","143737","139482","4586","NA","Sternberg Task","20","13110","22","yes","1024"
"86.95652173913044","86.95652173913044","599.5217391304348","599.5217391304348","black","experiment","legacy","legacy","legacy","0","uniform","0","undefined","0","left","22","0","22","22","22","0","0","0","22","22","22","0","22","22","0","NA","Sun Oct 25 19:04:45 2020","The main experiment item","yes","SternbergTask (1).osexp","/Users/jacobspurling/Downloads","no","mono","no","18","no","white","no","yes","768","legacy","10","11","/Users/jacobspurling/Desktop/KS-subject-3.csv","legacy","3 9 7 6 4","Lentiform Loewenfeld","3.3.5","3","y","0","right","right","left","left","NA","right","NA","679","784","2922","3584","NA","679","NA","2","legacy","5","1024","2","48000","-16","experiment","3","odd","7","144290","83549","145400","147632","132514","4609","79964","NA","149645","150325","146414","7560","149645","145384","4586","NA","Sternberg Task","20","13789","23","yes","1024"
"83.33333333333333","83.33333333333333","591.125","591.125","black","experiment","legacy","legacy","legacy","0","uniform","0","undefined","0","right","23","0","23","23","23","0","0","0","23","23","23","0","23","23","0","NA","Sun Oct 25 19:04:45 2020","The main experiment item","yes","SternbergTask (1).osexp","/Users/jacobspurling/Downloads","no","mono","no","18","no","white","no","yes","768","legacy","11","11","/Users/jacobspurling/Desktop/KS-subject-3.csv","legacy","5 3 2 6 9 8","Lentiform Loewenfeld","3.3.5","0","n","0","left","right","left","left","NA","left","NA","398","592","2922","3584","NA","398","NA","2","legacy","6","1024","2","48000","-16","experiment","3","odd","4","144290","83549","151051","153282","150351","4609","79964","NA","155295","155694","152065","7560","155295","151039","4586","NA","Sternberg Task","20","14187","24","yes","1024"
"80","80","603.24","603.24","black","experiment","legacy","legacy","legacy","0","uniform","0","undefined","0","right","24","0","24","24","24","0","0","0","24","24","24","0","24","24","0","NA","Sun Oct 25 19:04:45 2020","The main experiment item","yes","SternbergTask (1).osexp","/Users/jacobspurling/Downloads","no","mono","no","18","no","white","no","yes","768","legacy","12","11","/Users/jacobspurling/Desktop/KS-subject-3.csv","legacy","1 6 4","Lentiform Loewenfeld","3.3.5","0","n","0","left","left","left","left","NA","left","NA","894","585","2922","3584","NA","894","NA","2","legacy","3","1024","2","48000","-16","experiment","3","odd","7","144290","83549","156420","158653","155720","4609","79964","NA","160666","161561","157435","7560","160666","156408","4586","NA","Sternberg Task","20","15081","25","yes","1024"
"80.76923076923077","80.76923076923077","602.7307692307693","602.7307692307693","black","experiment","legacy","legacy","legacy","0","uniform","1","undefined","1","right","25","0","25","25","25","0","0","0","25","25","25","0","25","25","0","NA","Sun Oct 25 19:04:45 2020","The main experiment item","yes","SternbergTask (1).osexp","/Users/jacobspurling/Downloads","no","mono","no","18","no","white","no","yes","768","legacy","13","11","/Users/jacobspurling/Desktop/KS-subject-3.csv","legacy","6 9 5","Lentiform Loewenfeld","3.3.5","0","n","0","right","left","left","left","NA","right","NA","590","458","2922","3584","NA","590","NA","2","legacy","3","1024","2","48000","-16","experiment","3","odd","8","144290","83549","162157","164391","161587","4609","79964","NA","166406","166998","163172","7560","166406","162145","4586","NA","Sternberg Task","21","15671","26","yes","1024"
"81.48148148148148","81.48148148148148","605.2592592592592","605.2592592592592","black","experiment","legacy","legacy","legacy","0","uniform","1","undefined","1","left","26","0","26","26","26","0","0","0","26","26","26","0","26","26","0","NA","Sun Oct 25 19:04:45 2020","The main experiment item","yes","SternbergTask (1).osexp","/Users/jacobspurling/Downloads","no","mono","no","18","no","white","no","yes","768","legacy","14","11","/Users/jacobspurling/Desktop/KS-subject-3.csv","legacy","9 4 2","Lentiform Loewenfeld","3.3.5","1","y","0","left","left","left","left","NA","left","NA","671","458","2922","3584","NA","671","NA","2","legacy","3","1024","2","48000","-16","experiment","3","odd","9","167023","83549","168134","170365","161587","4609","79964","NA","172378","173051","169149","7560","172378","168120","4586","NA","Sternberg Task","22","16342","27","yes","1024"
"78.57142857142857","78.57142857142857","626.9285714285714","626.9285714285714","black","experiment","legacy","legacy","legacy","0","uniform","0","undefined","0","left","27","0","27","27","27","0","0","0","27","27","27","0","27","27","0","NA","Sun Oct 25 19:04:45 2020","The main experiment item","yes","SternbergTask (1).osexp","/Users/jacobspurling/Downloads","no","mono","no","18","no","white","no","yes","768","legacy","15","11","/Users/jacobspurling/Desktop/KS-subject-3.csv","legacy","8 1 6","Lentiform Loewenfeld","3.3.5","3","y","0","right","left","left","left","NA","right","NA","1212","458","2922","3584","NA","1212","NA","2","legacy","3","1024","2","48000","-16","experiment","3","odd","6","173077","83549","174185","176421","161587","4609","79964","NA","178434","179647","175202","7560","178434","174173","4586","NA","Sternberg Task","22","17554","28","yes","1024"
"79.3103448275862","79.3103448275862","626.5172413793103","626.5172413793103","black","experiment","legacy","legacy","legacy","0","uniform","1","undefined","1","right","28","0","28","28","28","0","0","0","28","28","28","0","28","28","0","NA","Sun Oct 25 19:04:45 2020","The main experiment item","yes","SternbergTask (1).osexp","/Users/jacobspurling/Downloads","no","mono","no","18","no","white","no","yes","768","legacy","16","11","/Users/jacobspurling/Desktop/KS-subject-3.csv","legacy","5 7 3","Lentiform Loewenfeld","3.3.5","0","n","0","right","right","left","left","NA","right","NA","615","3057","2922","3584","NA","615","NA","2","legacy","3","1024","2","48000","-16","experiment","3","odd","9","173077","83549","182846","185077","179674","4609","79964","NA","187091","187708","183860","7560","187090","182834","4586","NA","Sternberg Task","23","18169","29","yes","1024"
"76.66666666666667","76.66666666666667","645.1","645.1","black","experiment","legacy","legacy","legacy","0","uniform","0","undefined","0","right","29","0","29","29","29","0","0","0","29","29","29","0","29","29","0","NA","Sun Oct 25 19:04:45 2020","The main experiment item","yes","SternbergTask (1).osexp","/Users/jacobspurling/Downloads","no","mono","no","18","no","white","no","yes","768","legacy","17","11","/Users/jacobspurling/Desktop/KS-subject-3.csv","legacy","1 4 3 6 5","Lentiform Loewenfeld","3.3.5","0","n","0","left","right","left","left","NA","left","NA","1184","3057","2922","3584","NA","1184","NA","2","legacy","5","1024","2","48000","-16","experiment","3","odd","8","187733","83549","188849","191080","179674","4609","79964","NA","193099","194285","189864","7560","193099","188835","4586","NA","Sternberg Task","23","19353","30","yes","1024"
"77.41935483870968","77.41935483870968","650.0322580645161","650.0322580645161","black","experiment","legacy","legacy","legacy","0","uniform","1","undefined","1","left","30","0","30","30","30","0","0","0","30","30","30","0","30","30","0","NA","Sun Oct 25 19:04:45 2020","The main experiment item","yes","SternbergTask (1).osexp","/Users/jacobspurling/Downloads","no","mono","no","18","no","white","no","yes","768","legacy","18","11","/Users/jacobspurling/Desktop/KS-subject-3.csv","legacy","5 7 8 2 3 8","Lentiform Loewenfeld","3.3.5","5","y","0","left","left","left","left","NA","left","NA","798","613","2922","3584","NA","798","NA","2","legacy","6","1024","2","48000","-16","experiment","3","odd","3","187733","83549","195040","197274","194312","4609","79964","NA","199287","200087","196056","7560","199287","195027","4586","NA","Sternberg Task","24","20151","31","yes","1024"
"78.125","78.125","646.9375","646.9375","black","experiment","legacy","legacy","legacy","0","uniform","1","undefined","1","right","31","0","31","31","31","0","0","0","31","31","31","0","31","31","0","NA","Sun Oct 25 19:04:45 2020","The main experiment item","yes","SternbergTask (1).osexp","/Users/jacobspurling/Downloads","no","mono","no","18","no","white","no","yes","768","legacy","19","11","/Users/jacobspurling/Desktop/KS-subject-3.csv","legacy","6 8","Lentiform Loewenfeld","3.3.5","0","n","0","right","left","left","left","NA","right","NA","551","613","2922","3584","NA","551","NA","2","legacy","2","1024","2","48000","-16","experiment","3","odd","9","200112","83549","201224","203460","194312","4609","79964","NA","205473","206025","202242","7560","205473","201211","4586","NA","Sternberg Task","25","20702","32","yes","1024"
"78.78787878787878","78.78787878787878","653.6969696969697","653.6969696969697","black","experiment","legacy","legacy","legacy","0","uniform","1","undefined","1","right","32","0","32","32","32","0","0","0","32","32","32","0","32","32","0","NA","Sun Oct 25 19:04:45 2020","The main experiment item","yes","SternbergTask (1).osexp","/Users/jacobspurling/Downloads","no","mono","no","18","no","white","no","yes","768","legacy","20","11","/Users/jacobspurling/Desktop/KS-subject-3.csv","legacy","3 9 1","Lentiform Loewenfeld","3.3.5","0","n","0","right","left","left","left","NA","right","NA","870","613","2922","3584","NA","870","NA","2","legacy","3","1024","2","48000","-16","experiment","3","odd","7","206051","83549","207161","209395","194312","4609","79964","NA","211409","212281","208177","7560","211409","207149","4586","NA","Sternberg Task","26","21572","33","yes","1024"
"79.41176470588235","79.41176470588235","652.9705882352941","652.9705882352941","black","experiment","legacy","legacy","legacy","0","uniform","1","undefined","1","right","33","0","33","33","33","0","0","0","33","33","33","0","33","33","0","NA","Sun Oct 25 19:04:45 2020","The main experiment item","yes","SternbergTask (1).osexp","/Users/jacobspurling/Downloads","no","mono","no","18","no","white","no","yes","768","legacy","21","11","/Users/jacobspurling/Desktop/KS-subject-3.csv","legacy","1","Lentiform Loewenfeld","3.3.5","0","n","0","right","left","left","left","NA","right","NA","629","613","2922","3584","NA","629","NA","2","legacy","1","1024","2","48000","-16","experiment","3","odd","7","212307","83549","213412","215644","194312","4609","79964","NA","217657","218287","214427","7560","217657","213400","4586","NA","Sternberg Task","27","22201","34","yes","1024"
"80","80","648.7714285714286","648.7714285714286","black","experiment","legacy","legacy","legacy","0","uniform","1","undefined","1","left","34","0","34","34","34","0","0","0","34","34","34","0","34","34","0","NA","Sun Oct 25 19:04:45 2020","The main experiment item","yes","SternbergTask (1).osexp","/Users/jacobspurling/Downloads","no","mono","no","18","no","white","no","yes","768","legacy","22","11","/Users/jacobspurling/Desktop/KS-subject-3.csv","legacy","2 3","Lentiform Loewenfeld","3.3.5","1","y","0","left","left","left","left","NA","left","NA","506","613","2922","3584","NA","506","NA","2","legacy","2","1024","2","48000","-16","experiment","3","odd","2","218313","83549","219418","221650","194312","4609","79964","NA","223663","224171","220433","7560","223663","219405","4586","NA","Sternberg Task","28","22707","35","yes","1024"
"80.55555555555556","80.55555555555556","645.3055555555555","645.3055555555555","black","experiment","legacy","legacy","legacy","0","uniform","1","undefined","1","left","35","0","35","35","35","0","0","0","35","35","35","0","35","35","0","NA","Sun Oct 25 19:04:45 2020","The main experiment item","yes","SternbergTask (1).osexp","/Users/jacobspurling/Downloads","no","mono","no","18","no","white","no","yes","768","legacy","23","11","/Users/jacobspurling/Desktop/KS-subject-3.csv","legacy","5 7 3 6 2","Lentiform Loewenfeld","3.3.5","5","y","0","left","left","left","left","NA","left","NA","524","613","2922","3584","NA","524","NA","2","legacy","5","1024","2","48000","-16","experiment","3","odd","2","224197","83549","225319","227551","194312","4609","79964","NA","229564","230089","226334","7560","229564","225306","4586","NA","Sternberg Task","29","23231","36","yes","1024"
"81.08108108108108","81.08108108108108","654.2702702702703","654.2702702702703","black","experiment","legacy","legacy","legacy","0","uniform","1","undefined","1","left","36","0","36","36","36","0","0","0","36","36","36","0","36","36","0","NA","Sun Oct 25 19:04:45 2020","The main experiment item","yes","SternbergTask (1).osexp","/Users/jacobspurling/Downloads","no","mono","no","18","no","white","no","yes","768","legacy","24","11","/Users/jacobspurling/Desktop/KS-subject-3.csv","legacy","6 5","Lentiform Loewenfeld","3.3.5","2","y","0","left","left","left","left","NA","left","NA","977","613","2922","3584","NA","977","NA","2","legacy","2","1024","2","48000","-16","experiment","3","odd","5","230117","83549","231225","233459","194312","4609","79964","NA","235473","236452","232240","7560","235472","231213","4586","NA","Sternberg Task","30","24208","37","yes","1024"
"78.94736842105263","78.94736842105263","658.078947368421","658.078947368421","black","experiment","legacy","legacy","legacy","0","uniform","0","undefined","0","left","37","0","37","37","37","0","0","0","37","37","37","0","37","37","0","NA","Sun Oct 25 19:04:45 2020","The main experiment item","yes","SternbergTask (1).osexp","/Users/jacobspurling/Downloads","no","mono","no","18","no","white","no","yes","768","legacy","25","11","/Users/jacobspurling/Desktop/KS-subject-3.csv","legacy","4 1 8 7 5","Lentiform Loewenfeld","3.3.5","3","y","0","right","left","left","left","NA","right","NA","799","613","2922","3584","NA","799","NA","2","legacy","5","1024","2","48000","-16","experiment","3","odd","8","236478","83549","237591","239824","194312","4609","79964","NA","241846","242646","238607","7560","241846","237579","4586","NA","Sternberg Task","30","25007","38","yes","1024"
"79.48717948717949","79.48717948717949","651.5384615384615","651.5384615384615","black","experiment","legacy","legacy","legacy","0","uniform","1","undefined","1","left","38","0","38","38","38","0","0","0","38","38","38","0","38","38","0","NA","Sun Oct 25 19:04:45 2020","The main experiment item","yes","SternbergTask (1).osexp","/Users/jacobspurling/Downloads","no","mono","no","18","no","white","no","yes","768","legacy","26","11","/Users/jacobspurling/Desktop/KS-subject-3.csv","legacy","8 3","Lentiform Loewenfeld","3.3.5","2","y","0","left","right","left","left","NA","left","NA","403","612","2922","3584","NA","403","NA","2","legacy","2","1024","2","48000","-16","experiment","3","odd","3","236478","83549","243392","245624","242672","4609","79964","NA","247642","248047","244406","7560","247642","243380","4586","NA","Sternberg Task","31","25410","39","yes","1024"
"77.5","77.5","649.7","649.7","black","experiment","legacy","legacy","legacy","0","uniform","0","undefined","0","left","39","0","39","39","39","0","0","0","39","39","39","0","39","39","0","NA","Sun Oct 25 19:04:45 2020","The main experiment item","yes","SternbergTask (1).osexp","/Users/jacobspurling/Downloads","no","mono","no","18","no","white","no","yes","768","legacy","27","11","/Users/jacobspurling/Desktop/KS-subject-3.csv","legacy","2 4 8 5 1 3","Lentiform Loewenfeld","3.3.5","1","y","0","right","right","left","left","NA","right","NA","578","612","2922","3584","NA","578","NA","2","legacy","6","1024","2","48000","-16","experiment","3","odd","2","248073","83549","249183","251414","242672","4609","79964","NA","253427","254006","250198","7560","253427","249170","4586","NA","Sternberg Task","31","25988","40","yes","1024"
"78.04878048780488","78.04878048780488","650.9512195121952","650.9512195121952","black","experiment","legacy","legacy","legacy","0","uniform","1","undefined","1","right","40","0","40","40","40","0","0","0","40","40","40","0","40","40","0","NA","Sun Oct 25 19:04:45 2020","The main experiment item","yes","SternbergTask (1).osexp","/Users/jacobspurling/Downloads","no","mono","no","18","no","white","no","yes","768","legacy","28","11","/Users/jacobspurling/Desktop/KS-subject-3.csv","legacy","7 8 6 1","Lentiform Loewenfeld","3.3.5","0","n","0","right","right","left","left","NA","right","NA","701","704","2922","3584","NA","701","NA","2","legacy","4","1024","2","48000","-16","experiment","3","odd","3","248073","83549","254852","257083","254033","4609","79964","NA","259097","259800","255866","7560","259096","254840","4586","NA","Sternberg Task","32","26689","41","yes","1024"
"78.57142857142857","78.57142857142857","652.6190476190476","652.6190476190476","black","experiment","legacy","legacy","legacy","0","uniform","1","undefined","1","left","41","0","41","41","41","0","0","0","41","41","41","0","41","41","0","NA","Sun Oct 25 19:04:45 2020","The main experiment item","yes","SternbergTask (1).osexp","/Users/jacobspurling/Downloads","no","mono","no","18","no","white","no","yes","768","legacy","29","11","/Users/jacobspurling/Desktop/KS-subject-3.csv","legacy","6 9 7 4 5 1","Lentiform Loewenfeld","3.3.5","2","y","0","left","right","left","left","NA","left","NA","721","704","2922","3584","NA","721","NA","2","legacy","6","1024","2","48000","-16","experiment","3","odd","9","259831","83549","260953","263182","254033","4609","79964","NA","265197","265920","261967","7560","265197","260939","4586","NA","Sternberg Task","33","27410","42","yes","1024"
"79.06976744186046","79.06976744186046","648.5581395348837","648.5581395348837","black","experiment","legacy","legacy","legacy","0","uniform","1","undefined","1","left","42","0","42","42","42","0","0","0","42","42","42","0","42","42","0","NA","Sun Oct 25 19:04:45 2020","The main experiment item","yes","SternbergTask (1).osexp","/Users/jacobspurling/Downloads","no","mono","no","18","no","white","no","yes","768","legacy","30","11","/Users/jacobspurling/Desktop/KS-subject-3.csv","legacy","6 1 2","Lentiform Loewenfeld","3.3.5","3","y","0","left","right","left","left","NA","left","NA","478","704","2922","3584","NA","478","NA","2","legacy","3","1024","2","48000","-16","experiment","3","odd","2","265934","83549","267043","269274","254033","4609","79964","NA","271290","271770","268058","7560","271290","267027","4586","NA","Sternberg Task","34","27888","43","yes","1024"
"79.54545454545455","79.54545454545455","642.25","642.25","black","experiment","legacy","legacy","legacy","0","uniform","1","undefined","1","left","43","0","43","43","43","0","0","0","43","43","43","0","43","43","0","NA","Sun Oct 25 19:04:45 2020","The main experiment item","yes","SternbergTask (1).osexp","/Users/jacobspurling/Downloads","no","mono","no","18","no","white","no","yes","768","legacy","31","11","/Users/jacobspurling/Desktop/KS-subject-3.csv","legacy","6 2","Lentiform Loewenfeld","3.3.5","1","y","0","left","right","left","left","NA","left","NA","371","704","2922","3584","NA","371","NA","2","legacy","2","1024","2","48000","-16","experiment","3","odd","6","271796","83549","272910","275144","254033","4609","79964","NA","277157","277529","273925","7560","277157","272898","4586","NA","Sternberg Task","35","28259","44","yes","1024"
"80","80","636.0888888888888","636.0888888888888","black","experiment","legacy","legacy","legacy","0","uniform","1","undefined","1","left","44","0","44","44","44","0","0","0","44","44","44","0","44","44","0","NA","Sun Oct 25 19:04:45 2020","The main experiment item","yes","SternbergTask (1).osexp","/Users/jacobspurling/Downloads","no","mono","no","18","no","white","no","yes","768","legacy","32","11","/Users/jacobspurling/Desktop/KS-subject-3.csv","legacy","4 6 2 5 1","Lentiform Loewenfeld","3.3.5","5","y","0","left","right","left","left","NA","left","NA","365","704","2922","3584","NA","365","NA","2","legacy","5","1024","2","48000","-16","experiment","3","odd","1","277556","83549","278665","280898","254033","4609","79964","NA","282911","283278","279679","7560","282911","278653","4586","NA","Sternberg Task","36","28624","45","yes","1024"
"80.43478260869566","80.43478260869566","635.1304347826087","635.1304347826087","black","experiment","legacy","legacy","legacy","0","uniform","1","undefined","1","left","45","0","45","45","45","0","0","0","45","45","45","0","45","45","0","NA","Sun Oct 25 19:04:45 2020","The main experiment item","yes","SternbergTask (1).osexp","/Users/jacobspurling/Downloads","no","mono","no","18","no","white","no","yes","768","legacy","33","11","/Users/jacobspurling/Desktop/KS-subject-3.csv","legacy","8","Lentiform Loewenfeld","3.3.5","1","y","0","left","right","left","left","NA","left","NA","592","704","2922","3584","NA","592","NA","2","legacy","1","1024","2","48000","-16","experiment","3","odd","8","283307","83549","284418","286649","254033","4609","79964","NA","288664","289258","285432","7560","288663","284406","4586","NA","Sternberg Task","37","29216","46","yes","1024"
"80.85106382978724","80.85106382978724","634","634","black","experiment","legacy","legacy","legacy","0","uniform","1","undefined","1","right","46","0","46","46","46","0","0","0","46","46","46","0","46","46","0","NA","Sun Oct 25 19:04:45 2020","The main experiment item","yes","SternbergTask (1).osexp","/Users/jacobspurling/Downloads","no","mono","no","18","no","white","no","yes","768","legacy","34","11","/Users/jacobspurling/Desktop/KS-subject-3.csv","legacy","7 9 1 6","Lentiform Loewenfeld","3.3.5","0","n","0","right","right","left","left","NA","right","NA","582","704","2922","3584","NA","582","NA","2","legacy","4","1024","2","48000","-16","experiment","3","odd","4","289285","83549","290391","292622","254033","4609","79964","NA","294636","295220","291405","7560","294635","290377","4586","NA","Sternberg Task","38","29798","47","yes","1024"
"81.25","81.25","635.8333333333334","635.8333333333334","black","experiment","legacy","legacy","legacy","0","uniform","1","undefined","1","right","47","0","47","47","47","0","0","0","47","47","47","0","47","47","0","NA","Sun Oct 25 19:04:45 2020","The main experiment item","yes","SternbergTask (1).osexp","/Users/jacobspurling/Downloads","no","mono","no","18","no","white","no","yes","768","legacy","35","11","/Users/jacobspurling/Desktop/KS-subject-3.csv","legacy","2 5 1 4","Lentiform Loewenfeld","3.3.5","0","n","0","right","right","left","left","NA","right","NA","722","704","2922","3584","NA","722","NA","2","legacy","4","1024","2","48000","-16","experiment","3","odd","6","295248","83549","296359","298592","254033","4609","79964","NA","300605","301328","297375","7560","300605","296346","4586","NA","Sternberg Task","39","30520","48","yes","1024"
"81.63265306122449","81.63265306122449","631.3061224489796","631.3061224489796","black","experiment","legacy","legacy","legacy","0","uniform","1","undefined","1","left","48","0","48","48","48","0","0","0","48","48","48","0","48","48","0","NA","Sun Oct 25 19:04:45 2020","The main experiment item","yes","SternbergTask (1).osexp","/Users/jacobspurling/Downloads","no","mono","no","18","no","white","no","yes","768","legacy","36","11","/Users/jacobspurling/Desktop/KS-subject-3.csv","legacy","2 6 1 7 4","Lentiform Loewenfeld","3.3.5","2","y","0","left","right","left","left","NA","left","NA","414","704","2922","3584","NA","414","NA","2","legacy","5","1024","2","48000","-16","experiment","3","odd","6","301355","83549","302465","304696","254033","4609","79964","NA","306710","307126","303480","7560","306709","302451","4586","NA","Sternberg Task","40","30934","49","yes","1024"
"82","82","632.62","632.62","black","experiment","legacy","legacy","legacy","0","uniform","1","undefined","1","right","49","0","49","49","49","0","0","0","49","49","49","0","49","49","0","NA","Sun Oct 25 19:04:45 2020","The main experiment item","yes","SternbergTask (1).osexp","/Users/jacobspurling/Downloads","no","mono","no","18","no","white","no","yes","768","legacy","37","11","/Users/jacobspurling/Desktop/KS-subject-3.csv","legacy","7 1 5 6 3","Lentiform Loewenfeld","3.3.5","0","n","0","right","right","left","left","NA","right","NA","697","704","2922","3584","NA","697","NA","2","legacy","5","1024","2","48000","-16","experiment","3","odd","8","307151","83549","308263","310491","254033","4609","79964","NA","312505","313203","309277","7560","312504","308251","4586","NA","Sternberg Task","41","31631","50","yes","1024"
"82.3529411764706","82.3529411764706","634.7647058823529","634.7647058823529","black","experiment","legacy","legacy","legacy","0","uniform","1","undefined","1","left","50","0","50","50","50","0","0","0","50","50","50","0","50","50","0","NA","Sun Oct 25 19:04:45 2020","The main experiment item","yes","SternbergTask (1).osexp","/Users/jacobspurling/Downloads","no","mono","no","18","no","white","no","yes","768","legacy","38","11","/Users/jacobspurling/Desktop/KS-subject-3.csv","legacy","9 5 3 8 4","Lentiform Loewenfeld","3.3.5","1","y","0","left","right","left","left","NA","left","NA","742","704","2922","3584","NA","742","NA","2","legacy","5","1024","2","48000","-16","experiment","3","odd","9","313220","83549","314340","316574","254033","4609","79964","NA","318587","319331","315356","7560","318587","314327","4586","NA","Sternberg Task","42","32373","51","yes","1024"
"82.6923076923077","82.6923076923077","633.4807692307693","633.4807692307693","black","experiment","legacy","legacy","legacy","0","uniform","1","undefined","1","left","51","0","51","51","51","0","0","0","51","51","51","0","51","51","0","NA","Sun Oct 25 19:04:45 2020","The main experiment item","yes","SternbergTask (1).osexp","/Users/jacobspurling/Downloads","no","mono","no","18","no","white","no","yes","768","legacy","39","11","/Users/jacobspurling/Desktop/KS-subject-3.csv","legacy","9 6 2 4 1","Lentiform Loewenfeld","3.3.5","4","y","0","left","right","left","left","NA","left","NA","568","704","2922","3584","NA","568","NA","2","legacy","5","1024","2","48000","-16","experiment","3","odd","4","319357","83549","320467","322697","254033","4609","79964","NA","324710","325279","321481","7560","324710","320452","4586","NA","Sternberg Task","43","32941","52","yes","1024"
"83.01886792452831","83.01886792452831","629.7924528301887","629.7924528301887","black","experiment","legacy","legacy","legacy","0","uniform","1","undefined","1","left","52","0","52","52","52","0","0","0","52","52","52","0","52","52","0","NA","Sun Oct 25 19:04:45 2020","The main experiment item","yes","SternbergTask (1).osexp","/Users/jacobspurling/Downloads","no","mono","no","18","no","white","no","yes","768","legacy","40","11","/Users/jacobspurling/Desktop/KS-subject-3.csv","legacy","7 2 3","Lentiform Loewenfeld","3.3.5","3","y","0","left","right","left","left","NA","left","NA","438","704","2922","3584","NA","438","NA","2","legacy","3","1024","2","48000","-16","experiment","3","odd","3","325306","83549","326417","328648","254033","4609","79964","NA","330665","331105","327432","7560","330665","326403","4586","NA","Sternberg Task","44","33379","53","yes","1024"
"83.33333333333333","83.33333333333333","630.5","630.5","black","experiment","legacy","legacy","legacy","0","uniform","1","undefined","1","left","53","0","53","53","53","0","0","0","53","53","53","0","53","53","0","NA","Sun Oct 25 19:04:45 2020","The main experiment item","yes","SternbergTask (1).osexp","/Users/jacobspurling/Downloads","no","mono","no","18","no","white","no","yes","768","legacy","41","11","/Users/jacobspurling/Desktop/KS-subject-3.csv","legacy","9 3 1 2 5","Lentiform Loewenfeld","3.3.5","4","y","0","left","right","left","left","NA","left","NA","668","704","2922","3584","NA","668","NA","2","legacy","5","1024","2","48000","-16","experiment","3","odd","2","331133","83549","332255","334492","254033","4609","79964","NA","336505","337174","333274","7560","336505","332241","4586","NA","Sternberg Task","45","34047","54","yes","1024"
"83.63636363636364","83.63636363636364","630.0909090909091","630.0909090909091","black","experiment","legacy","legacy","legacy","0","uniform","1","undefined","1","right","54","0","54","54","54","0","0","0","54","54","54","0","54","54","0","NA","Sun Oct 25 19:04:45 2020","The main experiment item","yes","SternbergTask (1).osexp","/Users/jacobspurling/Downloads","no","mono","no","18","no","white","no","yes","768","legacy","42","11","/Users/jacobspurling/Desktop/KS-subject-3.csv","legacy","7 1","Lentiform Loewenfeld","3.3.5","0","n","0","right","right","left","left","NA","right","NA","608","704","2922","3584","NA","608","NA","2","legacy","2","1024","2","48000","-16","experiment","3","odd","8","337200","83549","338318","340553","254033","4609","79964","NA","342566","343177","339334","7560","342566","338301","4586","NA","Sternberg Task","46","34655","55","yes","1024"
"83.92857142857143","83.92857142857143","632.8035714285714","632.8035714285714","black","experiment","legacy","legacy","legacy","0","uniform","1","undefined","1","right","55","0","55","55","55","0","0","0","55","55","55","0","55","55","0","NA","Sun Oct 25 19:04:45 2020","The main experiment item","yes","SternbergTask (1).osexp","/Users/jacobspurling/Downloads","no","mono","no","18","no","white","no","yes","768","legacy","43","11","/Users/jacobspurling/Desktop/KS-subject-3.csv","legacy","5 9 2 3","Lentiform Loewenfeld","3.3.5","0","n","0","right","right","left","left","NA","right","NA","782","704","2922","3584","NA","782","NA","2","legacy","4","1024","2","48000","-16","experiment","3","odd","8","343198","83549","344308","346542","254033","4609","79964","NA","348555","349338","345324","7560","348555","344291","4586","NA","Sternberg Task","47","35437","56","yes","1024"
"84.21052631578948","84.21052631578948","630.859649122807","630.859649122807","black","experiment","legacy","legacy","legacy","0","uniform","1","undefined","1","right","56","0","56","56","56","0","0","0","56","56","56","0","56","56","0","NA","Sun Oct 25 19:04:45 2020","The main experiment item","yes","SternbergTask (1).osexp","/Users/jacobspurling/Downloads","no","mono","no","18","no","white","no","yes","768","legacy","44","11","/Users/jacobspurling/Desktop/KS-subject-3.csv","legacy","6 3 1 7 9 8","Lentiform Loewenfeld","3.3.5","0","n","0","right","right","left","left","NA","right","NA","522","704","2922","3584","NA","522","NA","2","legacy","6","1024","2","48000","-16","experiment","3","odd","4","349363","83549","350474","352705","254033","4609","79964","NA","354720","355244","351488","7560","354720","350461","4586","NA","Sternberg Task","48","35959","57","yes","1024"
"84.48275862068965","84.48275862068965","641.1379310344828","641.1379310344828","black","experiment","legacy","legacy","legacy","0","uniform","1","undefined","1","right","57","0","57","57","57","0","0","0","57","57","57","0","57","57","0","NA","Sun Oct 25 19:04:45 2020","The main experiment item","yes","SternbergTask (1).osexp","/Users/jacobspurling/Downloads","no","mono","no","18","no","white","no","yes","768","legacy","45","11","/Users/jacobspurling/Desktop/KS-subject-3.csv","legacy","1 8 7","Lentiform Loewenfeld","3.3.5","0","n","0","right","right","left","left","NA","right","NA","1227","704","2922","3584","NA","1227","NA","2","legacy","3","1024","2","48000","-16","experiment","3","odd","4","355271","83549","356380","358614","254033","4609","79964","NA","360627","361855","357395","7560","360627","356367","4586","NA","Sternberg Task","49","37186","58","yes","1024"
"84.7457627118644","84.7457627118644","639.728813559322","639.728813559322","black","experiment","legacy","legacy","legacy","0","uniform","1","undefined","1","left","58","0","58","58","58","0","0","0","58","58","58","0","58","58","0","NA","Sun Oct 25 19:04:45 2020","The main experiment item","yes","SternbergTask (1).osexp","/Users/jacobspurling/Downloads","no","mono","no","18","no","white","no","yes","768","legacy","46","11","/Users/jacobspurling/Desktop/KS-subject-3.csv","legacy","9 5 8 1","Lentiform Loewenfeld","3.3.5","2","y","0","left","right","left","left","NA","left","NA","558","704","2922","3584","NA","558","NA","2","legacy","4","1024","2","48000","-16","experiment","3","odd","5","361881","83549","362988","365218","254033","4609","79964","NA","367232","367792","364002","7560","367232","362976","4586","NA","Sternberg Task","50","37744","59","yes","1024"
"85","85","641.7666666666667","641.7666666666667","black","experiment","legacy","legacy","legacy","0","uniform","1","undefined","1","left","59","0","59","59","59","0","0","0","59","59","59","0","59","59","0","NA","Sun Oct 25 19:04:45 2020","The main experiment item","yes","SternbergTask (1).osexp","/Users/jacobspurling/Downloads","no","mono","no","18","no","white","no","yes","768","legacy","47","11","/Users/jacobspurling/Desktop/KS-subject-3.csv","legacy","8 5 4 7 3 1","Lentiform Loewenfeld","3.3.5","2","y","0","left","right","left","left","NA","left","NA","762","704","2922","3584","NA","762","NA","2","legacy","6","1024","2","48000","-16","experiment","3","odd","5","367817","83549","368933","371164","254033","4609","79964","NA","373177","373941","369947","7560","373177","368921","4586","NA","Sternberg Task","51","38506","60","yes","1024"
"85.24590163934427","85.24590163934427","644.360655737705","644.360655737705","black","experiment","legacy","legacy","legacy","0","uniform","1","undefined","1","left","60","0","60","60","60","0","0","0","60","60","60","0","60","60","0","NA","Sun Oct 25 19:04:45 2020","The main experiment item","yes","SternbergTask (1).osexp","/Users/jacobspurling/Downloads","no","mono","no","18","no","white","no","yes","768","legacy","48","11","/Users/jacobspurling/Desktop/KS-subject-3.csv","legacy","7 8 6 3 1","Lentiform Loewenfeld","3.3.5","5","y","0","left","right","left","left","NA","left","NA","800","704","2922","3584","NA","800","NA","2","legacy","5","1024","2","48000","-16","experiment","3","odd","1","373969","83549","375084","377316","254033","4609","79964","NA","379332","380134","376099","7560","379332","375072","4586","NA","Sternberg Task","52","39306","61","yes","1024"
"85.48387096774194","85.48387096774194","646.5806451612904","646.5806451612904","black","experiment","legacy","legacy","legacy","0","uniform","1","undefined","1","left","61","0","61","61","61","0","0","0","61","61","61","0","61","61","0","NA","Sun Oct 25 19:04:45 2020","The main experiment item","yes","SternbergTask (1).osexp","/Users/jacobspurling/Downloads","no","mono","no","18","no","white","no","yes","768","legacy","49","11","/Users/jacobspurling/Desktop/KS-subject-3.csv","legacy","4 3 2 5 8","Lentiform Loewenfeld","3.3.5","2","y","0","left","right","left","left","NA","left","NA","782","704","2922","3584","NA","782","NA","2","legacy","5","1024","2","48000","-16","experiment","3","odd","3","380160","83549","381269","383501","254033","4609","79964","NA","385515","386299","382284","7560","385515","381255","4586","NA","Sternberg Task","53","40088","62","yes","1024"
"85.71428571428571","85.71428571428571","647.3015873015873","647.3015873015873","black","experiment","legacy","legacy","legacy","0","uniform","1","undefined","1","right","62","0","62","62","62","0","0","0","62","62","62","0","62","62","0","NA","Sun Oct 25 19:04:45 2020","The main experiment item","yes","SternbergTask (1).osexp","/Users/jacobspurling/Downloads","no","mono","no","18","no","white","no","yes","768","legacy","50","11","/Users/jacobspurling/Desktop/KS-subject-3.csv","legacy","4 8 1 2","Lentiform Loewenfeld","3.3.5","0","n","0","right","right","left","left","NA","right","NA","692","704","2922","3584","NA","692","NA","2","legacy","4","1024","2","48000","-16","experiment","3","odd","7","386325","83549","387440","389677","254033","4609","79964","NA","391691","392386","388454","7560","391690","387423","4586","NA","Sternberg Task","54","40780","63","yes","1024"
"84.375","84.375","647.65625","647.65625","black","experiment","legacy","legacy","legacy","0","uniform","0","undefined","0","right","63","0","63","63","63","0","0","0","63","63","63","0","63","63","0","NA","Sun Oct 25 19:04:45 2020","The main experiment item","yes","SternbergTask (1).osexp","/Users/jacobspurling/Downloads","no","mono","no","18","no","white","no","yes","768","legacy","51","11","/Users/jacobspurling/Desktop/KS-subject-3.csv","legacy","7 4 2 8 1 9","Lentiform Loewenfeld","3.3.5","0","n","0","left","right","left","left","NA","left","NA","670","704","2922","3584","NA","670","NA","2","legacy","6","1024","2","48000","-16","experiment","3","odd","5","392401","83549","393523","395756","254033","4609","79964","NA","397770","398441","394538","7560","397770","393509","4586","NA","Sternberg Task","54","41450","64","yes","1024"
"84.61538461538461","84.61538461538461","646.5846153846154","646.5846153846154","black","experiment","legacy","legacy","legacy","0","uniform","1","undefined","1","right","64","0","64","64","64","0","0","0","64","64","64","0","64","64","0","NA","Sun Oct 25 19:04:45 2020","The main experiment item","yes","SternbergTask (1).osexp","/Users/jacobspurling/Downloads","no","mono","no","18","no","white","no","yes","768","legacy","52","11","/Users/jacobspurling/Desktop/KS-subject-3.csv","legacy","4 1","Lentiform Loewenfeld","3.3.5","0","n","0","right","left","left","left","NA","right","NA","578","521","2922","3584","NA","578","NA","2","legacy","2","1024","2","48000","-16","experiment","3","odd","6","392401","83549","399104","401338","398471","4609","79964","NA","403351","403931","400119","7560","403351","399088","4586","NA","Sternberg Task","55","42028","65","yes","1024"
"84.84848484848484","84.84848484848484","643.7727272727273","643.7727272727273","black","experiment","legacy","legacy","legacy","0","uniform","1","undefined","1","left","65","0","65","65","65","0","0","0","65","65","65","0","65","65","0","NA","Sun Oct 25 19:04:45 2020","The main experiment item","yes","SternbergTask (1).osexp","/Users/jacobspurling/Downloads","no","mono","no","18","no","white","no","yes","768","legacy","53","11","/Users/jacobspurling/Desktop/KS-subject-3.csv","legacy","6 9 3 1","Lentiform Loewenfeld","3.3.5","4","y","0","left","left","left","left","NA","left","NA","461","521","2922","3584","NA","461","NA","2","legacy","4","1024","2","48000","-16","experiment","3","odd","1","403958","83549","405070","407301","398471","4609","79964","NA","409314","409777","406084","7560","409314","405058","4586","NA","Sternberg Task","56","42489","66","yes","1024"
"85.07462686567165","85.07462686567165","642.8955223880597","642.8955223880597","black","experiment","legacy","legacy","legacy","0","uniform","1","undefined","1","right","66","0","66","66","66","0","0","0","66","66","66","0","66","66","0","NA","Sun Oct 25 19:04:45 2020","The main experiment item","yes","SternbergTask (1).osexp","/Users/jacobspurling/Downloads","no","mono","no","18","no","white","no","yes","768","legacy","54","11","/Users/jacobspurling/Desktop/KS-subject-3.csv","legacy","2 3 8 5 6 7","Lentiform Loewenfeld","3.3.5","0","n","0","right","left","left","left","NA","right","NA","585","521","2922","3584","NA","585","NA","2","legacy","6","1024","2","48000","-16","experiment","3","odd","1","409805","83549","410918","413150","398471","4609","79964","NA","415163","415750","411933","7560","415163","410904","4586","NA","Sternberg Task","57","43074","67","yes","1024"
"85.29411764705883","85.29411764705883","644.3823529411765","644.3823529411765","black","experiment","legacy","legacy","legacy","0","uniform","1","undefined","1","right","67","0","67","67","67","0","0","0","67","67","67","0","67","67","0","NA","Sun Oct 25 19:04:45 2020","The main experiment item","yes","SternbergTask (1).osexp","/Users/jacobspurling/Downloads","no","mono","no","18","no","white","no","yes","768","legacy","55","11","/Users/jacobspurling/Desktop/KS-subject-3.csv","legacy","9 7 4 5 8","Lentiform Loewenfeld","3.3.5","0","n","0","right","left","left","left","NA","right","NA","744","521","2922","3584","NA","744","NA","2","legacy","5","1024","2","48000","-16","experiment","3","odd","6","415775","83549","416890","419121","398471","4609","79964","NA","421134","421880","417905","7560","421134","416876","4586","NA","Sternberg Task","58","43818","68","yes","1024"
"85.5072463768116","85.5072463768116","648.1884057971015","648.1884057971015","black","experiment","legacy","legacy","legacy","0","uniform","1","undefined","1","right","68","0","68","68","68","0","0","0","68","68","68","0","68","68","0","NA","Sun Oct 25 19:04:45 2020","The main experiment item","yes","SternbergTask (1).osexp","/Users/jacobspurling/Downloads","no","mono","no","18","no","white","no","yes","768","legacy","56","11","/Users/jacobspurling/Desktop/KS-subject-3.csv","legacy","7 1 8 4 9 3","Lentiform Loewenfeld","3.3.5","0","n","0","right","left","left","left","NA","right","NA","907","521","2922","3584","NA","907","NA","2","legacy","6","1024","2","48000","-16","experiment","3","odd","6","421906","83549","423021","425252","398471","4609","79964","NA","427266","428175","424035","7560","427266","423005","4586","NA","Sternberg Task","59","44725","69","yes","1024"
"85.71428571428571","85.71428571428571","646.8285714285714","646.8285714285714","black","experiment","legacy","legacy","legacy","0","uniform","1","undefined","1","right","69","0","69","69","69","0","0","0","69","69","69","0","69","69","0","NA","Sun Oct 25 19:04:45 2020","The main experiment item","yes","SternbergTask (1).osexp","/Users/jacobspurling/Downloads","no","mono","no","18","no","white","no","yes","768","legacy","57","11","/Users/jacobspurling/Desktop/KS-subject-3.csv","legacy","6 7 5 9","Lentiform Loewenfeld","3.3.5","0","n","0","right","left","left","left","NA","right","NA","553","521","2922","3584","NA","553","NA","2","legacy","4","1024","2","48000","-16","experiment","3","odd","2","428203","83549","429316","431550","398471","4609","79964","NA","433566","434122","430332","7560","433566","429299","4586","NA","Sternberg Task","60","45278","70","yes","1024"
"84.50704225352112","84.50704225352112","644.7746478873239","644.7746478873239","black","experiment","legacy","legacy","legacy","0","uniform","0","undefined","0","right","70","0","70","70","70","0","0","0","70","70","70","0","70","70","0","NA","Sun Oct 25 19:04:45 2020","The main experiment item","yes","SternbergTask (1).osexp","/Users/jacobspurling/Downloads","no","mono","no","18","no","white","no","yes","768","legacy","58","11","/Users/jacobspurling/Desktop/KS-subject-3.csv","legacy","8 9","Lentiform Loewenfeld","3.3.5","0","n","0","left","left","left","left","NA","left","NA","501","521","2922","3584","NA","501","NA","2","legacy","2","1024","2","48000","-16","experiment","3","odd","5","434148","83549","435261","437494","398471","4609","79964","NA","439508","440010","436276","7560","439508","435249","4586","NA","Sternberg Task","60","45779","71","yes","1024"
"83.33333333333333","83.33333333333333","643.6666666666666","643.6666666666666","black","experiment","legacy","legacy","legacy","0","uniform","0","undefined","0","right","71","0","71","71","71","0","0","0","71","71","71","0","71","71","0","NA","Sun Oct 25 19:04:45 2020","The main experiment item","yes","SternbergTask (1).osexp","/Users/jacobspurling/Downloads","no","mono","no","18","no","white","no","yes","768","legacy","59","11","/Users/jacobspurling/Desktop/KS-subject-3.csv","legacy","6 9 7 3 8 2","Lentiform Loewenfeld","3.3.5","0","n","0","left","left","left","left","NA","left","NA","565","594","2922","3584","NA","565","NA","2","legacy","6","1024","2","48000","-16","experiment","3","odd","5","434148","83549","440745","442976","440036","4609","79964","NA","444991","445558","441760","7560","444991","440732","4586","NA","Sternberg Task","60","46344","72","yes","1024"
"83.56164383561644","83.56164383561644","644.7534246575342","644.7534246575342","black","experiment","legacy","legacy","legacy","0","uniform","1","undefined","1","right","72","0","72","72","72","0","0","0","72","72","72","0","72","72","0","NA","Sun Oct 25 19:04:45 2020","The main experiment item","yes","SternbergTask (1).osexp","/Users/jacobspurling/Downloads","no","mono","no","18","no","white","no","yes","768","legacy","60","11","/Users/jacobspurling/Desktop/KS-subject-3.csv","legacy","3 4 2","Lentiform Loewenfeld","3.3.5","0","n","0","right","left","left","left","NA","right","NA","723","386","2922","3584","NA","723","NA","2","legacy","3","1024","2","48000","-16","experiment","3","odd","5","434148","83549","446085","448317","445585","4609","79964","NA","450330","451055","447100","7560","450330","446069","4586","NA","Sternberg Task","61","47067","73","yes","1024"
"83.78378378378379","83.78378378378379","643.4324324324324","643.4324324324324","black","experiment","legacy","legacy","legacy","0","uniform","1","undefined","1","right","73","0","73","73","73","0","0","0","73","73","73","0","73","73","0","NA","Sun Oct 25 19:04:45 2020","The main experiment item","yes","SternbergTask (1).osexp","/Users/jacobspurling/Downloads","no","mono","no","18","no","white","no","yes","768","legacy","61","11","/Users/jacobspurling/Desktop/KS-subject-3.csv","legacy","1 7 8 3 9","Lentiform Loewenfeld","3.3.5","0","n","0","right","left","left","left","NA","right","NA","547","386","2922","3584","NA","547","NA","2","legacy","5","1024","2","48000","-16","experiment","3","odd","2","451080","83549","452187","454418","445585","4609","79964","NA","456432","456982","453202","7560","456431","452175","4586","NA","Sternberg Task","62","47614","74","yes","1024"
"84","84","642.4666666666667","642.4666666666667","black","experiment","legacy","legacy","legacy","0","uniform","1","undefined","1","left","74","0","74","74","74","0","0","0","74","74","74","0","74","74","0","NA","Sun Oct 25 19:04:45 2020","The main experiment item","yes","SternbergTask (1).osexp","/Users/jacobspurling/Downloads","no","mono","no","18","no","white","no","yes","768","legacy","62","11","/Users/jacobspurling/Desktop/KS-subject-3.csv","legacy","6 7 9 3 1 2","Lentiform Loewenfeld","3.3.5","1","y","0","left","left","left","left","NA","left","NA","571","386","2922","3584","NA","571","NA","2","legacy","6","1024","2","48000","-16","experiment","3","odd","6","457008","83549","458113","460344","445585","4609","79964","NA","462358","462931","459127","7560","462358","458101","4586","NA","Sternberg Task","63","48185","75","yes","1024"
"84.21052631578948","84.21052631578948","643.4473684210526","643.4473684210526","black","experiment","legacy","legacy","legacy","0","uniform","1","undefined","1","right","75","0","75","75","75","0","0","0","75","75","75","0","75","75","0","NA","Sun Oct 25 19:04:45 2020","The main experiment item","yes","SternbergTask (1).osexp","/Users/jacobspurling/Downloads","no","mono","no","18","no","white","no","yes","768","legacy","63","11","/Users/jacobspurling/Desktop/KS-subject-3.csv","legacy","9 5 3 2 8 6","Lentiform Loewenfeld","3.3.5","0","n","0","right","left","left","left","NA","right","NA","717","386","2922","3584","NA","717","NA","2","legacy","6","1024","2","48000","-16","experiment","3","odd","7","462956","83549","464068","466299","445585","4609","79964","NA","468314","469033","465083","7560","468314","464055","4586","NA","Sternberg Task","64","48902","76","yes","1024"
"84.41558441558442","84.41558441558442","640.4935064935065","640.4935064935065","black","experiment","legacy","legacy","legacy","0","uniform","1","undefined","1","left","76","0","76","76","76","0","0","0","76","76","76","0","76","76","0","NA","Sun Oct 25 19:04:45 2020","The main experiment item","yes","SternbergTask (1).osexp","/Users/jacobspurling/Downloads","no","mono","no","18","no","white","no","yes","768","legacy","64","11","/Users/jacobspurling/Desktop/KS-subject-3.csv","legacy","6 7 8 5","Lentiform Loewenfeld","3.3.5","3","y","0","left","left","left","left","NA","left","NA","416","386","2922","3584","NA","416","NA","2","legacy","4","1024","2","48000","-16","experiment","3","odd","8","469059","83549","470174","472406","445585","4609","79964","NA","474419","474837","471189","7560","474419","470162","4586","NA","Sternberg Task","65","49318","77","yes","1024"
"84.61538461538461","84.61538461538461","640.3974358974359","640.3974358974359","black","experiment","legacy","legacy","legacy","0","uniform","1","undefined","1","left","77","0","77","77","77","0","0","0","77","77","77","0","77","77","0","NA","Sun Oct 25 19:04:45 2020","The main experiment item","yes","SternbergTask (1).osexp","/Users/jacobspurling/Downloads","no","mono","no","18","no","white","no","yes","768","legacy","65","11","/Users/jacobspurling/Desktop/KS-subject-3.csv","legacy","5 2 6","Lentiform Loewenfeld","3.3.5","2","y","0","left","left","left","left","NA","left","NA","633","386","2922","3584","NA","633","NA","2","legacy","3","1024","2","48000","-16","experiment","3","odd","2","474862","83549","475978","478210","445585","4609","79964","NA","480223","480858","476992","7560","480223","475965","4586","NA","Sternberg Task","66","49951","78","yes","1024"
"84.81012658227849","84.81012658227849","638.3291139240506","638.3291139240506","black","experiment","legacy","legacy","legacy","0","uniform","1","undefined","1","right","78","0","78","78","78","0","0","0","78","78","78","0","78","78","0","NA","Sun Oct 25 19:04:45 2020","The main experiment item","yes","SternbergTask (1).osexp","/Users/jacobspurling/Downloads","no","mono","no","18","no","white","no","yes","768","legacy","66","11","/Users/jacobspurling/Desktop/KS-subject-3.csv","legacy","2 8 6 3 1","Lentiform Loewenfeld","3.3.5","0","n","0","right","left","left","left","NA","right","NA","477","386","2922","3584","NA","477","NA","2","legacy","5","1024","2","48000","-16","experiment","3","odd","7","480874","83549","481985","484216","445585","4609","79964","NA","486230","486709","483000","7560","486230","481972","4586","NA","Sternberg Task","67","50428","79","yes","1024"
"85","85","638.55","638.55","black","experiment","legacy","legacy","legacy","0","uniform","1","undefined","1","left","79","0","79","79","79","0","0","0","79","79","79","0","79","79","0","NA","Sun Oct 25 19:04:45 2020","The main experiment item","yes","SternbergTask (1).osexp","/Users/jacobspurling/Downloads","no","mono","no","18","no","white","no","yes","768","legacy","67","11","/Users/jacobspurling/Desktop/KS-subject-3.csv","legacy","3 5 7 1","Lentiform Loewenfeld","3.3.5","3","y","0","left","left","left","left","NA","left","NA","656","386","2922","3584","NA","656","NA","2","legacy","4","1024","2","48000","-16","experiment","3","odd","7","486735","83549","487849","490079","445585","4609","79964","NA","492092","492750","488863","7560","492092","487836","4586","NA","Sternberg Task","68","51084","80","yes","1024"
"85.18518518518519","85.18518518518519","642.2716049382716","642.2716049382716","black","experiment","legacy","legacy","legacy","0","uniform","1","undefined","1","left","80","0","80","80","80","0","0","0","80","80","80","0","80","80","0","NA","Sun Oct 25 19:04:45 2020","The main experiment item","yes","SternbergTask (1).osexp","/Users/jacobspurling/Downloads","no","mono","no","18","no","white","no","yes","768","legacy","68","11","/Users/jacobspurling/Desktop/KS-subject-3.csv","legacy","9 1 7 2","Lentiform Loewenfeld","3.3.5","2","y","0","left","left","left","left","NA","left","NA","940","386","2922","3584","NA","940","NA","2","legacy","4","1024","2","48000","-16","experiment","3","odd","1","492776","83549","493891","496122","445585","4609","79964","NA","498135","499077","494905","7560","498135","493874","4586","NA","Sternberg Task","69","52024","81","yes","1024"
"85.36585365853658","85.36585365853658","645.609756097561","645.609756097561","black","experiment","legacy","legacy","legacy","0","uniform","1","undefined","1","right","81","0","81","81","81","0","0","0","81","81","81","0","81","81","0","NA","Sun Oct 25 19:04:45 2020","The main experiment item","yes","SternbergTask (1).osexp","/Users/jacobspurling/Downloads","no","mono","no","18","no","white","no","yes","768","legacy","69","11","/Users/jacobspurling/Desktop/KS-subject-3.csv","legacy","8 4 3 5","Lentiform Loewenfeld","3.3.5","0","n","0","right","left","left","left","NA","right","NA","916","386","2922","3584","NA","916","NA","2","legacy","4","1024","2","48000","-16","experiment","3","odd","6","499103","83549","500210","502441","445585","4609","79964","NA","504454","505372","501225","7560","504454","500197","4586","NA","Sternberg Task","70","52940","82","yes","1024"
"85.5421686746988","85.5421686746988","646.5060240963855","646.5060240963855","black","experiment","legacy","legacy","legacy","0","uniform","1","undefined","1","right","82","0","82","82","82","0","0","0","82","82","82","0","82","82","0","NA","Sun Oct 25 19:04:45 2020","The main experiment item","yes","SternbergTask (1).osexp","/Users/jacobspurling/Downloads","no","mono","no","18","no","white","no","yes","768","legacy","70","11","/Users/jacobspurling/Desktop/KS-subject-3.csv","legacy","4 2 7 6 1 3","Lentiform Loewenfeld","3.3.5","0","n","0","right","left","left","left","NA","right","NA","720","386","2922","3584","NA","720","NA","2","legacy","6","1024","2","48000","-16","experiment","3","odd","8","505399","83549","506507","508740","445585","4609","79964","NA","510758","511480","507524","7560","510757","506495","4586","NA","Sternberg Task","71","53660","83","yes","1024"
"85.71428571428571","85.71428571428571","645.1071428571429","645.1071428571429","black","experiment","legacy","legacy","legacy","0","uniform","1","undefined","1","left","83","0","83","83","83","0","0","0","83","83","83","0","83","83","0","NA","Sun Oct 25 19:04:45 2020","The main experiment item","yes","SternbergTask (1).osexp","/Users/jacobspurling/Downloads","no","mono","no","18","no","white","no","yes","768","legacy","71","11","/Users/jacobspurling/Desktop/KS-subject-3.csv","legacy","4 9 7 8 5 3","Lentiform Loewenfeld","3.3.5","4","y","0","left","left","left","left","NA","left","NA","529","386","2922","3584","NA","529","NA","2","legacy","6","1024","2","48000","-16","experiment","3","odd","8","511507","83549","512623","514853","445585","4609","79964","NA","516866","517397","513637","7560","516866","512610","4586","NA","Sternberg Task","72","54189","84","yes","1024"
"85.88235294117646","85.88235294117646","650","650","black","experiment","legacy","legacy","legacy","0","uniform","1","undefined","1","left","84","0","84","84","84","0","0","0","84","84","84","0","84","84","0","NA","Sun Oct 25 19:04:45 2020","The main experiment item","yes","SternbergTask (1).osexp","/Users/jacobspurling/Downloads","no","mono","no","18","no","white","no","yes","768","legacy","72","11","/Users/jacobspurling/Desktop/KS-subject-3.csv","legacy","9 3 8 2 1 4","Lentiform Loewenfeld","3.3.5","3","y","0","left","left","left","left","NA","left","NA","1061","386","2922","3584","NA","1061","NA","2","legacy","6","1024","2","48000","-16","experiment","3","odd","8","517425","83549","518544","520780","445585","4609","79964","NA","522794","523857","519563","7560","522794","518529","4586","NA","Sternberg Task","73","55250","85","yes","1024"
"86.04651162790698","86.04651162790698","649.2790697674419","649.2790697674419","black","experiment","legacy","legacy","legacy","0","uniform","1","undefined","1","left","85","0","85","85","85","0","0","0","85","85","85","0","85","85","0","NA","Sun Oct 25 19:04:45 2020","The main experiment item","yes","SternbergTask (1).osexp","/Users/jacobspurling/Downloads","no","mono","no","18","no","white","no","yes","768","legacy","73","11","/Users/jacobspurling/Desktop/KS-subject-3.csv","legacy","1 4 9 3 2 5","Lentiform Loewenfeld","3.3.5","3","y","0","left","left","left","left","NA","left","NA","588","386","2922","3584","NA","588","NA","2","legacy","6","1024","2","48000","-16","experiment","3","odd","9","523883","83549","524993","527224","445585","4609","79964","NA","529237","529828","526007","7560","529237","524981","4586","NA","Sternberg Task","74","55838","86","yes","1024"
"86.20689655172414","86.20689655172414","648.7816091954023","648.7816091954023","black","experiment","legacy","legacy","legacy","0","uniform","1","undefined","1","right","86","0","86","86","86","0","0","0","86","86","86","0","86","86","0","NA","Sun Oct 25 19:04:45 2020","The main experiment item","yes","SternbergTask (1).osexp","/Users/jacobspurling/Downloads","no","mono","no","18","no","white","no","yes","768","legacy","74","11","/Users/jacobspurling/Desktop/KS-subject-3.csv","legacy","8 5 7 3 6","Lentiform Loewenfeld","3.3.5","0","n","0","right","left","left","left","NA","right","NA","606","386","2922","3584","NA","606","NA","2","legacy","5","1024","2","48000","-16","experiment","3","odd","9","529853","83549","530964","533195","445585","4609","79964","NA","535210","535818","531980","7560","535209","530952","4586","NA","Sternberg Task","75","56444","87","yes","1024"
"86.36363636363636","86.36363636363636","649.4318181818181","649.4318181818181","black","experiment","legacy","legacy","legacy","0","uniform","1","undefined","1","right","87","0","87","87","87","0","0","0","87","87","87","0","87","87","0","NA","Sun Oct 25 19:04:45 2020","The main experiment item","yes","SternbergTask (1).osexp","/Users/jacobspurling/Downloads","no","mono","no","18","no","white","no","yes","768","legacy","75","11","/Users/jacobspurling/Desktop/KS-subject-3.csv","legacy","2 8 9 4 1","Lentiform Loewenfeld","3.3.5","0","n","0","right","left","left","left","NA","right","NA","706","386","2922","3584","NA","706","NA","2","legacy","5","1024","2","48000","-16","experiment","3","odd","5","535844","83549","536955","539185","445585","4609","79964","NA","541198","541907","537969","7560","541198","536942","4586","NA","Sternberg Task","76","57150","88","yes","1024"
"86.51685393258427","86.51685393258427","646.876404494382","646.876404494382","black","experiment","legacy","legacy","legacy","0","uniform","1","undefined","1","left","88","0","88","88","88","0","0","0","88","88","88","0","88","88","0","NA","Sun Oct 25 19:04:45 2020","The main experiment item","yes","SternbergTask (1).osexp","/Users/jacobspurling/Downloads","no","mono","no","18","no","white","no","yes","768","legacy","76","11","/Users/jacobspurling/Desktop/KS-subject-3.csv","legacy","3 4","Lentiform Loewenfeld","3.3.5","1","y","0","left","left","left","left","NA","left","NA","422","386","2922","3584","NA","422","NA","2","legacy","2","1024","2","48000","-16","experiment","3","odd","3","541933","83549","543045","545276","445585","4609","79964","NA","547289","547712","544060","7560","547289","543033","4586","NA","Sternberg Task","77","57572","89","yes","1024"
"86.66666666666667","86.66666666666667","650.3","650.3","black","experiment","legacy","legacy","legacy","0","uniform","1","undefined","1","right","89","0","89","89","89","0","0","0","89","89","89","0","89","89","0","NA","Sun Oct 25 19:04:45 2020","The main experiment item","yes","SternbergTask (1).osexp","/Users/jacobspurling/Downloads","no","mono","no","18","no","white","no","yes","768","legacy","77","11","/Users/jacobspurling/Desktop/KS-subject-3.csv","legacy","3 9 8 1 6 4","Lentiform Loewenfeld","3.3.5","0","n","0","right","left","left","left","NA","right","NA","955","386","2922","3584","NA","955","NA","2","legacy","6","1024","2","48000","-16","experiment","3","odd","7","547738","83549","548853","551084","445585","4609","79964","NA","553097","554054","549867","7560","553097","548840","4586","NA","Sternberg Task","78","58527","90","yes","1024"
"86.81318681318682","86.81318681318682","651.065934065934","651.065934065934","black","experiment","legacy","legacy","legacy","0","uniform","1","undefined","1","right","90","0","90","90","90","0","0","0","90","90","90","0","90","90","0","NA","Sun Oct 25 19:04:45 2020","The main experiment item","yes","SternbergTask (1).osexp","/Users/jacobspurling/Downloads","no","mono","no","18","no","white","no","yes","768","legacy","78","11","/Users/jacobspurling/Desktop/KS-subject-3.csv","legacy","9","Lentiform Loewenfeld","3.3.5","0","n","0","right","left","left","left","NA","right","NA","720","386","2922","3584","NA","720","NA","2","legacy","1","1024","2","48000","-16","experiment","3","odd","6","554081","83549","555192","557424","445585","4609","79964","NA","559437","560160","556207","7560","559437","555180","4586","NA","Sternberg Task","79","59247","91","yes","1024"
"86.95652173913044","86.95652173913044","650.5326086956521","650.5326086956521","black","experiment","legacy","legacy","legacy","0","uniform","1","undefined","1","right","91","0","91","91","91","0","0","0","91","91","91","0","91","91","0","NA","Sun Oct 25 19:04:45 2020","The main experiment item","yes","SternbergTask (1).osexp","/Users/jacobspurling/Downloads","no","mono","no","18","no","white","no","yes","768","legacy","79","11","/Users/jacobspurling/Desktop/KS-subject-3.csv","legacy","2 7 5","Lentiform Loewenfeld","3.3.5","0","n","0","right","left","left","left","NA","right","NA","602","386","2922","3584","NA","602","NA","2","legacy","3","1024","2","48000","-16","experiment","3","odd","8","560187","83549","561300","563531","445585","4609","79964","NA","565545","566149","562314","7560","565545","561288","4586","NA","Sternberg Task","80","59849","92","yes","1024"
"87.09677419354838","87.09677419354838","650.2688172043011","650.2688172043011","black","experiment","legacy","legacy","legacy","0","uniform","1","undefined","1","left","92","0","92","92","92","0","0","0","92","92","92","0","92","92","0","NA","Sun Oct 25 19:04:45 2020","The main experiment item","yes","SternbergTask (1).osexp","/Users/jacobspurling/Downloads","no","mono","no","18","no","white","no","yes","768","legacy","80","11","/Users/jacobspurling/Desktop/KS-subject-3.csv","legacy","8 9 5 7 1 6","Lentiform Loewenfeld","3.3.5","4","y","0","left","left","left","left","NA","left","NA","626","386","2922","3584","NA","626","NA","2","legacy","6","1024","2","48000","-16","experiment","3","odd","7","566175","83549","567283","569515","445585","4609","79964","NA","571529","572156","568298","7560","571528","567271","4586","NA","Sternberg Task","81","60475","93","yes","1024"
"87.23404255319149","87.23404255319149","648.0106382978723","648.0106382978723","black","experiment","legacy","legacy","legacy","0","uniform","1","undefined","1","left","93","0","93","93","93","0","0","0","93","93","93","0","93","93","0","NA","Sun Oct 25 19:04:45 2020","The main experiment item","yes","SternbergTask (1).osexp","/Users/jacobspurling/Downloads","no","mono","no","18","no","white","no","yes","768","legacy","81","11","/Users/jacobspurling/Desktop/KS-subject-3.csv","legacy","7 4 2 6 3 5","Lentiform Loewenfeld","3.3.5","6","y","0","left","left","left","left","NA","left","NA","438","386","2922","3584","NA","438","NA","2","legacy","6","1024","2","48000","-16","experiment","3","odd","5","572183","83549","573294","575527","445585","4609","79964","NA","577541","577981","574310","7560","577540","573282","4586","NA","Sternberg Task","82","60913","94","yes","1024"
"87.36842105263158","87.36842105263158","647.3368421052631","647.3368421052631","black","experiment","legacy","legacy","legacy","0","uniform","1","undefined","1","left","94","0","94","94","94","0","0","0","94","94","94","0","94","94","0","NA","Sun Oct 25 19:04:45 2020","The main experiment item","yes","SternbergTask (1).osexp","/Users/jacobspurling/Downloads","no","mono","no","18","no","white","no","yes","768","legacy","82","11","/Users/jacobspurling/Desktop/KS-subject-3.csv","legacy","9 1 6 7 8","Lentiform Loewenfeld","3.3.5","1","y","0","left","left","left","left","NA","left","NA","584","386","2922","3584","NA","584","NA","2","legacy","5","1024","2","48000","-16","experiment","3","odd","9","578006","83549","579122","581352","445585","4609","79964","NA","583367","583952","580136","7560","583366","579108","4586","NA","Sternberg Task","83","61497","95","yes","1024"
"87.5","87.5","647.4479166666666","647.4479166666666","black","experiment","legacy","legacy","legacy","0","uniform","1","undefined","1","left","95","0","95","95","95","0","0","0","95","95","95","0","95","95","0","NA","Sun Oct 25 19:04:45 2020","The main experiment item","yes","SternbergTask (1).osexp","/Users/jacobspurling/Downloads","no","mono","no","18","no","white","no","yes","768","legacy","83","11","/Users/jacobspurling/Desktop/KS-subject-3.csv","legacy","8 5 3 7 4 6","Lentiform Loewenfeld","3.3.5","6","y","0","left","left","left","left","NA","left","NA","658","386","2922","3584","NA","658","NA","2","legacy","6","1024","2","48000","-16","experiment","3","odd","6","583978","83549","585088","587320","445585","4609","79964","NA","589333","589993","586103","7560","589333","585075","4586","NA","Sternberg Task","84","62155","96","yes","1024"
"87.62886597938144","87.62886597938144","646.0412371134021","646.0412371134021","black","experiment","legacy","legacy","legacy","0","uniform","1","undefined","1","right","96","0","96","96","96","0","0","0","96","96","96","0","96","96","0","NA","Sun Oct 25 19:04:45 2020","The main experiment item","yes","SternbergTask (1).osexp","/Users/jacobspurling/Downloads","no","mono","no","18","no","white","no","yes","768","legacy","84","11","/Users/jacobspurling/Desktop/KS-subject-3.csv","legacy","6 8 4","Lentiform Loewenfeld","3.3.5","0","n","0","right","left","left","left","NA","right","NA","511","386","2922","3584","NA","511","NA","2","legacy","3","1024","2","48000","-16","experiment","3","odd","1","590018","83549","591127","593358","445585","4609","79964","NA","595371","595884","592142","7560","595371","591115","4586","NA","Sternberg Task","85","62666","97","yes","1024"
"87.75510204081633","87.75510204081633","647.8877551020408","647.8877551020408","black","experiment","legacy","legacy","legacy","0","uniform","1","undefined","1","right","97","0","97","97","97","0","0","0","97","97","97","0","97","97","0","NA","Sun Oct 25 19:04:45 2020","The main experiment item","yes","SternbergTask (1).osexp","/Users/jacobspurling/Downloads","no","mono","no","18","no","white","no","yes","768","legacy","85","11","/Users/jacobspurling/Desktop/KS-subject-3.csv","legacy","1 7 5 2","Lentiform Loewenfeld","3.3.5","0","n","0","right","left","left","left","NA","right","NA","827","386","2922","3584","NA","827","NA","2","legacy","4","1024","2","48000","-16","experiment","3","odd","3","595910","83549","597015","599249","445585","4609","79964","NA","601263","602092","598030","7560","601263","597003","4586","NA","Sternberg Task","86","63493","98","yes","1024"
"87.87878787878788","87.87878787878788","648.3838383838383","648.3838383838383","black","experiment","legacy","legacy","legacy","0","uniform","1","undefined","1","right","98","0","98","98","98","0","0","0","98","98","98","0","98","98","0","NA","Sun Oct 25 19:04:45 2020","The main experiment item","yes","SternbergTask (1).osexp","/Users/jacobspurling/Downloads","no","mono","no","18","no","white","no","yes","768","legacy","86","11","/Users/jacobspurling/Desktop/KS-subject-3.csv","legacy","5","Lentiform Loewenfeld","3.3.5","0","n","0","right","left","left","left","NA","right","NA","697","386","2922","3584","NA","697","NA","2","legacy","1","1024","2","48000","-16","experiment","3","odd","8","602118","83549","603227","605462","445585","4609","79964","NA","607476","608175","604244","7560","607475","603215","4586","NA","Sternberg Task","87","64190","99","yes","1024"
"88","88","647.28","647.28","black","experiment","legacy","legacy","legacy","0","uniform","1","undefined","1","left","99","0","99","99","99","0","0","0","99","99","99","0","99","99","0","NA","Sun Oct 25 19:04:45 2020","The main experiment item","yes","SternbergTask (1).osexp","/Users/jacobspurling/Downloads","no","mono","no","18","no","white","no","yes","768","legacy","87","11","/Users/jacobspurling/Desktop/KS-subject-3.csv","legacy","8 7 3","Lentiform Loewenfeld","3.3.5","1","y","0","left","left","left","left","NA","left","NA","538","386","2922","3584","NA","538","NA","2","legacy","3","1024","2","48000","-16","experiment","3","odd","8","608201","83549","609320","611550","445585","4609","79964","NA","613564","614104","610333","7560","613564","609303","4586","NA","Sternberg Task","88","64728","100","yes","1024"
"88.11881188118812","88.11881188118812","646.1881188118812","646.1881188118812","black","experiment","legacy","legacy","legacy","0","uniform","1","undefined","1","left","100","0","100","100","100","0","0","0","100","100","100","0","100","100","0","NA","Sun Oct 25 19:04:45 2020","The main experiment item","yes","SternbergTask (1).osexp","/Users/jacobspurling/Downloads","no","mono","no","18","no","white","no","yes","768","legacy","88","11","/Users/jacobspurling/Desktop/KS-subject-3.csv","legacy","4","Lentiform Loewenfeld","3.3.5","1","y","0","left","left","left","left","NA","left","NA","537","386","2922","3584","NA","537","NA","2","legacy","1","1024","2","48000","-16","experiment","3","odd","4","614130","83549","615240","617472","445585","4609","79964","NA","619485","620024","616254","7560","619485","615227","4586","NA","Sternberg Task","89","65265","101","yes","1024"
"88.23529411764706","88.23529411764706","644.4117647058823","644.4117647058823","black","experiment","legacy","legacy","legacy","0","uniform","1","undefined","1","right","101","0","101","101","101","0","0","0","101","101","101","0","101","101","0","NA","Sun Oct 25 19:04:45 2020","The main experiment item","yes","SternbergTask (1).osexp","/Users/jacobspurling/Downloads","no","mono","no","18","no","white","no","yes","768","legacy","89","11","/Users/jacobspurling/Desktop/KS-subject-3.csv","legacy","1 4 9 3","Lentiform Loewenfeld","3.3.5","0","n","0","right","left","left","left","NA","right","NA","465","386","2922","3584","NA","465","NA","2","legacy","4","1024","2","48000","-16","experiment","3","odd","5","620049","83549","621155","623386","445585","4609","79964","NA","625404","625872","622169","7560","625404","621143","4586","NA","Sternberg Task","90","65730","102","yes","1024"
"88.3495145631068","88.3495145631068","644.4271844660194","644.4271844660194","black","experiment","legacy","legacy","legacy","0","uniform","1","undefined","1","right","102","0","102","102","102","0","0","0","102","102","102","0","102","102","0","NA","Sun Oct 25 19:04:45 2020","The main experiment item","yes","SternbergTask (1).osexp","/Users/jacobspurling/Downloads","no","mono","no","18","no","white","no","yes","768","legacy","90","11","/Users/jacobspurling/Desktop/KS-subject-3.csv","legacy","6 9 4 5 2","Lentiform Loewenfeld","3.3.5","0","n","0","right","left","left","left","NA","right","NA","646","386","2922","3584","NA","646","NA","2","legacy","5","1024","2","48000","-16","experiment","3","odd","1","625890","83549","627000","629232","445585","4609","79964","NA","631245","631893","628015","7560","631245","626989","4586","NA","Sternberg Task","91","66376","103","yes","1024"
"88.46153846153847","88.46153846153847","642.3557692307693","642.3557692307693","black","experiment","legacy","legacy","legacy","0","uniform","1","undefined","1","left","103","0","103","103","103","0","0","0","103","103","103","0","103","103","0","NA","Sun Oct 25 19:04:45 2020","The main experiment item","yes","SternbergTask (1).osexp","/Users/jacobspurling/Downloads","no","mono","no","18","no","white","no","yes","768","legacy","91","11","/Users/jacobspurling/Desktop/KS-subject-3.csv","legacy","7 1 8 5 6 2","Lentiform Loewenfeld","3.3.5","2","y","0","left","left","left","left","NA","left","NA","429","386","2922","3584","NA","429","NA","2","legacy","6","1024","2","48000","-16","experiment","3","odd","1","631919","83549","633038","635268","445585","4609","79964","NA","637287","637718","634052","7560","637287","633026","4586","NA","Sternberg Task","92","66805","104","yes","1024"
"88.57142857142857","88.57142857142857","644.2","644.2","black","experiment","legacy","legacy","legacy","0","uniform","1","undefined","1","right","104","0","104","104","104","0","0","0","104","104","104","0","104","104","0","NA","Sun Oct 25 19:04:45 2020","The main experiment item","yes","SternbergTask (1).osexp","/Users/jacobspurling/Downloads","no","mono","no","18","no","white","no","yes","768","legacy","92","11","/Users/jacobspurling/Desktop/KS-subject-3.csv","legacy","8 4 3 9","Lentiform Loewenfeld","3.3.5","0","n","0","right","left","left","left","NA","right","NA","836","386","2922","3584","NA","836","NA","2","legacy","4","1024","2","48000","-16","experiment","3","odd","5","637742","83549","638848","641081","445585","4609","79964","NA","643099","643936","639863","7560","643099","638836","4586","NA","Sternberg Task","93","67641","105","yes","1024"
"88.67924528301887","88.67924528301887","644.8301886792453","644.8301886792453","black","experiment","legacy","legacy","legacy","0","uniform","1","undefined","1","right","105","0","105","105","105","0","0","0","105","105","105","0","105","105","0","NA","Sun Oct 25 19:04:45 2020","The main experiment item","yes","SternbergTask (1).osexp","/Users/jacobspurling/Downloads","no","mono","no","18","no","white","no","yes","768","legacy","93","11","/Users/jacobspurling/Desktop/KS-subject-3.csv","legacy","7 3 2 8","Lentiform Loewenfeld","3.3.5","0","n","0","right","left","left","left","NA","right","NA","711","386","2922","3584","NA","711","NA","2","legacy","4","1024","2","48000","-16","experiment","3","odd","4","643963","83549","645074","647306","445585","4609","79964","NA","649319","650032","646088","7560","649319","645062","4586","NA","Sternberg Task","94","68352","106","yes","1024"
"88.78504672897196","88.78504672897196","643.2990654205607","643.2990654205607","black","experiment","legacy","legacy","legacy","0","uniform","1","undefined","1","right","106","0","106","106","106","0","0","0","106","106","106","0","106","106","0","NA","Sun Oct 25 19:04:45 2020","The main experiment item","yes","SternbergTask (1).osexp","/Users/jacobspurling/Downloads","no","mono","no","18","no","white","no","yes","768","legacy","94","11","/Users/jacobspurling/Desktop/KS-subject-3.csv","legacy","6 2 9 3 8 4","Lentiform Loewenfeld","3.3.5","0","n","0","right","left","left","left","NA","right","NA","481","386","2922","3584","NA","481","NA","2","legacy","6","1024","2","48000","-16","experiment","3","odd","1","650058","83549","651173","653408","445585","4609","79964","NA","655422","655905","652188","7560","655421","651161","4586","NA","Sternberg Task","95","68833","107","yes","1024"
"88.88888888888889","88.88888888888889","642.7129629629629","642.7129629629629","black","experiment","legacy","legacy","legacy","0","uniform","1","undefined","1","left","107","0","107","107","107","0","0","0","107","107","107","0","107","107","0","NA","Sun Oct 25 19:04:45 2020","The main experiment item","yes","SternbergTask (1).osexp","/Users/jacobspurling/Downloads","no","mono","no","18","no","white","no","yes","768","legacy","95","11","/Users/jacobspurling/Desktop/KS-subject-3.csv","legacy","8 5 1 3 9","Lentiform Loewenfeld","3.3.5","4","y","0","left","left","left","left","NA","left","NA","580","386","2922","3584","NA","580","NA","2","legacy","5","1024","2","48000","-16","experiment","3","odd","3","655932","83549","657041","659273","445585","4609","79964","NA","661286","661868","658056","7560","661286","657029","4586","NA","Sternberg Task","96","69413","108","yes","1024"
"88.9908256880734","88.9908256880734","641.5688073394496","641.5688073394496","black","experiment","legacy","legacy","legacy","0","uniform","1","undefined","1","right","108","0","108","108","108","0","0","0","108","108","108","0","108","108","0","NA","Sun Oct 25 19:04:45 2020","The main experiment item","yes","SternbergTask (1).osexp","/Users/jacobspurling/Downloads","no","mono","no","18","no","white","no","yes","768","legacy","96","11","/Users/jacobspurling/Desktop/KS-subject-3.csv","legacy","8 2 1 4 5 9","Lentiform Loewenfeld","3.3.5","0","n","0","right","left","left","left","NA","right","NA","518","386","2922","3584","NA","518","NA","2","legacy","6","1024","2","48000","-16","experiment","3","odd","7","661895","83549","663012","665245","445585","4609","79964","NA","667259","667779","664026","7560","667259","663000","4586","NA","Sternberg Task","97","69931","109","yes","1024"
"89.0909090909091","89.0909090909091","644.7545454545455","644.7545454545455","black","experiment","legacy","legacy","legacy","0","uniform","1","undefined","1","right","109","0","109","109","109","0","0","0","109","109","109","0","109","109","0","NA","Sun Oct 25 19:04:45 2020","The main experiment item","yes","SternbergTask (1).osexp","/Users/jacobspurling/Downloads","no","mono","no","18","no","white","no","yes","768","legacy","97","11","/Users/jacobspurling/Desktop/KS-subject-3.csv","legacy","6 9 4 5 3 2","Lentiform Loewenfeld","3.3.5","0","n","0","right","left","left","left","NA","right","NA","992","386","2922","3584","NA","992","NA","2","legacy","6","1024","2","48000","-16","experiment","3","odd","8","667806","83549","668924","671155","445585","4609","79964","NA","673169","674163","669938","7560","673168","668908","4586","NA","Sternberg Task","98","70923","110","yes","1024"
"89.1891891891892","89.1891891891892","645.6666666666666","645.6666666666666","black","experiment","legacy","legacy","legacy","0","uniform","1","undefined","1","right","110","0","110","110","110","0","0","0","110","110","110","0","110","110","0","NA","Sun Oct 25 19:04:45 2020","The main experiment item","yes","SternbergTask (1).osexp","/Users/jacobspurling/Downloads","no","mono","no","18","no","white","no","yes","768","legacy","98","11","/Users/jacobspurling/Desktop/KS-subject-3.csv","legacy","1 4 9 2 5","Lentiform Loewenfeld","3.3.5","0","n","0","right","left","left","left","NA","right","NA","746","386","2922","3584","NA","746","NA","2","legacy","5","1024","2","48000","-16","experiment","3","odd","7","674191","83549","675305","677538","445585","4609","79964","NA","679551","680299","676320","7560","679551","675293","4586","NA","Sternberg Task","99","71669","111","yes","1024"
"89.28571428571429","89.28571428571429","649.9553571428571","649.9553571428571","black","experiment","legacy","legacy","legacy","0","uniform","1","undefined","1","right","111","0","111","111","111","0","0","0","111","111","111","0","111","111","0","NA","Sun Oct 25 19:04:45 2020","The main experiment item","yes","SternbergTask (1).osexp","/Users/jacobspurling/Downloads","no","mono","no","18","no","white","no","yes","768","legacy","99","11","/Users/jacobspurling/Desktop/KS-subject-3.csv","legacy","2 6 4 3 9","Lentiform Loewenfeld","3.3.5","0","n","0","right","left","left","left","NA","right","NA","1126","386","2922","3584","NA","1126","NA","2","legacy","5","1024","2","48000","-16","experiment","3","odd","1","680324","83549","681435","683672","445585","4609","79964","NA","685685","686813","682452","7560","685685","681422","4586","NA","Sternberg Task","100","72795","112","yes","1024"
"89.38053097345133","89.38053097345133","648.5840707964602","648.5840707964602","black","experiment","legacy","legacy","legacy","0","uniform","1","undefined","1","left","112","0","112","112","112","0","0","0","112","112","112","0","112","112","0","NA","Sun Oct 25 19:04:45 2020","The main experiment item","yes","SternbergTask (1).osexp","/Users/jacobspurling/Downloads","no","mono","no","18","no","white","no","yes","768","legacy","100","11","/Users/jacobspurling/Desktop/KS-subject-3.csv","legacy","9 8 4","Lentiform Loewenfeld","3.3.5","1","y","0","left","left","left","left","NA","left","NA","495","386","2922","3584","NA","495","NA","2","legacy","3","1024","2","48000","-16","experiment","3","odd","9","686835","83549","687954","690184","445585","4609","79964","NA","692200","692698","688968","7560","692200","687939","4586","NA","Sternberg Task","101","73290","113","yes","1024"
