"acc","accuracy","average_response_time","avg_rt","background","block","canvas_backend","clock_backend","color_backend","compensation","coordinates","correct","correct_instructions1","correct_keyboard_response","correct_response","count_ISI","count_IncorrectFeedback","count_PracticeLoop","count_correctFeedback","count_expSequence","count_experiment","count_experimentloop","count_fixation","count_instructions1","count_instructions2","count_keyboard_response","count_logger","count_memorySet","count_probe","count_thankyou","datetime","description","disable_garbage_collection","experiment_file","experiment_path","font_bold","font_family","font_italic","font_size","font_underline","foreground","form_clicks","fullscreen","height","keyboard_backend","live_row","live_row_PracticeLoop","logfile","mouse_backend","numberSet","opensesame_codename","opensesame_version","posInSet","present","psychopy_waitblanking","repeat_cycle","response","response_instructions1","response_instructions2","response_keyboard_response","response_thankyou","response_time","response_time_instructions1","response_time_instructions2","response_time_keyboard_response","response_time_thankyou","round_decimals","sampler_backend","setSize","sound_buf_size","sound_channels","sound_freq","sound_sample_size","start","subject_nr","subject_parity","target","time_ISI","time_IncorrectFeedback","time_PracticeLoop","time_correctFeedback","time_expSequence","time_experiment","time_experimentloop","time_fixation","time_instructions1","time_instructions2","time_keyboard_response","time_logger","time_memorySet","time_probe","time_thankyou","title","total_correct","total_response_time","total_responses","uniform_coordinates","width"
"100","100","751","751","black","practice","legacy","legacy","legacy","0","uniform","1","undefined","1","left","0","0","0","0","0","0","0","0","0","0","0","0","0","0","0","Mon Oct 12 13:18:14 2020","The main experiment item","yes","SternbergTask.osexp","C:\Users\Owner","no","mono","no","18","no","white","no","yes","768","legacy","0","0","C:/Users/Owner/KTPsubject-3.csv","legacy","4 3 1 7 9 8","Lentiform Loewenfeld","3.3.3","1","y","yes","0","left","left","NA","left","NA","751","51846","NA","751","NA","2","legacy","6","1024","2","48000","-16","experiment","3","odd","4","58775","NA","55383","NA","56565","3533","NA","56567","3536","NA","60776","61528","57571","60776","NA","Sternberg Task ","1","751","1","yes","1024"
"100","100","1081","1081","black","practice","legacy","legacy","legacy","0","uniform","1","undefined","1","right","1","1","0","1","1","0","0","1","0","0","1","1","1","1","0","Mon Oct 12 13:18:14 2020","The main experiment item","yes","SternbergTask.osexp","C:\Users\Owner","no","mono","no","18","no","white","no","yes","768","legacy","1","1","C:/Users/Owner/KTPsubject-3.csv","legacy","3 1 9 4","Lentiform Loewenfeld","3.3.3","0","n","yes","0","right","left","NA","right","NA","1411","51846","NA","1411","NA","2","legacy","4","1024","2","48000","-16","experiment","3","odd","6","64883","NA","55383","61561","62674","3533","NA","62675","3536","NA","66888","68300","63679","66887","NA","Sternberg Task ","2","2162","2","yes","1024"
"100","100","1024.6666666666667","1024.6666666666667","black","practice","legacy","legacy","legacy","0","uniform","1","undefined","1","right","2","2","0","2","2","0","0","2","0","0","2","2","2","2","0","Mon Oct 12 13:18:14 2020","The main experiment item","yes","SternbergTask.osexp","C:\Users\Owner","no","mono","no","18","no","white","no","yes","768","legacy","2","2","C:/Users/Owner/KTPsubject-3.csv","legacy","4 1 5","Lentiform Loewenfeld","3.3.3","0","n","yes","0","right","left","NA","right","NA","912","51846","NA","912","NA","2","legacy","3","1024","2","48000","-16","experiment","3","odd","2","71618","NA","55383","68303","69410","3533","NA","69412","3536","NA","73623","74536","70416","73622","NA","Sternberg Task ","3","3074","3","yes","1024"
"100","100","1029.75","1029.75","black","practice","legacy","legacy","legacy","0","uniform","1","undefined","1","left","3","3","0","3","3","0","0","3","0","0","3","3","3","3","0","Mon Oct 12 13:18:14 2020","The main experiment item","yes","SternbergTask.osexp","C:\Users\Owner","no","mono","no","18","no","white","no","yes","768","legacy","3","3","C:/Users/Owner/KTPsubject-3.csv","legacy","2 9 4","Lentiform Loewenfeld","3.3.3","3","y","yes","0","left","left","NA","left","NA","1045","51846","NA","1045","NA","2","legacy","3","1024","2","48000","-16","experiment","3","odd","4","77850","NA","55383","74539","75641","3533","NA","75642","3536","NA","79856","80902","76646","79854","NA","Sternberg Task ","4","4119","4","yes","1024"
"80","80","981.8","981.8","black","practice","legacy","legacy","legacy","0","uniform","0","undefined","0","left","4","4","0","4","4","0","0","4","0","0","4","4","4","4","0","Mon Oct 12 13:18:14 2020","The main experiment item","yes","SternbergTask.osexp","C:\Users\Owner","no","mono","no","18","no","white","no","yes","768","legacy","4","4","C:/Users/Owner/KTPsubject-3.csv","legacy","1 5 2 9","Lentiform Loewenfeld","3.3.3","2","y","yes","0","right","left","NA","right","NA","790","51846","NA","790","NA","2","legacy","4","1024","2","48000","-16","experiment","3","odd","5","84224","NA","55383","80905","82016","3533","NA","82017","3536","NA","86229","87019","83021","86228","NA","Sternberg Task ","4","4909","5","yes","1024"
"66.66666666666667","66.66666666666667","945.5","945.5","black","practice","legacy","legacy","legacy","0","uniform","0","undefined","0","left","5","5","0","5","5","0","0","5","0","0","5","5","5","5","0","Mon Oct 12 13:18:14 2020","The main experiment item","yes","SternbergTask.osexp","C:\Users\Owner","no","mono","no","18","no","white","no","yes","768","legacy","5","5","C:/Users/Owner/KTPsubject-3.csv","legacy","6","Lentiform Loewenfeld","3.3.3","1","y","yes","0","right","left","NA","right","NA","764","51846","NA","764","NA","2","legacy","1","1024","2","48000","-16","experiment","3","odd","6","90337","87022","55383","80905","88128","3533","NA","88129","3536","NA","92342","93107","89133","92341","NA","Sternberg Task ","4","5673","6","yes","1024"
"57.142857142857146","57.142857142857146","926.2857142857143","926.2857142857143","black","practice","legacy","legacy","legacy","0","uniform","0","undefined","0","right","6","6","0","6","6","0","0","6","0","0","6","6","6","6","0","Mon Oct 12 13:18:14 2020","The main experiment item","yes","SternbergTask.osexp","C:\Users\Owner","no","mono","no","18","no","white","no","yes","768","legacy","6","6","C:/Users/Owner/KTPsubject-3.csv","legacy","5","Lentiform Loewenfeld","3.3.3","0","n","yes","0","left","left","NA","left","NA","811","51846","NA","811","NA","2","legacy","1","1024","2","48000","-16","experiment","3","odd","3","96421","93110","55383","80905","94214","3533","NA","94215","3536","NA","98426","99237","95219","98425","NA","Sternberg Task ","4","6484","7","yes","1024"
"50","50","884","884","black","practice","legacy","legacy","legacy","0","uniform","0","undefined","0","left","7","7","0","7","7","0","0","7","0","0","7","7","7","7","0","Mon Oct 12 13:18:14 2020","The main experiment item","yes","SternbergTask.osexp","C:\Users\Owner","no","mono","no","18","no","white","no","yes","768","legacy","7","7","C:/Users/Owner/KTPsubject-3.csv","legacy","1 7 9 8 5","Lentiform Loewenfeld","3.3.3","4","y","yes","0","right","left","NA","right","NA","588","51846","NA","588","NA","2","legacy","5","1024","2","48000","-16","experiment","3","odd","8","102549","99241","55383","80905","100340","3533","NA","100342","3536","NA","104550","105140","101346","104550","NA","Sternberg Task ","4","7072","8","yes","1024"
"55.55555555555556","55.55555555555556","864.8888888888889","864.8888888888889","black","practice","legacy","legacy","legacy","0","uniform","1","undefined","1","left","8","8","0","8","8","0","0","8","0","0","8","8","8","8","0","Mon Oct 12 13:18:14 2020","The main experiment item","yes","SternbergTask.osexp","C:\Users\Owner","no","mono","no","18","no","white","no","yes","768","legacy","8","8","C:/Users/Owner/KTPsubject-3.csv","legacy","4 8","Lentiform Loewenfeld","3.3.3","1","y","yes","0","left","left","NA","left","NA","712","51846","NA","712","NA","2","legacy","2","1024","2","48000","-16","experiment","3","odd","4","108460","105143","55383","80905","106250","3533","NA","106252","3536","NA","110465","111177","107256","110464","NA","Sternberg Task ","5","7784","9","yes","1024"
"50","50","842.1","842.1","black","practice","legacy","legacy","legacy","0","uniform","0","undefined","0","right","9","9","0","9","9","0","0","9","0","0","9","9","9","9","0","Mon Oct 12 13:18:14 2020","The main experiment item","yes","SternbergTask.osexp","C:\Users\Owner","no","mono","no","18","no","white","no","yes","768","legacy","9","9","C:/Users/Owner/KTPsubject-3.csv","legacy","9 6 7 4 5","Lentiform Loewenfeld","3.3.3","0","n","yes","0","left","left","NA","left","NA","637","51846","NA","637","NA","2","legacy","5","1024","2","48000","-16","experiment","3","odd","3","114498","105143","55383","111181","112289","3533","NA","112290","3536","NA","116503","117141","113294","116502","NA","Sternberg Task ","5","8421","10","yes","1024"
"54.54545454545455","54.54545454545455","841.0909090909091","841.0909090909091","black","practice","legacy","legacy","legacy","0","uniform","1","undefined","1","right","10","10","0","10","10","0","0","10","0","0","10","10","10","10","0","Mon Oct 12 13:18:14 2020","The main experiment item","yes","SternbergTask.osexp","C:\Users\Owner","no","mono","no","18","no","white","no","yes","768","legacy","10","10","C:/Users/Owner/KTPsubject-3.csv","legacy","5 7 8 4 1 2","Lentiform Loewenfeld","3.3.3","0","n","yes","0","right","left","NA","right","NA","831","51846","NA","831","NA","2","legacy","6","1024","2","48000","-16","experiment","3","odd","6","120418","117145","55383","111181","118208","3533","NA","118210","3536","NA","122422","123254","119214","122422","NA","Sternberg Task ","6","9252","11","yes","1024"
"58.333333333333336","58.333333333333336","830.5833333333334","830.5833333333334","black","practice","legacy","legacy","legacy","0","uniform","1","undefined","1","right","11","11","0","11","11","0","0","11","0","0","11","11","11","11","0","Mon Oct 12 13:18:14 2020","The main experiment item","yes","SternbergTask.osexp","C:\Users\Owner","no","mono","no","18","no","white","no","yes","768","legacy","11","11","C:/Users/Owner/KTPsubject-3.csv","legacy","2 1","Lentiform Loewenfeld","3.3.3","0","n","yes","0","right","left","NA","right","NA","715","51846","NA","715","NA","2","legacy","2","1024","2","48000","-16","experiment","3","odd","5","126569","117145","55383","123257","124361","3533","NA","124362","3536","NA","128570","129286","125366","128570","NA","Sternberg Task ","7","9967","12","yes","1024"
"61.53846153846154","61.53846153846154","840.2307692307693","840.2307692307693","black","experiment","legacy","legacy","legacy","0","uniform","1","undefined","1","right","12","12","0","12","12","0","0","12","0","0","12","12","12","12","0","Mon Oct 12 13:18:14 2020","The main experiment item","yes","SternbergTask.osexp","C:\Users\Owner","no","mono","no","18","no","white","no","yes","768","legacy","0","11","C:/Users/Owner/KTPsubject-3.csv","legacy","7 4 2 8 1 9","Lentiform Loewenfeld","3.3.3","0","n","yes","0","right","left","right","right","NA","956","51846","6648","956","NA","2","legacy","6","1024","2","48000","-16","experiment","3","odd","5","139259","117145","55383","129290","137053","3533","136988","137054","3536","130339","141264","142221","138058","141263","NA","Sternberg Task ","8","10923","13","yes","1024"
"64.28571428571429","64.28571428571429","849.3571428571429","849.3571428571429","black","experiment","legacy","legacy","legacy","0","uniform","1","undefined","1","right","13","13","0","13","13","0","0","13","0","0","13","13","13","13","0","Mon Oct 12 13:18:14 2020","The main experiment item","yes","SternbergTask.osexp","C:\Users\Owner","no","mono","no","18","no","white","no","yes","768","legacy","1","11","C:/Users/Owner/KTPsubject-3.csv","legacy","7 6 4 8 1 2","Lentiform Loewenfeld","3.3.3","0","n","yes","0","right","left","right","right","NA","968","51846","6648","968","NA","2","legacy","6","1024","2","48000","-16","experiment","3","odd","9","145539","117145","55383","142224","143330","3533","136988","143331","3536","130339","147544","148512","144335","147543","NA","Sternberg Task ","9","11891","14","yes","1024"
"66.66666666666667","66.66666666666667","879.1333333333333","879.1333333333333","black","experiment","legacy","legacy","legacy","0","uniform","1","undefined","1","left","14","14","0","14","14","0","0","14","0","0","14","14","14","14","0","Mon Oct 12 13:18:14 2020","The main experiment item","yes","SternbergTask.osexp","C:\Users\Owner","no","mono","no","18","no","white","no","yes","768","legacy","2","11","C:/Users/Owner/KTPsubject-3.csv","legacy","7 6","Lentiform Loewenfeld","3.3.3","2","y","yes","0","left","left","right","left","NA","1296","51846","6648","1296","NA","2","legacy","2","1024","2","48000","-16","experiment","3","odd","6","151835","117145","55383","148516","149629","3533","136988","149630","3536","130339","153840","155137","150631","153839","NA","Sternberg Task ","10","13187","15","yes","1024"
"68.75","68.75","886.1875","886.1875","black","experiment","legacy","legacy","legacy","0","uniform","1","undefined","1","left","15","15","0","15","15","0","0","15","0","0","15","15","15","15","0","Mon Oct 12 13:18:14 2020","The main experiment item","yes","SternbergTask.osexp","C:\Users\Owner","no","mono","no","18","no","white","no","yes","768","legacy","3","11","C:/Users/Owner/KTPsubject-3.csv","legacy","3 2 1 4 7","Lentiform Loewenfeld","3.3.3","2","y","yes","0","left","left","right","left","NA","992","51846","6648","992","NA","2","legacy","5","1024","2","48000","-16","experiment","3","odd","2","158454","117145","55383","155140","156245","3533","136988","156246","3536","130339","160458","161451","157250","160458","NA","Sternberg Task ","11","14179","16","yes","1024"
"70.58823529411765","70.58823529411765","878.2352941176471","878.2352941176471","black","experiment","legacy","legacy","legacy","0","uniform","1","undefined","1","left","16","16","0","16","16","0","0","16","0","0","16","16","16","16","0","Mon Oct 12 13:18:14 2020","The main experiment item","yes","SternbergTask.osexp","C:\Users\Owner","no","mono","no","18","no","white","no","yes","768","legacy","4","11","C:/Users/Owner/KTPsubject-3.csv","legacy","9 1 6 7 8","Lentiform Loewenfeld","3.3.3","1","y","yes","0","left","left","right","left","NA","751","51846","6648","751","NA","2","legacy","5","1024","2","48000","-16","experiment","3","odd","9","164783","117145","55383","161454","162576","3533","136988","162578","3536","130339","166787","167539","163582","166787","NA","Sternberg Task ","12","14930","17","yes","1024"
"72.22222222222223","72.22222222222223","869.3333333333334","869.3333333333334","black","experiment","legacy","legacy","legacy","0","uniform","1","undefined","1","right","17","17","0","17","17","0","0","17","0","0","17","17","17","17","0","Mon Oct 12 13:18:14 2020","The main experiment item","yes","SternbergTask.osexp","C:\Users\Owner","no","mono","no","18","no","white","no","yes","768","legacy","5","11","C:/Users/Owner/KTPsubject-3.csv","legacy","1 4 9 3","Lentiform Loewenfeld","3.3.3","0","n","yes","0","right","left","right","right","NA","718","51846","6648","718","NA","2","legacy","4","1024","2","48000","-16","experiment","3","odd","5","170881","117145","55383","167542","168675","3533","136988","168676","3536","130339","172885","173605","169680","172885","NA","Sternberg Task ","13","15648","18","yes","1024"
"73.6842105263158","73.6842105263158","851.1052631578947","851.1052631578947","black","experiment","legacy","legacy","legacy","0","uniform","1","undefined","1","left","18","18","0","18","18","0","0","18","0","0","18","18","18","18","0","Mon Oct 12 13:18:14 2020","The main experiment item","yes","SternbergTask.osexp","C:\Users\Owner","no","mono","no","18","no","white","no","yes","768","legacy","6","11","C:/Users/Owner/KTPsubject-3.csv","legacy","4 6 5 8","Lentiform Loewenfeld","3.3.3","1","y","yes","0","left","left","right","left","NA","523","51846","6648","523","NA","2","legacy","4","1024","2","48000","-16","experiment","3","odd","4","176880","117145","55383","173608","174673","3533","136988","174675","3536","130339","178881","179405","175676","178881","NA","Sternberg Task ","14","16171","19","yes","1024"
"75","75","831.1","831.1","black","experiment","legacy","legacy","legacy","0","uniform","1","undefined","1","right","19","19","0","19","19","0","0","19","0","0","19","19","19","19","0","Mon Oct 12 13:18:14 2020","The main experiment item","yes","SternbergTask.osexp","C:\Users\Owner","no","mono","no","18","no","white","no","yes","768","legacy","7","11","C:/Users/Owner/KTPsubject-3.csv","legacy","1 6 4","Lentiform Loewenfeld","3.3.3","0","n","yes","0","right","left","right","right","NA","451","51846","6648","451","NA","2","legacy","3","1024","2","48000","-16","experiment","3","odd","7","182730","117145","55383","179409","180523","3533","136988","180525","3536","130339","184731","185184","181529","184731","NA","Sternberg Task ","15","16622","20","yes","1024"
"76.19047619047619","76.19047619047619","831.8571428571429","831.8571428571429","black","experiment","legacy","legacy","legacy","0","uniform","1","undefined","1","right","20","20","0","20","20","0","0","20","0","0","20","20","20","20","0","Mon Oct 12 13:18:14 2020","The main experiment item","yes","SternbergTask.osexp","C:\Users\Owner","no","mono","no","18","no","white","no","yes","768","legacy","8","11","C:/Users/Owner/KTPsubject-3.csv","legacy","7 9 1 6","Lentiform Loewenfeld","3.3.3","0","n","yes","0","right","left","right","right","NA","847","51846","6648","847","NA","2","legacy","4","1024","2","48000","-16","experiment","3","odd","4","188511","117145","55383","185187","186304","3533","136988","186305","3536","130339","190515","191363","187310","190515","NA","Sternberg Task ","16","17469","21","yes","1024"
"77.27272727272727","77.27272727272727","826.4545454545455","826.4545454545455","black","experiment","legacy","legacy","legacy","0","uniform","1","undefined","1","right","21","21","0","21","21","0","0","21","0","0","21","21","21","21","0","Mon Oct 12 13:18:14 2020","The main experiment item","yes","SternbergTask.osexp","C:\Users\Owner","no","mono","no","18","no","white","no","yes","768","legacy","9","11","C:/Users/Owner/KTPsubject-3.csv","legacy","8 4 3 5","Lentiform Loewenfeld","3.3.3","0","n","yes","0","right","left","right","right","NA","713","51846","6648","713","NA","2","legacy","4","1024","2","48000","-16","experiment","3","odd","6","194680","117145","55383","191366","192470","3533","136988","192472","3536","130339","196684","197398","193476","196684","NA","Sternberg Task ","17","18182","22","yes","1024"
"78.26086956521739","78.26086956521739","836","836","black","experiment","legacy","legacy","legacy","0","uniform","1","undefined","1","left","22","22","0","22","22","0","0","22","0","0","22","22","22","22","0","Mon Oct 12 13:18:14 2020","The main experiment item","yes","SternbergTask.osexp","C:\Users\Owner","no","mono","no","18","no","white","no","yes","768","legacy","10","11","C:/Users/Owner/KTPsubject-3.csv","legacy","5 2 9 6 1 7","Lentiform Loewenfeld","3.3.3","3","y","yes","0","left","left","right","left","NA","1046","51846","6648","1046","NA","2","legacy","6","1024","2","48000","-16","experiment","3","odd","9","200715","117145","55383","197401","198506","3533","136988","198507","3536","130339","202720","203767","199511","202719","NA","Sternberg Task ","18","19228","23","yes","1024"
"79.16666666666667","79.16666666666667","834.25","834.25","black","experiment","legacy","legacy","legacy","0","uniform","1","undefined","1","left","23","23","0","23","23","0","0","23","0","0","23","23","23","23","0","Mon Oct 12 13:18:14 2020","The main experiment item","yes","SternbergTask.osexp","C:\Users\Owner","no","mono","no","18","no","white","no","yes","768","legacy","11","11","C:/Users/Owner/KTPsubject-3.csv","legacy","2 6 1 7 4","Lentiform Loewenfeld","3.3.3","2","y","yes","0","left","left","right","left","NA","794","51846","6648","794","NA","2","legacy","5","1024","2","48000","-16","experiment","3","odd","6","207041","117145","55383","203770","204832","3533","136988","204833","3536","130339","209045","209840","205837","209045","NA","Sternberg Task ","19","20022","24","yes","1024"
"80","80","858.16","858.16","black","experiment","legacy","legacy","legacy","0","uniform","1","undefined","1","right","24","24","0","24","24","0","0","24","0","0","24","24","24","24","0","Mon Oct 12 13:18:14 2020","The main experiment item","yes","SternbergTask.osexp","C:\Users\Owner","no","mono","no","18","no","white","no","yes","768","legacy","12","11","C:/Users/Owner/KTPsubject-3.csv","legacy","9 8 2 7 4","Lentiform Loewenfeld","3.3.3","0","n","yes","0","right","left","right","right","NA","1432","51846","6648","1432","NA","2","legacy","5","1024","2","48000","-16","experiment","3","odd","5","213170","117145","55383","209843","210961","3533","136988","210962","3536","130339","215174","216606","211966","215173","NA","Sternberg Task ","20","21454","25","yes","1024"
"80.76923076923077","80.76923076923077","856.8846153846154","856.8846153846154","black","experiment","legacy","legacy","legacy","0","uniform","1","undefined","1","right","25","25","0","25","25","0","0","25","0","0","25","25","25","25","0","Mon Oct 12 13:18:14 2020","The main experiment item","yes","SternbergTask.osexp","C:\Users\Owner","no","mono","no","18","no","white","no","yes","768","legacy","13","11","C:/Users/Owner/KTPsubject-3.csv","legacy","3 9 1","Lentiform Loewenfeld","3.3.3","0","n","yes","0","right","left","right","right","NA","825","51846","6648","825","NA","2","legacy","3","1024","2","48000","-16","experiment","3","odd","7","219926","117145","55383","216610","217717","3533","136988","217718","3536","130339","221927","222753","218722","221927","NA","Sternberg Task ","21","22279","26","yes","1024"
"81.48148148148148","81.48148148148148","852.8518518518518","852.8518518518518","black","experiment","legacy","legacy","legacy","0","uniform","1","undefined","1","right","26","26","0","26","26","0","0","26","0","0","26","26","26","26","0","Mon Oct 12 13:18:14 2020","The main experiment item","yes","SternbergTask.osexp","C:\Users\Owner","no","mono","no","18","no","white","no","yes","768","legacy","14","11","C:/Users/Owner/KTPsubject-3.csv","legacy","8 9","Lentiform Loewenfeld","3.3.3","0","n","yes","0","right","left","right","right","NA","748","51846","6648","748","NA","2","legacy","2","1024","2","48000","-16","experiment","3","odd","5","226069","117145","55383","222756","223863","3533","136988","223864","3536","130339","228074","228824","224865","228073","NA","Sternberg Task ","22","23027","27","yes","1024"
"82.14285714285714","82.14285714285714","853.5357142857143","853.5357142857143","black","experiment","legacy","legacy","legacy","0","uniform","1","undefined","1","right","27","27","0","27","27","0","0","27","0","0","27","27","27","27","0","Mon Oct 12 13:18:14 2020","The main experiment item","yes","SternbergTask.osexp","C:\Users\Owner","no","mono","no","18","no","white","no","yes","768","legacy","15","11","C:/Users/Owner/KTPsubject-3.csv","legacy","8 5 7 3 6","Lentiform Loewenfeld","3.3.3","0","n","yes","0","right","left","right","right","NA","872","51846","6648","872","NA","2","legacy","5","1024","2","48000","-16","experiment","3","odd","9","232144","117145","55383","228827","229934","3533","136988","229936","3536","130339","234148","235021","230940","234147","NA","Sternberg Task ","23","23899","28","yes","1024"
"82.75862068965517","82.75862068965517","848.2758620689655","848.2758620689655","black","experiment","legacy","legacy","legacy","0","uniform","1","undefined","1","right","28","28","0","28","28","0","0","28","0","0","28","28","28","28","0","Mon Oct 12 13:18:14 2020","The main experiment item","yes","SternbergTask.osexp","C:\Users\Owner","no","mono","no","18","no","white","no","yes","768","legacy","16","11","C:/Users/Owner/KTPsubject-3.csv","legacy","2 8 9 4 1","Lentiform Loewenfeld","3.3.3","0","n","yes","0","right","left","right","right","NA","701","51846","6648","701","NA","2","legacy","5","1024","2","48000","-16","experiment","3","odd","5","238343","117145","55383","235025","236137","3533","136988","236138","3536","130339","240347","241049","237139","240347","NA","Sternberg Task ","24","24600","29","yes","1024"
"83.33333333333333","83.33333333333333","839.6666666666666","839.6666666666666","black","experiment","legacy","legacy","legacy","0","uniform","1","undefined","1","right","29","29","0","29","29","0","0","29","0","0","29","29","29","29","0","Mon Oct 12 13:18:14 2020","The main experiment item","yes","SternbergTask.osexp","C:\Users\Owner","no","mono","no","18","no","white","no","yes","768","legacy","17","11","C:/Users/Owner/KTPsubject-3.csv","legacy","6 3 1 7 9 8","Lentiform Loewenfeld","3.3.3","0","n","yes","0","right","left","right","right","NA","590","51846","6648","590","NA","2","legacy","6","1024","2","48000","-16","experiment","3","odd","4","244370","117145","55383","241053","242161","3533","136988","242162","3536","130339","246374","246965","243166","246373","NA","Sternberg Task ","25","25190","30","yes","1024"
"83.87096774193549","83.87096774193549","838.6451612903226","838.6451612903226","black","experiment","legacy","legacy","legacy","0","uniform","1","undefined","1","left","30","30","0","30","30","0","0","30","0","0","30","30","30","30","0","Mon Oct 12 13:18:14 2020","The main experiment item","yes","SternbergTask.osexp","C:\Users\Owner","no","mono","no","18","no","white","no","yes","768","legacy","18","11","C:/Users/Owner/KTPsubject-3.csv","legacy","6 9 7 4 5 1","Lentiform Loewenfeld","3.3.3","2","y","yes","0","left","left","right","left","NA","808","51846","6648","808","NA","2","legacy","6","1024","2","48000","-16","experiment","3","odd","9","250280","117145","55383","246968","248071","3533","136988","248072","3536","130339","252284","253093","249076","252284","NA","Sternberg Task ","26","25998","31","yes","1024"
"84.375","84.375","829.9375","829.9375","black","experiment","legacy","legacy","legacy","0","uniform","1","undefined","1","left","31","31","0","31","31","0","0","31","0","0","31","31","31","31","0","Mon Oct 12 13:18:14 2020","The main experiment item","yes","SternbergTask.osexp","C:\Users\Owner","no","mono","no","18","no","white","no","yes","768","legacy","19","11","C:/Users/Owner/KTPsubject-3.csv","legacy","3 5 4 7","Lentiform Loewenfeld","3.3.3","1","y","yes","0","left","left","right","left","NA","560","51846","6648","560","NA","2","legacy","4","1024","2","48000","-16","experiment","3","odd","3","256419","117145","55383","253097","254210","3533","136988","254211","3536","130339","258423","258983","255215","258423","NA","Sternberg Task ","27","26558","32","yes","1024"
"84.84848484848484","84.84848484848484","824.8181818181819","824.8181818181819","black","experiment","legacy","legacy","legacy","0","uniform","1","undefined","1","right","32","32","0","32","32","0","0","32","0","0","32","32","32","32","0","Mon Oct 12 13:18:14 2020","The main experiment item","yes","SternbergTask.osexp","C:\Users\Owner","no","mono","no","18","no","white","no","yes","768","legacy","20","11","C:/Users/Owner/KTPsubject-3.csv","legacy","4 8 1 2","Lentiform Loewenfeld","3.3.3","0","n","yes","0","right","left","right","right","NA","661","51846","6648","661","NA","2","legacy","4","1024","2","48000","-16","experiment","3","odd","7","262302","117145","55383","258987","260092","3533","136988","260094","3536","130339","264306","264968","261098","264306","NA","Sternberg Task ","28","27219","33","yes","1024"
"85.29411764705883","85.29411764705883","833.5294117647059","833.5294117647059","black","experiment","legacy","legacy","legacy","0","uniform","1","undefined","1","left","33","33","0","33","33","0","0","33","0","0","33","33","33","33","0","Mon Oct 12 13:18:14 2020","The main experiment item","yes","SternbergTask.osexp","C:\Users\Owner","no","mono","no","18","no","white","no","yes","768","legacy","21","11","C:/Users/Owner/KTPsubject-3.csv","legacy","8 9 6 1","Lentiform Loewenfeld","3.3.3","2","y","yes","0","left","left","right","left","NA","1121","51846","6648","1121","NA","2","legacy","4","1024","2","48000","-16","experiment","3","odd","9","268296","117145","55383","264972","266087","3533","136988","266088","3536","130339","270300","271422","267092","270300","NA","Sternberg Task ","29","28340","34","yes","1024"
"85.71428571428571","85.71428571428571","831.4","831.4","black","experiment","legacy","legacy","legacy","0","uniform","1","undefined","1","right","34","34","0","34","34","0","0","34","0","0","34","34","34","34","0","Mon Oct 12 13:18:14 2020","The main experiment item","yes","SternbergTask.osexp","C:\Users\Owner","no","mono","no","18","no","white","no","yes","768","legacy","22","11","C:/Users/Owner/KTPsubject-3.csv","legacy","3 4 9 6 7 8","Lentiform Loewenfeld","3.3.3","0","n","yes","0","right","left","right","right","NA","759","51846","6648","759","NA","2","legacy","6","1024","2","48000","-16","experiment","3","odd","2","274742","117145","55383","271427","272533","3533","136988","272534","3536","130339","276746","277506","273538","276746","NA","Sternberg Task ","30","29099","35","yes","1024"
"86.11111111111111","86.11111111111111","831.5","831.5","black","experiment","legacy","legacy","legacy","0","uniform","1","undefined","1","right","35","35","0","35","35","0","0","35","0","0","35","35","35","35","0","Mon Oct 12 13:18:14 2020","The main experiment item","yes","SternbergTask.osexp","C:\Users\Owner","no","mono","no","18","no","white","no","yes","768","legacy","23","11","C:/Users/Owner/KTPsubject-3.csv","legacy","6 2 9 3 8 4","Lentiform Loewenfeld","3.3.3","0","n","yes","0","right","left","right","right","NA","835","51846","6648","835","NA","2","legacy","6","1024","2","48000","-16","experiment","3","odd","1","280787","117145","55383","277510","278580","3533","136988","278582","3536","130339","282788","283624","279586","282788","NA","Sternberg Task ","31","29934","36","yes","1024"
"86.48648648648648","86.48648648648648","833.918918918919","833.918918918919","black","experiment","legacy","legacy","legacy","0","uniform","1","undefined","1","left","36","36","0","36","36","0","0","36","0","0","36","36","36","36","0","Mon Oct 12 13:18:14 2020","The main experiment item","yes","SternbergTask.osexp","C:\Users\Owner","no","mono","no","18","no","white","no","yes","768","legacy","24","11","C:/Users/Owner/KTPsubject-3.csv","legacy","8 1 6","Lentiform Loewenfeld","3.3.3","3","y","yes","0","left","left","right","left","NA","921","51846","6648","921","NA","2","legacy","3","1024","2","48000","-16","experiment","3","odd","6","286947","117145","55383","283628","284737","3533","136988","284739","3536","130339","288952","289874","285743","288951","NA","Sternberg Task ","32","30855","37","yes","1024"
"86.84210526315789","86.84210526315789","831","831","black","experiment","legacy","legacy","legacy","0","uniform","1","undefined","1","right","37","37","0","37","37","0","0","37","0","0","37","37","37","37","0","Mon Oct 12 13:18:14 2020","The main experiment item","yes","SternbergTask.osexp","C:\Users\Owner","no","mono","no","18","no","white","no","yes","768","legacy","25","11","C:/Users/Owner/KTPsubject-3.csv","legacy","2 8 9","Lentiform Loewenfeld","3.3.3","0","n","yes","0","right","left","right","right","NA","723","51846","6648","723","NA","2","legacy","3","1024","2","48000","-16","experiment","3","odd","6","293196","117145","55383","289876","290987","3533","136988","290988","3536","130339","295200","295924","291992","295200","NA","Sternberg Task ","33","31578","38","yes","1024"
"87.17948717948718","87.17948717948718","828.9487179487179","828.9487179487179","black","experiment","legacy","legacy","legacy","0","uniform","1","undefined","1","left","38","38","0","38","38","0","0","38","0","0","38","38","38","38","0","Mon Oct 12 13:18:14 2020","The main experiment item","yes","SternbergTask.osexp","C:\Users\Owner","no","mono","no","18","no","white","no","yes","768","legacy","26","11","C:/Users/Owner/KTPsubject-3.csv","legacy","8 3","Lentiform Loewenfeld","3.3.3","2","y","yes","0","left","left","right","left","NA","751","51846","6648","751","NA","2","legacy","2","1024","2","48000","-16","experiment","3","odd","3","299241","117145","55383","295926","297034","3533","136988","297035","3536","130339","301245","301998","298037","301245","NA","Sternberg Task ","34","32329","39","yes","1024"
"87.5","87.5","827.025","827.025","black","experiment","legacy","legacy","legacy","0","uniform","1","undefined","1","right","39","39","0","39","39","0","0","39","0","0","39","39","39","39","0","Mon Oct 12 13:18:14 2020","The main experiment item","yes","SternbergTask.osexp","C:\Users\Owner","no","mono","no","18","no","white","no","yes","768","legacy","27","11","C:/Users/Owner/KTPsubject-3.csv","legacy","9 5 3 2 8 6","Lentiform Loewenfeld","3.3.3","0","n","yes","0","right","left","right","right","NA","752","51846","6648","752","NA","2","legacy","6","1024","2","48000","-16","experiment","3","odd","7","305275","117145","55383","302001","303065","3533","136988","303066","3536","130339","307280","308034","304071","307279","NA","Sternberg Task ","35","33081","40","yes","1024"
"87.8048780487805","87.8048780487805","842.609756097561","842.609756097561","black","experiment","legacy","legacy","legacy","0","uniform","1","undefined","1","left","40","40","0","40","40","0","0","40","0","0","40","40","40","40","0","Mon Oct 12 13:18:14 2020","The main experiment item","yes","SternbergTask.osexp","C:\Users\Owner","no","mono","no","18","no","white","no","yes","768","legacy","28","11","C:/Users/Owner/KTPsubject-3.csv","legacy","7 4 2 6 3 5","Lentiform Loewenfeld","3.3.3","6","y","yes","0","left","left","right","left","NA","1466","51846","6648","1466","NA","2","legacy","6","1024","2","48000","-16","experiment","3","odd","5","311353","117145","55383","308037","309144","3533","136988","309145","3536","130339","313357","314825","310149","313357","NA","Sternberg Task ","36","34547","41","yes","1024"
"88.0952380952381","88.0952380952381","843.952380952381","843.952380952381","black","experiment","legacy","legacy","legacy","0","uniform","1","undefined","1","left","41","41","0","41","41","0","0","41","0","0","41","41","41","41","0","Mon Oct 12 13:18:14 2020","The main experiment item","yes","SternbergTask.osexp","C:\Users\Owner","no","mono","no","18","no","white","no","yes","768","legacy","29","11","C:/Users/Owner/KTPsubject-3.csv","legacy","3 9 7 6 4","Lentiform Loewenfeld","3.3.3","3","y","yes","0","left","left","right","left","NA","899","51846","6648","899","NA","2","legacy","5","1024","2","48000","-16","experiment","3","odd","7","318119","117145","55383","314829","315912","3533","136988","315914","3536","130339","320120","321021","316915","320120","NA","Sternberg Task ","37","35446","42","yes","1024"
"88.37209302325581","88.37209302325581","841.6744186046511","841.6744186046511","black","experiment","legacy","legacy","legacy","0","uniform","1","undefined","1","right","42","42","0","42","42","0","0","42","0","0","42","42","42","42","0","Mon Oct 12 13:18:14 2020","The main experiment item","yes","SternbergTask.osexp","C:\Users\Owner","no","mono","no","18","no","white","no","yes","768","legacy","30","11","C:/Users/Owner/KTPsubject-3.csv","legacy","6 8 4","Lentiform Loewenfeld","3.3.3","0","n","yes","0","right","left","right","right","NA","746","51846","6648","746","NA","2","legacy","3","1024","2","48000","-16","experiment","3","odd","1","324343","117145","55383","321024","322134","3533","136988","322135","3536","130339","326347","327094","323139","326347","NA","Sternberg Task ","38","36192","43","yes","1024"
"88.63636363636364","88.63636363636364","843.6363636363636","843.6363636363636","black","experiment","legacy","legacy","legacy","0","uniform","1","undefined","1","left","43","43","0","43","43","0","0","43","0","0","43","43","43","43","0","Mon Oct 12 13:18:14 2020","The main experiment item","yes","SternbergTask.osexp","C:\Users\Owner","no","mono","no","18","no","white","no","yes","768","legacy","31","11","C:/Users/Owner/KTPsubject-3.csv","legacy","3 9 6 2","Lentiform Loewenfeld","3.3.3","4","y","yes","0","left","left","right","left","NA","928","51846","6648","928","NA","2","legacy","4","1024","2","48000","-16","experiment","3","odd","2","330417","117145","55383","327097","328208","3533","136988","328209","3536","130339","332421","333350","329213","332421","NA","Sternberg Task ","39","37120","44","yes","1024"
"88.88888888888889","88.88888888888889","839.7777777777778","839.7777777777778","black","experiment","legacy","legacy","legacy","0","uniform","1","undefined","1","left","44","44","0","44","44","0","0","44","0","0","44","44","44","44","0","Mon Oct 12 13:18:14 2020","The main experiment item","yes","SternbergTask.osexp","C:\Users\Owner","no","mono","no","18","no","white","no","yes","768","legacy","32","11","C:/Users/Owner/KTPsubject-3.csv","legacy","6 2","Lentiform Loewenfeld","3.3.3","1","y","yes","0","left","left","right","left","NA","670","51846","6648","670","NA","2","legacy","2","1024","2","48000","-16","experiment","3","odd","6","336677","117145","55383","333353","334468","3533","136988","334469","3536","130339","338681","339352","335473","338681","NA","Sternberg Task ","40","37790","45","yes","1024"
"89.1304347826087","89.1304347826087","835.9565217391304","835.9565217391304","black","experiment","legacy","legacy","legacy","0","uniform","1","undefined","1","right","45","45","0","45","45","0","0","45","0","0","45","45","45","45","0","Mon Oct 12 13:18:14 2020","The main experiment item","yes","SternbergTask.osexp","C:\Users\Owner","no","mono","no","18","no","white","no","yes","768","legacy","33","11","C:/Users/Owner/KTPsubject-3.csv","legacy","8 6 3 4 7","Lentiform Loewenfeld","3.3.3","0","n","yes","0","right","left","right","right","NA","664","51846","6648","664","NA","2","legacy","5","1024","2","48000","-16","experiment","3","odd","1","342673","117145","55383","339356","340464","3533","136988","340466","3536","130339","344677","345342","341470","344677","NA","Sternberg Task ","41","38454","46","yes","1024"
"89.36170212765957","89.36170212765957","835.063829787234","835.063829787234","black","experiment","legacy","legacy","legacy","0","uniform","1","undefined","1","left","46","46","0","46","46","0","0","46","0","0","46","46","46","46","0","Mon Oct 12 13:18:14 2020","The main experiment item","yes","SternbergTask.osexp","C:\Users\Owner","no","mono","no","18","no","white","no","yes","768","legacy","34","11","C:/Users/Owner/KTPsubject-3.csv","legacy","2 3","Lentiform Loewenfeld","3.3.3","1","y","yes","0","left","left","right","left","NA","794","51846","6648","794","NA","2","legacy","2","1024","2","48000","-16","experiment","3","odd","2","348657","117145","55383","345346","346451","3533","136988","346452","3536","130339","350661","351457","347453","350661","NA","Sternberg Task ","42","39248","47","yes","1024"
"89.58333333333333","89.58333333333333","833.2083333333334","833.2083333333334","black","experiment","legacy","legacy","legacy","0","uniform","1","undefined","1","left","47","47","0","47","47","0","0","47","0","0","47","47","47","47","0","Mon Oct 12 13:18:14 2020","The main experiment item","yes","SternbergTask.osexp","C:\Users\Owner","no","mono","no","18","no","white","no","yes","768","legacy","35","11","C:/Users/Owner/KTPsubject-3.csv","legacy","1 4 9 3 2 5","Lentiform Loewenfeld","3.3.3","3","y","yes","0","left","left","right","left","NA","746","51846","6648","746","NA","2","legacy","6","1024","2","48000","-16","experiment","3","odd","9","354784","117145","55383","351460","352574","3533","136988","352576","3536","130339","356789","357536","353580","356788","NA","Sternberg Task ","43","39994","48","yes","1024"
"89.79591836734694","89.79591836734694","831.734693877551","831.734693877551","black","experiment","legacy","legacy","legacy","0","uniform","1","undefined","1","left","48","48","0","48","48","0","0","48","0","0","48","48","48","48","0","Mon Oct 12 13:18:14 2020","The main experiment item","yes","SternbergTask.osexp","C:\Users\Owner","no","mono","no","18","no","white","no","yes","768","legacy","36","11","C:/Users/Owner/KTPsubject-3.csv","legacy","8 5 4 7 3 1","Lentiform Loewenfeld","3.3.3","2","y","yes","0","left","left","right","left","NA","761","51846","6648","761","NA","2","legacy","6","1024","2","48000","-16","experiment","3","odd","5","360859","117145","55383","357539","358653","3533","136988","358654","3536","130339","362863","363625","359658","362863","NA","Sternberg Task ","44","40755","49","yes","1024"
"90","90","829.34","829.34","black","experiment","legacy","legacy","legacy","0","uniform","1","undefined","1","right","49","49","0","49","49","0","0","49","0","0","49","49","49","49","0","Mon Oct 12 13:18:14 2020","The main experiment item","yes","SternbergTask.osexp","C:\Users\Owner","no","mono","no","18","no","white","no","yes","768","legacy","37","11","C:/Users/Owner/KTPsubject-3.csv","legacy","2 5 1 4","Lentiform Loewenfeld","3.3.3","0","n","yes","0","right","left","right","right","NA","712","51846","6648","712","NA","2","legacy","4","1024","2","48000","-16","experiment","3","odd","6","366937","117145","55383","363629","364729","3533","136988","364730","3536","130339","368941","369655","365734","368941","NA","Sternberg Task ","45","41467","50","yes","1024"
"90.19607843137256","90.19607843137256","831","831","black","experiment","legacy","legacy","legacy","0","uniform","1","undefined","1","left","50","50","0","50","50","0","0","50","0","0","50","50","50","50","0","Mon Oct 12 13:18:14 2020","The main experiment item","yes","SternbergTask.osexp","C:\Users\Owner","no","mono","no","18","no","white","no","yes","768","legacy","38","11","C:/Users/Owner/KTPsubject-3.csv","legacy","9 1 7 2","Lentiform Loewenfeld","3.3.3","2","y","yes","0","left","left","right","left","NA","914","51846","6648","914","NA","2","legacy","4","1024","2","48000","-16","experiment","3","odd","1","372971","117145","55383","369658","370766","3533","136988","370767","3536","130339","374972","375887","371771","374972","NA","Sternberg Task ","46","42381","51","yes","1024"
"90.38461538461539","90.38461538461539","829.5192307692307","829.5192307692307","black","experiment","legacy","legacy","legacy","0","uniform","1","undefined","1","right","51","51","0","51","51","0","0","51","0","0","51","51","51","51","0","Mon Oct 12 13:18:14 2020","The main experiment item","yes","SternbergTask.osexp","C:\Users\Owner","no","mono","no","18","no","white","no","yes","768","legacy","39","11","C:/Users/Owner/KTPsubject-3.csv","legacy","2 8 7 9 5 3","Lentiform Loewenfeld","3.3.3","0","n","yes","0","right","left","right","right","NA","754","51846","6648","754","NA","2","legacy","6","1024","2","48000","-16","experiment","3","odd","6","379196","117145","55383","375891","376990","3533","136988","376991","3536","130339","381201","381956","377992","381200","NA","Sternberg Task ","47","43135","52","yes","1024"
"90.56603773584905","90.56603773584905","828.811320754717","828.811320754717","black","experiment","legacy","legacy","legacy","0","uniform","1","undefined","1","right","52","52","0","52","52","0","0","52","0","0","52","52","52","52","0","Mon Oct 12 13:18:14 2020","The main experiment item","yes","SternbergTask.osexp","C:\Users\Owner","no","mono","no","18","no","white","no","yes","768","legacy","40","11","C:/Users/Owner/KTPsubject-3.csv","legacy","9 7 4 5 8","Lentiform Loewenfeld","3.3.3","0","n","yes","0","right","left","right","right","NA","792","51846","6648","792","NA","2","legacy","5","1024","2","48000","-16","experiment","3","odd","6","385230","117145","55383","381959","383021","3533","136988","383022","3536","130339","387234","388027","384026","387234","NA","Sternberg Task ","48","43927","53","yes","1024"
"90.74074074074075","90.74074074074075","831.4814814814815","831.4814814814815","black","experiment","legacy","legacy","legacy","0","uniform","1","undefined","1","left","53","53","0","53","53","0","0","53","0","0","53","53","53","53","0","Mon Oct 12 13:18:14 2020","The main experiment item","yes","SternbergTask.osexp","C:\Users\Owner","no","mono","no","18","no","white","no","yes","768","legacy","41","11","C:/Users/Owner/KTPsubject-3.csv","legacy","7 1 3","Lentiform Loewenfeld","3.3.3","2","y","yes","0","left","left","right","left","NA","973","51846","6648","973","NA","2","legacy","3","1024","2","48000","-16","experiment","3","odd","1","391349","117145","55383","388029","389140","3533","136988","389141","3536","130339","393350","394324","390145","393350","NA","Sternberg Task ","49","44900","54","yes","1024"
"90.9090909090909","90.9090909090909","830.5454545454545","830.5454545454545","black","experiment","legacy","legacy","legacy","0","uniform","1","undefined","1","right","54","54","0","54","54","0","0","54","0","0","54","54","54","54","0","Mon Oct 12 13:18:14 2020","The main experiment item","yes","SternbergTask.osexp","C:\Users\Owner","no","mono","no","18","no","white","no","yes","768","legacy","42","11","C:/Users/Owner/KTPsubject-3.csv","legacy","8 5 4 2 9 6","Lentiform Loewenfeld","3.3.3","0","n","yes","0","right","left","right","right","NA","780","51846","6648","780","NA","2","legacy","6","1024","2","48000","-16","experiment","3","odd","3","397628","117145","55383","394328","395422","3533","136988","395423","3536","130339","399632","400413","396427","399632","NA","Sternberg Task ","50","45680","55","yes","1024"
"91.07142857142857","91.07142857142857","828.4464285714286","828.4464285714286","black","experiment","legacy","legacy","legacy","0","uniform","1","undefined","1","right","55","55","0","55","55","0","0","55","0","0","55","55","55","55","0","Mon Oct 12 13:18:14 2020","The main experiment item","yes","SternbergTask.osexp","C:\Users\Owner","no","mono","no","18","no","white","no","yes","768","legacy","43","11","C:/Users/Owner/KTPsubject-3.csv","legacy","2 6 4 3 9","Lentiform Loewenfeld","3.3.3","0","n","yes","0","right","left","right","right","NA","713","51846","6648","713","NA","2","legacy","5","1024","2","48000","-16","experiment","3","odd","1","403728","117145","55383","400418","401519","3533","136988","401520","3536","130339","405732","406447","402524","405732","NA","Sternberg Task ","51","46393","56","yes","1024"
"91.2280701754386","91.2280701754386","827.0175438596491","827.0175438596491","black","experiment","legacy","legacy","legacy","0","uniform","1","undefined","1","right","56","56","0","56","56","0","0","56","0","0","56","56","56","56","0","Mon Oct 12 13:18:14 2020","The main experiment item","yes","SternbergTask.osexp","C:\Users\Owner","no","mono","no","18","no","white","no","yes","768","legacy","44","11","C:/Users/Owner/KTPsubject-3.csv","legacy","7 1 5 6 3","Lentiform Loewenfeld","3.3.3","0","n","yes","0","right","left","right","right","NA","747","51846","6648","747","NA","2","legacy","5","1024","2","48000","-16","experiment","3","odd","8","409718","117145","55383","406450","407511","3533","136988","407512","3536","130339","411723","412471","408514","411723","NA","Sternberg Task ","52","47140","57","yes","1024"
"91.37931034482759","91.37931034482759","824.7241379310345","824.7241379310345","black","experiment","legacy","legacy","legacy","0","uniform","1","undefined","1","right","57","57","0","57","57","0","0","57","0","0","57","57","57","57","0","Mon Oct 12 13:18:14 2020","The main experiment item","yes","SternbergTask.osexp","C:\Users\Owner","no","mono","no","18","no","white","no","yes","768","legacy","45","11","C:/Users/Owner/KTPsubject-3.csv","legacy","1 3 2 6 9","Lentiform Loewenfeld","3.3.3","0","n","yes","0","right","left","right","right","NA","694","51846","6648","694","NA","2","legacy","5","1024","2","48000","-16","experiment","3","odd","5","415794","117145","55383","412473","413585","3533","136988","413586","3536","130339","417798","418494","414590","417798","NA","Sternberg Task ","53","47834","58","yes","1024"
"91.52542372881356","91.52542372881356","828.9661016949152","828.9661016949152","black","experiment","legacy","legacy","legacy","0","uniform","1","undefined","1","left","58","58","0","58","58","0","0","58","0","0","58","58","58","58","0","Mon Oct 12 13:18:14 2020","The main experiment item","yes","SternbergTask.osexp","C:\Users\Owner","no","mono","no","18","no","white","no","yes","768","legacy","46","11","C:/Users/Owner/KTPsubject-3.csv","legacy","8 7 3","Lentiform Loewenfeld","3.3.3","1","y","yes","0","left","left","right","left","NA","1075","51846","6648","1075","NA","2","legacy","3","1024","2","48000","-16","experiment","3","odd","8","421812","117145","55383","418496","419603","3533","136988","419604","3536","130339","423816","424892","420608","423816","NA","Sternberg Task ","54","48909","59","yes","1024"
"91.66666666666667","91.66666666666667","826.5","826.5","black","experiment","legacy","legacy","legacy","0","uniform","1","undefined","1","left","59","59","0","59","59","0","0","59","0","0","59","59","59","59","0","Mon Oct 12 13:18:14 2020","The main experiment item","yes","SternbergTask.osexp","C:\Users\Owner","no","mono","no","18","no","white","no","yes","768","legacy","47","11","C:/Users/Owner/KTPsubject-3.csv","legacy","4 9 7 8 5 3","Lentiform Loewenfeld","3.3.3","4","y","yes","0","left","left","right","left","NA","681","51846","6648","681","NA","2","legacy","6","1024","2","48000","-16","experiment","3","odd","8","428193","117145","55383","424896","425986","3533","136988","425988","3536","130339","430194","430876","426989","430194","NA","Sternberg Task ","55","49590","60","yes","1024"
"91.80327868852459","91.80327868852459","823.2295081967213","823.2295081967213","black","experiment","legacy","legacy","legacy","0","uniform","1","undefined","1","right","60","60","0","60","60","0","0","60","0","0","60","60","60","60","0","Mon Oct 12 13:18:14 2020","The main experiment item","yes","SternbergTask.osexp","C:\Users\Owner","no","mono","no","18","no","white","no","yes","768","legacy","48","11","C:/Users/Owner/KTPsubject-3.csv","legacy","7 8 6 1","Lentiform Loewenfeld","3.3.3","0","n","yes","0","right","left","right","right","NA","627","51846","6648","627","NA","2","legacy","4","1024","2","48000","-16","experiment","3","odd","3","434145","117145","55383","430880","431941","3533","136988","431943","3536","130339","436146","436774","432944","436146","NA","Sternberg Task ","56","50217","61","yes","1024"
"91.93548387096774","91.93548387096774","822.5806451612904","822.5806451612904","black","experiment","legacy","legacy","legacy","0","uniform","1","undefined","1","right","61","61","0","61","61","0","0","61","0","0","61","61","61","61","0","Mon Oct 12 13:18:14 2020","The main experiment item","yes","SternbergTask.osexp","C:\Users\Owner","no","mono","no","18","no","white","no","yes","768","legacy","49","11","C:/Users/Owner/KTPsubject-3.csv","legacy","5 3 8 7 2 4","Lentiform Loewenfeld","3.3.3","0","n","yes","0","right","left","right","right","NA","783","51846","6648","783","NA","2","legacy","6","1024","2","48000","-16","experiment","3","odd","9","440043","117145","55383","436776","437840","3533","136988","437841","3536","130339","442046","442830","438842","442046","NA","Sternberg Task ","57","51000","62","yes","1024"
"92.06349206349206","92.06349206349206","833.3174603174604","833.3174603174604","black","experiment","legacy","legacy","legacy","0","uniform","1","undefined","1","left","62","62","0","62","62","0","0","62","0","0","62","62","62","62","0","Mon Oct 12 13:18:14 2020","The main experiment item","yes","SternbergTask.osexp","C:\Users\Owner","no","mono","no","18","no","white","no","yes","768","legacy","50","11","C:/Users/Owner/KTPsubject-3.csv","legacy","6 7 8 5","Lentiform Loewenfeld","3.3.3","3","y","yes","0","left","left","right","left","NA","1499","51846","6648","1499","NA","2","legacy","4","1024","2","48000","-16","experiment","3","odd","8","446156","117145","55383","442834","443949","3533","136988","443950","3536","130339","448160","449661","444954","448159","NA","Sternberg Task ","58","52499","63","yes","1024"
"92.1875","92.1875","830.875","830.875","black","experiment","legacy","legacy","legacy","0","uniform","1","undefined","1","right","63","63","0","63","63","0","0","63","0","0","63","63","63","63","0","Mon Oct 12 13:18:14 2020","The main experiment item","yes","SternbergTask.osexp","C:\Users\Owner","no","mono","no","18","no","white","no","yes","768","legacy","51","11","C:/Users/Owner/KTPsubject-3.csv","legacy","8 4 3 9","Lentiform Loewenfeld","3.3.3","0","n","yes","0","right","left","right","right","NA","677","51846","6648","677","NA","2","legacy","4","1024","2","48000","-16","experiment","3","odd","5","452988","117145","55383","449664","450779","3533","136988","450780","3536","130339","454992","455670","451784","454992","NA","Sternberg Task ","59","53176","64","yes","1024"
"92.3076923076923","92.3076923076923","840.7846153846153","840.7846153846153","black","experiment","legacy","legacy","legacy","0","uniform","1","undefined","1","left","64","64","0","64","64","0","0","64","0","0","64","64","64","64","0","Mon Oct 12 13:18:14 2020","The main experiment item","yes","SternbergTask.osexp","C:\Users\Owner","no","mono","no","18","no","white","no","yes","768","legacy","52","11","C:/Users/Owner/KTPsubject-3.csv","legacy","8","Lentiform Loewenfeld","3.3.3","1","y","yes","0","left","left","right","left","NA","1475","51846","6648","1475","NA","2","legacy","1","1024","2","48000","-16","experiment","3","odd","8","458993","117145","55383","455674","456783","3533","136988","456785","3536","130339","460997","462473","457789","460997","NA","Sternberg Task ","60","54651","65","yes","1024"
"92.42424242424242","92.42424242424242","838.6969696969697","838.6969696969697","black","experiment","legacy","legacy","legacy","0","uniform","1","undefined","1","right","65","65","0","65","65","0","0","65","0","0","65","65","65","65","0","Mon Oct 12 13:18:14 2020","The main experiment item","yes","SternbergTask.osexp","C:\Users\Owner","no","mono","no","18","no","white","no","yes","768","legacy","53","11","C:/Users/Owner/KTPsubject-3.csv","legacy","9","Lentiform Loewenfeld","3.3.3","0","n","yes","0","right","left","right","right","NA","703","51846","6648","703","NA","2","legacy","1","1024","2","48000","-16","experiment","3","odd","6","465748","117145","55383","462476","463541","3533","136988","463543","3536","130339","467749","468454","464544","467749","NA","Sternberg Task ","61","55354","66","yes","1024"
"92.53731343283582","92.53731343283582","837.3134328358209","837.3134328358209","black","experiment","legacy","legacy","legacy","0","uniform","1","undefined","1","left","66","66","0","66","66","0","0","66","0","0","66","66","66","66","0","Mon Oct 12 13:18:14 2020","The main experiment item","yes","SternbergTask.osexp","C:\Users\Owner","no","mono","no","18","no","white","no","yes","768","legacy","54","11","C:/Users/Owner/KTPsubject-3.csv","legacy","4","Lentiform Loewenfeld","3.3.3","1","y","yes","0","left","left","right","left","NA","746","51846","6648","746","NA","2","legacy","1","1024","2","48000","-16","experiment","3","odd","4","471778","117145","55383","468457","469569","3533","136988","469570","3536","130339","473782","474529","470574","473782","NA","Sternberg Task ","62","56100","67","yes","1024"
"92.6470588235294","92.6470588235294","836.75","836.75","black","experiment","legacy","legacy","legacy","0","uniform","1","undefined","1","right","67","67","0","67","67","0","0","67","0","0","67","67","67","67","0","Mon Oct 12 13:18:14 2020","The main experiment item","yes","SternbergTask.osexp","C:\Users\Owner","no","mono","no","18","no","white","no","yes","768","legacy","55","11","C:/Users/Owner/KTPsubject-3.csv","legacy","4 2 6 9","Lentiform Loewenfeld","3.3.3","0","n","yes","0","right","left","right","right","NA","799","51846","6648","799","NA","2","legacy","4","1024","2","48000","-16","experiment","3","odd","7","477852","117145","55383","474535","475646","3533","136988","475647","3536","130339","479856","480656","476651","479855","NA","Sternberg Task ","63","56899","68","yes","1024"
"92.7536231884058","92.7536231884058","838.0869565217391","838.0869565217391","black","experiment","legacy","legacy","legacy","0","uniform","1","undefined","1","left","68","68","0","68","68","0","0","68","0","0","68","68","68","68","0","Mon Oct 12 13:18:14 2020","The main experiment item","yes","SternbergTask.osexp","C:\Users\Owner","no","mono","no","18","no","white","no","yes","768","legacy","56","11","C:/Users/Owner/KTPsubject-3.csv","legacy","7 2 3","Lentiform Loewenfeld","3.3.3","3","y","yes","0","left","left","right","left","NA","929","51846","6648","929","NA","2","legacy","3","1024","2","48000","-16","experiment","3","odd","3","483929","117145","55383","480660","481721","3533","136988","481722","3536","130339","485932","486862","482725","485932","NA","Sternberg Task ","64","57828","69","yes","1024"
"92.85714285714286","92.85714285714286","838.1142857142858","838.1142857142858","black","experiment","legacy","legacy","legacy","0","uniform","1","undefined","1","left","69","69","0","69","69","0","0","69","0","0","69","69","69","69","0","Mon Oct 12 13:18:14 2020","The main experiment item","yes","SternbergTask.osexp","C:\Users\Owner","no","mono","no","18","no","white","no","yes","768","legacy","57","11","C:/Users/Owner/KTPsubject-3.csv","legacy","9 5 8 1","Lentiform Loewenfeld","3.3.3","2","y","yes","0","left","left","right","left","NA","840","51846","6648","840","NA","2","legacy","4","1024","2","48000","-16","experiment","3","odd","5","490215","117145","55383","486866","488005","3533","136988","488007","3536","130339","492219","493060","489011","492219","NA","Sternberg Task ","65","58668","70","yes","1024"
"92.95774647887323","92.95774647887323","833.3521126760563","833.3521126760563","black","experiment","legacy","legacy","legacy","0","uniform","1","undefined","1","left","70","70","0","70","70","0","0","70","0","0","70","70","70","70","0","Mon Oct 12 13:18:14 2020","The main experiment item","yes","SternbergTask.osexp","C:\Users\Owner","no","mono","no","18","no","white","no","yes","768","legacy","58","11","C:/Users/Owner/KTPsubject-3.csv","legacy","4 1 5","Lentiform Loewenfeld","3.3.3","2","y","yes","0","left","left","right","left","NA","500","51846","6648","500","NA","2","legacy","3","1024","2","48000","-16","experiment","3","odd","1","496384","117145","55383","493064","494175","3533","136988","494176","3536","130339","498385","498886","495180","498385","NA","Sternberg Task ","66","59168","71","yes","1024"
"93.05555555555556","93.05555555555556","829.2638888888889","829.2638888888889","black","experiment","legacy","legacy","legacy","0","uniform","1","undefined","1","left","71","71","0","71","71","0","0","71","0","0","71","71","71","71","0","Mon Oct 12 13:18:14 2020","The main experiment item","yes","SternbergTask.osexp","C:\Users\Owner","no","mono","no","18","no","white","no","yes","768","legacy","59","11","C:/Users/Owner/KTPsubject-3.csv","legacy","5 2 6","Lentiform Loewenfeld","3.3.3","2","y","yes","0","left","left","right","left","NA","539","51846","6648","539","NA","2","legacy","3","1024","2","48000","-16","experiment","3","odd","2","502220","117145","55383","498888","500014","3533","136988","500015","3536","130339","504224","504764","501018","504224","NA","Sternberg Task ","67","59707","72","yes","1024"
"93.15068493150685","93.15068493150685","826.1506849315068","826.1506849315068","black","experiment","legacy","legacy","legacy","0","uniform","1","undefined","1","left","72","72","0","72","72","0","0","72","0","0","72","72","72","72","0","Mon Oct 12 13:18:14 2020","The main experiment item","yes","SternbergTask.osexp","C:\Users\Owner","no","mono","no","18","no","white","no","yes","768","legacy","60","11","C:/Users/Owner/KTPsubject-3.csv","legacy","6 1 2","Lentiform Loewenfeld","3.3.3","3","y","yes","0","left","left","right","left","NA","602","51846","6648","602","NA","2","legacy","3","1024","2","48000","-16","experiment","3","odd","2","508101","117145","55383","504768","505892","3533","136988","505893","3536","130339","510104","510707","506897","510104","NA","Sternberg Task ","68","60309","73","yes","1024"
"93.24324324324324","93.24324324324324","825.2432432432432","825.2432432432432","black","experiment","legacy","legacy","legacy","0","uniform","1","undefined","1","right","73","73","0","73","73","0","0","73","0","0","73","73","73","73","0","Mon Oct 12 13:18:14 2020","The main experiment item","yes","SternbergTask.osexp","C:\Users\Owner","no","mono","no","18","no","white","no","yes","768","legacy","61","11","C:/Users/Owner/KTPsubject-3.csv","legacy","1 5 3 2 8","Lentiform Loewenfeld","3.3.3","0","n","yes","0","right","left","right","right","NA","759","51846","6648","759","NA","2","legacy","5","1024","2","48000","-16","experiment","3","odd","4","514031","117145","55383","510711","511822","3533","136988","511823","3536","130339","516035","516795","512827","516035","NA","Sternberg Task ","69","61068","74","yes","1024"
"93.33333333333333","93.33333333333333","823.2133333333334","823.2133333333334","black","experiment","legacy","legacy","legacy","0","uniform","1","undefined","1","left","74","74","0","74","74","0","0","74","0","0","74","74","74","74","0","Mon Oct 12 13:18:14 2020","The main experiment item","yes","SternbergTask.osexp","C:\Users\Owner","no","mono","no","18","no","white","no","yes","768","legacy","62","11","C:/Users/Owner/KTPsubject-3.csv","legacy","2 3 7 4","Lentiform Loewenfeld","3.3.3","1","y","yes","0","left","left","right","left","NA","673","51846","6648","673","NA","2","legacy","4","1024","2","48000","-16","experiment","3","odd","2","520123","117145","55383","516799","517914","3533","136988","517915","3536","130339","522126","522800","518918","522125","NA","Sternberg Task ","70","61741","75","yes","1024"
"92.10526315789474","92.10526315789474","823.6184210526316","823.6184210526316","black","experiment","legacy","legacy","legacy","0","uniform","0","undefined","0","left","75","75","0","75","75","0","0","75","0","0","75","75","75","75","0","Mon Oct 12 13:18:14 2020","The main experiment item","yes","SternbergTask.osexp","C:\Users\Owner","no","mono","no","18","no","white","no","yes","768","legacy","63","11","C:/Users/Owner/KTPsubject-3.csv","legacy","7 8 4 6 9 5","Lentiform Loewenfeld","3.3.3","4","y","yes","0","right","left","right","right","NA","854","51846","6648","854","NA","2","legacy","6","1024","2","48000","-16","experiment","3","odd","6","526108","117145","55383","522803","523901","3533","136988","523902","3536","130339","528113","528968","524903","528112","NA","Sternberg Task ","70","62595","76","yes","1024"
"92.20779220779221","92.20779220779221","822.012987012987","822.012987012987","black","experiment","legacy","legacy","legacy","0","uniform","1","undefined","1","right","76","76","0","76","76","0","0","76","0","0","76","76","76","76","0","Mon Oct 12 13:18:14 2020","The main experiment item","yes","SternbergTask.osexp","C:\Users\Owner","no","mono","no","18","no","white","no","yes","768","legacy","64","11","C:/Users/Owner/KTPsubject-3.csv","legacy","6 8","Lentiform Loewenfeld","3.3.3","0","n","yes","0","right","left","right","right","NA","700","51846","6648","700","NA","2","legacy","2","1024","2","48000","-16","experiment","3","odd","9","532282","528971","55383","522803","530073","3533","136988","530074","3536","130339","534286","534987","531078","534286","NA","Sternberg Task ","71","63295","77","yes","1024"
"92.3076923076923","92.3076923076923","818.474358974359","818.474358974359","black","experiment","legacy","legacy","legacy","0","uniform","1","undefined","1","left","77","77","0","77","77","0","0","77","0","0","77","77","77","77","0","Mon Oct 12 13:18:14 2020","The main experiment item","yes","SternbergTask.osexp","C:\Users\Owner","no","mono","no","18","no","white","no","yes","768","legacy","65","11","C:/Users/Owner/KTPsubject-3.csv","legacy","8 9 5 6 7","Lentiform Loewenfeld","3.3.3","1","y","yes","0","left","left","right","left","NA","546","51846","6648","546","NA","2","legacy","5","1024","2","48000","-16","experiment","3","odd","8","538302","528971","55383","534990","536093","3533","136988","536094","3536","130339","540306","540854","537098","540306","NA","Sternberg Task ","72","63841","78","yes","1024"
"92.40506329113924","92.40506329113924","818.3037974683544","818.3037974683544","black","experiment","legacy","legacy","legacy","0","uniform","1","undefined","1","left","78","78","0","78","78","0","0","78","0","0","78","78","78","78","0","Mon Oct 12 13:18:14 2020","The main experiment item","yes","SternbergTask.osexp","C:\Users\Owner","no","mono","no","18","no","white","no","yes","768","legacy","66","11","C:/Users/Owner/KTPsubject-3.csv","legacy","9 6 2 4 1","Lentiform Loewenfeld","3.3.3","4","y","yes","0","left","left","right","left","NA","805","51846","6648","805","NA","2","legacy","5","1024","2","48000","-16","experiment","3","odd","4","544172","528971","55383","540856","541963","3533","136988","541964","3536","130339","546175","546982","542968","546175","NA","Sternberg Task ","73","64646","79","yes","1024"
"92.5","92.5","821.0625","821.0625","black","experiment","legacy","legacy","legacy","0","uniform","1","undefined","1","left","79","79","0","79","79","0","0","79","0","0","79","79","79","79","0","Mon Oct 12 13:18:14 2020","The main experiment item","yes","SternbergTask.osexp","C:\Users\Owner","no","mono","no","18","no","white","no","yes","768","legacy","67","11","C:/Users/Owner/KTPsubject-3.csv","legacy","3 4 9 6 2 9","Lentiform Loewenfeld","3.3.3","5","y","yes","0","left","left","right","left","NA","1039","51846","6648","1039","NA","2","legacy","6","1024","2","48000","-16","experiment","3","odd","2","550307","528971","55383","546985","548097","3533","136988","548099","3536","130339","552311","553350","549103","552311","NA","Sternberg Task ","74","65685","80","yes","1024"
"92.5925925925926","92.5925925925926","820.1728395061729","820.1728395061729","black","experiment","legacy","legacy","legacy","0","uniform","1","undefined","1","left","80","80","0","80","80","0","0","80","0","0","80","80","80","80","0","Mon Oct 12 13:18:14 2020","The main experiment item","yes","SternbergTask.osexp","C:\Users\Owner","no","mono","no","18","no","white","no","yes","768","legacy","68","11","C:/Users/Owner/KTPsubject-3.csv","legacy","9 4 2","Lentiform Loewenfeld","3.3.3","1","y","yes","0","left","left","right","left","NA","749","51846","6648","749","NA","2","legacy","3","1024","2","48000","-16","experiment","3","odd","9","556676","528971","55383","553354","554469","3533","136988","554471","3536","130339","558681","559431","555473","558681","NA","Sternberg Task ","75","66434","81","yes","1024"
"92.6829268292683","92.6829268292683","818.0853658536586","818.0853658536586","black","experiment","legacy","legacy","legacy","0","uniform","1","undefined","1","left","81","81","0","81","81","0","0","81","0","0","81","81","81","81","0","Mon Oct 12 13:18:14 2020","The main experiment item","yes","SternbergTask.osexp","C:\Users\Owner","no","mono","no","18","no","white","no","yes","768","legacy","69","11","C:/Users/Owner/KTPsubject-3.csv","legacy","3 5 7 1","Lentiform Loewenfeld","3.3.3","3","y","yes","0","left","left","right","left","NA","649","51846","6648","649","NA","2","legacy","4","1024","2","48000","-16","experiment","3","odd","7","562704","528971","55383","559434","560495","3533","136988","560496","3536","130339","564708","565358","561500","564708","NA","Sternberg Task ","76","67083","82","yes","1024"
"92.7710843373494","92.7710843373494","815.5903614457832","815.5903614457832","black","experiment","legacy","legacy","legacy","0","uniform","1","undefined","1","left","82","82","0","82","82","0","0","82","0","0","82","82","82","82","0","Mon Oct 12 13:18:14 2020","The main experiment item","yes","SternbergTask.osexp","C:\Users\Owner","no","mono","no","18","no","white","no","yes","768","legacy","70","11","C:/Users/Owner/KTPsubject-3.csv","legacy","6 7 9 3 1 2","Lentiform Loewenfeld","3.3.3","1","y","yes","0","left","left","right","left","NA","611","51846","6648","611","NA","2","legacy","6","1024","2","48000","-16","experiment","3","odd","6","568685","528971","55383","565361","566476","3533","136988","566477","3536","130339","570689","571302","567481","570689","NA","Sternberg Task ","77","67694","83","yes","1024"
"92.85714285714286","92.85714285714286","822.5357142857143","822.5357142857143","black","experiment","legacy","legacy","legacy","0","uniform","1","undefined","1","right","83","83","0","83","83","0","0","83","0","0","83","83","83","83","0","Mon Oct 12 13:18:14 2020","The main experiment item","yes","SternbergTask.osexp","C:\Users\Owner","no","mono","no","18","no","white","no","yes","768","legacy","71","11","C:/Users/Owner/KTPsubject-3.csv","legacy","8 2 1 4 5 9","Lentiform Loewenfeld","3.3.3","0","n","yes","0","right","left","right","right","NA","1399","51846","6648","1399","NA","2","legacy","6","1024","2","48000","-16","experiment","3","odd","7","574581","528971","55383","571305","572375","3533","136988","572376","3536","130339","576585","577986","573380","576584","NA","Sternberg Task ","78","69093","84","yes","1024"
"92.94117647058823","92.94117647058823","823.8","823.8","black","experiment","legacy","legacy","legacy","0","uniform","1","undefined","1","right","84","84","0","84","84","0","0","84","0","0","84","84","84","84","0","Mon Oct 12 13:18:14 2020","The main experiment item","yes","SternbergTask.osexp","C:\Users\Owner","no","mono","no","18","no","white","no","yes","768","legacy","72","11","C:/Users/Owner/KTPsubject-3.csv","legacy","6 7 5 9","Lentiform Loewenfeld","3.3.3","0","n","yes","0","right","left","right","right","NA","930","51846","6648","930","NA","2","legacy","4","1024","2","48000","-16","experiment","3","odd","2","581289","528971","55383","577989","579080","3533","136988","579081","3536","130339","583290","584221","580085","583290","NA","Sternberg Task ","79","70023","85","yes","1024"
"93.02325581395348","93.02325581395348","822.3953488372093","822.3953488372093","black","experiment","legacy","legacy","legacy","0","uniform","1","undefined","1","left","85","85","0","85","85","0","0","85","0","0","85","85","85","85","0","Mon Oct 12 13:18:14 2020","The main experiment item","yes","SternbergTask.osexp","C:\Users\Owner","no","mono","no","18","no","white","no","yes","768","legacy","73","11","C:/Users/Owner/KTPsubject-3.csv","legacy","4 1 8 7 5","Lentiform Loewenfeld","3.3.3","3","y","yes","0","left","left","right","left","NA","703","51846","6648","703","NA","2","legacy","5","1024","2","48000","-16","experiment","3","odd","8","587548","528971","55383","584224","585338","3533","136988","585340","3536","130339","589552","590257","586344","589552","NA","Sternberg Task ","80","70726","86","yes","1024"
"93.10344827586206","93.10344827586206","825.6666666666666","825.6666666666666","black","experiment","legacy","legacy","legacy","0","uniform","1","undefined","1","left","86","86","0","86","86","0","0","86","0","0","86","86","86","86","0","Mon Oct 12 13:18:14 2020","The main experiment item","yes","SternbergTask.osexp","C:\Users\Owner","no","mono","no","18","no","white","no","yes","768","legacy","74","11","C:/Users/Owner/KTPsubject-3.csv","legacy","8 9 5 7 1 6","Lentiform Loewenfeld","3.3.3","4","y","yes","0","left","left","right","left","NA","1107","51846","6648","1107","NA","2","legacy","6","1024","2","48000","-16","experiment","3","odd","7","593583","528971","55383","590261","591374","3533","136988","591375","3536","130339","595584","596692","592379","595584","NA","Sternberg Task ","81","71833","87","yes","1024"
"93.18181818181819","93.18181818181819","823.8068181818181","823.8068181818181","black","experiment","legacy","legacy","legacy","0","uniform","1","undefined","1","left","87","87","0","87","87","0","0","87","0","0","87","87","87","87","0","Mon Oct 12 13:18:14 2020","The main experiment item","yes","SternbergTask.osexp","C:\Users\Owner","no","mono","no","18","no","white","no","yes","768","legacy","75","11","C:/Users/Owner/KTPsubject-3.csv","legacy","3 4","Lentiform Loewenfeld","3.3.3","1","y","yes","0","left","left","right","left","NA","662","51846","6648","662","NA","2","legacy","2","1024","2","48000","-16","experiment","3","odd","3","600004","528971","55383","596696","597795","3533","136988","597796","3536","130339","602008","602671","598800","602008","NA","Sternberg Task ","82","72495","88","yes","1024"
"93.25842696629213","93.25842696629213","823.3483146067416","823.3483146067416","black","experiment","legacy","legacy","legacy","0","uniform","1","undefined","1","right","88","88","0","88","88","0","0","88","0","0","88","88","88","88","0","Mon Oct 12 13:18:14 2020","The main experiment item","yes","SternbergTask.osexp","C:\Users\Owner","no","mono","no","18","no","white","no","yes","768","legacy","76","11","C:/Users/Owner/KTPsubject-3.csv","legacy","1 7 5 2","Lentiform Loewenfeld","3.3.3","0","n","yes","0","right","left","right","right","NA","783","51846","6648","783","NA","2","legacy","4","1024","2","48000","-16","experiment","3","odd","3","605986","528971","55383","602675","603776","3533","136988","603778","3536","130339","607990","608774","604782","607990","NA","Sternberg Task ","83","73278","89","yes","1024"
"93.33333333333333","93.33333333333333","820.4111111111112","820.4111111111112","black","experiment","legacy","legacy","legacy","0","uniform","1","undefined","1","left","89","89","0","89","89","0","0","89","0","0","89","89","89","89","0","Mon Oct 12 13:18:14 2020","The main experiment item","yes","SternbergTask.osexp","C:\Users\Owner","no","mono","no","18","no","white","no","yes","768","legacy","77","11","C:/Users/Owner/KTPsubject-3.csv","legacy","7","Lentiform Loewenfeld","3.3.3","1","y","yes","0","left","left","right","left","NA","559","51846","6648","559","NA","2","legacy","1","1024","2","48000","-16","experiment","3","odd","7","612055","528971","55383","608777","609850","3533","136988","609851","3536","130339","614060","614621","610854","614060","NA","Sternberg Task ","84","73837","90","yes","1024"
"93.4065934065934","93.4065934065934","819.6043956043956","819.6043956043956","black","experiment","legacy","legacy","legacy","0","uniform","1","undefined","1","right","90","90","0","90","90","0","0","90","0","0","90","90","90","90","0","Mon Oct 12 13:18:14 2020","The main experiment item","yes","SternbergTask.osexp","C:\Users\Owner","no","mono","no","18","no","white","no","yes","768","legacy","78","11","C:/Users/Owner/KTPsubject-3.csv","legacy","1 6 4 3 9 7","Lentiform Loewenfeld","3.3.3","0","n","yes","0","right","left","right","right","NA","747","51846","6648","747","NA","2","legacy","6","1024","2","48000","-16","experiment","3","odd","8","617922","528971","55383","614624","615711","3533","136988","615713","3536","130339","619926","620674","616717","619926","NA","Sternberg Task ","85","74584","91","yes","1024"
"93.47826086956522","93.47826086956522","824.1304347826087","824.1304347826087","black","experiment","legacy","legacy","legacy","0","uniform","1","undefined","1","left","91","91","0","91","91","0","0","91","0","0","91","91","91","91","0","Mon Oct 12 13:18:14 2020","The main experiment item","yes","SternbergTask.osexp","C:\Users\Owner","no","mono","no","18","no","white","no","yes","768","legacy","79","11","C:/Users/Owner/KTPsubject-3.csv","legacy","6 9 3 1","Lentiform Loewenfeld","3.3.3","4","y","yes","0","left","left","right","left","NA","1236","51846","6648","1236","NA","2","legacy","4","1024","2","48000","-16","experiment","3","odd","1","623950","528971","55383","620677","621744","3533","136988","621745","3536","130339","625951","627188","622746","625951","NA","Sternberg Task ","86","75820","92","yes","1024"
"93.54838709677419","93.54838709677419","824.2150537634409","824.2150537634409","black","experiment","legacy","legacy","legacy","0","uniform","1","undefined","1","right","92","92","0","92","92","0","0","92","0","0","92","92","92","92","0","Mon Oct 12 13:18:14 2020","The main experiment item","yes","SternbergTask.osexp","C:\Users\Owner","no","mono","no","18","no","white","no","yes","768","legacy","80","11","C:/Users/Owner/KTPsubject-3.csv","legacy","2 7 5","Lentiform Loewenfeld","3.3.3","0","n","yes","0","right","left","right","right","NA","832","51846","6648","832","NA","2","legacy","3","1024","2","48000","-16","experiment","3","odd","8","630510","528971","55383","627191","628301","3533","136988","628302","3536","130339","632515","633348","629306","632515","NA","Sternberg Task ","87","76652","93","yes","1024"
"93.61702127659575","93.61702127659575","822.3723404255319","822.3723404255319","black","experiment","legacy","legacy","legacy","0","uniform","1","undefined","1","right","93","93","0","93","93","0","0","93","0","0","93","93","93","93","0","Mon Oct 12 13:18:14 2020","The main experiment item","yes","SternbergTask.osexp","C:\Users\Owner","no","mono","no","18","no","white","no","yes","768","legacy","81","11","C:/Users/Owner/KTPsubject-3.csv","legacy","5 7 3","Lentiform Loewenfeld","3.3.3","0","n","yes","0","right","left","right","right","NA","651","51846","6648","651","NA","2","legacy","3","1024","2","48000","-16","experiment","3","odd","9","636663","528971","55383","633352","634457","3533","136988","634458","3536","130339","638667","639318","635462","638667","NA","Sternberg Task ","88","77303","94","yes","1024"
"93.6842105263158","93.6842105263158","821.3052631578947","821.3052631578947","black","experiment","legacy","legacy","legacy","0","uniform","1","undefined","1","right","94","94","0","94","94","0","0","94","0","0","94","94","94","94","0","Mon Oct 12 13:18:14 2020","The main experiment item","yes","SternbergTask.osexp","C:\Users\Owner","no","mono","no","18","no","white","no","yes","768","legacy","82","11","C:/Users/Owner/KTPsubject-3.csv","legacy","2 8 6 3 1","Lentiform Loewenfeld","3.3.3","0","n","yes","0","right","left","right","right","NA","721","51846","6648","721","NA","2","legacy","5","1024","2","48000","-16","experiment","3","odd","7","642638","528971","55383","639323","640429","3533","136988","640430","3536","130339","644643","645364","641434","644643","NA","Sternberg Task ","89","78024","95","yes","1024"
"93.75","93.75","821.3333333333334","821.3333333333334","black","experiment","legacy","legacy","legacy","0","uniform","1","undefined","1","left","95","95","0","95","95","0","0","95","0","0","95","95","95","95","0","Mon Oct 12 13:18:14 2020","The main experiment item","yes","SternbergTask.osexp","C:\Users\Owner","no","mono","no","18","no","white","no","yes","768","legacy","83","11","C:/Users/Owner/KTPsubject-3.csv","legacy","2 4 6 9","Lentiform Loewenfeld","3.3.3","3","y","yes","0","left","left","right","left","NA","824","51846","6648","824","NA","2","legacy","4","1024","2","48000","-16","experiment","3","odd","6","648680","528971","55383","645368","646474","3533","136988","646475","3536","130339","650684","651511","647479","650684","NA","Sternberg Task ","90","78848","96","yes","1024"
"92.78350515463917","92.78350515463917","821.4639175257732","821.4639175257732","black","experiment","legacy","legacy","legacy","0","uniform","0","undefined","0","right","96","96","0","96","96","0","0","96","0","0","96","96","96","96","0","Mon Oct 12 13:18:14 2020","The main experiment item","yes","SternbergTask.osexp","C:\Users\Owner","no","mono","no","18","no","white","no","yes","768","legacy","84","11","C:/Users/Owner/KTPsubject-3.csv","legacy","7 1 8 4 9 3","Lentiform Loewenfeld","3.3.3","0","n","yes","0","left","left","right","left","NA","834","51846","6648","834","NA","2","legacy","6","1024","2","48000","-16","experiment","3","odd","6","654821","528971","55383","651514","652612","3533","136988","652613","3536","130339","656825","657661","653617","656825","NA","Sternberg Task ","90","79682","97","yes","1024"
"92.85714285714286","92.85714285714286","820.3673469387755","820.3673469387755","black","experiment","legacy","legacy","legacy","0","uniform","1","undefined","1","right","97","97","0","97","97","0","0","97","0","0","97","97","97","97","0","Mon Oct 12 13:18:14 2020","The main experiment item","yes","SternbergTask.osexp","C:\Users\Owner","no","mono","no","18","no","white","no","yes","768","legacy","85","11","C:/Users/Owner/KTPsubject-3.csv","legacy","7 3 2 8","Lentiform Loewenfeld","3.3.3","0","n","yes","0","right","left","right","right","NA","714","51846","6648","714","NA","2","legacy","4","1024","2","48000","-16","experiment","3","odd","4","660938","657664","55383","651514","658729","3533","136988","658730","3536","130339","662942","663656","659734","662941","NA","Sternberg Task ","91","80396","98","yes","1024"
"91.91919191919192","91.91919191919192","822.1717171717172","822.1717171717172","black","experiment","legacy","legacy","legacy","0","uniform","0","undefined","0","left","98","98","0","98","98","0","0","98","0","0","98","98","98","98","0","Mon Oct 12 13:18:14 2020","The main experiment item","yes","SternbergTask.osexp","C:\Users\Owner","no","mono","no","18","no","white","no","yes","768","legacy","86","11","C:/Users/Owner/KTPsubject-3.csv","legacy","8 5 3 7 4 6","Lentiform Loewenfeld","3.3.3","6","y","yes","0","right","left","right","right","NA","999","51846","6648","999","NA","2","legacy","6","1024","2","48000","-16","experiment","3","odd","6","666982","657664","55383","663663","664774","3533","136988","664774","3536","130339","668986","669986","665778","668985","NA","Sternberg Task ","91","81395","99","yes","1024"
"92","92","821.03","821.03","black","experiment","legacy","legacy","legacy","0","uniform","1","undefined","1","left","99","99","0","99","99","0","0","99","0","0","99","99","99","99","0","Mon Oct 12 13:18:14 2020","The main experiment item","yes","SternbergTask.osexp","C:\Users\Owner","no","mono","no","18","no","white","no","yes","768","legacy","87","11","C:/Users/Owner/KTPsubject-3.csv","legacy","3 5 9 6 2 4","Lentiform Loewenfeld","3.3.3","1","y","yes","0","left","left","right","left","NA","708","51846","6648","708","NA","2","legacy","6","1024","2","48000","-16","experiment","3","odd","3","673307","669990","55383","663663","671098","3533","136988","671099","3536","130339","675308","676017","672103","675308","NA","Sternberg Task ","92","82103","100","yes","1024"
"92.07920792079207","92.07920792079207","820.3267326732673","820.3267326732673","black","experiment","legacy","legacy","legacy","0","uniform","1","undefined","1","right","100","100","0","100","100","0","0","100","0","0","100","100","100","100","0","Mon Oct 12 13:18:14 2020","The main experiment item","yes","SternbergTask.osexp","C:\Users\Owner","no","mono","no","18","no","white","no","yes","768","legacy","88","11","C:/Users/Owner/KTPsubject-3.csv","legacy","5 3 2 6 9 8","Lentiform Loewenfeld","3.3.3","0","n","yes","0","right","left","right","right","NA","750","51846","6648","750","NA","2","legacy","6","1024","2","48000","-16","experiment","3","odd","4","679344","669990","55383","676021","677138","3533","136988","677139","3536","130339","681348","682099","678143","681348","NA","Sternberg Task ","93","82853","101","yes","1024"
"92.15686274509804","92.15686274509804","821.2352941176471","821.2352941176471","black","experiment","legacy","legacy","legacy","0","uniform","1","undefined","1","left","101","101","0","101","101","0","0","101","0","0","101","101","101","101","0","Mon Oct 12 13:18:14 2020","The main experiment item","yes","SternbergTask.osexp","C:\Users\Owner","no","mono","no","18","no","white","no","yes","768","legacy","89","11","C:/Users/Owner/KTPsubject-3.csv","legacy","2 8 5 1","Lentiform Loewenfeld","3.3.3","4","y","yes","0","left","left","right","left","NA","913","51846","6648","913","NA","2","legacy","4","1024","2","48000","-16","experiment","3","odd","1","685416","669990","55383","682102","683208","3533","136988","683208","3536","130339","687420","688333","684212","687420","NA","Sternberg Task ","94","83766","102","yes","1024"
"92.23300970873787","92.23300970873787","821.0097087378641","821.0097087378641","black","experiment","legacy","legacy","legacy","0","uniform","1","undefined","1","left","102","102","0","102","102","0","0","102","0","0","102","102","102","102","0","Mon Oct 12 13:18:14 2020","The main experiment item","yes","SternbergTask.osexp","C:\Users\Owner","no","mono","no","18","no","white","no","yes","768","legacy","90","11","C:/Users/Owner/KTPsubject-3.csv","legacy","4 6 2 5 1","Lentiform Loewenfeld","3.3.3","5","y","yes","0","left","left","right","left","NA","798","51846","6648","798","NA","2","legacy","5","1024","2","48000","-16","experiment","3","odd","1","691657","669990","55383","688337","689447","3533","136988","689449","3536","130339","693658","694457","690453","693658","NA","Sternberg Task ","95","84564","103","yes","1024"
"92.3076923076923","92.3076923076923","819.875","819.875","black","experiment","legacy","legacy","legacy","0","uniform","1","undefined","1","left","103","103","0","103","103","0","0","103","0","0","103","103","103","103","0","Mon Oct 12 13:18:14 2020","The main experiment item","yes","SternbergTask.osexp","C:\Users\Owner","no","mono","no","18","no","white","no","yes","768","legacy","91","11","C:/Users/Owner/KTPsubject-3.csv","legacy","5 7 3 6 2","Lentiform Loewenfeld","3.3.3","5","y","yes","0","left","left","right","left","NA","703","51846","6648","703","NA","2","legacy","5","1024","2","48000","-16","experiment","3","odd","2","697778","669990","55383","694460","695569","3533","136988","695570","3536","130339","699782","700486","696574","699782","NA","Sternberg Task ","96","85267","104","yes","1024"
"92.38095238095238","92.38095238095238","817.5809523809523","817.5809523809523","black","experiment","legacy","legacy","legacy","0","uniform","1","undefined","1","left","104","104","0","104","104","0","0","104","0","0","104","104","104","104","0","Mon Oct 12 13:18:14 2020","The main experiment item","yes","SternbergTask.osexp","C:\Users\Owner","no","mono","no","18","no","white","no","yes","768","legacy","92","11","C:/Users/Owner/KTPsubject-3.csv","legacy","6 8 9 3 4 9","Lentiform Loewenfeld","3.3.3","5","y","yes","0","left","left","right","left","NA","579","51846","6648","579","NA","2","legacy","6","1024","2","48000","-16","experiment","3","odd","4","703815","669990","55383","700490","701605","3533","136988","701607","3536","130339","705816","706396","702611","705816","NA","Sternberg Task ","97","85846","105","yes","1024"
"92.45283018867924","92.45283018867924","817.9150943396227","817.9150943396227","black","experiment","legacy","legacy","legacy","0","uniform","1","undefined","1","right","105","105","0","105","105","0","0","105","0","0","105","105","105","105","0","Mon Oct 12 13:18:14 2020","The main experiment item","yes","SternbergTask.osexp","C:\Users\Owner","no","mono","no","18","no","white","no","yes","768","legacy","93","11","C:/Users/Owner/KTPsubject-3.csv","legacy","5 9 2 3","Lentiform Loewenfeld","3.3.3","0","n","yes","0","right","left","right","right","NA","853","51846","6648","853","NA","2","legacy","4","1024","2","48000","-16","experiment","3","odd","8","709724","669990","55383","706402","707515","3533","136988","707516","3536","130339","711728","712582","708520","711727","NA","Sternberg Task ","98","86699","106","yes","1024"
"91.58878504672897","91.58878504672897","818.9719626168225","818.9719626168225","black","experiment","legacy","legacy","legacy","0","uniform","0","undefined","0","right","106","106","0","106","106","0","0","106","0","0","106","106","106","106","0","Mon Oct 12 13:18:14 2020","The main experiment item","yes","SternbergTask.osexp","C:\Users\Owner","no","mono","no","18","no","white","no","yes","768","legacy","94","11","C:/Users/Owner/KTPsubject-3.csv","legacy","1 7 8 3 9","Lentiform Loewenfeld","3.3.3","0","n","yes","0","left","left","right","left","NA","931","51846","6648","931","NA","2","legacy","5","1024","2","48000","-16","experiment","3","odd","2","715902","669990","55383","712586","713693","3533","136988","713694","3536","130339","717906","718838","714698","717906","NA","Sternberg Task ","98","87630","107","yes","1024"
"91.66666666666667","91.66666666666667","822.6944444444445","822.6944444444445","black","experiment","legacy","legacy","legacy","0","uniform","1","undefined","1","right","107","107","0","107","107","0","0","107","0","0","107","107","107","107","0","Mon Oct 12 13:18:14 2020","The main experiment item","yes","SternbergTask.osexp","C:\Users\Owner","no","mono","no","18","no","white","no","yes","768","legacy","95","11","C:/Users/Owner/KTPsubject-3.csv","legacy","6 9 4 5 2","Lentiform Loewenfeld","3.3.3","0","n","yes","0","right","left","right","right","NA","1221","51846","6648","1221","NA","2","legacy","5","1024","2","48000","-16","experiment","3","odd","1","722167","718842","55383","712586","719957","3533","136988","719959","3536","130339","724171","725393","720963","724171","NA","Sternberg Task ","99","88851","108","yes","1024"
"91.74311926605505","91.74311926605505","823.4862385321101","823.4862385321101","black","experiment","legacy","legacy","legacy","0","uniform","1","undefined","1","left","108","108","0","108","108","0","0","108","0","0","108","108","108","108","0","Mon Oct 12 13:18:14 2020","The main experiment item","yes","SternbergTask.osexp","C:\Users\Owner","no","mono","no","18","no","white","no","yes","768","legacy","96","11","C:/Users/Owner/KTPsubject-3.csv","legacy","6 5","Lentiform Loewenfeld","3.3.3","2","y","yes","0","left","left","right","left","NA","909","51846","6648","909","NA","2","legacy","2","1024","2","48000","-16","experiment","3","odd","5","728709","718842","55383","725397","726499","3533","136988","726501","3536","130339","730713","731623","727505","730713","NA","Sternberg Task ","100","89760","109","yes","1024"
"91.81818181818181","91.81818181818181","822.5818181818182","822.5818181818182","black","experiment","legacy","legacy","legacy","0","uniform","1","undefined","1","right","109","109","0","109","109","0","0","109","0","0","109","109","109","109","0","Mon Oct 12 13:18:14 2020","The main experiment item","yes","SternbergTask.osexp","C:\Users\Owner","no","mono","no","18","no","white","no","yes","768","legacy","97","11","C:/Users/Owner/KTPsubject-3.csv","legacy","7 9","Lentiform Loewenfeld","3.3.3","0","n","yes","0","right","left","right","right","NA","724","51846","6648","724","NA","2","legacy","2","1024","2","48000","-16","experiment","3","odd","1","734937","718842","55383","731628","732731","3533","136988","732732","3536","130339","736938","737664","733733","736938","NA","Sternberg Task ","101","90484","110","yes","1024"
"91.89189189189189","91.89189189189189","822.3603603603603","822.3603603603603","black","experiment","legacy","legacy","legacy","0","uniform","1","undefined","1","right","110","110","0","110","110","0","0","110","0","0","110","110","110","110","0","Mon Oct 12 13:18:14 2020","The main experiment item","yes","SternbergTask.osexp","C:\Users\Owner","no","mono","no","18","no","white","no","yes","768","legacy","98","11","C:/Users/Owner/KTPsubject-3.csv","legacy","6 9 4 5 3 2","Lentiform Loewenfeld","3.3.3","0","n","yes","0","right","left","right","right","NA","798","51846","6648","798","NA","2","legacy","6","1024","2","48000","-16","experiment","3","odd","8","740991","718842","55383","737669","738782","3533","136988","738783","3536","130339","742995","743795","739787","742995","NA","Sternberg Task ","102","91282","111","yes","1024"
"91.96428571428571","91.96428571428571","821.7857142857143","821.7857142857143","black","experiment","legacy","legacy","legacy","0","uniform","1","undefined","1","right","111","111","0","111","111","0","0","111","0","0","111","111","111","111","0","Mon Oct 12 13:18:14 2020","The main experiment item","yes","SternbergTask.osexp","C:\Users\Owner","no","mono","no","18","no","white","no","yes","768","legacy","99","11","C:/Users/Owner/KTPsubject-3.csv","legacy","1 4 9 2 5","Lentiform Loewenfeld","3.3.3","0","n","yes","0","right","left","right","right","NA","758","51846","6648","758","NA","2","legacy","5","1024","2","48000","-16","experiment","3","odd","7","747112","718842","55383","743798","744903","3533","136988","744904","3536","130339","749117","749876","745908","749117","NA","Sternberg Task ","103","92040","112","yes","1024"
"92.03539823008849","92.03539823008849","821.1858407079646","821.1858407079646","black","experiment","legacy","legacy","legacy","0","uniform","1","undefined","1","right","112","112","0","112","112","0","0","112","0","0","112","112","112","112","0","Mon Oct 12 13:18:14 2020","The main experiment item","yes","SternbergTask.osexp","C:\Users\Owner","no","mono","no","18","no","white","no","yes","768","legacy","100","11","C:/Users/Owner/KTPsubject-3.csv","legacy","6 9 5","Lentiform Loewenfeld","3.3.3","0","n","yes","0","right","left","right","right","NA","754","51846","6648","754","NA","2","legacy","3","1024","2","48000","-16","experiment","3","odd","8","753187","718842","55383","749880","750979","3533","136988","750981","3536","130339","755189","755944","751983","755189","NA","Sternberg Task ","104","92794","113","yes","1024"
"92.10526315789474","92.10526315789474","824.3508771929825","824.3508771929825","black","experiment","legacy","legacy","legacy","0","uniform","1","undefined","1","left","113","113","0","113","113","0","0","113","0","0","113","113","113","113","0","Mon Oct 12 13:18:14 2020","The main experiment item","yes","SternbergTask.osexp","C:\Users\Owner","no","mono","no","18","no","white","no","yes","768","legacy","101","11","C:/Users/Owner/KTPsubject-3.csv","legacy","9 3 8 2 1 4","Lentiform Loewenfeld","3.3.3","3","y","yes","0","left","left","right","left","NA","1182","51846","6648","1182","NA","2","legacy","6","1024","2","48000","-16","experiment","3","odd","8","759262","718842","55383","755948","757052","3533","136988","757054","3536","130339","761266","762449","758058","761266","NA","Sternberg Task ","105","93976","114","yes","1024"
"92.17391304347827","92.17391304347827","825.0260869565218","825.0260869565218","black","experiment","legacy","legacy","legacy","0","uniform","1","undefined","1","left","114","114","0","114","114","0","0","114","0","0","114","114","114","114","0","Mon Oct 12 13:18:14 2020","The main experiment item","yes","SternbergTask.osexp","C:\Users\Owner","no","mono","no","18","no","white","no","yes","768","legacy","102","11","C:/Users/Owner/KTPsubject-3.csv","legacy","4 3 2 5 8","Lentiform Loewenfeld","3.3.3","2","y","yes","0","left","left","right","left","NA","902","51846","6648","902","NA","2","legacy","5","1024","2","48000","-16","experiment","3","odd","3","765739","718842","55383","762452","763529","3533","136988","763530","3536","130339","767744","768647","764534","767743","NA","Sternberg Task ","106","94878","115","yes","1024"
"91.37931034482759","91.37931034482759","829.8793103448276","829.8793103448276","black","experiment","legacy","legacy","legacy","0","uniform","0","undefined","0","left","115","115","0","115","115","0","0","115","0","0","115","115","115","115","0","Mon Oct 12 13:18:14 2020","The main experiment item","yes","SternbergTask.osexp","C:\Users\Owner","no","mono","no","18","no","white","no","yes","768","legacy","103","11","C:/Users/Owner/KTPsubject-3.csv","legacy","5 7 8 2 3 8","Lentiform Loewenfeld","3.3.3","5","y","yes","0","right","left","right","right","NA","1388","51846","6648","1388","NA","2","legacy","6","1024","2","48000","-16","experiment","3","odd","3","771966","718842","55383","768651","769757","3533","136988","769758","3536","130339","773970","775359","770762","773970","NA","Sternberg Task ","106","96266","116","yes","1024"
"91.45299145299145","91.45299145299145","827.6837606837607","827.6837606837607","black","experiment","legacy","legacy","legacy","0","uniform","1","undefined","1","left","116","116","0","116","116","0","0","116","0","0","116","116","116","116","0","Mon Oct 12 13:18:14 2020","The main experiment item","yes","SternbergTask.osexp","C:\Users\Owner","no","mono","no","18","no","white","no","yes","768","legacy","104","11","C:/Users/Owner/KTPsubject-3.csv","legacy","2 4 8 5 1 3","Lentiform Loewenfeld","3.3.3","1","y","yes","0","left","left","right","left","NA","573","51846","6648","573","NA","2","legacy","6","1024","2","48000","-16","experiment","3","odd","2","778687","775363","55383","768651","776479","3533","136988","776480","3536","130339","780691","781265","777484","780691","NA","Sternberg Task ","107","96839","117","yes","1024"
"91.52542372881356","91.52542372881356","827.3389830508474","827.3389830508474","black","experiment","legacy","legacy","legacy","0","uniform","1","undefined","1","right","117","117","0","117","117","0","0","117","0","0","117","117","117","117","0","Mon Oct 12 13:18:14 2020","The main experiment item","yes","SternbergTask.osexp","C:\Users\Owner","no","mono","no","18","no","white","no","yes","768","legacy","105","11","C:/Users/Owner/KTPsubject-3.csv","legacy","4 2 7 6 1 3","Lentiform Loewenfeld","3.3.3","0","n","yes","0","right","left","right","right","NA","787","51846","6648","787","NA","2","legacy","6","1024","2","48000","-16","experiment","3","odd","8","784590","775363","55383","781270","782381","3533","136988","782382","3536","130339","786594","787382","783386","786592","NA","Sternberg Task ","108","97626","118","yes","1024"
"91.59663865546219","91.59663865546219","827.4453781512605","827.4453781512605","black","experiment","legacy","legacy","legacy","0","uniform","1","undefined","1","left","118","118","0","118","118","0","0","118","0","0","118","118","118","118","0","Mon Oct 12 13:18:14 2020","The main experiment item","yes","SternbergTask.osexp","C:\Users\Owner","no","mono","no","18","no","white","no","yes","768","legacy","106","11","C:/Users/Owner/KTPsubject-3.csv","legacy","4 7 6 8 2 3","Lentiform Loewenfeld","3.3.3","6","y","yes","0","left","left","right","left","NA","840","51846","6648","840","NA","2","legacy","6","1024","2","48000","-16","experiment","3","odd","3","790710","775363","55383","787387","788501","3533","136988","788502","3536","130339","792711","793552","789505","792711","NA","Sternberg Task ","109","98466","119","yes","1024"
"91.66666666666667","91.66666666666667","827.3833333333333","827.3833333333333","black","experiment","legacy","legacy","legacy","0","uniform","1","undefined","1","left","119","119","0","119","119","0","0","119","0","0","119","119","119","119","0","Mon Oct 12 13:18:14 2020","The main experiment item","yes","SternbergTask.osexp","C:\Users\Owner","no","mono","no","18","no","white","no","yes","768","legacy","107","11","C:/Users/Owner/KTPsubject-3.csv","legacy","9 5 3 8 4","Lentiform Loewenfeld","3.3.3","1","y","yes","0","left","left","right","left","NA","820","51846","6648","820","NA","2","legacy","5","1024","2","48000","-16","experiment","3","odd","9","796869","775363","55383","793556","794663","3533","136988","794664","3536","130339","798873","799694","795668","798873","NA","Sternberg Task ","110","99286","120","yes","1024"
