"acc","accuracy","average_response_time","avg_rt","background","block","canvas_backend","clock_backend","color_backend","compensation","coordinates","correct","correct_instruction1","correct_keyboard_response","correct_response","count_ISI","count_correctFeedback","count_expSequence","count_experiment","count_experimentLoop","count_fixation","count_incorrectFeedback","count_instruction1","count_instructions2","count_keyboard_response","count_memorySet","count_new_logger","count_practiceLoop","count_probe","count_thankYou","datetime","description","disable_garbage_collection","experiment_file","experiment_path","font_bold","font_family","font_italic","font_size","font_underline","foreground","form_clicks","fullscreen","height","keyboard_backend","live_row","live_row_practiceLoop","logfile","mouse_backend","numberSet","opensesame_codename","opensesame_version","posInSet","present","repeat_cycle","response","response_instruction1","response_instructions2","response_keyboard_response","response_thankYou","response_time","response_time_instruction1","response_time_instructions2","response_time_keyboard_response","response_time_thankYou","round_decimals","sampler_backend","setSize","sound_buf_size","sound_channels","sound_freq","sound_sample_size","start","subject_nr","subject_parity","target","time_ISI","time_correctFeedback","time_expSequence","time_experiment","time_experimentLoop","time_fixation","time_incorrectFeedback","time_instruction1","time_instructions2","time_keyboard_response","time_memorySet","time_new_logger","time_practiceLoop","time_probe","time_thankYou","title","total_correct","total_response_time","total_responses","uniform_coordinates","width"
"100","100","875","875","black","practice","legacy","legacy","legacy","0","uniform","1","undefined","1","right","0","0","0","0","0","0","0","0","0","0","0","0","0","0","0","10/23/21 14:26:03","The main experiment item","yes","SternbergExperiment.osexp","C:\Users\katie\Documents\School\Quant Methods\Lab 3","no","mono","no","18","no","white","no","yes","768","legacy","0","0","C:/Users/katie/Documents/School/Quant Methods/Lab 3/KH-subject-3.csv","legacy","5 7 8 4 1 2","Lentiform Loewenfeld","3.3.9","0","n","0","right","space","NA","right","NA","875","85546","NA","875","NA","2","legacy","6","1024","2","48000","-16","experiment","1","odd","6","91600","NA","89395","3127","NA","89397","NA","3130","NA","93603","90399","94479","88679","93603","NA","Sternberg task","1","875","1","yes","1024"
"100","100","837","837","black","practice","legacy","legacy","legacy","0","uniform","1","undefined","1","right","1","1","1","0","0","1","1","0","0","1","1","1","0","1","0","10/23/21 14:26:03","The main experiment item","yes","SternbergExperiment.osexp","C:\Users\katie\Documents\School\Quant Methods\Lab 3","no","mono","no","18","no","white","no","yes","768","legacy","1","1","C:/Users/katie/Documents/School/Quant Methods/Lab 3/KH-subject-3.csv","legacy","3 1 9 4","Lentiform Loewenfeld","3.3.9","0","n","0","right","space","NA","right","NA","799","85546","NA","799","NA","2","legacy","4","1024","2","48000","-16","experiment","1","odd","6","97822","94541","95617","3127","NA","95619","NA","3130","NA","99823","96620","100622","88679","99823","NA","Sternberg task","2","1674","2","yes","1024"
"100","100","743.666666667","743.666666667","black","practice","legacy","legacy","legacy","0","uniform","1","undefined","1","left","2","2","2","0","0","2","2","0","0","2","2","2","0","2","0","10/23/21 14:26:03","The main experiment item","yes","SternbergExperiment.osexp","C:\Users\katie\Documents\School\Quant Methods\Lab 3","no","mono","no","18","no","white","no","yes","768","legacy","2","2","C:/Users/katie/Documents/School/Quant Methods/Lab 3/KH-subject-3.csv","legacy","4 3 1 7 9 8","Lentiform Loewenfeld","3.3.9","1","y","0","left","space","NA","left","NA","557","85546","NA","557","NA","2","legacy","6","1024","2","48000","-16","experiment","1","odd","4","103890","100627","101684","3127","NA","101686","NA","3130","NA","105892","102688","106450","88679","105892","NA","Sternberg task","3","2231","3","yes","1024"
"100","100","675.75","675.75","black","practice","legacy","legacy","legacy","0","uniform","1","undefined","1","left","3","3","3","0","0","3","3","0","0","3","3","3","0","3","0","10/23/21 14:26:03","The main experiment item","yes","SternbergExperiment.osexp","C:\Users\katie\Documents\School\Quant Methods\Lab 3","no","mono","no","18","no","white","no","yes","768","legacy","3","3","C:/Users/katie/Documents/School/Quant Methods/Lab 3/KH-subject-3.csv","legacy","1 5 2 9","Lentiform Loewenfeld","3.3.9","2","y","0","left","space","NA","left","NA","472","85546","NA","472","NA","2","legacy","4","1024","2","48000","-16","experiment","1","odd","5","109775","106455","107568","3127","NA","107571","NA","3130","NA","111776","108573","112249","88679","111776","NA","Sternberg task","4","2703","4","yes","1024"
"80","80","660.2","660.2","black","practice","legacy","legacy","legacy","0","uniform","0","undefined","0","left","4","4","4","0","0","4","4","0","0","4","4","4","0","4","0","10/23/21 14:26:03","The main experiment item","yes","SternbergExperiment.osexp","C:\Users\katie\Documents\School\Quant Methods\Lab 3","no","mono","no","18","no","white","no","yes","768","legacy","4","4","C:/Users/katie/Documents/School/Quant Methods/Lab 3/KH-subject-3.csv","legacy","6","Lentiform Loewenfeld","3.3.9","1","y","0","right","space","NA","right","NA","598","85546","NA","598","NA","2","legacy","1","1024","2","48000","-16","experiment","1","odd","6","115554","112259","113348","3127","NA","113351","NA","3130","NA","117556","114353","118155","88679","117556","NA","Sternberg task","4","3301","5","yes","1024"
"83.3333333333","83.3333333333","713.833333333","713.833333333","black","practice","legacy","legacy","legacy","0","uniform","1","undefined","1","right","5","5","5","0","0","5","5","0","0","5","5","5","0","5","0","10/23/21 14:26:03","The main experiment item","yes","SternbergExperiment.osexp","C:\Users\katie\Documents\School\Quant Methods\Lab 3","no","mono","no","18","no","white","no","yes","768","legacy","5","5","C:/Users/katie/Documents/School/Quant Methods/Lab 3/KH-subject-3.csv","legacy","4 1 5","Lentiform Loewenfeld","3.3.9","0","n","0","right","space","NA","right","NA","982","85546","NA","982","NA","2","legacy","3","1024","2","48000","-16","experiment","1","odd","2","121430","112259","119225","3127","NA","119227","118159","3130","NA","123432","120228","124414","88679","123432","NA","Sternberg task","5","4283","6","yes","1024"
"85.7142857143","85.7142857143","703.142857143","703.142857143","black","practice","legacy","legacy","legacy","0","uniform","1","undefined","1","right","6","6","6","0","0","6","6","0","0","6","6","6","0","6","0","10/23/21 14:26:03","The main experiment item","yes","SternbergExperiment.osexp","C:\Users\katie\Documents\School\Quant Methods\Lab 3","no","mono","no","18","no","white","no","yes","768","legacy","6","6","C:/Users/katie/Documents/School/Quant Methods/Lab 3/KH-subject-3.csv","legacy","9 6 7 4 5","Lentiform Loewenfeld","3.3.9","0","n","0","right","space","NA","right","NA","639","85546","NA","639","NA","2","legacy","5","1024","2","48000","-16","experiment","1","odd","3","127681","124418","125477","3127","NA","125479","118159","3130","NA","129683","126480","130323","88679","129683","NA","Sternberg task","6","4922","7","yes","1024"
"87.5","87.5","736.125","736.125","black","practice","legacy","legacy","legacy","0","uniform","1","undefined","1","left","7","7","7","0","0","7","7","0","0","7","7","7","0","7","0","10/23/21 14:26:03","The main experiment item","yes","SternbergExperiment.osexp","C:\Users\katie\Documents\School\Quant Methods\Lab 3","no","mono","no","18","no","white","no","yes","768","legacy","7","7","C:/Users/katie/Documents/School/Quant Methods/Lab 3/KH-subject-3.csv","legacy","2 9 4","Lentiform Loewenfeld","3.3.9","3","y","0","left","space","NA","left","NA","967","85546","NA","967","NA","2","legacy","3","1024","2","48000","-16","experiment","1","odd","4","133597","130327","131391","3127","NA","131393","118159","3130","NA","135600","132395","136568","88679","135599","NA","Sternberg task","7","5889","8","yes","1024"
"88.8888888889","88.8888888889","709.222222222","709.222222222","black","practice","legacy","legacy","legacy","0","uniform","1","undefined","1","left","8","8","8","0","0","8","8","0","0","8","8","8","0","8","0","10/23/21 14:26:03","The main experiment item","yes","SternbergExperiment.osexp","C:\Users\katie\Documents\School\Quant Methods\Lab 3","no","mono","no","18","no","white","no","yes","768","legacy","8","8","C:/Users/katie/Documents/School/Quant Methods/Lab 3/KH-subject-3.csv","legacy","4 8","Lentiform Loewenfeld","3.3.9","1","y","0","left","space","NA","left","NA","494","85546","NA","494","NA","2","legacy","2","1024","2","48000","-16","experiment","1","odd","4","139878","136573","137672","3127","NA","137674","118159","3130","NA","141880","138675","142375","88679","141880","NA","Sternberg task","8","6383","9","yes","1024"
"80","80","838.3","838.3","black","practice","legacy","legacy","legacy","0","uniform","0","undefined","0","right","9","9","9","0","0","9","9","0","0","9","9","9","0","9","0","10/23/21 14:26:03","The main experiment item","yes","SternbergExperiment.osexp","C:\Users\katie\Documents\School\Quant Methods\Lab 3","no","mono","no","18","no","white","no","yes","768","legacy","9","9","C:/Users/katie/Documents/School/Quant Methods/Lab 3/KH-subject-3.csv","legacy","5","Lentiform Loewenfeld","3.3.9","0","n","0","None","space","NA","None","NA","2000","85546","NA","2000","NA","2","legacy","1","1024","2","48000","-16","experiment","1","odd","3","145693","142381","143488","3127","NA","143490","118159","3130","NA","147695","144493","149695","88679","147695","NA","Sternberg task","8","8383","10","yes","1024"
"72.7272727273","72.7272727273","943.909090909","943.909090909","black","practice","legacy","legacy","legacy","0","uniform","0","undefined","0","right","10","10","10","0","0","10","10","0","0","10","10","10","0","10","0","10/23/21 14:26:03","The main experiment item","yes","SternbergExperiment.osexp","C:\Users\katie\Documents\School\Quant Methods\Lab 3","no","mono","no","18","no","white","no","yes","768","legacy","10","10","C:/Users/katie/Documents/School/Quant Methods/Lab 3/KH-subject-3.csv","legacy","2 1","Lentiform Loewenfeld","3.3.9","0","n","0","None","space","NA","None","NA","2000","85546","NA","2000","NA","2","legacy","2","1024","2","48000","-16","experiment","1","odd","5","153264","142381","150761","3127","NA","151062","149700","3130","NA","155266","152064","157266","88679","155265","NA","Sternberg task","8","10383","11","yes","1024"
"66.6666666667","66.6666666667","1031.91666667","1031.91666667","black","practice","legacy","legacy","legacy","0","uniform","0","undefined","0","left","11","11","11","0","0","11","11","0","0","11","11","11","0","11","0","10/23/21 14:26:03","The main experiment item","yes","SternbergExperiment.osexp","C:\Users\katie\Documents\School\Quant Methods\Lab 3","no","mono","no","18","no","white","no","yes","768","legacy","11","11","C:/Users/katie/Documents/School/Quant Methods/Lab 3/KH-subject-3.csv","legacy","1 7 9 8 5","Lentiform Loewenfeld","3.3.9","4","y","0","None","space","NA","None","NA","2000","85546","NA","2000","NA","2","legacy","5","1024","2","48000","-16","experiment","1","odd","8","160551","142381","158346","3127","NA","158348","157270","3130","NA","162756","159349","164756","88679","162553","NA","Sternberg task","8","12383","12","yes","1024"
"69.2307692308","69.2307692308","1010.76923077","1010.76923077","black","experiment","legacy","legacy","legacy","0","uniform","1","undefined","1","right","12","12","12","0","0","12","12","0","0","12","12","12","0","12","0","10/23/21 14:26:03","The main experiment item","yes","SternbergExperiment.osexp","C:\Users\katie\Documents\School\Quant Methods\Lab 3","no","mono","no","18","no","white","no","yes","768","legacy","0","11","C:/Users/katie/Documents/School/Quant Methods/Lab 3/KH-subject-3.csv","legacy","4 8 1 2","Lentiform Loewenfeld","3.3.9","0","n","0","right","space","space","right","NA","757","85546","8202","757","NA","2","legacy","4","1024","2","48000","-16","experiment","1","odd","7","176344","142381","174138","3127","173985","174141","164761","3130","165783","178346","175143","179104","88679","178346","NA","Sternberg task","9","13140","13","yes","1024"
"64.2857142857","64.2857142857","994.142857143","994.142857143","black","experiment","legacy","legacy","legacy","0","uniform","0","undefined","0","left","13","13","13","0","0","13","13","0","0","13","13","13","0","13","0","10/23/21 14:26:03","The main experiment item","yes","SternbergExperiment.osexp","C:\Users\katie\Documents\School\Quant Methods\Lab 3","no","mono","no","18","no","white","no","yes","768","legacy","1","11","C:/Users/katie/Documents/School/Quant Methods/Lab 3/KH-subject-3.csv","legacy","5 7 3 6 2","Lentiform Loewenfeld","3.3.9","5","y","0","right","space","space","right","NA","778","85546","8202","778","NA","2","legacy","5","1024","2","48000","-16","experiment","1","odd","2","182411","179108","180205","3127","173985","180208","164761","3130","165783","184415","181209","185193","88679","184415","NA","Sternberg task","9","13918","14","yes","1024"
"66.6666666667","66.6666666667","1020.2","1020.2","black","experiment","legacy","legacy","legacy","0","uniform","1","undefined","1","right","14","14","14","0","0","14","14","0","0","14","14","14","0","14","0","10/23/21 14:26:03","The main experiment item","yes","SternbergExperiment.osexp","C:\Users\katie\Documents\School\Quant Methods\Lab 3","no","mono","no","18","no","white","no","yes","768","legacy","2","11","C:/Users/katie/Documents/School/Quant Methods/Lab 3/KH-subject-3.csv","legacy","8 9","Lentiform Loewenfeld","3.3.9","0","n","0","right","space","space","right","NA","1385","85546","8202","1385","NA","2","legacy","2","1024","2","48000","-16","experiment","1","odd","5","188508","179108","186301","3127","173985","186304","185199","3130","165783","190510","187306","191896","88679","190510","NA","Sternberg task","10","15303","15","yes","1024"
"68.75","68.75","1016.3125","1016.3125","black","experiment","legacy","legacy","legacy","0","uniform","1","undefined","1","right","15","15","15","0","0","15","15","0","0","15","15","15","0","15","0","10/23/21 14:26:03","The main experiment item","yes","SternbergExperiment.osexp","C:\Users\katie\Documents\School\Quant Methods\Lab 3","no","mono","no","18","no","white","no","yes","768","legacy","3","11","C:/Users/katie/Documents/School/Quant Methods/Lab 3/KH-subject-3.csv","legacy","4 2 6 9","Lentiform Loewenfeld","3.3.9","0","n","0","right","space","space","right","NA","958","85546","8202","958","NA","2","legacy","4","1024","2","48000","-16","experiment","1","odd","7","195202","191901","192997","3127","173985","193000","185199","3130","165783","197203","194001","198162","88679","197203","NA","Sternberg task","11","16261","16","yes","1024"
"70.5882352941","70.5882352941","1003.29411765","1003.29411765","black","experiment","legacy","legacy","legacy","0","uniform","1","undefined","1","right","16","16","16","0","0","16","16","0","0","16","16","16","0","16","0","10/23/21 14:26:03","The main experiment item","yes","SternbergExperiment.osexp","C:\Users\katie\Documents\School\Quant Methods\Lab 3","no","mono","no","18","no","white","no","yes","768","legacy","4","11","C:/Users/katie/Documents/School/Quant Methods/Lab 3/KH-subject-3.csv","legacy","6 3 1 7 9 8","Lentiform Loewenfeld","3.3.9","0","n","0","right","space","space","right","NA","795","85546","8202","795","NA","2","legacy","6","1024","2","48000","-16","experiment","1","odd","4","201483","198167","199274","3127","173985","199277","185199","3130","165783","203486","200280","204282","88679","203485","NA","Sternberg task","12","17056","17","yes","1024"
"72.2222222222","72.2222222222","987.277777778","987.277777778","black","experiment","legacy","legacy","legacy","0","uniform","1","undefined","1","left","17","17","17","0","0","17","17","0","0","17","17","17","0","17","0","10/23/21 14:26:03","The main experiment item","yes","SternbergExperiment.osexp","C:\Users\katie\Documents\School\Quant Methods\Lab 3","no","mono","no","18","no","white","no","yes","768","legacy","5","11","C:/Users/katie/Documents/School/Quant Methods/Lab 3/KH-subject-3.csv","legacy","2 5 4 8 7","Lentiform Loewenfeld","3.3.9","3","y","0","left","space","space","left","NA","715","85546","8202","715","NA","2","legacy","5","1024","2","48000","-16","experiment","1","odd","4","207603","204287","205395","3127","173985","205399","185199","3130","165783","209605","206401","210321","88679","209605","NA","Sternberg task","13","17771","18","yes","1024"
"73.6842105263","73.6842105263","966.052631579","966.052631579","black","experiment","legacy","legacy","legacy","0","uniform","1","undefined","1","left","18","18","18","0","0","18","18","0","0","18","18","18","0","18","0","10/23/21 14:26:03","The main experiment item","yes","SternbergExperiment.osexp","C:\Users\katie\Documents\School\Quant Methods\Lab 3","no","mono","no","18","no","white","no","yes","768","legacy","6","11","C:/Users/katie/Documents/School/Quant Methods/Lab 3/KH-subject-3.csv","legacy","8 9 5 6 7","Lentiform Loewenfeld","3.3.9","1","y","0","left","space","space","left","NA","584","85546","8202","584","NA","2","legacy","5","1024","2","48000","-16","experiment","1","odd","8","213604","210325","211400","3127","173985","211402","185199","3130","165783","215605","212402","216190","88679","215604","NA","Sternberg task","14","18355","19","yes","1024"
"75","75","959.6","959.6","black","experiment","legacy","legacy","legacy","0","uniform","1","undefined","1","left","19","19","19","0","0","19","19","0","0","19","19","19","0","19","0","10/23/21 14:26:03","The main experiment item","yes","SternbergExperiment.osexp","C:\Users\katie\Documents\School\Quant Methods\Lab 3","no","mono","no","18","no","white","no","yes","768","legacy","7","11","C:/Users/katie/Documents/School/Quant Methods/Lab 3/KH-subject-3.csv","legacy","5 2 9 6 1 7","Lentiform Loewenfeld","3.3.9","3","y","0","left","space","space","left","NA","837","85546","8202","837","NA","2","legacy","6","1024","2","48000","-16","experiment","1","odd","9","219460","216194","217255","3127","173985","217257","185199","3130","165783","221462","218258","222308","88679","221461","NA","Sternberg task","15","19192","20","yes","1024"
"76.1904761905","76.1904761905","948.857142857","948.857142857","black","experiment","legacy","legacy","legacy","0","uniform","1","undefined","1","right","20","20","20","0","0","20","20","0","0","20","20","20","0","20","0","10/23/21 14:26:03","The main experiment item","yes","SternbergExperiment.osexp","C:\Users\katie\Documents\School\Quant Methods\Lab 3","no","mono","no","18","no","white","no","yes","768","legacy","8","11","C:/Users/katie/Documents/School/Quant Methods/Lab 3/KH-subject-3.csv","legacy","1 6 4","Lentiform Loewenfeld","3.3.9","0","n","0","right","space","space","right","NA","734","85546","8202","734","NA","2","legacy","3","1024","2","48000","-16","experiment","1","odd","7","225627","222318","223420","3127","173985","223422","185199","3130","165783","227629","224426","228364","88679","227629","NA","Sternberg task","16","19926","21","yes","1024"
"77.2727272727","77.2727272727","949.363636364","949.363636364","black","experiment","legacy","legacy","legacy","0","uniform","1","undefined","1","left","21","21","21","0","0","21","21","0","0","21","21","21","0","21","0","10/23/21 14:26:03","The main experiment item","yes","SternbergExperiment.osexp","C:\Users\katie\Documents\School\Quant Methods\Lab 3","no","mono","no","18","no","white","no","yes","768","legacy","9","11","C:/Users/katie/Documents/School/Quant Methods/Lab 3/KH-subject-3.csv","legacy","6 9 3 1","Lentiform Loewenfeld","3.3.9","4","y","0","left","space","space","left","NA","960","85546","8202","960","NA","2","legacy","4","1024","2","48000","-16","experiment","1","odd","1","231642","228368","229439","3127","173985","229440","185199","3130","165783","233644","230441","234605","88679","233644","NA","Sternberg task","17","20886","22","yes","1024"
"78.2608695652","78.2608695652","934.956521739","934.956521739","black","experiment","legacy","legacy","legacy","0","uniform","1","undefined","1","right","22","22","22","0","0","22","22","0","0","22","22","22","0","22","0","10/23/21 14:26:03","The main experiment item","yes","SternbergExperiment.osexp","C:\Users\katie\Documents\School\Quant Methods\Lab 3","no","mono","no","18","no","white","no","yes","768","legacy","10","11","C:/Users/katie/Documents/School/Quant Methods/Lab 3/KH-subject-3.csv","legacy","1 4 9 3","Lentiform Loewenfeld","3.3.9","0","n","0","right","space","space","right","NA","618","85546","8202","618","NA","2","legacy","4","1024","2","48000","-16","experiment","1","odd","5","237937","234611","235731","3127","173985","235735","185199","3130","165783","239940","236736","240558","88679","239939","NA","Sternberg task","18","21504","23","yes","1024"
"79.1666666667","79.1666666667","925.25","925.25","black","experiment","legacy","legacy","legacy","0","uniform","1","undefined","1","right","23","23","23","0","0","23","23","0","0","23","23","23","0","23","0","10/23/21 14:26:03","The main experiment item","yes","SternbergExperiment.osexp","C:\Users\katie\Documents\School\Quant Methods\Lab 3","no","mono","no","18","no","white","no","yes","768","legacy","11","11","C:/Users/katie/Documents/School/Quant Methods/Lab 3/KH-subject-3.csv","legacy","1 3 2 6 9","Lentiform Loewenfeld","3.3.9","0","n","0","right","space","space","right","NA","702","85546","8202","702","NA","2","legacy","5","1024","2","48000","-16","experiment","1","odd","5","243825","240562","241622","3127","173985","241623","185199","3130","165783","245826","242624","246529","88679","245826","NA","Sternberg task","19","22206","24","yes","1024"
"80","80","926.28","926.28","black","experiment","legacy","legacy","legacy","0","uniform","1","undefined","1","left","24","24","24","0","0","24","24","0","0","24","24","24","0","24","0","10/23/21 14:26:03","The main experiment item","yes","SternbergExperiment.osexp","C:\Users\katie\Documents\School\Quant Methods\Lab 3","no","mono","no","18","no","white","no","yes","768","legacy","12","11","C:/Users/katie/Documents/School/Quant Methods/Lab 3/KH-subject-3.csv","legacy","4 7 6 8 2 3","Lentiform Loewenfeld","3.3.9","6","y","0","left","space","space","left","NA","951","85546","8202","951","NA","2","legacy","6","1024","2","48000","-16","experiment","1","odd","3","249795","246533","247591","3127","173985","247593","185199","3130","165783","251796","248594","252748","88679","251796","NA","Sternberg task","20","23157","25","yes","1024"
"80.7692307692","80.7692307692","926.076923077","926.076923077","black","experiment","legacy","legacy","legacy","0","uniform","1","undefined","1","left","25","25","25","0","0","25","25","0","0","25","25","25","0","25","0","10/23/21 14:26:03","The main experiment item","yes","SternbergExperiment.osexp","C:\Users\katie\Documents\School\Quant Methods\Lab 3","no","mono","no","18","no","white","no","yes","768","legacy","13","11","C:/Users/katie/Documents/School/Quant Methods/Lab 3/KH-subject-3.csv","legacy","7 6","Lentiform Loewenfeld","3.3.9","2","y","0","left","space","space","left","NA","921","85546","8202","921","NA","2","legacy","2","1024","2","48000","-16","experiment","1","odd","6","256016","252751","253811","3127","173985","253813","185199","3130","165783","258017","254814","258939","88679","258017","NA","Sternberg task","21","24078","26","yes","1024"
"81.4814814815","81.4814814815","922.888888889","922.888888889","black","experiment","legacy","legacy","legacy","0","uniform","1","undefined","1","left","26","26","26","0","0","26","26","0","0","26","26","26","0","26","0","10/23/21 14:26:03","The main experiment item","yes","SternbergExperiment.osexp","C:\Users\katie\Documents\School\Quant Methods\Lab 3","no","mono","no","18","no","white","no","yes","768","legacy","14","11","C:/Users/katie/Documents/School/Quant Methods/Lab 3/KH-subject-3.csv","legacy","3 4 9 6 2 9","Lentiform Loewenfeld","3.3.9","5","y","0","left","space","space","left","NA","840","85546","8202","840","NA","2","legacy","6","1024","2","48000","-16","experiment","1","odd","2","262205","258942","259999","3127","173985","260002","185199","3130","165783","264208","261003","265049","88679","264206","NA","Sternberg task","22","24918","27","yes","1024"
"82.1428571429","82.1428571429","914.821428571","914.821428571","black","experiment","legacy","legacy","legacy","0","uniform","1","undefined","1","right","27","27","27","0","0","27","27","0","0","27","27","27","0","27","0","10/23/21 14:26:03","The main experiment item","yes","SternbergExperiment.osexp","C:\Users\katie\Documents\School\Quant Methods\Lab 3","no","mono","no","18","no","white","no","yes","768","legacy","15","11","C:/Users/katie/Documents/School/Quant Methods/Lab 3/KH-subject-3.csv","legacy","7 4 2 8 1 9","Lentiform Loewenfeld","3.3.9","0","n","0","right","space","space","right","NA","697","85546","8202","697","NA","2","legacy","6","1024","2","48000","-16","experiment","1","odd","5","268311","265052","266106","3127","173985","266109","185199","3130","165783","270311","267110","271008","88679","270311","NA","Sternberg task","23","25615","28","yes","1024"
"82.7586206897","82.7586206897","910.206896552","910.206896552","black","experiment","legacy","legacy","legacy","0","uniform","1","undefined","1","left","28","28","28","0","0","28","28","0","0","28","28","28","0","28","0","10/23/21 14:26:03","The main experiment item","yes","SternbergExperiment.osexp","C:\Users\katie\Documents\School\Quant Methods\Lab 3","no","mono","no","18","no","white","no","yes","768","legacy","16","11","C:/Users/katie/Documents/School/Quant Methods/Lab 3/KH-subject-3.csv","legacy","7 1 3","Lentiform Loewenfeld","3.3.9","2","y","0","left","space","space","left","NA","781","85546","8202","781","NA","2","legacy","3","1024","2","48000","-16","experiment","1","odd","1","274271","271011","272066","3127","173985","272068","185199","3130","165783","276271","273070","277053","88679","276271","NA","Sternberg task","24","26396","29","yes","1024"
"83.3333333333","83.3333333333","898.833333333","898.833333333","black","experiment","legacy","legacy","legacy","0","uniform","1","undefined","1","left","29","29","29","0","0","29","29","0","0","29","29","29","0","29","0","10/23/21 14:26:03","The main experiment item","yes","SternbergExperiment.osexp","C:\Users\katie\Documents\School\Quant Methods\Lab 3","no","mono","no","18","no","white","no","yes","768","legacy","17","11","C:/Users/katie/Documents/School/Quant Methods/Lab 3/KH-subject-3.csv","legacy","8 7 3","Lentiform Loewenfeld","3.3.9","1","y","0","left","space","space","left","NA","569","85546","8202","569","NA","2","legacy","3","1024","2","48000","-16","experiment","1","odd","8","280312","277057","278107","3127","173985","278109","185199","3130","165783","282313","279110","282883","88679","282313","NA","Sternberg task","25","26965","30","yes","1024"
"83.8709677419","83.8709677419","886.838709677","886.838709677","black","experiment","legacy","legacy","legacy","0","uniform","1","undefined","1","right","30","30","30","0","0","30","30","0","0","30","30","30","0","30","0","10/23/21 14:26:03","The main experiment item","yes","SternbergExperiment.osexp","C:\Users\katie\Documents\School\Quant Methods\Lab 3","no","mono","no","18","no","white","no","yes","768","legacy","18","11","C:/Users/katie/Documents/School/Quant Methods/Lab 3/KH-subject-3.csv","legacy","6 9 5","Lentiform Loewenfeld","3.3.9","0","n","0","right","space","space","right","NA","527","85546","8202","527","NA","2","legacy","3","1024","2","48000","-16","experiment","1","odd","8","286152","282890","283946","3127","173985","283947","185199","3130","165783","288153","284949","288680","88679","288153","NA","Sternberg task","26","27492","31","yes","1024"
"84.375","84.375","888.6875","888.6875","black","experiment","legacy","legacy","legacy","0","uniform","1","undefined","1","left","31","31","31","0","0","31","31","0","0","31","31","31","0","31","0","10/23/21 14:26:03","The main experiment item","yes","SternbergExperiment.osexp","C:\Users\katie\Documents\School\Quant Methods\Lab 3","no","mono","no","18","no","white","no","yes","768","legacy","19","11","C:/Users/katie/Documents/School/Quant Methods/Lab 3/KH-subject-3.csv","legacy","7 4 2 6 3 5","Lentiform Loewenfeld","3.3.9","6","y","0","left","space","space","left","NA","946","85546","8202","946","NA","2","legacy","6","1024","2","48000","-16","experiment","1","odd","5","291947","288685","289739","3127","173985","289742","185199","3130","165783","293948","290744","294896","88679","293948","NA","Sternberg task","27","28438","32","yes","1024"
"84.8484848485","84.8484848485","883.121212121","883.121212121","black","experiment","legacy","legacy","legacy","0","uniform","1","undefined","1","right","32","32","32","0","0","32","32","0","0","32","32","32","0","32","0","10/23/21 14:26:03","The main experiment item","yes","SternbergExperiment.osexp","C:\Users\katie\Documents\School\Quant Methods\Lab 3","no","mono","no","18","no","white","no","yes","768","legacy","20","11","C:/Users/katie/Documents/School/Quant Methods/Lab 3/KH-subject-3.csv","legacy","1 5 3 2 8","Lentiform Loewenfeld","3.3.9","0","n","0","right","space","space","right","NA","705","85546","8202","705","NA","2","legacy","5","1024","2","48000","-16","experiment","1","odd","4","298165","294899","295955","3127","173985","295960","185199","3130","165783","300167","296962","300873","88679","300167","NA","Sternberg task","28","29143","33","yes","1024"
"85.2941176471","85.2941176471","878.147058824","878.147058824","black","experiment","legacy","legacy","legacy","0","uniform","1","undefined","1","right","33","33","33","0","0","33","33","0","0","33","33","33","0","33","0","10/23/21 14:26:03","The main experiment item","yes","SternbergExperiment.osexp","C:\Users\katie\Documents\School\Quant Methods\Lab 3","no","mono","no","18","no","white","no","yes","768","legacy","21","11","C:/Users/katie/Documents/School/Quant Methods/Lab 3/KH-subject-3.csv","legacy","8 4 3 9","Lentiform Loewenfeld","3.3.9","0","n","0","right","space","space","right","NA","714","85546","8202","714","NA","2","legacy","4","1024","2","48000","-16","experiment","1","odd","5","304142","300879","301937","3127","173985","301938","185199","3130","165783","306143","302940","306859","88679","306143","NA","Sternberg task","29","29857","34","yes","1024"
"85.7142857143","85.7142857143","868.742857143","868.742857143","black","experiment","legacy","legacy","legacy","0","uniform","1","undefined","1","left","34","34","34","0","0","34","34","0","0","34","34","34","0","34","0","10/23/21 14:26:03","The main experiment item","yes","SternbergExperiment.osexp","C:\Users\katie\Documents\School\Quant Methods\Lab 3","no","mono","no","18","no","white","no","yes","768","legacy","22","11","C:/Users/katie/Documents/School/Quant Methods/Lab 3/KH-subject-3.csv","legacy","2 3 7 4","Lentiform Loewenfeld","3.3.9","1","y","0","left","space","space","left","NA","549","85546","8202","549","NA","2","legacy","4","1024","2","48000","-16","experiment","1","odd","2","310130","306871","307924","3127","173985","307926","185199","3130","165783","312132","308928","312682","88679","312131","NA","Sternberg task","30","30406","35","yes","1024"
"86.1111111111","86.1111111111","860.555555556","860.555555556","black","experiment","legacy","legacy","legacy","0","uniform","1","undefined","1","right","35","35","35","0","0","35","35","0","0","35","35","35","0","35","0","10/23/21 14:26:03","The main experiment item","yes","SternbergExperiment.osexp","C:\Users\katie\Documents\School\Quant Methods\Lab 3","no","mono","no","18","no","white","no","yes","768","legacy","23","11","C:/Users/katie/Documents/School/Quant Methods/Lab 3/KH-subject-3.csv","legacy","9 8 2 7 4","Lentiform Loewenfeld","3.3.9","0","n","0","right","space","space","right","NA","574","85546","8202","574","NA","2","legacy","5","1024","2","48000","-16","experiment","1","odd","5","315954","312695","313749","3127","173985","313751","185199","3130","165783","317955","314752","318530","88679","317955","NA","Sternberg task","31","30980","36","yes","1024"
"86.4864864865","86.4864864865","851.810810811","851.810810811","black","experiment","legacy","legacy","legacy","0","uniform","1","undefined","1","right","36","36","36","0","0","36","36","0","0","36","36","36","0","36","0","10/23/21 14:26:03","The main experiment item","yes","SternbergExperiment.osexp","C:\Users\katie\Documents\School\Quant Methods\Lab 3","no","mono","no","18","no","white","no","yes","768","legacy","24","11","C:/Users/katie/Documents/School/Quant Methods/Lab 3/KH-subject-3.csv","legacy","5 7 3","Lentiform Loewenfeld","3.3.9","0","n","0","right","space","space","right","NA","537","85546","8202","537","NA","2","legacy","3","1024","2","48000","-16","experiment","1","odd","9","321801","318542","319594","3127","173985","319596","185199","3130","165783","323803","320598","324340","88679","323803","NA","Sternberg task","32","31517","37","yes","1024"
"86.8421052632","86.8421052632","850.552631579","850.552631579","black","experiment","legacy","legacy","legacy","0","uniform","1","undefined","1","left","37","37","37","0","0","37","37","0","0","37","37","37","0","37","0","10/23/21 14:26:03","The main experiment item","yes","SternbergExperiment.osexp","C:\Users\katie\Documents\School\Quant Methods\Lab 3","no","mono","no","18","no","white","no","yes","768","legacy","25","11","C:/Users/katie/Documents/School/Quant Methods/Lab 3/KH-subject-3.csv","legacy","9 3 8 2 1 4","Lentiform Loewenfeld","3.3.9","3","y","0","left","space","space","left","NA","804","85546","8202","804","NA","2","legacy","6","1024","2","48000","-16","experiment","1","odd","8","327614","324351","325408","3127","173985","325410","185199","3130","165783","329615","326411","330420","88679","329615","NA","Sternberg task","33","32321","38","yes","1024"
"87.1794871795","87.1794871795","847.205128205","847.205128205","black","experiment","legacy","legacy","legacy","0","uniform","1","undefined","1","right","38","38","38","0","0","38","38","0","0","38","38","38","0","38","0","10/23/21 14:26:03","The main experiment item","yes","SternbergExperiment.osexp","C:\Users\katie\Documents\School\Quant Methods\Lab 3","no","mono","no","18","no","white","no","yes","768","legacy","26","11","C:/Users/katie/Documents/School/Quant Methods/Lab 3/KH-subject-3.csv","legacy","7 1","Lentiform Loewenfeld","3.3.9","0","n","0","right","space","space","right","NA","720","85546","8202","720","NA","2","legacy","2","1024","2","48000","-16","experiment","1","odd","8","333693","330432","331486","3127","173985","331489","185199","3130","165783","335694","332490","336414","88679","335694","NA","Sternberg task","34","33041","39","yes","1024"
"87.5","87.5","840.525","840.525","black","experiment","legacy","legacy","legacy","0","uniform","1","undefined","1","left","39","39","39","0","0","39","39","0","0","39","39","39","0","39","0","10/23/21 14:26:03","The main experiment item","yes","SternbergExperiment.osexp","C:\Users\katie\Documents\School\Quant Methods\Lab 3","no","mono","no","18","no","white","no","yes","768","legacy","27","11","C:/Users/katie/Documents/School/Quant Methods/Lab 3/KH-subject-3.csv","legacy","8 9 6 1","Lentiform Loewenfeld","3.3.9","2","y","0","left","space","space","left","NA","580","85546","8202","580","NA","2","legacy","4","1024","2","48000","-16","experiment","1","odd","9","339688","336425","337483","3127","173985","337484","185199","3130","165783","341689","338485","342269","88679","341689","NA","Sternberg task","35","33621","40","yes","1024"
"87.8048780488","87.8048780488","844.170731707","844.170731707","black","experiment","legacy","legacy","legacy","0","uniform","1","undefined","1","left","40","40","40","0","0","40","40","0","0","40","40","40","0","40","0","10/23/21 14:26:03","The main experiment item","yes","SternbergExperiment.osexp","C:\Users\katie\Documents\School\Quant Methods\Lab 3","no","mono","no","18","no","white","no","yes","768","legacy","28","11","C:/Users/katie/Documents/School/Quant Methods/Lab 3/KH-subject-3.csv","legacy","5 7 8 2 3 8","Lentiform Loewenfeld","3.3.9","5","y","0","left","space","space","left","NA","990","85546","8202","990","NA","2","legacy","6","1024","2","48000","-16","experiment","1","odd","3","345539","342273","343330","3127","173985","343335","185199","3130","165783","347540","344336","348532","88679","347540","NA","Sternberg task","36","34611","41","yes","1024"
"88.0952380952","88.0952380952","836.928571429","836.928571429","black","experiment","legacy","legacy","legacy","0","uniform","1","undefined","1","right","41","41","41","0","0","41","41","0","0","41","41","41","0","41","0","10/23/21 14:26:03","The main experiment item","yes","SternbergExperiment.osexp","C:\Users\katie\Documents\School\Quant Methods\Lab 3","no","mono","no","18","no","white","no","yes","768","legacy","29","11","C:/Users/katie/Documents/School/Quant Methods/Lab 3/KH-subject-3.csv","legacy","6 7 5 9","Lentiform Loewenfeld","3.3.9","0","n","0","right","space","space","right","NA","540","85546","8202","540","NA","2","legacy","4","1024","2","48000","-16","experiment","1","odd","2","351801","348536","349595","3127","173985","349597","185199","3130","165783","353802","350598","354343","88679","353802","NA","Sternberg task","37","35151","42","yes","1024"
"88.3720930233","88.3720930233","829.209302326","829.209302326","black","experiment","legacy","legacy","legacy","0","uniform","1","undefined","1","left","42","42","42","0","0","42","42","0","0","42","42","42","0","42","0","10/23/21 14:26:03","The main experiment item","yes","SternbergExperiment.osexp","C:\Users\katie\Documents\School\Quant Methods\Lab 3","no","mono","no","18","no","white","no","yes","768","legacy","30","11","C:/Users/katie/Documents/School/Quant Methods/Lab 3/KH-subject-3.csv","legacy","2 3","Lentiform Loewenfeld","3.3.9","1","y","0","left","space","space","left","NA","505","85546","8202","505","NA","2","legacy","2","1024","2","48000","-16","experiment","1","odd","2","357609","354349","355403","3127","173985","355405","185199","3130","165783","359610","356407","360115","88679","359610","NA","Sternberg task","38","35656","43","yes","1024"
"88.6363636364","88.6363636364","835.068181818","835.068181818","black","experiment","legacy","legacy","legacy","0","uniform","1","undefined","1","right","43","43","43","0","0","43","43","0","0","43","43","43","0","43","0","10/23/21 14:26:03","The main experiment item","yes","SternbergExperiment.osexp","C:\Users\katie\Documents\School\Quant Methods\Lab 3","no","mono","no","18","no","white","no","yes","768","legacy","31","11","C:/Users/katie/Documents/School/Quant Methods/Lab 3/KH-subject-3.csv","legacy","7 9 1 6","Lentiform Loewenfeld","3.3.9","0","n","0","right","space","space","right","NA","1087","85546","8202","1087","NA","2","legacy","4","1024","2","48000","-16","experiment","1","odd","4","363385","360120","361178","3127","173985","361180","185199","3130","165783","365386","362182","366474","88679","365386","NA","Sternberg task","39","36743","44","yes","1024"
"88.8888888889","88.8888888889","832.266666667","832.266666667","black","experiment","legacy","legacy","legacy","0","uniform","1","undefined","1","right","44","44","44","0","0","44","44","0","0","44","44","44","0","44","0","10/23/21 14:26:03","The main experiment item","yes","SternbergExperiment.osexp","C:\Users\katie\Documents\School\Quant Methods\Lab 3","no","mono","no","18","no","white","no","yes","768","legacy","32","11","C:/Users/katie/Documents/School/Quant Methods/Lab 3/KH-subject-3.csv","legacy","8 5 4 2 9 6","Lentiform Loewenfeld","3.3.9","0","n","0","right","space","space","right","NA","709","85546","8202","709","NA","2","legacy","6","1024","2","48000","-16","experiment","1","odd","3","369742","366485","367537","3127","173985","367539","185199","3130","165783","371742","368540","372453","88679","371742","NA","Sternberg task","40","37452","45","yes","1024"
"89.1304347826","89.1304347826","828.652173913","828.652173913","black","experiment","legacy","legacy","legacy","0","uniform","1","undefined","1","left","45","45","45","0","0","45","45","0","0","45","45","45","0","45","0","10/23/21 14:26:03","The main experiment item","yes","SternbergExperiment.osexp","C:\Users\katie\Documents\School\Quant Methods\Lab 3","no","mono","no","18","no","white","no","yes","768","legacy","33","11","C:/Users/katie/Documents/School/Quant Methods/Lab 3/KH-subject-3.csv","legacy","3 2 1 4 7","Lentiform Loewenfeld","3.3.9","2","y","0","left","space","space","left","NA","666","85546","8202","666","NA","2","legacy","5","1024","2","48000","-16","experiment","1","odd","2","375723","372464","373518","3127","173985","373519","185199","3130","165783","377724","374520","378391","88679","377724","NA","Sternberg task","41","38118","46","yes","1024"
"89.3617021277","89.3617021277","826.765957447","826.765957447","black","experiment","legacy","legacy","legacy","0","uniform","1","undefined","1","left","46","46","46","0","0","46","46","0","0","46","46","46","0","46","0","10/23/21 14:26:03","The main experiment item","yes","SternbergExperiment.osexp","C:\Users\katie\Documents\School\Quant Methods\Lab 3","no","mono","no","18","no","white","no","yes","768","legacy","34","11","C:/Users/katie/Documents/School/Quant Methods/Lab 3/KH-subject-3.csv","legacy","4 1 8 7 5","Lentiform Loewenfeld","3.3.9","3","y","0","left","space","space","left","NA","740","85546","8202","740","NA","2","legacy","5","1024","2","48000","-16","experiment","1","odd","8","381664","378403","379458","3127","173985","379459","185199","3130","165783","383665","380461","384406","88679","383665","NA","Sternberg task","42","38858","47","yes","1024"
"89.5833333333","89.5833333333","821.229166667","821.229166667","black","experiment","legacy","legacy","legacy","0","uniform","1","undefined","1","left","47","47","47","0","0","47","47","0","0","47","47","47","0","47","0","10/23/21 14:26:03","The main experiment item","yes","SternbergExperiment.osexp","C:\Users\katie\Documents\School\Quant Methods\Lab 3","no","mono","no","18","no","white","no","yes","768","legacy","35","11","C:/Users/katie/Documents/School/Quant Methods/Lab 3/KH-subject-3.csv","legacy","8","Lentiform Loewenfeld","3.3.9","1","y","0","left","space","space","left","NA","561","85546","8202","561","NA","2","legacy","1","1024","2","48000","-16","experiment","1","odd","8","387670","384412","385464","3127","173985","385466","185199","3130","165783","389671","386467","390233","88679","389671","NA","Sternberg task","43","39419","48","yes","1024"
"89.7959183673","89.7959183673","817.081632653","817.081632653","black","experiment","legacy","legacy","legacy","0","uniform","1","undefined","1","right","48","48","48","0","0","48","48","0","0","48","48","48","0","48","0","10/23/21 14:26:03","The main experiment item","yes","SternbergExperiment.osexp","C:\Users\katie\Documents\School\Quant Methods\Lab 3","no","mono","no","18","no","white","no","yes","768","legacy","36","11","C:/Users/katie/Documents/School/Quant Methods/Lab 3/KH-subject-3.csv","legacy","7 3 2 8","Lentiform Loewenfeld","3.3.9","0","n","0","right","space","space","right","NA","618","85546","8202","618","NA","2","legacy","4","1024","2","48000","-16","experiment","1","odd","4","393509","390244","391303","3127","173985","391305","185199","3130","165783","395510","392307","396129","88679","395510","NA","Sternberg task","44","40037","49","yes","1024"
"90","90","811.56","811.56","black","experiment","legacy","legacy","legacy","0","uniform","1","undefined","1","left","49","49","49","0","0","49","49","0","0","49","49","49","0","49","0","10/23/21 14:26:03","The main experiment item","yes","SternbergExperiment.osexp","C:\Users\katie\Documents\School\Quant Methods\Lab 3","no","mono","no","18","no","white","no","yes","768","legacy","37","11","C:/Users/katie/Documents/School/Quant Methods/Lab 3/KH-subject-3.csv","legacy","4 1 5","Lentiform Loewenfeld","3.3.9","2","y","0","left","space","space","left","NA","541","85546","8202","541","NA","2","legacy","3","1024","2","48000","-16","experiment","1","odd","1","399401","396140","397195","3127","173985","397196","185199","3130","165783","401402","398198","401943","88679","401402","NA","Sternberg task","45","40578","50","yes","1024"
"90.1960784314","90.1960784314","808.294117647","808.294117647","black","experiment","legacy","legacy","legacy","0","uniform","1","undefined","1","right","50","50","50","0","0","50","50","0","0","50","50","50","0","50","0","10/23/21 14:26:03","The main experiment item","yes","SternbergExperiment.osexp","C:\Users\katie\Documents\School\Quant Methods\Lab 3","no","mono","no","18","no","white","no","yes","768","legacy","38","11","C:/Users/katie/Documents/School/Quant Methods/Lab 3/KH-subject-3.csv","legacy","2 6 4 3 9","Lentiform Loewenfeld","3.3.9","0","n","0","right","space","space","right","NA","645","85546","8202","645","NA","2","legacy","5","1024","2","48000","-16","experiment","1","odd","1","405213","401954","403007","3127","173985","403008","185199","3130","165783","407214","404010","407859","88679","407214","NA","Sternberg task","46","41223","51","yes","1024"
"90.3846153846","90.3846153846","807.903846154","807.903846154","black","experiment","legacy","legacy","legacy","0","uniform","1","undefined","1","right","51","51","51","0","0","51","51","0","0","51","51","51","0","51","0","10/23/21 14:26:03","The main experiment item","yes","SternbergExperiment.osexp","C:\Users\katie\Documents\School\Quant Methods\Lab 3","no","mono","no","18","no","white","no","yes","768","legacy","39","11","C:/Users/katie/Documents/School/Quant Methods/Lab 3/KH-subject-3.csv","legacy","3 4 9 6 7 8","Lentiform Loewenfeld","3.3.9","0","n","0","right","space","space","right","NA","788","85546","8202","788","NA","2","legacy","6","1024","2","48000","-16","experiment","1","odd","2","411133","407871","408926","3127","173985","408928","185199","3130","165783","413134","409930","413925","88679","413134","NA","Sternberg task","47","42011","52","yes","1024"
"90.5660377358","90.5660377358","810.037735849","810.037735849","black","experiment","legacy","legacy","legacy","0","uniform","1","undefined","1","left","52","52","52","0","0","52","52","0","0","52","52","52","0","52","0","10/23/21 14:26:03","The main experiment item","yes","SternbergExperiment.osexp","C:\Users\katie\Documents\School\Quant Methods\Lab 3","no","mono","no","18","no","white","no","yes","768","legacy","40","11","C:/Users/katie/Documents/School/Quant Methods/Lab 3/KH-subject-3.csv","legacy","8 5 3 7 4 6","Lentiform Loewenfeld","3.3.9","6","y","0","left","space","space","left","NA","921","85546","8202","921","NA","2","legacy","6","1024","2","48000","-16","experiment","1","odd","6","417197","413936","414991","3127","173985","414992","185199","3130","165783","419199","415993","420121","88679","419199","NA","Sternberg task","48","42932","53","yes","1024"
"90.7407407407","90.7407407407","807.111111111","807.111111111","black","experiment","legacy","legacy","legacy","0","uniform","1","undefined","1","right","53","53","53","0","0","53","53","0","0","53","53","53","0","53","0","10/23/21 14:26:03","The main experiment item","yes","SternbergExperiment.osexp","C:\Users\katie\Documents\School\Quant Methods\Lab 3","no","mono","no","18","no","white","no","yes","768","legacy","41","11","C:/Users/katie/Documents/School/Quant Methods/Lab 3/KH-subject-3.csv","legacy","6 9 7 3 8 2","Lentiform Loewenfeld","3.3.9","0","n","0","right","space","space","right","NA","652","85546","8202","652","NA","2","legacy","6","1024","2","48000","-16","experiment","1","odd","5","423388","420125","421183","3127","173985","421184","185199","3130","165783","425389","422186","426041","88679","425389","NA","Sternberg task","49","43584","54","yes","1024"
"90.9090909091","90.9090909091","803.381818182","803.381818182","black","experiment","legacy","legacy","legacy","0","uniform","1","undefined","1","left","54","54","54","0","0","54","54","0","0","54","54","54","0","54","0","10/23/21 14:26:03","The main experiment item","yes","SternbergExperiment.osexp","C:\Users\katie\Documents\School\Quant Methods\Lab 3","no","mono","no","18","no","white","no","yes","768","legacy","42","11","C:/Users/katie/Documents/School/Quant Methods/Lab 3/KH-subject-3.csv","legacy","9 8 4","Lentiform Loewenfeld","3.3.9","1","y","0","left","space","space","left","NA","602","85546","8202","602","NA","2","legacy","3","1024","2","48000","-16","experiment","1","odd","9","429304","426045","427100","3127","173985","427102","185199","3130","165783","431305","428103","431909","88679","431305","NA","Sternberg task","50","44186","55","yes","1024"
"91.0714285714","91.0714285714","799.714285714","799.714285714","black","experiment","legacy","legacy","legacy","0","uniform","1","undefined","1","left","55","55","55","0","0","55","55","0","0","55","55","55","0","55","0","10/23/21 14:26:03","The main experiment item","yes","SternbergExperiment.osexp","C:\Users\katie\Documents\School\Quant Methods\Lab 3","no","mono","no","18","no","white","no","yes","768","legacy","43","11","C:/Users/katie/Documents/School/Quant Methods/Lab 3/KH-subject-3.csv","legacy","9 4 2","Lentiform Loewenfeld","3.3.9","1","y","0","left","space","space","left","NA","598","85546","8202","598","NA","2","legacy","3","1024","2","48000","-16","experiment","1","odd","9","435179","431919","432973","3127","173985","432975","185199","3130","165783","437180","433976","437779","88679","437180","NA","Sternberg task","51","44784","56","yes","1024"
"91.2280701754","91.2280701754","798.280701754","798.280701754","black","experiment","legacy","legacy","legacy","0","uniform","1","undefined","1","left","56","56","56","0","0","56","56","0","0","56","56","56","0","56","0","10/23/21 14:26:03","The main experiment item","yes","SternbergExperiment.osexp","C:\Users\katie\Documents\School\Quant Methods\Lab 3","no","mono","no","18","no","white","no","yes","768","legacy","44","11","C:/Users/katie/Documents/School/Quant Methods/Lab 3/KH-subject-3.csv","legacy","8 3","Lentiform Loewenfeld","3.3.9","2","y","0","left","space","space","left","NA","718","85546","8202","718","NA","2","legacy","2","1024","2","48000","-16","experiment","1","odd","3","441045","437785","438839","3127","173985","438840","185199","3130","165783","443046","439843","443765","88679","443046","NA","Sternberg task","52","45502","57","yes","1024"
"91.3793103448","91.3793103448","798.224137931","798.224137931","black","experiment","legacy","legacy","legacy","0","uniform","1","undefined","1","right","57","57","57","0","0","57","57","0","0","57","57","57","0","57","0","10/23/21 14:26:03","The main experiment item","yes","SternbergExperiment.osexp","C:\Users\katie\Documents\School\Quant Methods\Lab 3","no","mono","no","18","no","white","no","yes","768","legacy","45","11","C:/Users/katie/Documents/School/Quant Methods/Lab 3/KH-subject-3.csv","legacy","8 5 7 3 6","Lentiform Loewenfeld","3.3.9","0","n","0","right","space","space","right","NA","795","85546","8202","795","NA","2","legacy","5","1024","2","48000","-16","experiment","1","odd","9","447043","443776","444836","3127","173985","444838","185199","3130","165783","449044","445839","449840","88679","449044","NA","Sternberg task","53","46297","58","yes","1024"
"91.5254237288","91.5254237288","793.661016949","793.661016949","black","experiment","legacy","legacy","legacy","0","uniform","1","undefined","1","left","58","58","58","0","0","58","58","0","0","58","58","58","0","58","0","10/23/21 14:26:03","The main experiment item","yes","SternbergExperiment.osexp","C:\Users\katie\Documents\School\Quant Methods\Lab 3","no","mono","no","18","no","white","no","yes","768","legacy","46","11","C:/Users/katie/Documents/School/Quant Methods/Lab 3/KH-subject-3.csv","legacy","2 8 5 1","Lentiform Loewenfeld","3.3.9","4","y","0","left","space","space","left","NA","529","85546","8202","529","NA","2","legacy","4","1024","2","48000","-16","experiment","1","odd","1","453103","449844","450899","3127","173985","450900","185199","3130","165783","455103","451902","455632","88679","455103","NA","Sternberg task","54","46826","59","yes","1024"
"91.6666666667","91.6666666667","790.116666667","790.116666667","black","experiment","legacy","legacy","legacy","0","uniform","1","undefined","1","right","59","59","59","0","0","59","59","0","0","59","59","59","0","59","0","10/23/21 14:26:03","The main experiment item","yes","SternbergExperiment.osexp","C:\Users\katie\Documents\School\Quant Methods\Lab 3","no","mono","no","18","no","white","no","yes","768","legacy","47","11","C:/Users/katie/Documents/School/Quant Methods/Lab 3/KH-subject-3.csv","legacy","5","Lentiform Loewenfeld","3.3.9","0","n","0","right","space","space","right","NA","581","85546","8202","581","NA","2","legacy","1","1024","2","48000","-16","experiment","1","odd","8","458898","455637","456689","3127","173985","456694","185199","3130","165783","460899","457696","461481","88679","460899","NA","Sternberg task","55","47407","60","yes","1024"
"91.8032786885","91.8032786885","789.31147541","789.31147541","black","experiment","legacy","legacy","legacy","0","uniform","1","undefined","1","right","60","60","60","0","0","60","60","0","0","60","60","60","0","60","0","10/23/21 14:26:03","The main experiment item","yes","SternbergExperiment.osexp","C:\Users\katie\Documents\School\Quant Methods\Lab 3","no","mono","no","18","no","white","no","yes","768","legacy","48","11","C:/Users/katie/Documents/School/Quant Methods/Lab 3/KH-subject-3.csv","legacy","7 1 5 6 3","Lentiform Loewenfeld","3.3.9","0","n","0","right","space","space","right","NA","741","85546","8202","741","NA","2","legacy","5","1024","2","48000","-16","experiment","1","odd","8","464744","461486","462537","3127","173985","462538","185199","3130","165783","466745","463540","467487","88679","466745","NA","Sternberg task","56","48148","61","yes","1024"
"91.935483871","91.935483871","787.983870968","787.983870968","black","experiment","legacy","legacy","legacy","0","uniform","1","undefined","1","right","61","61","61","0","0","61","61","0","0","61","61","61","0","61","0","10/23/21 14:26:03","The main experiment item","yes","SternbergExperiment.osexp","C:\Users\katie\Documents\School\Quant Methods\Lab 3","no","mono","no","18","no","white","no","yes","768","legacy","49","11","C:/Users/katie/Documents/School/Quant Methods/Lab 3/KH-subject-3.csv","legacy","2 3 8 5 6 7","Lentiform Loewenfeld","3.3.9","0","n","0","right","space","space","right","NA","707","85546","8202","707","NA","2","legacy","6","1024","2","48000","-16","experiment","1","odd","1","470753","467492","468547","3127","173985","468549","185199","3130","165783","472754","469550","473462","88679","472754","NA","Sternberg task","57","48855","62","yes","1024"
"92.0634920635","92.0634920635","785.380952381","785.380952381","black","experiment","legacy","legacy","legacy","0","uniform","1","undefined","1","left","62","62","62","0","0","62","62","0","0","62","62","62","0","62","0","10/23/21 14:26:03","The main experiment item","yes","SternbergExperiment.osexp","C:\Users\katie\Documents\School\Quant Methods\Lab 3","no","mono","no","18","no","white","no","yes","768","legacy","50","11","C:/Users/katie/Documents/School/Quant Methods/Lab 3/KH-subject-3.csv","legacy","6 5","Lentiform Loewenfeld","3.3.9","2","y","0","left","space","space","left","NA","624","85546","8202","624","NA","2","legacy","2","1024","2","48000","-16","experiment","1","odd","5","476726","473466","474523","3127","173985","474524","185199","3130","165783","478728","475525","479352","88679","478728","NA","Sternberg task","58","49479","63","yes","1024"
"92.1875","92.1875","782.234375","782.234375","black","experiment","legacy","legacy","legacy","0","uniform","1","undefined","1","left","63","63","63","0","0","63","63","0","0","63","63","63","0","63","0","10/23/21 14:26:03","The main experiment item","yes","SternbergExperiment.osexp","C:\Users\katie\Documents\School\Quant Methods\Lab 3","no","mono","no","18","no","white","no","yes","768","legacy","51","11","C:/Users/katie/Documents/School/Quant Methods/Lab 3/KH-subject-3.csv","legacy","6 7 9 3 1 2","Lentiform Loewenfeld","3.3.9","1","y","0","left","space","space","left","NA","584","85546","8202","584","NA","2","legacy","6","1024","2","48000","-16","experiment","1","odd","6","482617","479356","480413","3127","173985","480415","185199","3130","165783","484618","481416","485203","88679","484618","NA","Sternberg task","59","50063","64","yes","1024"
"90.7692307692","90.7692307692","779.384615385","779.384615385","black","experiment","legacy","legacy","legacy","0","uniform","0","undefined","0","left","64","64","64","0","0","64","64","0","0","64","64","64","0","64","0","10/23/21 14:26:03","The main experiment item","yes","SternbergExperiment.osexp","C:\Users\katie\Documents\School\Quant Methods\Lab 3","no","mono","no","18","no","white","no","yes","768","legacy","52","11","C:/Users/katie/Documents/School/Quant Methods/Lab 3/KH-subject-3.csv","legacy","7 2 3","Lentiform Loewenfeld","3.3.9","3","y","0","right","space","space","right","NA","597","85546","8202","597","NA","2","legacy","3","1024","2","48000","-16","experiment","1","odd","3","488475","485214","486269","3127","173985","486271","185199","3130","165783","490476","487272","491075","88679","490476","NA","Sternberg task","59","50660","65","yes","1024"
"90.9090909091","90.9090909091","778.575757576","778.575757576","black","experiment","legacy","legacy","legacy","0","uniform","1","undefined","1","right","65","65","65","0","0","65","65","0","0","65","65","65","0","65","0","10/23/21 14:26:03","The main experiment item","yes","SternbergExperiment.osexp","C:\Users\katie\Documents\School\Quant Methods\Lab 3","no","mono","no","18","no","white","no","yes","768","legacy","53","11","C:/Users/katie/Documents/School/Quant Methods/Lab 3/KH-subject-3.csv","legacy","7 1 8 4 9 3","Lentiform Loewenfeld","3.3.9","0","n","0","right","space","space","right","NA","726","85546","8202","726","NA","2","legacy","6","1024","2","48000","-16","experiment","1","odd","6","494347","485214","492142","3127","173985","492143","491088","3130","165783","496349","493145","497076","88679","496349","NA","Sternberg task","60","51386","66","yes","1024"
"91.0447761194","91.0447761194","776.71641791","776.71641791","black","experiment","legacy","legacy","legacy","0","uniform","1","undefined","1","right","66","66","66","0","0","66","66","0","0","66","66","66","0","66","0","10/23/21 14:26:03","The main experiment item","yes","SternbergExperiment.osexp","C:\Users\katie\Documents\School\Quant Methods\Lab 3","no","mono","no","18","no","white","no","yes","768","legacy","54","11","C:/Users/katie/Documents/School/Quant Methods/Lab 3/KH-subject-3.csv","legacy","1 4 9 2 5","Lentiform Loewenfeld","3.3.9","0","n","0","right","space","space","right","NA","654","85546","8202","654","NA","2","legacy","5","1024","2","48000","-16","experiment","1","odd","7","500339","497080","498132","3127","173985","498134","491088","3130","165783","502340","499136","502995","88679","502340","NA","Sternberg task","61","52040","67","yes","1024"
"91.1764705882","91.1764705882","775.647058824","775.647058824","black","experiment","legacy","legacy","legacy","0","uniform","1","undefined","1","left","67","67","67","0","0","67","67","0","0","67","67","67","0","67","0","10/23/21 14:26:03","The main experiment item","yes","SternbergExperiment.osexp","C:\Users\katie\Documents\School\Quant Methods\Lab 3","no","mono","no","18","no","white","no","yes","768","legacy","55","11","C:/Users/katie/Documents/School/Quant Methods/Lab 3/KH-subject-3.csv","legacy","2 6 1 7 4","Lentiform Loewenfeld","3.3.9","2","y","0","left","space","space","left","NA","704","85546","8202","704","NA","2","legacy","5","1024","2","48000","-16","experiment","1","odd","6","506260","502999","504055","3127","173985","504056","491088","3130","165783","508261","505057","508966","88679","508261","NA","Sternberg task","62","52744","68","yes","1024"
"91.3043478261","91.3043478261","772.449275362","772.449275362","black","experiment","legacy","legacy","legacy","0","uniform","1","undefined","1","left","68","68","68","0","0","68","68","0","0","68","68","68","0","68","0","10/23/21 14:26:03","The main experiment item","yes","SternbergExperiment.osexp","C:\Users\katie\Documents\School\Quant Methods\Lab 3","no","mono","no","18","no","white","no","yes","768","legacy","56","11","C:/Users/katie/Documents/School/Quant Methods/Lab 3/KH-subject-3.csv","legacy","3 5 7 1","Lentiform Loewenfeld","3.3.9","3","y","0","left","space","space","left","NA","555","85546","8202","555","NA","2","legacy","4","1024","2","48000","-16","experiment","1","odd","7","512235","508977","510029","3127","173985","510031","491088","3130","165783","514236","511032","514792","88679","514236","NA","Sternberg task","63","53299","69","yes","1024"
"91.4285714286","91.4285714286","770.771428571","770.771428571","black","experiment","legacy","legacy","legacy","0","uniform","1","undefined","1","right","69","69","69","0","0","69","69","0","0","69","69","69","0","69","0","10/23/21 14:26:03","The main experiment item","yes","SternbergExperiment.osexp","C:\Users\katie\Documents\School\Quant Methods\Lab 3","no","mono","no","18","no","white","no","yes","768","legacy","57","11","C:/Users/katie/Documents/School/Quant Methods/Lab 3/KH-subject-3.csv","legacy","3 4 2","Lentiform Loewenfeld","3.3.9","0","n","0","right","space","space","right","NA","655","85546","8202","655","NA","2","legacy","3","1024","2","48000","-16","experiment","1","odd","5","518064","514797","515857","3127","173985","515859","491088","3130","165783","520065","516860","520721","88679","520065","NA","Sternberg task","64","53954","70","yes","1024"
"91.5492957746","91.5492957746","768.85915493","768.85915493","black","experiment","legacy","legacy","legacy","0","uniform","1","undefined","1","right","70","70","70","0","0","70","70","0","0","70","70","70","0","70","0","10/23/21 14:26:03","The main experiment item","yes","SternbergExperiment.osexp","C:\Users\katie\Documents\School\Quant Methods\Lab 3","no","mono","no","18","no","white","no","yes","768","legacy","58","11","C:/Users/katie/Documents/School/Quant Methods/Lab 3/KH-subject-3.csv","legacy","1 6 4 3 9 7","Lentiform Loewenfeld","3.3.9","0","n","0","right","space","space","right","NA","635","85546","8202","635","NA","2","legacy","6","1024","2","48000","-16","experiment","1","odd","8","523998","520735","521792","3127","173985","521794","491088","3130","165783","526000","522796","526636","88679","526000","NA","Sternberg task","65","54589","71","yes","1024"
"91.6666666667","91.6666666667","767.666666667","767.666666667","black","experiment","legacy","legacy","legacy","0","uniform","1","undefined","1","left","71","71","71","0","0","71","71","0","0","71","71","71","0","71","0","10/23/21 14:26:03","The main experiment item","yes","SternbergExperiment.osexp","C:\Users\katie\Documents\School\Quant Methods\Lab 3","no","mono","no","18","no","white","no","yes","768","legacy","59","11","C:/Users/katie/Documents/School/Quant Methods/Lab 3/KH-subject-3.csv","legacy","3 9 6 2","Lentiform Loewenfeld","3.3.9","4","y","0","left","space","space","left","NA","683","85546","8202","683","NA","2","legacy","4","1024","2","48000","-16","experiment","1","odd","2","529902","526639","527695","3127","173985","527697","491088","3130","165783","531903","528698","532586","88679","531903","NA","Sternberg task","66","55272","72","yes","1024"
"91.7808219178","91.7808219178","765.191780822","765.191780822","black","experiment","legacy","legacy","legacy","0","uniform","1","undefined","1","left","72","72","72","0","0","72","72","0","0","72","72","72","0","72","0","10/23/21 14:26:03","The main experiment item","yes","SternbergExperiment.osexp","C:\Users\katie\Documents\School\Quant Methods\Lab 3","no","mono","no","18","no","white","no","yes","768","legacy","60","11","C:/Users/katie/Documents/School/Quant Methods/Lab 3/KH-subject-3.csv","legacy","9 1 6 7 8","Lentiform Loewenfeld","3.3.9","1","y","0","left","space","space","left","NA","587","85546","8202","587","NA","2","legacy","5","1024","2","48000","-16","experiment","1","odd","9","535858","532599","533651","3127","173985","533653","491088","3130","165783","537859","534655","538447","88679","537859","NA","Sternberg task","67","55859","73","yes","1024"
"91.8918918919","91.8918918919","762.77027027","762.77027027","black","experiment","legacy","legacy","legacy","0","uniform","1","undefined","1","left","73","73","73","0","0","73","73","0","0","73","73","73","0","73","0","10/23/21 14:26:03","The main experiment item","yes","SternbergExperiment.osexp","C:\Users\katie\Documents\School\Quant Methods\Lab 3","no","mono","no","18","no","white","no","yes","768","legacy","61","11","C:/Users/katie/Documents/School/Quant Methods/Lab 3/KH-subject-3.csv","legacy","2 4 6 9","Lentiform Loewenfeld","3.3.9","3","y","0","left","space","space","left","NA","586","85546","8202","586","NA","2","legacy","4","1024","2","48000","-16","experiment","1","odd","6","541722","538459","539514","3127","173985","539517","491088","3130","165783","543723","540519","544310","88679","543723","NA","Sternberg task","68","56445","74","yes","1024"
"92","92","767.786666667","767.786666667","black","experiment","legacy","legacy","legacy","0","uniform","1","undefined","1","right","74","74","74","0","0","74","74","0","0","74","74","74","0","74","0","10/23/21 14:26:03","The main experiment item","yes","SternbergExperiment.osexp","C:\Users\katie\Documents\School\Quant Methods\Lab 3","no","mono","no","18","no","white","no","yes","768","legacy","62","11","C:/Users/katie/Documents/School/Quant Methods/Lab 3/KH-subject-3.csv","legacy","4 2 7 6 1 3","Lentiform Loewenfeld","3.3.9","0","n","0","right","space","space","right","NA","1139","85546","8202","1139","NA","2","legacy","6","1024","2","48000","-16","experiment","1","odd","8","547582","544323","545376","3127","173985","545378","491088","3130","165783","549583","546379","550723","88679","549583","NA","Sternberg task","69","57584","75","yes","1024"
"92.1052631579","92.1052631579","764.907894737","764.907894737","black","experiment","legacy","legacy","legacy","0","uniform","1","undefined","1","right","75","75","75","0","0","75","75","0","0","75","75","75","0","75","0","10/23/21 14:26:03","The main experiment item","yes","SternbergExperiment.osexp","C:\Users\katie\Documents\School\Quant Methods\Lab 3","no","mono","no","18","no","white","no","yes","768","legacy","63","11","C:/Users/katie/Documents/School/Quant Methods/Lab 3/KH-subject-3.csv","legacy","2 7 5","Lentiform Loewenfeld","3.3.9","0","n","0","right","space","space","right","NA","549","85546","8202","549","NA","2","legacy","3","1024","2","48000","-16","experiment","1","odd","8","553996","550734","551789","3127","173985","551790","491088","3130","165783","555997","552793","556547","88679","555997","NA","Sternberg task","70","58133","76","yes","1024"
"92.2077922078","92.2077922078","763.922077922","763.922077922","black","experiment","legacy","legacy","legacy","0","uniform","1","undefined","1","right","76","76","76","0","0","76","76","0","0","76","76","76","0","76","0","10/23/21 14:26:03","The main experiment item","yes","SternbergExperiment.osexp","C:\Users\katie\Documents\School\Quant Methods\Lab 3","no","mono","no","18","no","white","no","yes","768","legacy","64","11","C:/Users/katie/Documents/School/Quant Methods/Lab 3/KH-subject-3.csv","legacy","2 5 1 4","Lentiform Loewenfeld","3.3.9","0","n","0","right","space","space","right","NA","689","85546","8202","689","NA","2","legacy","4","1024","2","48000","-16","experiment","1","odd","6","559811","556551","557606","3127","173985","557608","491088","3130","165783","561813","558609","562504","88679","561812","NA","Sternberg task","71","58822","77","yes","1024"
"92.3076923077","92.3076923077","761.051282051","761.051282051","black","experiment","legacy","legacy","legacy","0","uniform","1","undefined","1","right","77","77","77","0","0","77","77","0","0","77","77","77","0","77","0","10/23/21 14:26:03","The main experiment item","yes","SternbergExperiment.osexp","C:\Users\katie\Documents\School\Quant Methods\Lab 3","no","mono","no","18","no","white","no","yes","768","legacy","65","11","C:/Users/katie/Documents/School/Quant Methods/Lab 3/KH-subject-3.csv","legacy","5 2","Lentiform Loewenfeld","3.3.9","0","n","0","right","space","space","right","NA","540","85546","8202","540","NA","2","legacy","2","1024","2","48000","-16","experiment","1","odd","7","565772","562514","563567","3127","173985","563568","491088","3130","165783","567773","564569","568314","88679","567773","NA","Sternberg task","72","59362","78","yes","1024"
"91.1392405063","91.1392405063","766.810126582","766.810126582","black","experiment","legacy","legacy","legacy","0","uniform","0","undefined","0","right","78","78","78","0","0","78","78","0","0","78","78","78","0","78","0","10/23/21 14:26:03","The main experiment item","yes","SternbergExperiment.osexp","C:\Users\katie\Documents\School\Quant Methods\Lab 3","no","mono","no","18","no","white","no","yes","768","legacy","66","11","C:/Users/katie/Documents/School/Quant Methods/Lab 3/KH-subject-3.csv","legacy","9 5 3 2 8 6","Lentiform Loewenfeld","3.3.9","0","n","0","left","space","space","left","NA","1216","85546","8202","1216","NA","2","legacy","6","1024","2","48000","-16","experiment","1","odd","7","571583","568325","569377","3127","173985","569379","491088","3130","165783","573584","570380","574801","88679","573584","NA","Sternberg task","72","60578","79","yes","1024"
"91.25","91.25","768.5875","768.5875","black","experiment","legacy","legacy","legacy","0","uniform","1","undefined","1","left","79","79","79","0","0","79","79","0","0","79","79","79","0","79","0","10/23/21 14:26:03","The main experiment item","yes","SternbergExperiment.osexp","C:\Users\katie\Documents\School\Quant Methods\Lab 3","no","mono","no","18","no","white","no","yes","768","legacy","67","11","C:/Users/katie/Documents/School/Quant Methods/Lab 3/KH-subject-3.csv","legacy","4 9 7 8 5 3","Lentiform Loewenfeld","3.3.9","4","y","0","left","space","space","left","NA","909","85546","8202","909","NA","2","legacy","6","1024","2","48000","-16","experiment","1","odd","8","578067","568325","575860","3127","173985","575862","574806","3130","165783","580070","576864","580981","88679","580068","NA","Sternberg task","73","61487","80","yes","1024"
"91.3580246914","91.3580246914","770.592592593","770.592592593","black","experiment","legacy","legacy","legacy","0","uniform","1","undefined","1","left","80","80","80","0","0","80","80","0","0","80","80","80","0","80","0","10/23/21 14:26:03","The main experiment item","yes","SternbergExperiment.osexp","C:\Users\katie\Documents\School\Quant Methods\Lab 3","no","mono","no","18","no","white","no","yes","768","legacy","68","11","C:/Users/katie/Documents/School/Quant Methods/Lab 3/KH-subject-3.csv","legacy","7 1 8 5 6 2","Lentiform Loewenfeld","3.3.9","2","y","0","left","space","space","left","NA","931","85546","8202","931","NA","2","legacy","6","1024","2","48000","-16","experiment","1","odd","1","584249","580984","582042","3127","173985","582045","574806","3130","165783","586251","583047","587182","88679","586251","NA","Sternberg task","74","62418","81","yes","1024"
"91.4634146341","91.4634146341","769.62195122","769.62195122","black","experiment","legacy","legacy","legacy","0","uniform","1","undefined","1","right","81","81","81","0","0","81","81","0","0","81","81","81","0","81","0","10/23/21 14:26:03","The main experiment item","yes","SternbergExperiment.osexp","C:\Users\katie\Documents\School\Quant Methods\Lab 3","no","mono","no","18","no","white","no","yes","768","legacy","69","11","C:/Users/katie/Documents/School/Quant Methods/Lab 3/KH-subject-3.csv","legacy","1 4 3 6 5","Lentiform Loewenfeld","3.3.9","0","n","0","right","space","space","right","NA","691","85546","8202","691","NA","2","legacy","5","1024","2","48000","-16","experiment","1","odd","8","590462","587194","588256","3127","173985","588258","574806","3130","165783","592462","589260","593153","88679","592462","NA","Sternberg task","75","63109","82","yes","1024"
"91.5662650602","91.5662650602","770.734939759","770.734939759","black","experiment","legacy","legacy","legacy","0","uniform","1","undefined","1","left","82","82","82","0","0","82","82","0","0","82","82","82","0","82","0","10/23/21 14:26:03","The main experiment item","yes","SternbergExperiment.osexp","C:\Users\katie\Documents\School\Quant Methods\Lab 3","no","mono","no","18","no","white","no","yes","768","legacy","70","11","C:/Users/katie/Documents/School/Quant Methods/Lab 3/KH-subject-3.csv","legacy","3 5 4 7","Lentiform Loewenfeld","3.3.9","1","y","0","left","space","space","left","NA","862","85546","8202","862","NA","2","legacy","4","1024","2","48000","-16","experiment","1","odd","3","596420","593157","594211","3127","173985","594214","574806","3130","165783","598421","595217","599284","88679","598421","NA","Sternberg task","76","63971","83","yes","1024"
"91.6666666667","91.6666666667","768.25","768.25","black","experiment","legacy","legacy","legacy","0","uniform","1","undefined","1","left","83","83","83","0","0","83","83","0","0","83","83","83","0","83","0","10/23/21 14:26:03","The main experiment item","yes","SternbergExperiment.osexp","C:\Users\katie\Documents\School\Quant Methods\Lab 3","no","mono","no","18","no","white","no","yes","768","legacy","71","11","C:/Users/katie/Documents/School/Quant Methods/Lab 3/KH-subject-3.csv","legacy","7 8 4 6 9 5","Lentiform Loewenfeld","3.3.9","4","y","0","left","space","space","left","NA","562","85546","8202","562","NA","2","legacy","6","1024","2","48000","-16","experiment","1","odd","6","602560","599295","600352","3127","173985","600354","574806","3130","165783","604561","601357","605124","88679","604561","NA","Sternberg task","77","64533","84","yes","1024"
"91.7647058824","91.7647058824","765.376470588","765.376470588","black","experiment","legacy","legacy","legacy","0","uniform","1","undefined","1","left","84","84","84","0","0","84","84","0","0","84","84","84","0","84","0","10/23/21 14:26:03","The main experiment item","yes","SternbergExperiment.osexp","C:\Users\katie\Documents\School\Quant Methods\Lab 3","no","mono","no","18","no","white","no","yes","768","legacy","72","11","C:/Users/katie/Documents/School/Quant Methods/Lab 3/KH-subject-3.csv","legacy","4","Lentiform Loewenfeld","3.3.9","1","y","0","left","space","space","left","NA","524","85546","8202","524","NA","2","legacy","1","1024","2","48000","-16","experiment","1","odd","4","608397","605137","606192","3127","173985","606193","574806","3130","165783","610398","607194","610923","88679","610398","NA","Sternberg task","78","65057","85","yes","1024"
"91.8604651163","91.8604651163","765.290697674","765.290697674","black","experiment","legacy","legacy","legacy","0","uniform","1","undefined","1","right","85","85","85","0","0","85","85","0","0","85","85","85","0","85","0","10/23/21 14:26:03","The main experiment item","yes","SternbergExperiment.osexp","C:\Users\katie\Documents\School\Quant Methods\Lab 3","no","mono","no","18","no","white","no","yes","768","legacy","73","11","C:/Users/katie/Documents/School/Quant Methods/Lab 3/KH-subject-3.csv","legacy","7 6 4 8 1 2","Lentiform Loewenfeld","3.3.9","0","n","0","right","space","space","right","NA","758","85546","8202","758","NA","2","legacy","6","1024","2","48000","-16","experiment","1","odd","9","614189","610928","611982","3127","173985","611984","574806","3130","165783","616190","612986","616948","88679","616190","NA","Sternberg task","79","65815","86","yes","1024"
"91.9540229885","91.9540229885","764.804597701","764.804597701","black","experiment","legacy","legacy","legacy","0","uniform","1","undefined","1","right","86","86","86","0","0","86","86","0","0","86","86","86","0","86","0","10/23/21 14:26:03","The main experiment item","yes","SternbergExperiment.osexp","C:\Users\katie\Documents\School\Quant Methods\Lab 3","no","mono","no","18","no","white","no","yes","768","legacy","74","11","C:/Users/katie/Documents/School/Quant Methods/Lab 3/KH-subject-3.csv","legacy","2 8 7 9 5 3","Lentiform Loewenfeld","3.3.9","0","n","0","right","space","space","right","NA","723","85546","8202","723","NA","2","legacy","6","1024","2","48000","-16","experiment","1","odd","6","620221","616960","618016","3127","173985","618018","574806","3130","165783","622223","619020","622946","88679","622223","NA","Sternberg task","80","66538","87","yes","1024"
"92.0454545455","92.0454545455","765.136363636","765.136363636","black","experiment","legacy","legacy","legacy","0","uniform","1","undefined","1","right","87","87","87","0","0","87","87","0","0","87","87","87","0","87","0","10/23/21 14:26:03","The main experiment item","yes","SternbergExperiment.osexp","C:\Users\katie\Documents\School\Quant Methods\Lab 3","no","mono","no","18","no","white","no","yes","768","legacy","75","11","C:/Users/katie/Documents/School/Quant Methods/Lab 3/KH-subject-3.csv","legacy","5 3 8 7 2 4","Lentiform Loewenfeld","3.3.9","0","n","0","right","space","space","right","NA","794","85546","8202","794","NA","2","legacy","6","1024","2","48000","-16","experiment","1","odd","9","626214","622950","624008","3127","173985","624010","574806","3130","165783","628215","625011","629010","88679","628215","NA","Sternberg task","81","67332","88","yes","1024"
"92.1348314607","92.1348314607","766.325842697","766.325842697","black","experiment","legacy","legacy","legacy","0","uniform","1","undefined","1","left","88","88","88","0","0","88","88","0","0","88","88","88","0","88","0","10/23/21 14:26:03","The main experiment item","yes","SternbergExperiment.osexp","C:\Users\katie\Documents\School\Quant Methods\Lab 3","no","mono","no","18","no","white","no","yes","768","legacy","76","11","C:/Users/katie/Documents/School/Quant Methods/Lab 3/KH-subject-3.csv","legacy","2 4 8 5 1 3","Lentiform Loewenfeld","3.3.9","1","y","0","left","space","space","left","NA","871","85546","8202","871","NA","2","legacy","6","1024","2","48000","-16","experiment","1","odd","2","632277","629014","630070","3127","173985","630072","574806","3130","165783","634278","631074","635150","88679","634278","NA","Sternberg task","82","68203","89","yes","1024"
"92.2222222222","92.2222222222","763.788888889","763.788888889","black","experiment","legacy","legacy","legacy","0","uniform","1","undefined","1","right","89","89","89","0","0","89","89","0","0","89","89","89","0","89","0","10/23/21 14:26:03","The main experiment item","yes","SternbergExperiment.osexp","C:\Users\katie\Documents\School\Quant Methods\Lab 3","no","mono","no","18","no","white","no","yes","768","legacy","77","11","C:/Users/katie/Documents/School/Quant Methods/Lab 3/KH-subject-3.csv","legacy","4 1","Lentiform Loewenfeld","3.3.9","0","n","0","right","space","space","right","NA","538","85546","8202","538","NA","2","legacy","2","1024","2","48000","-16","experiment","1","odd","6","638418","635155","636212","3127","173985","636214","574806","3130","165783","640419","637216","640958","88679","640419","NA","Sternberg task","83","68741","90","yes","1024"
"92.3076923077","92.3076923077","767.549450549","767.549450549","black","experiment","legacy","legacy","legacy","0","uniform","1","undefined","1","right","90","90","90","0","0","90","90","0","0","90","90","90","0","90","0","10/23/21 14:26:03","The main experiment item","yes","SternbergExperiment.osexp","C:\Users\katie\Documents\School\Quant Methods\Lab 3","no","mono","no","18","no","white","no","yes","768","legacy","78","11","C:/Users/katie/Documents/School/Quant Methods/Lab 3/KH-subject-3.csv","legacy","3 9 8 1 6 4","Lentiform Loewenfeld","3.3.9","0","n","0","right","space","space","right","NA","1106","85546","8202","1106","NA","2","legacy","6","1024","2","48000","-16","experiment","1","odd","7","644223","640962","642016","3127","173985","642018","574806","3130","165783","646224","643020","647331","88679","646224","NA","Sternberg task","84","69847","91","yes","1024"
"92.3913043478","92.3913043478","766.75","766.75","black","experiment","legacy","legacy","legacy","0","uniform","1","undefined","1","right","91","91","91","0","0","91","91","0","0","91","91","91","0","91","0","10/23/21 14:26:03","The main experiment item","yes","SternbergExperiment.osexp","C:\Users\katie\Documents\School\Quant Methods\Lab 3","no","mono","no","18","no","white","no","yes","768","legacy","79","11","C:/Users/katie/Documents/School/Quant Methods/Lab 3/KH-subject-3.csv","legacy","5 9 2 3","Lentiform Loewenfeld","3.3.9","0","n","0","right","space","space","right","NA","694","85546","8202","694","NA","2","legacy","4","1024","2","48000","-16","experiment","1","odd","8","650601","647335","648391","3127","173985","648396","574806","3130","165783","652602","649398","653297","88679","652602","NA","Sternberg task","85","70541","92","yes","1024"
"92.4731182796","92.4731182796","764.344086022","764.344086022","black","experiment","legacy","legacy","legacy","0","uniform","1","undefined","1","left","92","92","92","0","0","92","92","0","0","92","92","92","0","92","0","10/23/21 14:26:03","The main experiment item","yes","SternbergExperiment.osexp","C:\Users\katie\Documents\School\Quant Methods\Lab 3","no","mono","no","18","no","white","no","yes","768","legacy","80","11","C:/Users/katie/Documents/School/Quant Methods/Lab 3/KH-subject-3.csv","legacy","9 1 7 2","Lentiform Loewenfeld","3.3.9","2","y","0","left","space","space","left","NA","543","85546","8202","543","NA","2","legacy","4","1024","2","48000","-16","experiment","1","odd","1","656569","653307","654363","3127","173985","654364","574806","3130","165783","658572","655366","659116","88679","658571","NA","Sternberg task","86","71084","93","yes","1024"
"92.5531914894","92.5531914894","763.319148936","763.319148936","black","experiment","legacy","legacy","legacy","0","uniform","1","undefined","1","right","93","93","93","0","0","93","93","0","0","93","93","93","0","93","0","10/23/21 14:26:03","The main experiment item","yes","SternbergExperiment.osexp","C:\Users\katie\Documents\School\Quant Methods\Lab 3","no","mono","no","18","no","white","no","yes","768","legacy","81","11","C:/Users/katie/Documents/School/Quant Methods/Lab 3/KH-subject-3.csv","legacy","8 4 3 5","Lentiform Loewenfeld","3.3.9","0","n","0","right","space","space","right","NA","668","85546","8202","668","NA","2","legacy","4","1024","2","48000","-16","experiment","1","odd","6","662393","659128","660186","3127","173985","660188","574806","3130","165783","664394","661190","665063","88679","664394","NA","Sternberg task","87","71752","94","yes","1024"
"92.6315789474","92.6315789474","772.157894737","772.157894737","black","experiment","legacy","legacy","legacy","0","uniform","1","undefined","1","right","94","94","94","0","0","94","94","0","0","94","94","94","0","94","0","10/23/21 14:26:03","The main experiment item","yes","SternbergExperiment.osexp","C:\Users\katie\Documents\School\Quant Methods\Lab 3","no","mono","no","18","no","white","no","yes","768","legacy","82","11","C:/Users/katie/Documents/School/Quant Methods/Lab 3/KH-subject-3.csv","legacy","8 6 3 4 7","Lentiform Loewenfeld","3.3.9","0","n","0","right","space","space","right","NA","1603","85546","8202","1603","NA","2","legacy","5","1024","2","48000","-16","experiment","1","odd","1","668339","665067","666133","3127","173985","666134","574806","3130","165783","670340","667137","671944","88679","670340","NA","Sternberg task","88","73355","95","yes","1024"
"92.7083333333","92.7083333333","775.895833333","775.895833333","black","experiment","legacy","legacy","legacy","0","uniform","1","undefined","1","left","95","95","95","0","0","95","95","0","0","95","95","95","0","95","0","10/23/21 14:26:03","The main experiment item","yes","SternbergExperiment.osexp","C:\Users\katie\Documents\School\Quant Methods\Lab 3","no","mono","no","18","no","white","no","yes","768","legacy","83","11","C:/Users/katie/Documents/School/Quant Methods/Lab 3/KH-subject-3.csv","legacy","8 9 5 7 1 6","Lentiform Loewenfeld","3.3.9","4","y","0","left","space","space","left","NA","1131","85546","8202","1131","NA","2","legacy","6","1024","2","48000","-16","experiment","1","odd","7","675223","671957","673016","3127","173985","673018","574806","3130","165783","677224","674020","678356","88679","677224","NA","Sternberg task","89","74486","96","yes","1024"
"92.7835051546","92.7835051546","775.824742268","775.824742268","black","experiment","legacy","legacy","legacy","0","uniform","1","undefined","1","left","96","96","96","0","0","96","96","0","0","96","96","96","0","96","0","10/23/21 14:26:03","The main experiment item","yes","SternbergExperiment.osexp","C:\Users\katie\Documents\School\Quant Methods\Lab 3","no","mono","no","18","no","white","no","yes","768","legacy","84","11","C:/Users/katie/Documents/School/Quant Methods/Lab 3/KH-subject-3.csv","legacy","8 5 4 7 3 1","Lentiform Loewenfeld","3.3.9","2","y","0","left","space","space","left","NA","769","85546","8202","769","NA","2","legacy","6","1024","2","48000","-16","experiment","1","odd","5","681631","678368","679424","3127","173985","679426","574806","3130","165783","683632","680428","684402","88679","683632","NA","Sternberg task","90","75255","97","yes","1024"
"92.8571428571","92.8571428571","777.316326531","777.316326531","black","experiment","legacy","legacy","legacy","0","uniform","1","undefined","1","right","97","97","97","0","0","97","97","0","0","97","97","97","0","97","0","10/23/21 14:26:03","The main experiment item","yes","SternbergExperiment.osexp","C:\Users\katie\Documents\School\Quant Methods\Lab 3","no","mono","no","18","no","white","no","yes","768","legacy","85","11","C:/Users/katie/Documents/School/Quant Methods/Lab 3/KH-subject-3.csv","legacy","6 2 9 3 8 4","Lentiform Loewenfeld","3.3.9","0","n","0","right","space","space","right","NA","922","85546","8202","922","NA","2","legacy","6","1024","2","48000","-16","experiment","1","odd","1","687674","684412","685467","3127","173985","685470","574806","3130","165783","689676","686471","690599","88679","689676","NA","Sternberg task","91","76177","98","yes","1024"
"92.9292929293","92.9292929293","774.939393939","774.939393939","black","experiment","legacy","legacy","legacy","0","uniform","1","undefined","1","left","98","98","98","0","0","98","98","0","0","98","98","98","0","98","0","10/23/21 14:26:03","The main experiment item","yes","SternbergExperiment.osexp","C:\Users\katie\Documents\School\Quant Methods\Lab 3","no","mono","no","18","no","white","no","yes","768","legacy","86","11","C:/Users/katie/Documents/School/Quant Methods/Lab 3/KH-subject-3.csv","legacy","6 1 2","Lentiform Loewenfeld","3.3.9","3","y","0","left","space","space","left","NA","542","85546","8202","542","NA","2","legacy","3","1024","2","48000","-16","experiment","1","odd","2","693864","690603","691658","3127","173985","691660","574806","3130","165783","695865","692662","696408","88679","695865","NA","Sternberg task","92","76719","99","yes","1024"
"93","93","775.91","775.91","black","experiment","legacy","legacy","legacy","0","uniform","1","undefined","1","right","99","99","99","0","0","99","99","0","0","99","99","99","0","99","0","10/23/21 14:26:03","The main experiment item","yes","SternbergExperiment.osexp","C:\Users\katie\Documents\School\Quant Methods\Lab 3","no","mono","no","18","no","white","no","yes","768","legacy","87","11","C:/Users/katie/Documents/School/Quant Methods/Lab 3/KH-subject-3.csv","legacy","5 3 2 6 9 8","Lentiform Loewenfeld","3.3.9","0","n","0","right","space","space","right","NA","872","85546","8202","872","NA","2","legacy","6","1024","2","48000","-16","experiment","1","odd","4","699684","696419","697475","3127","173985","697478","574806","3130","165783","701686","698481","702559","88679","701685","NA","Sternberg task","93","77591","100","yes","1024"
"93.0693069307","93.0693069307","778.475247525","778.475247525","black","experiment","legacy","legacy","legacy","0","uniform","1","undefined","1","left","100","100","100","0","0","100","100","0","0","100","100","100","0","100","0","10/23/21 14:26:03","The main experiment item","yes","SternbergExperiment.osexp","C:\Users\katie\Documents\School\Quant Methods\Lab 3","no","mono","no","18","no","white","no","yes","768","legacy","88","11","C:/Users/katie/Documents/School/Quant Methods/Lab 3/KH-subject-3.csv","legacy","9 5 3 8 4","Lentiform Loewenfeld","3.3.9","1","y","0","left","space","space","left","NA","1035","85546","8202","1035","NA","2","legacy","5","1024","2","48000","-16","experiment","1","odd","9","705832","702571","703626","3127","173985","703627","574806","3130","165783","707833","704629","708869","88679","707833","NA","Sternberg task","94","78626","101","yes","1024"
"93.137254902","93.137254902","776.784313725","776.784313725","black","experiment","legacy","legacy","legacy","0","uniform","1","undefined","1","left","101","101","101","0","0","101","101","0","0","101","101","101","0","101","0","10/23/21 14:26:03","The main experiment item","yes","SternbergExperiment.osexp","C:\Users\katie\Documents\School\Quant Methods\Lab 3","no","mono","no","18","no","white","no","yes","768","legacy","89","11","C:/Users/katie/Documents/School/Quant Methods/Lab 3/KH-subject-3.csv","legacy","9 6 2 4 1","Lentiform Loewenfeld","3.3.9","4","y","0","left","space","space","left","NA","606","85546","8202","606","NA","2","legacy","5","1024","2","48000","-16","experiment","1","odd","4","712146","708880","709939","3127","173985","709941","574806","3130","165783","714149","710943","714756","88679","714147","NA","Sternberg task","95","79232","102","yes","1024"
"93.2038834951","93.2038834951","775.718446602","775.718446602","black","experiment","legacy","legacy","legacy","0","uniform","1","undefined","1","left","102","102","102","0","0","102","102","0","0","102","102","102","0","102","0","10/23/21 14:26:03","The main experiment item","yes","SternbergExperiment.osexp","C:\Users\katie\Documents\School\Quant Methods\Lab 3","no","mono","no","18","no","white","no","yes","768","legacy","90","11","C:/Users/katie/Documents/School/Quant Methods/Lab 3/KH-subject-3.csv","legacy","9 5 8 1","Lentiform Loewenfeld","3.3.9","2","y","0","left","space","space","left","NA","667","85546","8202","667","NA","2","legacy","4","1024","2","48000","-16","experiment","1","odd","5","718036","714767","715828","3127","173985","715831","574806","3130","165783","720037","716833","720705","88679","720037","NA","Sternberg task","96","79899","103","yes","1024"
"93.2692307692","93.2692307692","774.980769231","774.980769231","black","experiment","legacy","legacy","legacy","0","uniform","1","undefined","1","left","103","103","103","0","0","103","103","0","0","103","103","103","0","103","0","10/23/21 14:26:03","The main experiment item","yes","SternbergExperiment.osexp","C:\Users\katie\Documents\School\Quant Methods\Lab 3","no","mono","no","18","no","white","no","yes","768","legacy","91","11","C:/Users/katie/Documents/School/Quant Methods/Lab 3/KH-subject-3.csv","legacy","6 9 7 4 5 1","Lentiform Loewenfeld","3.3.9","2","y","0","left","space","space","left","NA","699","85546","8202","699","NA","2","legacy","6","1024","2","48000","-16","experiment","1","odd","9","723980","720717","721773","3127","173985","721775","574806","3130","165783","725981","722777","726682","88679","725981","NA","Sternberg task","97","80598","104","yes","1024"
"93.3333333333","93.3333333333","775.114285714","775.114285714","black","experiment","legacy","legacy","legacy","0","uniform","1","undefined","1","right","104","104","104","0","0","104","104","0","0","104","104","104","0","104","0","10/23/21 14:26:03","The main experiment item","yes","SternbergExperiment.osexp","C:\Users\katie\Documents\School\Quant Methods\Lab 3","no","mono","no","18","no","white","no","yes","768","legacy","92","11","C:/Users/katie/Documents/School/Quant Methods/Lab 3/KH-subject-3.csv","legacy","1 8 7","Lentiform Loewenfeld","3.3.9","0","n","0","right","space","space","right","NA","789","85546","8202","789","NA","2","legacy","3","1024","2","48000","-16","experiment","1","odd","4","729956","726692","727747","3127","173985","727751","574806","3130","165783","731957","728753","732747","88679","731957","NA","Sternberg task","98","81387","105","yes","1024"
"93.3962264151","93.3962264151","776.452830189","776.452830189","black","experiment","legacy","legacy","legacy","0","uniform","1","undefined","1","left","105","105","105","0","0","105","105","0","0","105","105","105","0","105","0","10/23/21 14:26:03","The main experiment item","yes","SternbergExperiment.osexp","C:\Users\katie\Documents\School\Quant Methods\Lab 3","no","mono","no","18","no","white","no","yes","768","legacy","93","11","C:/Users/katie/Documents/School/Quant Methods/Lab 3/KH-subject-3.csv","legacy","6 7 8 5","Lentiform Loewenfeld","3.3.9","3","y","0","left","space","space","left","NA","917","85546","8202","917","NA","2","legacy","4","1024","2","48000","-16","experiment","1","odd","8","736023","732759","733817","3127","173985","733818","574806","3130","165783","738025","734821","738943","88679","738025","NA","Sternberg task","99","82304","106","yes","1024"
"93.4579439252","93.4579439252","775.429906542","775.429906542","black","experiment","legacy","legacy","legacy","0","uniform","1","undefined","1","left","106","106","106","0","0","106","106","0","0","106","106","106","0","106","0","10/23/21 14:26:03","The main experiment item","yes","SternbergExperiment.osexp","C:\Users\katie\Documents\School\Quant Methods\Lab 3","no","mono","no","18","no","white","no","yes","768","legacy","94","11","C:/Users/katie/Documents/School/Quant Methods/Lab 3/KH-subject-3.csv","legacy","4 6 5 8","Lentiform Loewenfeld","3.3.9","1","y","0","left","space","space","left","NA","667","85546","8202","667","NA","2","legacy","4","1024","2","48000","-16","experiment","1","odd","4","742217","738955","740011","3127","173985","740012","574806","3130","165783","744219","741014","744886","88679","744219","NA","Sternberg task","100","82971","107","yes","1024"
"93.5185185185","93.5185185185","773.194444444","773.194444444","black","experiment","legacy","legacy","legacy","0","uniform","1","undefined","1","left","107","107","107","0","0","107","107","0","0","107","107","107","0","107","0","10/23/21 14:26:03","The main experiment item","yes","SternbergExperiment.osexp","C:\Users\katie\Documents\School\Quant Methods\Lab 3","no","mono","no","18","no","white","no","yes","768","legacy","95","11","C:/Users/katie/Documents/School/Quant Methods/Lab 3/KH-subject-3.csv","legacy","7","Lentiform Loewenfeld","3.3.9","1","y","0","left","space","space","left","NA","534","85546","8202","534","NA","2","legacy","1","1024","2","48000","-16","experiment","1","odd","7","748160","744898","745954","3127","173985","745955","574806","3130","165783","750162","746957","750696","88679","750162","NA","Sternberg task","101","83505","108","yes","1024"
"93.5779816514","93.5779816514","776.412844037","776.412844037","black","experiment","legacy","legacy","legacy","0","uniform","1","undefined","1","right","108","108","108","0","0","108","108","0","0","108","108","108","0","108","0","10/23/21 14:26:03","The main experiment item","yes","SternbergExperiment.osexp","C:\Users\katie\Documents\School\Quant Methods\Lab 3","no","mono","no","18","no","white","no","yes","768","legacy","96","11","C:/Users/katie/Documents/School/Quant Methods/Lab 3/KH-subject-3.csv","legacy","2 8 6 3 1","Lentiform Loewenfeld","3.3.9","0","n","0","right","space","space","right","NA","1124","85546","8202","1124","NA","2","legacy","5","1024","2","48000","-16","experiment","1","odd","7","753977","750709","751768","3127","173985","751773","574806","3130","165783","755979","752775","757105","88679","755979","NA","Sternberg task","102","84629","109","yes","1024"
"93.6363636364","93.6363636364","778.118181818","778.118181818","black","experiment","legacy","legacy","legacy","0","uniform","1","undefined","1","left","109","109","109","0","0","109","109","0","0","109","109","109","0","109","0","10/23/21 14:26:03","The main experiment item","yes","SternbergExperiment.osexp","C:\Users\katie\Documents\School\Quant Methods\Lab 3","no","mono","no","18","no","white","no","yes","768","legacy","97","11","C:/Users/katie/Documents/School/Quant Methods/Lab 3/KH-subject-3.csv","legacy","7 8 6 3 1","Lentiform Loewenfeld","3.3.9","5","y","0","left","space","space","left","NA","964","85546","8202","964","NA","2","legacy","5","1024","2","48000","-16","experiment","1","odd","1","760377","757115","758171","3127","173985","758173","574806","3130","165783","762378","759175","763343","88679","762378","NA","Sternberg task","103","85593","110","yes","1024"
"93.6936936937","93.6936936937","779.774774775","779.774774775","black","experiment","legacy","legacy","legacy","0","uniform","1","undefined","1","left","110","110","110","0","0","110","110","0","0","110","110","110","0","110","0","10/23/21 14:26:03","The main experiment item","yes","SternbergExperiment.osexp","C:\Users\katie\Documents\School\Quant Methods\Lab 3","no","mono","no","18","no","white","no","yes","768","legacy","98","11","C:/Users/katie/Documents/School/Quant Methods/Lab 3/KH-subject-3.csv","legacy","4 3 2 5 8","Lentiform Loewenfeld","3.3.9","2","y","0","left","space","space","left","NA","962","85546","8202","962","NA","2","legacy","5","1024","2","48000","-16","experiment","1","odd","3","766607","763346","764401","3127","173985","764402","574806","3130","165783","768608","765404","769571","88679","768608","NA","Sternberg task","104","86555","111","yes","1024"
"93.75","93.75","777.482142857","777.482142857","black","experiment","legacy","legacy","legacy","0","uniform","1","undefined","1","right","111","111","111","0","0","111","111","0","0","111","111","111","0","111","0","10/23/21 14:26:03","The main experiment item","yes","SternbergExperiment.osexp","C:\Users\katie\Documents\School\Quant Methods\Lab 3","no","mono","no","18","no","white","no","yes","768","legacy","99","11","C:/Users/katie/Documents/School/Quant Methods/Lab 3/KH-subject-3.csv","legacy","9","Lentiform Loewenfeld","3.3.9","0","n","0","right","space","space","right","NA","523","85546","8202","523","NA","2","legacy","1","1024","2","48000","-16","experiment","1","odd","6","772849","769583","770639","3127","173985","770644","574806","3130","165783","774850","771645","775374","88679","774850","NA","Sternberg task","105","87078","112","yes","1024"
"93.8053097345","93.8053097345","777.097345133","777.097345133","black","experiment","legacy","legacy","legacy","0","uniform","1","undefined","1","left","112","112","112","0","0","112","112","0","0","112","112","112","0","112","0","10/23/21 14:26:03","The main experiment item","yes","SternbergExperiment.osexp","C:\Users\katie\Documents\School\Quant Methods\Lab 3","no","mono","no","18","no","white","no","yes","768","legacy","100","11","C:/Users/katie/Documents/School/Quant Methods/Lab 3/KH-subject-3.csv","legacy","6 2","Lentiform Loewenfeld","3.3.9","1","y","0","left","space","space","left","NA","734","85546","8202","734","NA","2","legacy","2","1024","2","48000","-16","experiment","1","odd","6","778644","775378","776437","3127","173985","776439","574806","3130","165783","780644","777440","781378","88679","780644","NA","Sternberg task","106","87812","113","yes","1024"
