"acc","accuracy","average_response_time","avg_rt","background","block","canvas_backend","clock_backend","color_backend","compensation","coordinates","correct","correct_instruction1","correct_keyboard_response","correct_response","count_ISI","count_PracticeLoop","count_correctFeedback","count_expSequence","count_experiment","count_experimentLoop","count_fixation","count_incorrectFeedback","count_instruction1","count_instructions2","count_keyboard_response","count_memorySet","count_new_logger","count_probe","count_thankYou","datetime","description","disable_garbage_collection","experiment_file","experiment_path","font_bold","font_family","font_italic","font_size","font_underline","foreground","form_clicks","fullscreen","height","keyboard_backend","live_row","live_row_PracticeLoop","logfile","mouse_backend","numberSet","opensesame_codename","opensesame_version","posInSet","present","repeat_cycle","response","response_instruction1","response_instructions2","response_keyboard_response","response_thankYou","response_time","response_time_instruction1","response_time_instructions2","response_time_keyboard_response","response_time_thankYou","round_decimals","sampler_backend","setSize","sound_buf_size","sound_channels","sound_freq","sound_sample_size","start","subject_nr","subject_parity","target","time_ISI","time_PracticeLoop","time_correctFeedback","time_expSequence","time_experiment","time_experimentLoop","time_fixation","time_incorrectFeedback","time_instruction1","time_instructions2","time_keyboard_response","time_memorySet","time_new_logger","time_probe","time_thankYou","title","total_correct","total_response_time","total_responses","uniform_coordinates","width"
"100","100","1309","1309","black","practice","legacy","legacy","legacy","0","uniform","1","undefined","1","left","0","0","0","0","0","0","0","0","0","0","0","0","0","0","0","10/20/21 14:20:05","The main experiment item","yes","SternbergTask.osexp","C:\Users\bryan\OneDrive\Documents\School\PSYC 5316  (Quant Methods)\Lab 3","no","mono","no","18","no","white","no","yes","768","legacy","0","0","C:/Users/bryan/OneDrive/Documents/School/PSYC 5316  (Quant Methods)/Lab 3/BS-subject-2.csv","legacy","6","Lentiform Loewenfeld","3.3.9","1","y","0","left","space","NA","left","NA","1309","70474","NA","1309","NA","2","legacy","1","1024","2","48000","-16","experiment","2","even","6","76543","73260","NA","74324","2780","NA","74328","NA","2785","NA","78553","75335","79863","78552","NA","Sternberg Task","1","1309","1","yes","1024"
"100","100","1057","1057","black","practice","legacy","legacy","legacy","0","uniform","1","undefined","1","right","1","0","1","1","0","0","1","1","0","0","1","1","1","1","0","10/20/21 14:20:05","The main experiment item","yes","SternbergTask.osexp","C:\Users\bryan\OneDrive\Documents\School\PSYC 5316  (Quant Methods)\Lab 3","no","mono","no","18","no","white","no","yes","768","legacy","1","1","C:/Users/bryan/OneDrive/Documents/School/PSYC 5316  (Quant Methods)/Lab 3/BS-subject-2.csv","legacy","4 1 5","Lentiform Loewenfeld","3.3.9","0","n","0","right","space","NA","right","NA","805","70474","NA","805","NA","2","legacy","3","1024","2","48000","-16","experiment","2","even","2","83377","73260","79944","81157","2780","NA","81160","NA","2785","NA","85386","82168","86192","85385","NA","Sternberg Task","2","2114","2","yes","1024"
"100","100","1042","1042","black","practice","legacy","legacy","legacy","0","uniform","1","undefined","1","left","2","0","2","2","0","0","2","2","0","0","2","2","2","2","0","10/20/21 14:20:05","The main experiment item","yes","SternbergTask.osexp","C:\Users\bryan\OneDrive\Documents\School\PSYC 5316  (Quant Methods)\Lab 3","no","mono","no","18","no","white","no","yes","768","legacy","2","2","C:/Users/bryan/OneDrive/Documents/School/PSYC 5316  (Quant Methods)/Lab 3/BS-subject-2.csv","legacy","1 5 2 9","Lentiform Loewenfeld","3.3.9","2","y","0","left","space","NA","left","NA","1012","70474","NA","1012","NA","2","legacy","4","1024","2","48000","-16","experiment","2","even","5","89562","73260","86202","87342","2780","NA","87346","NA","2785","NA","91570","88354","92583","91570","NA","Sternberg Task","3","3126","3","yes","1024"
"100","100","1089.25","1089.25","black","practice","legacy","legacy","legacy","0","uniform","1","undefined","1","right","3","0","3","3","0","0","3","3","0","0","3","3","3","3","0","10/20/21 14:20:05","The main experiment item","yes","SternbergTask.osexp","C:\Users\bryan\OneDrive\Documents\School\PSYC 5316  (Quant Methods)\Lab 3","no","mono","no","18","no","white","no","yes","768","legacy","3","3","C:/Users/bryan/OneDrive/Documents/School/PSYC 5316  (Quant Methods)/Lab 3/BS-subject-2.csv","legacy","9 6 7 4 5","Lentiform Loewenfeld","3.3.9","0","n","0","right","space","NA","right","NA","1231","70474","NA","1231","NA","2","legacy","5","1024","2","48000","-16","experiment","2","even","3","95966","73260","92594","93745","2780","NA","93749","NA","2785","NA","97975","94757","99207","97975","NA","Sternberg Task","4","4357","4","yes","1024"
"100","100","1045.2","1045.2","black","practice","legacy","legacy","legacy","0","uniform","1","undefined","1","right","4","0","4","4","0","0","4","4","0","0","4","4","4","4","0","10/20/21 14:20:05","The main experiment item","yes","SternbergTask.osexp","C:\Users\bryan\OneDrive\Documents\School\PSYC 5316  (Quant Methods)\Lab 3","no","mono","no","18","no","white","no","yes","768","legacy","4","4","C:/Users/bryan/OneDrive/Documents/School/PSYC 5316  (Quant Methods)/Lab 3/BS-subject-2.csv","legacy","3 1 9 4","Lentiform Loewenfeld","3.3.9","0","n","0","right","space","NA","right","NA","869","70474","NA","869","NA","2","legacy","4","1024","2","48000","-16","experiment","2","even","6","102579","73260","99217","100360","2780","NA","100364","NA","2785","NA","104588","101371","105457","104587","NA","Sternberg Task","5","5226","5","yes","1024"
"100","100","1147","1147","black","practice","legacy","legacy","legacy","0","uniform","1","undefined","1","left","5","0","5","5","0","0","5","5","0","0","5","5","5","5","0","10/20/21 14:20:05","The main experiment item","yes","SternbergTask.osexp","C:\Users\bryan\OneDrive\Documents\School\PSYC 5316  (Quant Methods)\Lab 3","no","mono","no","18","no","white","no","yes","768","legacy","5","5","C:/Users/bryan/OneDrive/Documents/School/PSYC 5316  (Quant Methods)/Lab 3/BS-subject-2.csv","legacy","4 3 1 7 9 8","Lentiform Loewenfeld","3.3.9","1","y","0","left","space","NA","left","NA","1656","70474","NA","1656","NA","2","legacy","6","1024","2","48000","-16","experiment","2","even","4","108839","73260","105464","106620","2780","NA","106623","NA","2785","NA","110848","107632","112505","110847","NA","Sternberg Task","6","6882","6","yes","1024"
"100","100","1051.14285714","1051.14285714","black","practice","legacy","legacy","legacy","0","uniform","1","undefined","1","right","6","0","6","6","0","0","6","6","0","0","6","6","6","6","0","10/20/21 14:20:05","The main experiment item","yes","SternbergTask.osexp","C:\Users\bryan\OneDrive\Documents\School\PSYC 5316  (Quant Methods)\Lab 3","no","mono","no","18","no","white","no","yes","768","legacy","6","6","C:/Users/bryan/OneDrive/Documents/School/PSYC 5316  (Quant Methods)/Lab 3/BS-subject-2.csv","legacy","2 1","Lentiform Loewenfeld","3.3.9","0","n","0","right","space","NA","right","NA","476","70474","NA","476","NA","2","legacy","2","1024","2","48000","-16","experiment","2","even","5","115890","73260","112515","113670","2780","NA","113673","NA","2785","NA","117900","114682","118376","117899","NA","Sternberg Task","7","7358","7","yes","1024"
"100","100","974","974","black","practice","legacy","legacy","legacy","0","uniform","1","undefined","1","left","7","0","7","7","0","0","7","7","0","0","7","7","7","7","0","10/20/21 14:20:05","The main experiment item","yes","SternbergTask.osexp","C:\Users\bryan\OneDrive\Documents\School\PSYC 5316  (Quant Methods)\Lab 3","no","mono","no","18","no","white","no","yes","768","legacy","7","7","C:/Users/bryan/OneDrive/Documents/School/PSYC 5316  (Quant Methods)/Lab 3/BS-subject-2.csv","legacy","4 8","Lentiform Loewenfeld","3.3.9","1","y","0","left","space","NA","left","NA","434","70474","NA","434","NA","2","legacy","2","1024","2","48000","-16","experiment","2","even","4","121746","73260","118386","119530","2780","NA","119534","NA","2785","NA","123754","120538","124189","123753","NA","Sternberg Task","8","7792","8","yes","1024"
"100","100","988.444444444","988.444444444","black","practice","legacy","legacy","legacy","0","uniform","1","undefined","1","left","8","0","8","8","0","0","8","8","0","0","8","8","8","8","0","10/20/21 14:20:05","The main experiment item","yes","SternbergTask.osexp","C:\Users\bryan\OneDrive\Documents\School\PSYC 5316  (Quant Methods)\Lab 3","no","mono","no","18","no","white","no","yes","768","legacy","8","8","C:/Users/bryan/OneDrive/Documents/School/PSYC 5316  (Quant Methods)/Lab 3/BS-subject-2.csv","legacy","1 7 9 8 5","Lentiform Loewenfeld","3.3.9","4","y","0","left","space","NA","left","NA","1104","70474","NA","1104","NA","2","legacy","5","1024","2","48000","-16","experiment","2","even","8","127564","73260","124197","125344","2780","NA","125348","NA","2785","NA","129574","126355","130679","129573","NA","Sternberg Task","9","8896","9","yes","1024"
"100","100","1014.9","1014.9","black","practice","legacy","legacy","legacy","0","uniform","1","undefined","1","left","9","0","9","9","0","0","9","9","0","0","9","9","9","9","0","10/20/21 14:20:05","The main experiment item","yes","SternbergTask.osexp","C:\Users\bryan\OneDrive\Documents\School\PSYC 5316  (Quant Methods)\Lab 3","no","mono","no","18","no","white","no","yes","768","legacy","9","9","C:/Users/bryan/OneDrive/Documents/School/PSYC 5316  (Quant Methods)/Lab 3/BS-subject-2.csv","legacy","2 9 4","Lentiform Loewenfeld","3.3.9","3","y","0","left","space","NA","left","NA","1253","70474","NA","1253","NA","2","legacy","3","1024","2","48000","-16","experiment","2","even","4","134062","73260","130688","131843","2780","NA","131847","NA","2785","NA","136069","132854","137323","136069","NA","Sternberg Task","10","10149","10","yes","1024"
"100","100","981.818181818","981.818181818","black","practice","legacy","legacy","legacy","0","uniform","1","undefined","1","right","10","0","10","10","0","0","10","10","0","0","10","10","10","10","0","10/20/21 14:20:05","The main experiment item","yes","SternbergTask.osexp","C:\Users\bryan\OneDrive\Documents\School\PSYC 5316  (Quant Methods)\Lab 3","no","mono","no","18","no","white","no","yes","768","legacy","10","10","C:/Users/bryan/OneDrive/Documents/School/PSYC 5316  (Quant Methods)/Lab 3/BS-subject-2.csv","legacy","5","Lentiform Loewenfeld","3.3.9","0","n","0","right","space","NA","right","NA","651","70474","NA","651","NA","2","legacy","1","1024","2","48000","-16","experiment","2","even","3","140701","73260","137333","138481","2780","NA","138484","NA","2785","NA","142711","139493","143363","142710","NA","Sternberg Task","11","10800","11","yes","1024"
"91.6666666667","91.6666666667","1066.66666667","1066.66666667","black","practice","legacy","legacy","legacy","0","uniform","0","undefined","0","right","11","0","11","11","0","0","11","11","0","0","11","11","11","11","0","10/20/21 14:20:05","The main experiment item","yes","SternbergTask.osexp","C:\Users\bryan\OneDrive\Documents\School\PSYC 5316  (Quant Methods)\Lab 3","no","mono","no","18","no","white","no","yes","768","legacy","11","11","C:/Users/bryan/OneDrive/Documents/School/PSYC 5316  (Quant Methods)/Lab 3/BS-subject-2.csv","legacy","5 7 8 4 1 2","Lentiform Loewenfeld","3.3.9","0","n","0","None","space","NA","None","NA","2000","70474","NA","2000","NA","2","legacy","6","1024","2","48000","-16","experiment","2","even","6","146739","73260","143373","144518","2780","NA","144522","NA","2785","NA","148748","145530","150748","148747","NA","Sternberg Task","11","12800","12","yes","1024"
"92.3076923077","92.3076923077","1049.23076923","1049.23076923","black","experiment","legacy","legacy","legacy","0","uniform","1","undefined","1","right","12","0","12","12","0","0","12","12","0","0","12","12","12","12","0","10/20/21 14:20:05","The main experiment item","yes","SternbergTask.osexp","C:\Users\bryan\OneDrive\Documents\School\PSYC 5316  (Quant Methods)\Lab 3","no","mono","no","18","no","white","no","yes","768","legacy","0","11","C:/Users/bryan/OneDrive/Documents/School/PSYC 5316  (Quant Methods)/Lab 3/BS-subject-2.csv","legacy","3 9 1","Lentiform Loewenfeld","3.3.9","0","n","0","right","space","space","right","NA","840","70474","27173","840","NA","2","legacy","3","1024","2","48000","-16","experiment","2","even","7","181370","73260","143373","179149","2780","178995","179152","150758","2785","151821","183379","180161","184221","183378","NA","Sternberg Task","12","13640","13","yes","1024"
"92.8571428571","92.8571428571","1007.42857143","1007.42857143","black","experiment","legacy","legacy","legacy","0","uniform","1","undefined","1","left","13","0","13","13","0","0","13","13","0","0","13","13","13","13","0","10/20/21 14:20:05","The main experiment item","yes","SternbergTask.osexp","C:\Users\bryan\OneDrive\Documents\School\PSYC 5316  (Quant Methods)\Lab 3","no","mono","no","18","no","white","no","yes","768","legacy","1","11","C:/Users/bryan/OneDrive/Documents/School/PSYC 5316  (Quant Methods)/Lab 3/BS-subject-2.csv","legacy","3 5 4 7","Lentiform Loewenfeld","3.3.9","1","y","0","left","space","space","left","NA","464","70474","27173","464","NA","2","legacy","4","1024","2","48000","-16","experiment","2","even","3","187601","73260","184240","185382","2780","178995","185385","150758","2785","151821","189610","186394","190076","189609","NA","Sternberg Task","13","14104","14","yes","1024"
"93.3333333333","93.3333333333","1002.73333333","1002.73333333","black","experiment","legacy","legacy","legacy","0","uniform","1","undefined","1","right","14","0","14","14","0","0","14","14","0","0","14","14","14","14","0","10/20/21 14:20:05","The main experiment item","yes","SternbergTask.osexp","C:\Users\bryan\OneDrive\Documents\School\PSYC 5316  (Quant Methods)\Lab 3","no","mono","no","18","no","white","no","yes","768","legacy","2","11","C:/Users/bryan/OneDrive/Documents/School/PSYC 5316  (Quant Methods)/Lab 3/BS-subject-2.csv","legacy","1 4 9 2 5","Lentiform Loewenfeld","3.3.9","0","n","0","right","space","space","right","NA","937","70474","27173","937","NA","2","legacy","5","1024","2","48000","-16","experiment","2","even","7","193463","73260","190095","191243","2780","178995","191247","150758","2785","151821","195472","192255","196410","195471","NA","Sternberg Task","14","15041","15","yes","1024"
"93.75","93.75","1025.5","1025.5","black","experiment","legacy","legacy","legacy","0","uniform","1","undefined","1","right","15","0","15","15","0","0","15","15","0","0","15","15","15","15","0","10/20/21 14:20:05","The main experiment item","yes","SternbergTask.osexp","C:\Users\bryan\OneDrive\Documents\School\PSYC 5316  (Quant Methods)\Lab 3","no","mono","no","18","no","white","no","yes","768","legacy","3","11","C:/Users/bryan/OneDrive/Documents/School/PSYC 5316  (Quant Methods)/Lab 3/BS-subject-2.csv","legacy","7 4 2 8 1 9","Lentiform Loewenfeld","3.3.9","0","n","0","right","space","space","right","NA","1367","70474","27173","1367","NA","2","legacy","6","1024","2","48000","-16","experiment","2","even","5","199780","73260","196420","197559","2780","178995","197563","150758","2785","151821","201789","198571","203158","201788","NA","Sternberg Task","15","16408","16","yes","1024"
"94.1176470588","94.1176470588","998.588235294","998.588235294","black","experiment","legacy","legacy","legacy","0","uniform","1","undefined","1","right","16","0","16","16","0","0","16","16","0","0","16","16","16","16","0","10/20/21 14:20:05","The main experiment item","yes","SternbergTask.osexp","C:\Users\bryan\OneDrive\Documents\School\PSYC 5316  (Quant Methods)\Lab 3","no","mono","no","18","no","white","no","yes","768","legacy","4","11","C:/Users/bryan/OneDrive/Documents/School/PSYC 5316  (Quant Methods)/Lab 3/BS-subject-2.csv","legacy","6 8","Lentiform Loewenfeld","3.3.9","0","n","0","right","space","space","right","NA","568","70474","27173","568","NA","2","legacy","2","1024","2","48000","-16","experiment","2","even","9","206528","73260","203168","204308","2780","178995","204311","150758","2785","151821","208537","205319","209106","208536","NA","Sternberg Task","16","16976","17","yes","1024"
"94.4444444444","94.4444444444","985.611111111","985.611111111","black","experiment","legacy","legacy","legacy","0","uniform","1","undefined","1","right","17","0","17","17","0","0","17","17","0","0","17","17","17","17","0","10/20/21 14:20:05","The main experiment item","yes","SternbergTask.osexp","C:\Users\bryan\OneDrive\Documents\School\PSYC 5316  (Quant Methods)\Lab 3","no","mono","no","18","no","white","no","yes","768","legacy","5","11","C:/Users/bryan/OneDrive/Documents/School/PSYC 5316  (Quant Methods)/Lab 3/BS-subject-2.csv","legacy","7 9 1 6","Lentiform Loewenfeld","3.3.9","0","n","0","right","space","space","right","NA","765","70474","27173","765","NA","2","legacy","4","1024","2","48000","-16","experiment","2","even","4","212472","73260","209113","210251","2780","178995","210255","150758","2785","151821","214480","211263","215247","214480","NA","Sternberg Task","17","17741","18","yes","1024"
"89.4736842105","89.4736842105","992.842105263","992.842105263","black","experiment","legacy","legacy","legacy","0","uniform","0","undefined","0","left","18","0","18","18","0","0","18","18","0","0","18","18","18","18","0","10/20/21 14:20:05","The main experiment item","yes","SternbergTask.osexp","C:\Users\bryan\OneDrive\Documents\School\PSYC 5316  (Quant Methods)\Lab 3","no","mono","no","18","no","white","no","yes","768","legacy","6","11","C:/Users/bryan/OneDrive/Documents/School/PSYC 5316  (Quant Methods)/Lab 3/BS-subject-2.csv","legacy","8 5 3 7 4 6","Lentiform Loewenfeld","3.3.9","6","y","0","right","space","space","right","NA","1123","70474","27173","1123","NA","2","legacy","6","1024","2","48000","-16","experiment","2","even","6","218620","73260","215256","216399","2780","178995","216403","150758","2785","151821","220627","217411","221751","220627","NA","Sternberg Task","17","18864","19","yes","1024"
"90","90","977.65","977.65","black","experiment","legacy","legacy","legacy","0","uniform","1","undefined","1","right","19","0","19","19","0","0","19","19","0","0","19","19","19","19","0","10/20/21 14:20:05","The main experiment item","yes","SternbergTask.osexp","C:\Users\bryan\OneDrive\Documents\School\PSYC 5316  (Quant Methods)\Lab 3","no","mono","no","18","no","white","no","yes","768","legacy","7","11","C:/Users/bryan/OneDrive/Documents/School/PSYC 5316  (Quant Methods)/Lab 3/BS-subject-2.csv","legacy","2 8 9 4 1","Lentiform Loewenfeld","3.3.9","0","n","0","right","space","space","right","NA","689","70474","27173","689","NA","2","legacy","5","1024","2","48000","-16","experiment","2","even","5","225125","73260","215256","222910","2780","178995","222914","221761","2785","151821","227134","223921","227824","227133","NA","Sternberg Task","18","19553","20","yes","1024"
"90.4761904762","90.4761904762","970.380952381","970.380952381","black","experiment","legacy","legacy","legacy","0","uniform","1","undefined","1","right","20","0","20","20","0","0","20","20","0","0","20","20","20","20","0","10/20/21 14:20:05","The main experiment item","yes","SternbergTask.osexp","C:\Users\bryan\OneDrive\Documents\School\PSYC 5316  (Quant Methods)\Lab 3","no","mono","no","18","no","white","no","yes","768","legacy","8","11","C:/Users/bryan/OneDrive/Documents/School/PSYC 5316  (Quant Methods)/Lab 3/BS-subject-2.csv","legacy","2 8 6 3 1","Lentiform Loewenfeld","3.3.9","0","n","0","right","space","space","right","NA","825","70474","27173","825","NA","2","legacy","5","1024","2","48000","-16","experiment","2","even","7","231206","73260","227834","228986","2780","178995","228990","221761","2785","151821","233214","229998","234040","233214","NA","Sternberg Task","19","20378","21","yes","1024"
"90.9090909091","90.9090909091","976.181818182","976.181818182","black","experiment","legacy","legacy","legacy","0","uniform","1","undefined","1","left","21","0","21","21","0","0","21","21","0","0","21","21","21","21","0","10/20/21 14:20:05","The main experiment item","yes","SternbergTask.osexp","C:\Users\bryan\OneDrive\Documents\School\PSYC 5316  (Quant Methods)\Lab 3","no","mono","no","18","no","white","no","yes","768","legacy","9","11","C:/Users/bryan/OneDrive/Documents/School/PSYC 5316  (Quant Methods)/Lab 3/BS-subject-2.csv","legacy","4 9 7 8 5 3","Lentiform Loewenfeld","3.3.9","4","y","0","left","space","space","left","NA","1098","70474","27173","1098","NA","2","legacy","6","1024","2","48000","-16","experiment","2","even","8","237420","73260","234048","235199","2780","178995","235203","221761","2785","151821","239430","236211","240529","239429","NA","Sternberg Task","20","21476","22","yes","1024"
"91.3043478261","91.3043478261","971.913043478","971.913043478","black","experiment","legacy","legacy","legacy","0","uniform","1","undefined","1","left","22","0","22","22","0","0","22","22","0","0","22","22","22","22","0","10/20/21 14:20:05","The main experiment item","yes","SternbergTask.osexp","C:\Users\bryan\OneDrive\Documents\School\PSYC 5316  (Quant Methods)\Lab 3","no","mono","no","18","no","white","no","yes","768","legacy","10","11","C:/Users/bryan/OneDrive/Documents/School/PSYC 5316  (Quant Methods)/Lab 3/BS-subject-2.csv","legacy","6 9 7 4 5 1","Lentiform Loewenfeld","3.3.9","2","y","0","left","space","space","left","NA","878","70474","27173","878","NA","2","legacy","6","1024","2","48000","-16","experiment","2","even","9","243927","73260","240538","241706","2780","178995","241710","221761","2785","151821","245937","242718","246816","245936","NA","Sternberg Task","21","22354","23","yes","1024"
"91.6666666667","91.6666666667","948.916666667","948.916666667","black","experiment","legacy","legacy","legacy","0","uniform","1","undefined","1","left","23","0","23","23","0","0","23","23","0","0","23","23","23","23","0","10/20/21 14:20:05","The main experiment item","yes","SternbergTask.osexp","C:\Users\bryan\OneDrive\Documents\School\PSYC 5316  (Quant Methods)\Lab 3","no","mono","no","18","no","white","no","yes","768","legacy","11","11","C:/Users/bryan/OneDrive/Documents/School/PSYC 5316  (Quant Methods)/Lab 3/BS-subject-2.csv","legacy","4","Lentiform Loewenfeld","3.3.9","1","y","0","left","space","space","left","NA","420","70474","27173","420","NA","2","legacy","1","1024","2","48000","-16","experiment","2","even","4","250236","73260","246825","248016","2780","178995","248020","221761","2785","151821","252246","249028","252667","252245","NA","Sternberg Task","22","22774","24","yes","1024"
"92","92","932.76","932.76","black","experiment","legacy","legacy","legacy","0","uniform","1","undefined","1","left","24","0","24","24","0","0","24","24","0","0","24","24","24","24","0","10/20/21 14:20:05","The main experiment item","yes","SternbergTask.osexp","C:\Users\bryan\OneDrive\Documents\School\PSYC 5316  (Quant Methods)\Lab 3","no","mono","no","18","no","white","no","yes","768","legacy","12","11","C:/Users/bryan/OneDrive/Documents/School/PSYC 5316  (Quant Methods)/Lab 3/BS-subject-2.csv","legacy","7","Lentiform Loewenfeld","3.3.9","1","y","0","left","space","space","left","NA","545","70474","27173","545","NA","2","legacy","1","1024","2","48000","-16","experiment","2","even","7","256047","73260","252674","253827","2780","178995","253831","221761","2785","151821","258056","254839","258604","258055","NA","Sternberg Task","23","23319","25","yes","1024"
"92.3076923077","92.3076923077","918.692307692","918.692307692","black","experiment","legacy","legacy","legacy","0","uniform","1","undefined","1","left","25","0","25","25","0","0","25","25","0","0","25","25","25","25","0","10/20/21 14:20:05","The main experiment item","yes","SternbergTask.osexp","C:\Users\bryan\OneDrive\Documents\School\PSYC 5316  (Quant Methods)\Lab 3","no","mono","no","18","no","white","no","yes","768","legacy","13","11","C:/Users/bryan/OneDrive/Documents/School/PSYC 5316  (Quant Methods)/Lab 3/BS-subject-2.csv","legacy","3 5 7 1","Lentiform Loewenfeld","3.3.9","3","y","0","left","space","space","left","NA","567","70474","27173","567","NA","2","legacy","4","1024","2","48000","-16","experiment","2","even","7","261990","73260","258621","259770","2780","178995","259773","221761","2785","151821","263999","260781","264567","263998","NA","Sternberg Task","24","23886","26","yes","1024"
"92.5925925926","92.5925925926","913.518518519","913.518518519","black","experiment","legacy","legacy","legacy","0","uniform","1","undefined","1","right","26","0","26","26","0","0","26","26","0","0","26","26","26","26","0","10/20/21 14:20:05","The main experiment item","yes","SternbergTask.osexp","C:\Users\bryan\OneDrive\Documents\School\PSYC 5316  (Quant Methods)\Lab 3","no","mono","no","18","no","white","no","yes","768","legacy","14","11","C:/Users/bryan/OneDrive/Documents/School/PSYC 5316  (Quant Methods)/Lab 3/BS-subject-2.csv","legacy","1 7 8 3 9","Lentiform Loewenfeld","3.3.9","0","n","0","right","space","space","right","NA","779","70474","27173","779","NA","2","legacy","5","1024","2","48000","-16","experiment","2","even","2","267940","73260","264577","265718","2780","178995","265722","221761","2785","151821","269949","266730","270730","269948","NA","Sternberg Task","25","24665","27","yes","1024"
"92.8571428571","92.8571428571","922.107142857","922.107142857","black","experiment","legacy","legacy","legacy","0","uniform","1","undefined","1","left","27","0","27","27","0","0","27","27","0","0","27","27","27","27","0","10/20/21 14:20:05","The main experiment item","yes","SternbergTask.osexp","C:\Users\bryan\OneDrive\Documents\School\PSYC 5316  (Quant Methods)\Lab 3","no","mono","no","18","no","white","no","yes","768","legacy","15","11","C:/Users/bryan/OneDrive/Documents/School/PSYC 5316  (Quant Methods)/Lab 3/BS-subject-2.csv","legacy","9 1 7 2","Lentiform Loewenfeld","3.3.9","2","y","0","left","space","space","left","NA","1154","70474","27173","1154","NA","2","legacy","4","1024","2","48000","-16","experiment","2","even","1","274116","73260","270751","271896","2780","178995","271899","221761","2785","151821","276125","272908","277280","276124","NA","Sternberg Task","26","25819","28","yes","1024"
"93.1034482759","93.1034482759","912.655172414","912.655172414","black","experiment","legacy","legacy","legacy","0","uniform","1","undefined","1","left","28","0","28","28","0","0","28","28","0","0","28","28","28","28","0","10/20/21 14:20:05","The main experiment item","yes","SternbergTask.osexp","C:\Users\bryan\OneDrive\Documents\School\PSYC 5316  (Quant Methods)\Lab 3","no","mono","no","18","no","white","no","yes","768","legacy","16","11","C:/Users/bryan/OneDrive/Documents/School/PSYC 5316  (Quant Methods)/Lab 3/BS-subject-2.csv","legacy","3 2 1 4 7","Lentiform Loewenfeld","3.3.9","2","y","0","left","space","space","left","NA","648","70474","27173","648","NA","2","legacy","5","1024","2","48000","-16","experiment","2","even","2","280654","73260","277287","278434","2780","178995","278438","221761","2785","151821","282664","279446","283313","282663","NA","Sternberg Task","27","26467","29","yes","1024"
"93.3333333333","93.3333333333","902.766666667","902.766666667","black","experiment","legacy","legacy","legacy","0","uniform","1","undefined","1","left","29","0","29","29","0","0","29","29","0","0","29","29","29","29","0","10/20/21 14:20:05","The main experiment item","yes","SternbergTask.osexp","C:\Users\bryan\OneDrive\Documents\School\PSYC 5316  (Quant Methods)\Lab 3","no","mono","no","18","no","white","no","yes","768","legacy","17","11","C:/Users/bryan/OneDrive/Documents/School/PSYC 5316  (Quant Methods)/Lab 3/BS-subject-2.csv","legacy","5 2 9 6 1 7","Lentiform Loewenfeld","3.3.9","3","y","0","left","space","space","left","NA","616","70474","27173","616","NA","2","legacy","6","1024","2","48000","-16","experiment","2","even","9","286682","73260","283319","284462","2780","178995","284465","221761","2785","151821","288689","285473","289306","288689","NA","Sternberg Task","28","27083","30","yes","1024"
"93.5483870968","93.5483870968","894.322580645","894.322580645","black","experiment","legacy","legacy","legacy","0","uniform","1","undefined","1","right","30","0","30","30","0","0","30","30","0","0","30","30","30","30","0","10/20/21 14:20:05","The main experiment item","yes","SternbergTask.osexp","C:\Users\bryan\OneDrive\Documents\School\PSYC 5316  (Quant Methods)\Lab 3","no","mono","no","18","no","white","no","yes","768","legacy","18","11","C:/Users/bryan/OneDrive/Documents/School/PSYC 5316  (Quant Methods)/Lab 3/BS-subject-2.csv","legacy","2 7 5","Lentiform Loewenfeld","3.3.9","0","n","0","right","space","space","right","NA","641","70474","27173","641","NA","2","legacy","3","1024","2","48000","-16","experiment","2","even","8","292678","73260","289316","290463","2780","178995","290466","221761","2785","151821","294687","291470","295329","294686","NA","Sternberg Task","29","27724","31","yes","1024"
"93.75","93.75","888.125","888.125","black","experiment","legacy","legacy","legacy","0","uniform","1","undefined","1","left","31","0","31","31","0","0","31","31","0","0","31","31","31","31","0","10/20/21 14:20:05","The main experiment item","yes","SternbergTask.osexp","C:\Users\bryan\OneDrive\Documents\School\PSYC 5316  (Quant Methods)\Lab 3","no","mono","no","18","no","white","no","yes","768","legacy","19","11","C:/Users/bryan/OneDrive/Documents/School/PSYC 5316  (Quant Methods)/Lab 3/BS-subject-2.csv","legacy","5 7 3 6 2","Lentiform Loewenfeld","3.3.9","5","y","0","left","space","space","left","NA","696","70474","27173","696","NA","2","legacy","5","1024","2","48000","-16","experiment","2","even","2","298729","73260","295338","296508","2780","178995","296512","221761","2785","151821","300738","297520","301436","300737","NA","Sternberg Task","30","28420","32","yes","1024"
"93.9393939394","93.9393939394","883.212121212","883.212121212","black","experiment","legacy","legacy","legacy","0","uniform","1","undefined","1","right","32","0","32","32","0","0","32","32","0","0","32","32","32","32","0","10/20/21 14:20:05","The main experiment item","yes","SternbergTask.osexp","C:\Users\bryan\OneDrive\Documents\School\PSYC 5316  (Quant Methods)\Lab 3","no","mono","no","18","no","white","no","yes","768","legacy","20","11","C:/Users/bryan/OneDrive/Documents/School/PSYC 5316  (Quant Methods)/Lab 3/BS-subject-2.csv","legacy","8 4 3 9","Lentiform Loewenfeld","3.3.9","0","n","0","right","space","space","right","NA","726","70474","27173","726","NA","2","legacy","4","1024","2","48000","-16","experiment","2","even","5","304820","73260","301443","302603","2780","178995","302606","221761","2785","151821","306828","303614","307555","306827","NA","Sternberg Task","31","29146","33","yes","1024"
"94.1176470588","94.1176470588","873.323529412","873.323529412","black","experiment","legacy","legacy","legacy","0","uniform","1","undefined","1","left","33","0","33","33","0","0","33","33","0","0","33","33","33","33","0","10/20/21 14:20:05","The main experiment item","yes","SternbergTask.osexp","C:\Users\bryan\OneDrive\Documents\School\PSYC 5316  (Quant Methods)\Lab 3","no","mono","no","18","no","white","no","yes","768","legacy","21","11","C:/Users/bryan/OneDrive/Documents/School/PSYC 5316  (Quant Methods)/Lab 3/BS-subject-2.csv","legacy","3 4","Lentiform Loewenfeld","3.3.9","1","y","0","left","space","space","left","NA","547","70474","27173","547","NA","2","legacy","2","1024","2","48000","-16","experiment","2","even","3","310925","73260","307563","308706","2780","178995","308710","221761","2785","151821","312934","309718","313482","312933","NA","Sternberg Task","32","29693","34","yes","1024"
"94.2857142857","94.2857142857","866.857142857","866.857142857","black","experiment","legacy","legacy","legacy","0","uniform","1","undefined","1","right","34","0","34","34","0","0","34","34","0","0","34","34","34","34","0","10/20/21 14:20:05","The main experiment item","yes","SternbergTask.osexp","C:\Users\bryan\OneDrive\Documents\School\PSYC 5316  (Quant Methods)\Lab 3","no","mono","no","18","no","white","no","yes","768","legacy","22","11","C:/Users/bryan/OneDrive/Documents/School/PSYC 5316  (Quant Methods)/Lab 3/BS-subject-2.csv","legacy","5 9 2 3","Lentiform Loewenfeld","3.3.9","0","n","0","right","space","space","right","NA","647","70474","27173","647","NA","2","legacy","4","1024","2","48000","-16","experiment","2","even","8","316860","73260","313492","314639","2780","178995","314643","221761","2785","151821","318870","315651","319518","318869","NA","Sternberg Task","33","30340","35","yes","1024"
"91.6666666667","91.6666666667","870.472222222","870.472222222","black","experiment","legacy","legacy","legacy","0","uniform","0","undefined","0","left","35","0","35","35","0","0","35","35","0","0","35","35","35","35","0","10/20/21 14:20:05","The main experiment item","yes","SternbergTask.osexp","C:\Users\bryan\OneDrive\Documents\School\PSYC 5316  (Quant Methods)\Lab 3","no","mono","no","18","no","white","no","yes","768","legacy","23","11","C:/Users/bryan/OneDrive/Documents/School/PSYC 5316  (Quant Methods)/Lab 3/BS-subject-2.csv","legacy","6 8 9 3 4 9","Lentiform Loewenfeld","3.3.9","5","y","0","right","space","space","right","NA","997","70474","27173","997","NA","2","legacy","6","1024","2","48000","-16","experiment","2","even","4","322892","73260","319525","320672","2780","178995","320676","221761","2785","151821","324901","321684","325899","324900","NA","Sternberg Task","33","31337","36","yes","1024"
"91.8918918919","91.8918918919","867.216216216","867.216216216","black","experiment","legacy","legacy","legacy","0","uniform","1","undefined","1","right","36","0","36","36","0","0","36","36","0","0","36","36","36","36","0","10/20/21 14:20:05","The main experiment item","yes","SternbergTask.osexp","C:\Users\bryan\OneDrive\Documents\School\PSYC 5316  (Quant Methods)\Lab 3","no","mono","no","18","no","white","no","yes","768","legacy","24","11","C:/Users/bryan/OneDrive/Documents/School/PSYC 5316  (Quant Methods)/Lab 3/BS-subject-2.csv","legacy","3 4 2","Lentiform Loewenfeld","3.3.9","0","n","0","right","space","space","right","NA","750","70474","27173","750","NA","2","legacy","3","1024","2","48000","-16","experiment","2","even","5","329276","73260","319525","327058","2780","178995","327061","325908","2785","151821","331285","328069","332036","331284","NA","Sternberg Task","34","32087","37","yes","1024"
"92.1052631579","92.1052631579","862.473684211","862.473684211","black","experiment","legacy","legacy","legacy","0","uniform","1","undefined","1","left","37","0","37","37","0","0","37","37","0","0","37","37","37","37","0","10/20/21 14:20:05","The main experiment item","yes","SternbergTask.osexp","C:\Users\bryan\OneDrive\Documents\School\PSYC 5316  (Quant Methods)\Lab 3","no","mono","no","18","no","white","no","yes","768","legacy","25","11","C:/Users/bryan/OneDrive/Documents/School/PSYC 5316  (Quant Methods)/Lab 3/BS-subject-2.csv","legacy","7 1 8 5 6 2","Lentiform Loewenfeld","3.3.9","2","y","0","left","space","space","left","NA","687","70474","27173","687","NA","2","legacy","6","1024","2","48000","-16","experiment","2","even","1","335407","73260","332046","333188","2780","178995","333192","325908","2785","151821","337416","334200","338104","337415","NA","Sternberg Task","35","32774","38","yes","1024"
"92.3076923077","92.3076923077","859.358974359","859.358974359","black","experiment","legacy","legacy","legacy","0","uniform","1","undefined","1","right","38","0","38","38","0","0","38","38","0","0","38","38","38","38","0","10/20/21 14:20:05","The main experiment item","yes","SternbergTask.osexp","C:\Users\bryan\OneDrive\Documents\School\PSYC 5316  (Quant Methods)\Lab 3","no","mono","no","18","no","white","no","yes","768","legacy","26","11","C:/Users/bryan/OneDrive/Documents/School/PSYC 5316  (Quant Methods)/Lab 3/BS-subject-2.csv","legacy","6 7 5 9","Lentiform Loewenfeld","3.3.9","0","n","0","right","space","space","right","NA","741","70474","27173","741","NA","2","legacy","4","1024","2","48000","-16","experiment","2","even","2","341473","73260","338114","339252","2780","178995","339255","325908","2785","151821","343483","340264","344227","343482","NA","Sternberg Task","36","33515","39","yes","1024"
"92.5","92.5","855.775","855.775","black","experiment","legacy","legacy","legacy","0","uniform","1","undefined","1","right","39","0","39","39","0","0","39","39","0","0","39","39","39","39","0","10/20/21 14:20:05","The main experiment item","yes","SternbergTask.osexp","C:\Users\bryan\OneDrive\Documents\School\PSYC 5316  (Quant Methods)\Lab 3","no","mono","no","18","no","white","no","yes","768","legacy","27","11","C:/Users/bryan/OneDrive/Documents/School/PSYC 5316  (Quant Methods)/Lab 3/BS-subject-2.csv","legacy","1 7 5 2 9","Lentiform Loewenfeld","3.3.9","0","n","0","right","space","space","right","NA","716","70474","27173","716","NA","2","legacy","5","1024","2","48000","-16","experiment","2","even","3","347612","73260","344246","345393","2780","178995","345396","325908","2785","151821","349621","346404","350338","349620","NA","Sternberg Task","37","34231","40","yes","1024"
"92.6829268293","92.6829268293","855.463414634","855.463414634","black","experiment","legacy","legacy","legacy","0","uniform","1","undefined","1","right","40","0","40","40","0","0","40","40","0","0","40","40","40","40","0","10/20/21 14:20:05","The main experiment item","yes","SternbergTask.osexp","C:\Users\bryan\OneDrive\Documents\School\PSYC 5316  (Quant Methods)\Lab 3","no","mono","no","18","no","white","no","yes","768","legacy","28","11","C:/Users/bryan/OneDrive/Documents/School/PSYC 5316  (Quant Methods)/Lab 3/BS-subject-2.csv","legacy","4 2 6 9","Lentiform Loewenfeld","3.3.9","0","n","0","right","space","space","right","NA","843","70474","27173","843","NA","2","legacy","4","1024","2","48000","-16","experiment","2","even","7","353712","73260","350347","351491","2780","178995","351495","325908","2785","151821","355721","352503","356565","355720","NA","Sternberg Task","38","35074","41","yes","1024"
"92.8571428571","92.8571428571","848.5","848.5","black","experiment","legacy","legacy","legacy","0","uniform","1","undefined","1","right","41","0","41","41","0","0","41","41","0","0","41","41","41","41","0","10/20/21 14:20:05","The main experiment item","yes","SternbergTask.osexp","C:\Users\bryan\OneDrive\Documents\School\PSYC 5316  (Quant Methods)\Lab 3","no","mono","no","18","no","white","no","yes","768","legacy","29","11","C:/Users/bryan/OneDrive/Documents/School/PSYC 5316  (Quant Methods)/Lab 3/BS-subject-2.csv","legacy","4 1","Lentiform Loewenfeld","3.3.9","0","n","0","right","space","space","right","NA","563","70474","27173","563","NA","2","legacy","2","1024","2","48000","-16","experiment","2","even","6","359941","73260","356572","357720","2780","178995","357724","325908","2785","151821","361950","358732","362514","361949","NA","Sternberg Task","39","35637","42","yes","1024"
"93.023255814","93.023255814","844.279069767","844.279069767","black","experiment","legacy","legacy","legacy","0","uniform","1","undefined","1","right","42","0","42","42","0","0","42","42","0","0","42","42","42","42","0","10/20/21 14:20:05","The main experiment item","yes","SternbergTask.osexp","C:\Users\bryan\OneDrive\Documents\School\PSYC 5316  (Quant Methods)\Lab 3","no","mono","no","18","no","white","no","yes","768","legacy","30","11","C:/Users/bryan/OneDrive/Documents/School/PSYC 5316  (Quant Methods)/Lab 3/BS-subject-2.csv","legacy","1 3 2 6 9","Lentiform Loewenfeld","3.3.9","0","n","0","right","space","space","right","NA","667","70474","27173","667","NA","2","legacy","5","1024","2","48000","-16","experiment","2","even","5","365887","73260","362522","363667","2780","178995","363670","325908","2785","151821","367896","364679","368564","367896","NA","Sternberg Task","40","36304","43","yes","1024"
"93.1818181818","93.1818181818","844.022727273","844.022727273","black","experiment","legacy","legacy","legacy","0","uniform","1","undefined","1","left","43","0","43","43","0","0","43","43","0","0","43","43","43","43","0","10/20/21 14:20:05","The main experiment item","yes","SternbergTask.osexp","C:\Users\bryan\OneDrive\Documents\School\PSYC 5316  (Quant Methods)\Lab 3","no","mono","no","18","no","white","no","yes","768","legacy","31","11","C:/Users/bryan/OneDrive/Documents/School/PSYC 5316  (Quant Methods)/Lab 3/BS-subject-2.csv","legacy","3 9 7 6 4","Lentiform Loewenfeld","3.3.9","3","y","0","left","space","space","left","NA","833","70474","27173","833","NA","2","legacy","5","1024","2","48000","-16","experiment","2","even","7","371942","73260","368574","369721","2780","178995","369724","325908","2785","151821","373951","370733","374785","373950","NA","Sternberg Task","41","37137","44","yes","1024"
"93.3333333333","93.3333333333","840.777777778","840.777777778","black","experiment","legacy","legacy","legacy","0","uniform","1","undefined","1","right","44","0","44","44","0","0","44","44","0","0","44","44","44","44","0","10/20/21 14:20:05","The main experiment item","yes","SternbergTask.osexp","C:\Users\bryan\OneDrive\Documents\School\PSYC 5316  (Quant Methods)\Lab 3","no","mono","no","18","no","white","no","yes","768","legacy","32","11","C:/Users/bryan/OneDrive/Documents/School/PSYC 5316  (Quant Methods)/Lab 3/BS-subject-2.csv","legacy","8 5 4 2 9 6","Lentiform Loewenfeld","3.3.9","0","n","0","right","space","space","right","NA","698","70474","27173","698","NA","2","legacy","6","1024","2","48000","-16","experiment","2","even","3","378157","73260","374793","375937","2780","178995","375941","325908","2785","151821","380166","376949","380867","380165","NA","Sternberg Task","42","37835","45","yes","1024"
"93.4782608696","93.4782608696","838.913043478","838.913043478","black","experiment","legacy","legacy","legacy","0","uniform","1","undefined","1","right","45","0","45","45","0","0","45","45","0","0","45","45","45","45","0","10/20/21 14:20:05","The main experiment item","yes","SternbergTask.osexp","C:\Users\bryan\OneDrive\Documents\School\PSYC 5316  (Quant Methods)\Lab 3","no","mono","no","18","no","white","no","yes","768","legacy","33","11","C:/Users/bryan/OneDrive/Documents/School/PSYC 5316  (Quant Methods)/Lab 3/BS-subject-2.csv","legacy","8 5 7 3 6","Lentiform Loewenfeld","3.3.9","0","n","0","right","space","space","right","NA","755","70474","27173","755","NA","2","legacy","5","1024","2","48000","-16","experiment","2","even","9","384247","73260","380883","382027","2780","178995","382031","325908","2785","151821","386257","383039","387013","386256","NA","Sternberg Task","43","38590","46","yes","1024"
"93.6170212766","93.6170212766","844.276595745","844.276595745","black","experiment","legacy","legacy","legacy","0","uniform","1","undefined","1","left","46","0","46","46","0","0","46","46","0","0","46","46","46","46","0","10/20/21 14:20:05","The main experiment item","yes","SternbergTask.osexp","C:\Users\bryan\OneDrive\Documents\School\PSYC 5316  (Quant Methods)\Lab 3","no","mono","no","18","no","white","no","yes","768","legacy","34","11","C:/Users/bryan/OneDrive/Documents/School/PSYC 5316  (Quant Methods)/Lab 3/BS-subject-2.csv","legacy","3 4 9 6 2 9","Lentiform Loewenfeld","3.3.9","5","y","0","left","space","space","left","NA","1091","70474","27173","1091","NA","2","legacy","6","1024","2","48000","-16","experiment","2","even","2","390392","73260","387023","388171","2780","178995","388174","325908","2785","151821","392402","389183","393494","392401","NA","Sternberg Task","44","39681","47","yes","1024"
"93.75","93.75","839.708333333","839.708333333","black","experiment","legacy","legacy","legacy","0","uniform","1","undefined","1","right","47","0","47","47","0","0","47","47","0","0","47","47","47","47","0","10/20/21 14:20:05","The main experiment item","yes","SternbergTask.osexp","C:\Users\bryan\OneDrive\Documents\School\PSYC 5316  (Quant Methods)\Lab 3","no","mono","no","18","no","white","no","yes","768","legacy","35","11","C:/Users/bryan/OneDrive/Documents/School/PSYC 5316  (Quant Methods)/Lab 3/BS-subject-2.csv","legacy","1 5 3 2 8","Lentiform Loewenfeld","3.3.9","0","n","0","right","space","space","right","NA","625","70474","27173","625","NA","2","legacy","5","1024","2","48000","-16","experiment","2","even","4","396872","73260","393503","394651","2780","178995","394655","325908","2785","151821","398881","395663","399509","398880","NA","Sternberg Task","45","40306","48","yes","1024"
"93.8775510204","93.8775510204","839.795918367","839.795918367","black","experiment","legacy","legacy","legacy","0","uniform","1","undefined","1","left","48","0","48","48","0","0","48","48","0","0","48","48","48","48","0","10/20/21 14:20:05","The main experiment item","yes","SternbergTask.osexp","C:\Users\bryan\OneDrive\Documents\School\PSYC 5316  (Quant Methods)\Lab 3","no","mono","no","18","no","white","no","yes","768","legacy","36","11","C:/Users/bryan/OneDrive/Documents/School/PSYC 5316  (Quant Methods)/Lab 3/BS-subject-2.csv","legacy","9 5 8 1","Lentiform Loewenfeld","3.3.9","2","y","0","left","space","space","left","NA","844","70474","27173","844","NA","2","legacy","4","1024","2","48000","-16","experiment","2","even","5","402900","73260","399530","400679","2780","178995","400683","325908","2785","151821","404910","401691","405757","404909","NA","Sternberg Task","46","41150","49","yes","1024"
"94","94","834.22","834.22","black","experiment","legacy","legacy","legacy","0","uniform","1","undefined","1","right","49","0","49","49","0","0","49","49","0","0","49","49","49","49","0","10/20/21 14:20:05","The main experiment item","yes","SternbergTask.osexp","C:\Users\bryan\OneDrive\Documents\School\PSYC 5316  (Quant Methods)\Lab 3","no","mono","no","18","no","white","no","yes","768","legacy","37","11","C:/Users/bryan/OneDrive/Documents/School/PSYC 5316  (Quant Methods)/Lab 3/BS-subject-2.csv","legacy","2 5 1 4","Lentiform Loewenfeld","3.3.9","0","n","0","right","space","space","right","NA","561","70474","27173","561","NA","2","legacy","4","1024","2","48000","-16","experiment","2","even","6","409145","73260","405777","406924","2780","178995","406928","325908","2785","151821","411154","407936","411716","411153","NA","Sternberg Task","47","41711","50","yes","1024"
"94.1176470588","94.1176470588","848.549019608","848.549019608","black","experiment","legacy","legacy","legacy","0","uniform","1","undefined","1","right","50","0","50","50","0","0","50","50","0","0","50","50","50","50","0","10/20/21 14:20:05","The main experiment item","yes","SternbergTask.osexp","C:\Users\bryan\OneDrive\Documents\School\PSYC 5316  (Quant Methods)\Lab 3","no","mono","no","18","no","white","no","yes","768","legacy","38","11","C:/Users/bryan/OneDrive/Documents/School/PSYC 5316  (Quant Methods)/Lab 3/BS-subject-2.csv","legacy","3 9 8 1 6 4","Lentiform Loewenfeld","3.3.9","0","n","0","right","space","space","right","NA","1565","70474","27173","1565","NA","2","legacy","6","1024","2","48000","-16","experiment","2","even","7","415088","73260","411726","412867","2780","178995","412871","325908","2785","151821","417098","413879","418664","417097","NA","Sternberg Task","48","43276","51","yes","1024"
"94.2307692308","94.2307692308","844.923076923","844.923076923","black","experiment","legacy","legacy","legacy","0","uniform","1","undefined","1","right","51","0","51","51","0","0","51","51","0","0","51","51","51","51","0","10/20/21 14:20:05","The main experiment item","yes","SternbergTask.osexp","C:\Users\bryan\OneDrive\Documents\School\PSYC 5316  (Quant Methods)\Lab 3","no","mono","no","18","no","white","no","yes","768","legacy","39","11","C:/Users/bryan/OneDrive/Documents/School/PSYC 5316  (Quant Methods)/Lab 3/BS-subject-2.csv","legacy","7 1 8 4 9 3","Lentiform Loewenfeld","3.3.9","0","n","0","right","space","space","right","NA","660","70474","27173","660","NA","2","legacy","6","1024","2","48000","-16","experiment","2","even","6","422060","73260","418674","419839","2780","178995","419843","325908","2785","151821","424069","420851","424731","424068","NA","Sternberg Task","49","43936","52","yes","1024"
"94.3396226415","94.3396226415","844.20754717","844.20754717","black","experiment","legacy","legacy","legacy","0","uniform","1","undefined","1","right","52","0","52","52","0","0","52","52","0","0","52","52","52","52","0","10/20/21 14:20:05","The main experiment item","yes","SternbergTask.osexp","C:\Users\bryan\OneDrive\Documents\School\PSYC 5316  (Quant Methods)\Lab 3","no","mono","no","18","no","white","no","yes","768","legacy","40","11","C:/Users/bryan/OneDrive/Documents/School/PSYC 5316  (Quant Methods)/Lab 3/BS-subject-2.csv","legacy","6 9 4 5 2","Lentiform Loewenfeld","3.3.9","0","n","0","right","space","space","right","NA","807","70474","27173","807","NA","2","legacy","5","1024","2","48000","-16","experiment","2","even","1","428087","73260","424742","425869","2780","178995","425873","325908","2785","151821","430096","426881","430907","430095","NA","Sternberg Task","50","44743","53","yes","1024"
"94.4444444444","94.4444444444","843.833333333","843.833333333","black","experiment","legacy","legacy","legacy","0","uniform","1","undefined","1","left","53","0","53","53","0","0","53","53","0","0","53","53","53","53","0","10/20/21 14:20:05","The main experiment item","yes","SternbergTask.osexp","C:\Users\bryan\OneDrive\Documents\School\PSYC 5316  (Quant Methods)\Lab 3","no","mono","no","18","no","white","no","yes","768","legacy","41","11","C:/Users/bryan/OneDrive/Documents/School/PSYC 5316  (Quant Methods)/Lab 3/BS-subject-2.csv","legacy","2 3 7 4","Lentiform Loewenfeld","3.3.9","1","y","0","left","space","space","left","NA","824","70474","27173","824","NA","2","legacy","4","1024","2","48000","-16","experiment","2","even","2","434289","73260","430927","432068","2780","178995","432072","325908","2785","151821","436298","433080","437124","436297","NA","Sternberg Task","51","45567","54","yes","1024"
"94.5454545455","94.5454545455","844.109090909","844.109090909","black","experiment","legacy","legacy","legacy","0","uniform","1","undefined","1","right","54","0","54","54","0","0","54","54","0","0","54","54","54","54","0","10/20/21 14:20:05","The main experiment item","yes","SternbergTask.osexp","C:\Users\bryan\OneDrive\Documents\School\PSYC 5316  (Quant Methods)\Lab 3","no","mono","no","18","no","white","no","yes","768","legacy","42","11","C:/Users/bryan/OneDrive/Documents/School/PSYC 5316  (Quant Methods)/Lab 3/BS-subject-2.csv","legacy","6 9 4 5 3 2","Lentiform Loewenfeld","3.3.9","0","n","0","right","space","space","right","NA","859","70474","27173","859","NA","2","legacy","6","1024","2","48000","-16","experiment","2","even","8","440492","73260","437132","438272","2780","178995","438276","325908","2785","151821","442502","439284","443365","442501","NA","Sternberg Task","52","46426","55","yes","1024"
"94.6428571429","94.6428571429","844.928571429","844.928571429","black","experiment","legacy","legacy","legacy","0","uniform","1","undefined","1","left","55","0","55","55","0","0","55","55","0","0","55","55","55","55","0","10/20/21 14:20:05","The main experiment item","yes","SternbergTask.osexp","C:\Users\bryan\OneDrive\Documents\School\PSYC 5316  (Quant Methods)\Lab 3","no","mono","no","18","no","white","no","yes","768","legacy","43","11","C:/Users/bryan/OneDrive/Documents/School/PSYC 5316  (Quant Methods)/Lab 3/BS-subject-2.csv","legacy","2 4 8 5 1 3","Lentiform Loewenfeld","3.3.9","1","y","0","left","space","space","left","NA","890","70474","27173","890","NA","2","legacy","6","1024","2","48000","-16","experiment","2","even","2","446746","73260","443386","444527","2780","178995","444531","325908","2785","151821","448756","445539","449647","448755","NA","Sternberg Task","53","47316","56","yes","1024"
"94.7368421053","94.7368421053","837.561403509","837.561403509","black","experiment","legacy","legacy","legacy","0","uniform","1","undefined","1","left","56","0","56","56","0","0","56","56","0","0","56","56","56","56","0","10/20/21 14:20:05","The main experiment item","yes","SternbergTask.osexp","C:\Users\bryan\OneDrive\Documents\School\PSYC 5316  (Quant Methods)\Lab 3","no","mono","no","18","no","white","no","yes","768","legacy","44","11","C:/Users/bryan/OneDrive/Documents/School/PSYC 5316  (Quant Methods)/Lab 3/BS-subject-2.csv","legacy","8","Lentiform Loewenfeld","3.3.9","1","y","0","left","space","space","left","NA","425","70474","27173","425","NA","2","legacy","1","1024","2","48000","-16","experiment","2","even","8","453027","73260","449657","450807","2780","178995","450811","325908","2785","151821","455036","451819","455463","455035","NA","Sternberg Task","54","47741","57","yes","1024"
"94.8275862069","94.8275862069","837.310344828","837.310344828","black","experiment","legacy","legacy","legacy","0","uniform","1","undefined","1","left","57","0","57","57","0","0","57","57","0","0","57","57","57","57","0","10/20/21 14:20:05","The main experiment item","yes","SternbergTask.osexp","C:\Users\bryan\OneDrive\Documents\School\PSYC 5316  (Quant Methods)\Lab 3","no","mono","no","18","no","white","no","yes","768","legacy","45","11","C:/Users/bryan/OneDrive/Documents/School/PSYC 5316  (Quant Methods)/Lab 3/BS-subject-2.csv","legacy","7 1 3","Lentiform Loewenfeld","3.3.9","2","y","0","left","space","space","left","NA","823","70474","27173","823","NA","2","legacy","3","1024","2","48000","-16","experiment","2","even","1","458829","73260","455472","456608","2780","178995","456612","325908","2785","151821","460838","457620","461662","460837","NA","Sternberg Task","55","48564","58","yes","1024"
"94.9152542373","94.9152542373","833.101694915","833.101694915","black","experiment","legacy","legacy","legacy","0","uniform","1","undefined","1","left","58","0","58","58","0","0","58","58","0","0","58","58","58","58","0","10/20/21 14:20:05","The main experiment item","yes","SternbergTask.osexp","C:\Users\bryan\OneDrive\Documents\School\PSYC 5316  (Quant Methods)\Lab 3","no","mono","no","18","no","white","no","yes","768","legacy","46","11","C:/Users/bryan/OneDrive/Documents/School/PSYC 5316  (Quant Methods)/Lab 3/BS-subject-2.csv","legacy","7 8 6 3 1","Lentiform Loewenfeld","3.3.9","5","y","0","left","space","space","left","NA","589","70474","27173","589","NA","2","legacy","5","1024","2","48000","-16","experiment","2","even","1","465037","73260","461673","462817","2780","178995","462821","325908","2785","151821","467047","463829","467638","467046","NA","Sternberg Task","56","49153","59","yes","1024"
"95","95","829.983333333","829.983333333","black","experiment","legacy","legacy","legacy","0","uniform","1","undefined","1","left","59","0","59","59","0","0","59","59","0","0","59","59","59","59","0","10/20/21 14:20:05","The main experiment item","yes","SternbergTask.osexp","C:\Users\bryan\OneDrive\Documents\School\PSYC 5316  (Quant Methods)\Lab 3","no","mono","no","18","no","white","no","yes","768","legacy","47","11","C:/Users/bryan/OneDrive/Documents/School/PSYC 5316  (Quant Methods)/Lab 3/BS-subject-2.csv","legacy","4 1 8 7 5","Lentiform Loewenfeld","3.3.9","3","y","0","left","space","space","left","NA","646","70474","27173","646","NA","2","legacy","5","1024","2","48000","-16","experiment","2","even","8","471008","73260","467645","468788","2780","178995","468792","325908","2785","151821","473017","469800","473664","473016","NA","Sternberg Task","57","49799","60","yes","1024"
"95.0819672131","95.0819672131","829.37704918","829.37704918","black","experiment","legacy","legacy","legacy","0","uniform","1","undefined","1","right","60","0","60","60","0","0","60","60","0","0","60","60","60","60","0","10/20/21 14:20:05","The main experiment item","yes","SternbergTask.osexp","C:\Users\bryan\OneDrive\Documents\School\PSYC 5316  (Quant Methods)\Lab 3","no","mono","no","18","no","white","no","yes","768","legacy","48","11","C:/Users/bryan/OneDrive/Documents/School/PSYC 5316  (Quant Methods)/Lab 3/BS-subject-2.csv","legacy","7 3 2 8","Lentiform Loewenfeld","3.3.9","0","n","0","right","space","space","right","NA","793","70474","27173","793","NA","2","legacy","4","1024","2","48000","-16","experiment","2","even","4","477035","73260","473671","474815","2780","178995","474819","325908","2785","151821","479045","475828","479842","479044","NA","Sternberg Task","58","50592","61","yes","1024"
"95.1612903226","95.1612903226","842.709677419","842.709677419","black","experiment","legacy","legacy","legacy","0","uniform","1","undefined","1","left","61","0","61","61","0","0","61","61","0","0","61","61","61","61","0","10/20/21 14:20:05","The main experiment item","yes","SternbergTask.osexp","C:\Users\bryan\OneDrive\Documents\School\PSYC 5316  (Quant Methods)\Lab 3","no","mono","no","18","no","white","no","yes","768","legacy","49","11","C:/Users/bryan/OneDrive/Documents/School/PSYC 5316  (Quant Methods)/Lab 3/BS-subject-2.csv","legacy","3 5 9 6 2 4","Lentiform Loewenfeld","3.3.9","1","y","0","left","space","space","left","NA","1656","70474","27173","1656","NA","2","legacy","6","1024","2","48000","-16","experiment","2","even","3","483222","73260","479861","481001","2780","178995","481005","325908","2785","151821","485232","482013","486890","485231","NA","Sternberg Task","59","52248","62","yes","1024"
"95.2380952381","95.2380952381","844.142857143","844.142857143","black","experiment","legacy","legacy","legacy","0","uniform","1","undefined","1","left","62","0","62","62","0","0","62","62","0","0","62","62","62","62","0","10/20/21 14:20:05","The main experiment item","yes","SternbergTask.osexp","C:\Users\bryan\OneDrive\Documents\School\PSYC 5316  (Quant Methods)\Lab 3","no","mono","no","18","no","white","no","yes","768","legacy","50","11","C:/Users/bryan/OneDrive/Documents/School/PSYC 5316  (Quant Methods)/Lab 3/BS-subject-2.csv","legacy","3 9 6 2","Lentiform Loewenfeld","3.3.9","4","y","0","left","space","space","left","NA","933","70474","27173","933","NA","2","legacy","4","1024","2","48000","-16","experiment","2","even","2","490261","73260","486898","488042","2780","178995","488046","325908","2785","151821","492270","489054","493205","492269","NA","Sternberg Task","60","53181","63","yes","1024"
"95.3125","95.3125","843.796875","843.796875","black","experiment","legacy","legacy","legacy","0","uniform","1","undefined","1","left","63","0","63","63","0","0","63","63","0","0","63","63","63","63","0","10/20/21 14:20:05","The main experiment item","yes","SternbergTask.osexp","C:\Users\bryan\OneDrive\Documents\School\PSYC 5316  (Quant Methods)\Lab 3","no","mono","no","18","no","white","no","yes","768","legacy","51","11","C:/Users/bryan/OneDrive/Documents/School/PSYC 5316  (Quant Methods)/Lab 3/BS-subject-2.csv","legacy","9 3 1 2 5","Lentiform Loewenfeld","3.3.9","4","y","0","left","space","space","left","NA","822","70474","27173","822","NA","2","legacy","5","1024","2","48000","-16","experiment","2","even","2","496578","73260","493214","494356","2780","178995","494361","325908","2785","151821","498587","495369","499410","498586","NA","Sternberg Task","61","54003","64","yes","1024"
"95.3846153846","95.3846153846","840.4","840.4","black","experiment","legacy","legacy","legacy","0","uniform","1","undefined","1","left","64","0","64","64","0","0","64","64","0","0","64","64","64","64","0","10/20/21 14:20:05","The main experiment item","yes","SternbergTask.osexp","C:\Users\bryan\OneDrive\Documents\School\PSYC 5316  (Quant Methods)\Lab 3","no","mono","no","18","no","white","no","yes","768","legacy","52","11","C:/Users/bryan/OneDrive/Documents/School/PSYC 5316  (Quant Methods)/Lab 3/BS-subject-2.csv","legacy","8 9 6 1","Lentiform Loewenfeld","3.3.9","2","y","0","left","space","space","left","NA","623","70474","27173","623","NA","2","legacy","4","1024","2","48000","-16","experiment","2","even","9","502781","73260","499420","500560","2780","178995","500564","325908","2785","151821","504791","501572","505415","504790","NA","Sternberg Task","62","54626","65","yes","1024"
"95.4545454545","95.4545454545","843.909090909","843.909090909","black","experiment","legacy","legacy","legacy","0","uniform","1","undefined","1","left","65","0","65","65","0","0","65","65","0","0","65","65","65","65","0","10/20/21 14:20:05","The main experiment item","yes","SternbergTask.osexp","C:\Users\bryan\OneDrive\Documents\School\PSYC 5316  (Quant Methods)\Lab 3","no","mono","no","18","no","white","no","yes","768","legacy","53","11","C:/Users/bryan/OneDrive/Documents/School/PSYC 5316  (Quant Methods)/Lab 3/BS-subject-2.csv","legacy","2 8 5 1","Lentiform Loewenfeld","3.3.9","4","y","0","left","space","space","left","NA","1072","70474","27173","1072","NA","2","legacy","4","1024","2","48000","-16","experiment","2","even","1","508799","73260","505425","506578","2780","178995","506582","325908","2785","151821","510808","507591","511881","510807","NA","Sternberg Task","63","55698","66","yes","1024"
"95.5223880597","95.5223880597","838.776119403","838.776119403","black","experiment","legacy","legacy","legacy","0","uniform","1","undefined","1","right","66","0","66","66","0","0","66","66","0","0","66","66","66","66","0","10/20/21 14:20:05","The main experiment item","yes","SternbergTask.osexp","C:\Users\bryan\OneDrive\Documents\School\PSYC 5316  (Quant Methods)\Lab 3","no","mono","no","18","no","white","no","yes","768","legacy","54","11","C:/Users/bryan/OneDrive/Documents/School/PSYC 5316  (Quant Methods)/Lab 3/BS-subject-2.csv","legacy","6 8 4","Lentiform Loewenfeld","3.3.9","0","n","0","right","space","space","right","NA","500","70474","27173","500","NA","2","legacy","3","1024","2","48000","-16","experiment","2","even","1","515256","73260","511892","513036","2780","178995","513040","325908","2785","151821","517266","514048","517770","517265","NA","Sternberg Task","64","56198","67","yes","1024"
"95.5882352941","95.5882352941","839.308823529","839.308823529","black","experiment","legacy","legacy","legacy","0","uniform","1","undefined","1","left","67","0","67","67","0","0","67","67","0","0","67","67","67","67","0","10/20/21 14:20:05","The main experiment item","yes","SternbergTask.osexp","C:\Users\bryan\OneDrive\Documents\School\PSYC 5316  (Quant Methods)\Lab 3","no","mono","no","18","no","white","no","yes","768","legacy","55","11","C:/Users/bryan/OneDrive/Documents/School/PSYC 5316  (Quant Methods)/Lab 3/BS-subject-2.csv","legacy","9 3 8 2 1 4","Lentiform Loewenfeld","3.3.9","3","y","0","left","space","space","left","NA","875","70474","27173","875","NA","2","legacy","6","1024","2","48000","-16","experiment","2","even","8","521161","73260","517791","518940","2780","178995","518944","325908","2785","151821","523169","519952","524046","523169","NA","Sternberg Task","65","57073","68","yes","1024"
"95.652173913","95.652173913","837.84057971","837.84057971","black","experiment","legacy","legacy","legacy","0","uniform","1","undefined","1","left","68","0","68","68","0","0","68","68","0","0","68","68","68","68","0","10/20/21 14:20:05","The main experiment item","yes","SternbergTask.osexp","C:\Users\bryan\OneDrive\Documents\School\PSYC 5316  (Quant Methods)\Lab 3","no","mono","no","18","no","white","no","yes","768","legacy","56","11","C:/Users/bryan/OneDrive/Documents/School/PSYC 5316  (Quant Methods)/Lab 3/BS-subject-2.csv","legacy","2 6 1 7 4","Lentiform Loewenfeld","3.3.9","2","y","0","left","space","space","left","NA","738","70474","27173","738","NA","2","legacy","5","1024","2","48000","-16","experiment","2","even","6","527426","73260","524053","525205","2780","178995","525209","325908","2785","151821","529436","526217","530175","529435","NA","Sternberg Task","66","57811","69","yes","1024"
"95.7142857143","95.7142857143","837.585714286","837.585714286","black","experiment","legacy","legacy","legacy","0","uniform","1","undefined","1","left","69","0","69","69","0","0","69","69","0","0","69","69","69","69","0","10/20/21 14:20:05","The main experiment item","yes","SternbergTask.osexp","C:\Users\bryan\OneDrive\Documents\School\PSYC 5316  (Quant Methods)\Lab 3","no","mono","no","18","no","white","no","yes","768","legacy","57","11","C:/Users/bryan/OneDrive/Documents/School/PSYC 5316  (Quant Methods)/Lab 3/BS-subject-2.csv","legacy","4 3 2 5 8","Lentiform Loewenfeld","3.3.9","2","y","0","left","space","space","left","NA","820","70474","27173","820","NA","2","legacy","5","1024","2","48000","-16","experiment","2","even","3","533553","73260","530185","531333","2780","178995","531337","325908","2785","151821","535561","532345","536383","535560","NA","Sternberg Task","67","58631","70","yes","1024"
"95.7746478873","95.7746478873","832.943661972","832.943661972","black","experiment","legacy","legacy","legacy","0","uniform","1","undefined","1","left","70","0","70","70","0","0","70","70","0","0","70","70","70","70","0","10/20/21 14:20:05","The main experiment item","yes","SternbergTask.osexp","C:\Users\bryan\OneDrive\Documents\School\PSYC 5316  (Quant Methods)\Lab 3","no","mono","no","18","no","white","no","yes","768","legacy","58","11","C:/Users/bryan/OneDrive/Documents/School/PSYC 5316  (Quant Methods)/Lab 3/BS-subject-2.csv","legacy","6 2","Lentiform Loewenfeld","3.3.9","1","y","0","left","space","space","left","NA","508","70474","27173","508","NA","2","legacy","2","1024","2","48000","-16","experiment","2","even","6","539761","73260","536393","537541","2780","178995","537545","325908","2785","151821","541770","538553","542283","541769","NA","Sternberg Task","68","59139","71","yes","1024"
"95.8333333333","95.8333333333","829.583333333","829.583333333","black","experiment","legacy","legacy","legacy","0","uniform","1","undefined","1","right","71","0","71","71","0","0","71","71","0","0","71","71","71","71","0","10/20/21 14:20:05","The main experiment item","yes","SternbergTask.osexp","C:\Users\bryan\OneDrive\Documents\School\PSYC 5316  (Quant Methods)\Lab 3","no","mono","no","18","no","white","no","yes","768","legacy","59","11","C:/Users/bryan/OneDrive/Documents/School/PSYC 5316  (Quant Methods)/Lab 3/BS-subject-2.csv","legacy","4 8 1 2","Lentiform Loewenfeld","3.3.9","0","n","0","right","space","space","right","NA","591","70474","27173","591","NA","2","legacy","4","1024","2","48000","-16","experiment","2","even","7","545669","73260","542300","543449","2780","178995","543453","325908","2785","151821","547678","544460","548274","547677","NA","Sternberg Task","69","59730","72","yes","1024"
"95.8904109589","95.8904109589","829.273972603","829.273972603","black","experiment","legacy","legacy","legacy","0","uniform","1","undefined","1","left","72","0","72","72","0","0","72","72","0","0","72","72","72","72","0","10/20/21 14:20:05","The main experiment item","yes","SternbergTask.osexp","C:\Users\bryan\OneDrive\Documents\School\PSYC 5316  (Quant Methods)\Lab 3","no","mono","no","18","no","white","no","yes","768","legacy","60","11","C:/Users/bryan/OneDrive/Documents/School/PSYC 5316  (Quant Methods)/Lab 3/BS-subject-2.csv","legacy","9 5 3 8 4","Lentiform Loewenfeld","3.3.9","1","y","0","left","space","space","left","NA","807","70474","27173","807","NA","2","legacy","5","1024","2","48000","-16","experiment","2","even","9","551649","73260","548293","549430","2780","178995","549434","325908","2785","151821","553658","550442","554469","553657","NA","Sternberg Task","70","60537","73","yes","1024"
"95.9459459459","95.9459459459","825.040540541","825.040540541","black","experiment","legacy","legacy","legacy","0","uniform","1","undefined","1","left","73","0","73","73","0","0","73","73","0","0","73","73","73","73","0","10/20/21 14:20:05","The main experiment item","yes","SternbergTask.osexp","C:\Users\bryan\OneDrive\Documents\School\PSYC 5316  (Quant Methods)\Lab 3","no","mono","no","18","no","white","no","yes","768","legacy","61","11","C:/Users/bryan/OneDrive/Documents/School/PSYC 5316  (Quant Methods)/Lab 3/BS-subject-2.csv","legacy","2 4 6 9","Lentiform Loewenfeld","3.3.9","3","y","0","left","space","space","left","NA","516","70474","27173","516","NA","2","legacy","4","1024","2","48000","-16","experiment","2","even","6","557855","73260","554490","555635","2780","178995","555639","325908","2785","151821","559863","556647","560380","559863","NA","Sternberg Task","71","61053","74","yes","1024"
"96","96","824.746666667","824.746666667","black","experiment","legacy","legacy","legacy","0","uniform","1","undefined","1","right","74","0","74","74","0","0","74","74","0","0","74","74","74","74","0","10/20/21 14:20:05","The main experiment item","yes","SternbergTask.osexp","C:\Users\bryan\OneDrive\Documents\School\PSYC 5316  (Quant Methods)\Lab 3","no","mono","no","18","no","white","no","yes","768","legacy","62","11","C:/Users/bryan/OneDrive/Documents/School/PSYC 5316  (Quant Methods)/Lab 3/BS-subject-2.csv","legacy","6 3 1 7 9 8","Lentiform Loewenfeld","3.3.9","0","n","0","right","space","space","right","NA","803","70474","27173","803","NA","2","legacy","6","1024","2","48000","-16","experiment","2","even","4","563761","73260","560389","561541","2780","178995","561545","325908","2785","151821","565770","562553","566575","565769","NA","Sternberg Task","72","61856","75","yes","1024"
"96.0526315789","96.0526315789","821.078947368","821.078947368","black","experiment","legacy","legacy","legacy","0","uniform","1","undefined","1","left","75","0","75","75","0","0","75","75","0","0","75","75","75","75","0","10/20/21 14:20:05","The main experiment item","yes","SternbergTask.osexp","C:\Users\bryan\OneDrive\Documents\School\PSYC 5316  (Quant Methods)\Lab 3","no","mono","no","18","no","white","no","yes","768","legacy","63","11","C:/Users/bryan/OneDrive/Documents/School/PSYC 5316  (Quant Methods)/Lab 3/BS-subject-2.csv","legacy","9 6 2 4 1","Lentiform Loewenfeld","3.3.9","4","y","0","left","space","space","left","NA","546","70474","27173","546","NA","2","legacy","5","1024","2","48000","-16","experiment","2","even","4","569947","73260","566584","567728","2780","178995","567732","325908","2785","151821","571956","568739","572506","571955","NA","Sternberg Task","73","62402","76","yes","1024"
"96.1038961039","96.1038961039","825.701298701","825.701298701","black","experiment","legacy","legacy","legacy","0","uniform","1","undefined","1","right","76","0","76","76","0","0","76","76","0","0","76","76","76","76","0","10/20/21 14:20:05","The main experiment item","yes","SternbergTask.osexp","C:\Users\bryan\OneDrive\Documents\School\PSYC 5316  (Quant Methods)\Lab 3","no","mono","no","18","no","white","no","yes","768","legacy","64","11","C:/Users/bryan/OneDrive/Documents/School/PSYC 5316  (Quant Methods)/Lab 3/BS-subject-2.csv","legacy","8 6 3 4 7","Lentiform Loewenfeld","3.3.9","0","n","0","right","space","space","right","NA","1177","70474","27173","1177","NA","2","legacy","5","1024","2","48000","-16","experiment","2","even","1","575887","73260","572527","573667","2780","178995","573671","325908","2785","151821","577897","574679","579075","577896","NA","Sternberg Task","74","63579","77","yes","1024"
"96.1538461538","96.1538461538","823.538461538","823.538461538","black","experiment","legacy","legacy","legacy","0","uniform","1","undefined","1","left","77","0","77","77","0","0","77","77","0","0","77","77","77","77","0","10/20/21 14:20:05","The main experiment item","yes","SternbergTask.osexp","C:\Users\bryan\OneDrive\Documents\School\PSYC 5316  (Quant Methods)\Lab 3","no","mono","no","18","no","white","no","yes","768","legacy","65","11","C:/Users/bryan/OneDrive/Documents/School/PSYC 5316  (Quant Methods)/Lab 3/BS-subject-2.csv","legacy","8 3","Lentiform Loewenfeld","3.3.9","2","y","0","left","space","space","left","NA","657","70474","27173","657","NA","2","legacy","2","1024","2","48000","-16","experiment","2","even","3","582452","73260","579085","580231","2780","178995","580235","325908","2785","151821","584461","581243","585120","584460","NA","Sternberg Task","75","64236","78","yes","1024"
"96.2025316456","96.2025316456","823.050632911","823.050632911","black","experiment","legacy","legacy","legacy","0","uniform","1","undefined","1","right","78","0","78","78","0","0","78","78","0","0","78","78","78","78","0","10/20/21 14:20:05","The main experiment item","yes","SternbergTask.osexp","C:\Users\bryan\OneDrive\Documents\School\PSYC 5316  (Quant Methods)\Lab 3","no","mono","no","18","no","white","no","yes","768","legacy","66","11","C:/Users/bryan/OneDrive/Documents/School/PSYC 5316  (Quant Methods)/Lab 3/BS-subject-2.csv","legacy","6 9 5","Lentiform Loewenfeld","3.3.9","0","n","0","right","space","space","right","NA","785","70474","27173","785","NA","2","legacy","3","1024","2","48000","-16","experiment","2","even","8","588491","73260","585130","586270","2780","178995","586274","325908","2785","151821","590501","587282","591288","590500","NA","Sternberg Task","76","65021","79","yes","1024"
"96.25","96.25","823.8375","823.8375","black","experiment","legacy","legacy","legacy","0","uniform","1","undefined","1","left","79","0","79","79","0","0","79","79","0","0","79","79","79","79","0","10/20/21 14:20:05","The main experiment item","yes","SternbergTask.osexp","C:\Users\bryan\OneDrive\Documents\School\PSYC 5316  (Quant Methods)\Lab 3","no","mono","no","18","no","white","no","yes","768","legacy","67","11","C:/Users/bryan/OneDrive/Documents/School/PSYC 5316  (Quant Methods)/Lab 3/BS-subject-2.csv","legacy","6 7 8 5","Lentiform Loewenfeld","3.3.9","3","y","0","left","space","space","left","NA","886","70474","27173","886","NA","2","legacy","4","1024","2","48000","-16","experiment","2","even","8","594663","73260","591299","592444","2780","178995","592448","325908","2785","151821","596673","593456","597561","596672","NA","Sternberg Task","77","65907","80","yes","1024"
"96.2962962963","96.2962962963","821.222222222","821.222222222","black","experiment","legacy","legacy","legacy","0","uniform","1","undefined","1","right","80","0","80","80","0","0","80","80","0","0","80","80","80","80","0","10/20/21 14:20:05","The main experiment item","yes","SternbergTask.osexp","C:\Users\bryan\OneDrive\Documents\School\PSYC 5316  (Quant Methods)\Lab 3","no","mono","no","18","no","white","no","yes","768","legacy","68","11","C:/Users/bryan/OneDrive/Documents/School/PSYC 5316  (Quant Methods)/Lab 3/BS-subject-2.csv","legacy","1 6 4","Lentiform Loewenfeld","3.3.9","0","n","0","right","space","space","right","NA","612","70474","27173","612","NA","2","legacy","3","1024","2","48000","-16","experiment","2","even","7","600935","73260","597571","598715","2780","178995","598718","325908","2785","151821","602945","599727","603561","602944","NA","Sternberg Task","78","66519","81","yes","1024"
"96.3414634146","96.3414634146","820.451219512","820.451219512","black","experiment","legacy","legacy","legacy","0","uniform","1","undefined","1","right","81","0","81","81","0","0","81","81","0","0","81","81","81","81","0","10/20/21 14:20:05","The main experiment item","yes","SternbergTask.osexp","C:\Users\bryan\OneDrive\Documents\School\PSYC 5316  (Quant Methods)\Lab 3","no","mono","no","18","no","white","no","yes","768","legacy","69","11","C:/Users/bryan/OneDrive/Documents/School/PSYC 5316  (Quant Methods)/Lab 3/BS-subject-2.csv","legacy","6 2 9 3 8 4","Lentiform Loewenfeld","3.3.9","0","n","0","right","space","space","right","NA","758","70474","27173","758","NA","2","legacy","6","1024","2","48000","-16","experiment","2","even","1","606942","73260","603582","604721","2780","178995","604724","325908","2785","151821","608951","605733","609711","608951","NA","Sternberg Task","79","67277","82","yes","1024"
"96.3855421687","96.3855421687","823.34939759","823.34939759","black","experiment","legacy","legacy","legacy","0","uniform","1","undefined","1","right","82","0","82","82","0","0","82","82","0","0","82","82","82","82","0","10/20/21 14:20:05","The main experiment item","yes","SternbergTask.osexp","C:\Users\bryan\OneDrive\Documents\School\PSYC 5316  (Quant Methods)\Lab 3","no","mono","no","18","no","white","no","yes","768","legacy","70","11","C:/Users/bryan/OneDrive/Documents/School/PSYC 5316  (Quant Methods)/Lab 3/BS-subject-2.csv","legacy","9 5 3 2 8 6","Lentiform Loewenfeld","3.3.9","0","n","0","right","space","space","right","NA","1061","70474","27173","1061","NA","2","legacy","6","1024","2","48000","-16","experiment","2","even","7","613085","73260","609719","610866","2780","178995","610870","325908","2785","151821","615093","611877","616156","615093","NA","Sternberg Task","80","68338","83","yes","1024"
"96.4285714286","96.4285714286","822.142857143","822.142857143","black","experiment","legacy","legacy","legacy","0","uniform","1","undefined","1","right","83","0","83","83","0","0","83","83","0","0","83","83","83","83","0","10/20/21 14:20:05","The main experiment item","yes","SternbergTask.osexp","C:\Users\bryan\OneDrive\Documents\School\PSYC 5316  (Quant Methods)\Lab 3","no","mono","no","18","no","white","no","yes","768","legacy","71","11","C:/Users/bryan/OneDrive/Documents/School/PSYC 5316  (Quant Methods)/Lab 3/BS-subject-2.csv","legacy","8 9","Lentiform Loewenfeld","3.3.9","0","n","0","right","space","space","right","NA","722","70474","27173","722","NA","2","legacy","2","1024","2","48000","-16","experiment","2","even","5","619533","73260","616166","617313","2780","178995","617316","325908","2785","151821","621543","618324","622267","621542","NA","Sternberg Task","81","69060","84","yes","1024"
"96.4705882353","96.4705882353","818.788235294","818.788235294","black","experiment","legacy","legacy","legacy","0","uniform","1","undefined","1","left","84","0","84","84","0","0","84","84","0","0","84","84","84","84","0","10/20/21 14:20:05","The main experiment item","yes","SternbergTask.osexp","C:\Users\bryan\OneDrive\Documents\School\PSYC 5316  (Quant Methods)\Lab 3","no","mono","no","18","no","white","no","yes","768","legacy","72","11","C:/Users/bryan/OneDrive/Documents/School/PSYC 5316  (Quant Methods)/Lab 3/BS-subject-2.csv","legacy","4 7 6 8 2 3","Lentiform Loewenfeld","3.3.9","6","y","0","left","space","space","left","NA","537","70474","27173","537","NA","2","legacy","6","1024","2","48000","-16","experiment","2","even","3","625645","73260","622277","623427","2780","178995","623431","325908","2785","151821","627653","624437","628192","627652","NA","Sternberg Task","82","69597","85","yes","1024"
"96.511627907","96.511627907","816.5","816.5","black","experiment","legacy","legacy","legacy","0","uniform","1","undefined","1","right","85","0","85","85","0","0","85","85","0","0","85","85","85","85","0","10/20/21 14:20:05","The main experiment item","yes","SternbergTask.osexp","C:\Users\bryan\OneDrive\Documents\School\PSYC 5316  (Quant Methods)\Lab 3","no","mono","no","18","no","white","no","yes","768","legacy","73","11","C:/Users/bryan/OneDrive/Documents/School/PSYC 5316  (Quant Methods)/Lab 3/BS-subject-2.csv","legacy","5 7 3","Lentiform Loewenfeld","3.3.9","0","n","0","right","space","space","right","NA","622","70474","27173","622","NA","2","legacy","3","1024","2","48000","-16","experiment","2","even","9","631563","73260","628202","629345","2780","178995","629349","325908","2785","151821","633573","630357","634197","633572","NA","Sternberg Task","83","70219","86","yes","1024"
"95.4022988506","95.4022988506","816.068965517","816.068965517","black","experiment","legacy","legacy","legacy","0","uniform","0","undefined","0","left","86","0","86","86","0","0","86","86","0","0","86","86","86","86","0","10/20/21 14:20:05","The main experiment item","yes","SternbergTask.osexp","C:\Users\bryan\OneDrive\Documents\School\PSYC 5316  (Quant Methods)\Lab 3","no","mono","no","18","no","white","no","yes","768","legacy","74","11","C:/Users/bryan/OneDrive/Documents/School/PSYC 5316  (Quant Methods)/Lab 3/BS-subject-2.csv","legacy","7 2 3","Lentiform Loewenfeld","3.3.9","3","y","0","right","space","space","right","NA","779","70474","27173","779","NA","2","legacy","3","1024","2","48000","-16","experiment","2","even","3","637570","73260","634208","635349","2780","178995","635353","325908","2785","151821","639580","636361","640364","639579","NA","Sternberg Task","83","70998","87","yes","1024"
"95.4545454545","95.4545454545","814.840909091","814.840909091","black","experiment","legacy","legacy","legacy","0","uniform","1","undefined","1","right","87","0","87","87","0","0","87","87","0","0","87","87","87","87","0","10/20/21 14:20:05","The main experiment item","yes","SternbergTask.osexp","C:\Users\bryan\OneDrive\Documents\School\PSYC 5316  (Quant Methods)\Lab 3","no","mono","no","18","no","white","no","yes","768","legacy","75","11","C:/Users/bryan/OneDrive/Documents/School/PSYC 5316  (Quant Methods)/Lab 3/BS-subject-2.csv","legacy","1 6 4 3 9 7","Lentiform Loewenfeld","3.3.9","0","n","0","right","space","space","right","NA","708","70474","27173","708","NA","2","legacy","6","1024","2","48000","-16","experiment","2","even","8","643746","73260","634208","641527","2780","178995","641531","640384","2785","151821","645754","642538","646463","645753","NA","Sternberg Task","84","71706","88","yes","1024"
"95.5056179775","95.5056179775","813.617977528","813.617977528","black","experiment","legacy","legacy","legacy","0","uniform","1","undefined","1","right","88","0","88","88","0","0","88","88","0","0","88","88","88","88","0","10/20/21 14:20:05","The main experiment item","yes","SternbergTask.osexp","C:\Users\bryan\OneDrive\Documents\School\PSYC 5316  (Quant Methods)\Lab 3","no","mono","no","18","no","white","no","yes","768","legacy","76","11","C:/Users/bryan/OneDrive/Documents/School/PSYC 5316  (Quant Methods)/Lab 3/BS-subject-2.csv","legacy","9 7 4 5 8","Lentiform Loewenfeld","3.3.9","0","n","0","right","space","space","right","NA","706","70474","27173","706","NA","2","legacy","5","1024","2","48000","-16","experiment","2","even","6","649852","73260","646472","647631","2780","178995","647635","640384","2785","151821","651862","648643","652570","651861","NA","Sternberg Task","85","72412","89","yes","1024"
"95.5555555556","95.5555555556","812.4","812.4","black","experiment","legacy","legacy","legacy","0","uniform","1","undefined","1","right","89","0","89","89","0","0","89","89","0","0","89","89","89","89","0","10/20/21 14:20:05","The main experiment item","yes","SternbergTask.osexp","C:\Users\bryan\OneDrive\Documents\School\PSYC 5316  (Quant Methods)\Lab 3","no","mono","no","18","no","white","no","yes","768","legacy","77","11","C:/Users/bryan/OneDrive/Documents/School/PSYC 5316  (Quant Methods)/Lab 3/BS-subject-2.csv","legacy","2 6 4 3 9","Lentiform Loewenfeld","3.3.9","0","n","0","right","space","space","right","NA","704","70474","27173","704","NA","2","legacy","5","1024","2","48000","-16","experiment","2","even","1","655966","73260","652580","653748","2780","178995","653752","640384","2785","151821","657975","654759","658681","657974","NA","Sternberg Task","86","73116","90","yes","1024"
"95.6043956044","95.6043956044","811.692307692","811.692307692","black","experiment","legacy","legacy","legacy","0","uniform","1","undefined","1","right","90","0","90","90","0","0","90","90","0","0","90","90","90","90","0","10/20/21 14:20:05","The main experiment item","yes","SternbergTask.osexp","C:\Users\bryan\OneDrive\Documents\School\PSYC 5316  (Quant Methods)\Lab 3","no","mono","no","18","no","white","no","yes","768","legacy","78","11","C:/Users/bryan/OneDrive/Documents/School/PSYC 5316  (Quant Methods)/Lab 3/BS-subject-2.csv","legacy","9 8 2 7 4","Lentiform Loewenfeld","3.3.9","0","n","0","right","space","space","right","NA","748","70474","27173","748","NA","2","legacy","5","1024","2","48000","-16","experiment","2","even","5","662051","73260","658689","659830","2780","178995","659834","640384","2785","151821","664060","660842","664810","664060","NA","Sternberg Task","87","73864","91","yes","1024"
"95.652173913","95.652173913","807.619565217","807.619565217","black","experiment","legacy","legacy","legacy","0","uniform","1","undefined","1","left","91","0","91","91","0","0","91","91","0","0","91","91","91","91","0","10/20/21 14:20:05","The main experiment item","yes","SternbergTask.osexp","C:\Users\bryan\OneDrive\Documents\School\PSYC 5316  (Quant Methods)\Lab 3","no","mono","no","18","no","white","no","yes","768","legacy","79","11","C:/Users/bryan/OneDrive/Documents/School/PSYC 5316  (Quant Methods)/Lab 3/BS-subject-2.csv","legacy","5 2 6","Lentiform Loewenfeld","3.3.9","2","y","0","left","space","space","left","NA","437","70474","27173","437","NA","2","legacy","3","1024","2","48000","-16","experiment","2","even","2","668190","73260","664821","665969","2780","178995","665973","640384","2785","151821","670198","666981","670636","670198","NA","Sternberg Task","88","74301","92","yes","1024"
"95.6989247312","95.6989247312","804.430107527","804.430107527","black","experiment","legacy","legacy","legacy","0","uniform","1","undefined","1","left","92","0","92","92","0","0","92","92","0","0","92","92","92","92","0","10/20/21 14:20:05","The main experiment item","yes","SternbergTask.osexp","C:\Users\bryan\OneDrive\Documents\School\PSYC 5316  (Quant Methods)\Lab 3","no","mono","no","18","no","white","no","yes","768","legacy","80","11","C:/Users/bryan/OneDrive/Documents/School/PSYC 5316  (Quant Methods)/Lab 3/BS-subject-2.csv","legacy","9 4 2","Lentiform Loewenfeld","3.3.9","1","y","0","left","space","space","left","NA","511","70474","27173","511","NA","2","legacy","3","1024","2","48000","-16","experiment","2","even","9","674010","73260","670643","671790","2780","178995","671794","640384","2785","151821","676020","672802","676532","676019","NA","Sternberg Task","89","74812","93","yes","1024"
"95.7446808511","95.7446808511","807.010638298","807.010638298","black","experiment","legacy","legacy","legacy","0","uniform","1","undefined","1","right","93","0","93","93","0","0","93","93","0","0","93","93","93","93","0","10/20/21 14:20:05","The main experiment item","yes","SternbergTask.osexp","C:\Users\bryan\OneDrive\Documents\School\PSYC 5316  (Quant Methods)\Lab 3","no","mono","no","18","no","white","no","yes","768","legacy","81","11","C:/Users/bryan/OneDrive/Documents/School/PSYC 5316  (Quant Methods)/Lab 3/BS-subject-2.csv","legacy","5 3 8 7 2 4","Lentiform Loewenfeld","3.3.9","0","n","0","right","space","space","right","NA","1047","70474","27173","1047","NA","2","legacy","6","1024","2","48000","-16","experiment","2","even","9","679919","73260","676543","677697","2780","178995","677701","640384","2785","151821","681928","678710","682976","681928","NA","Sternberg Task","90","75859","94","yes","1024"
"95.7894736842","95.7894736842","809.642105263","809.642105263","black","experiment","legacy","legacy","legacy","0","uniform","1","undefined","1","left","94","0","94","94","0","0","94","94","0","0","94","94","94","94","0","10/20/21 14:20:05","The main experiment item","yes","SternbergTask.osexp","C:\Users\bryan\OneDrive\Documents\School\PSYC 5316  (Quant Methods)\Lab 3","no","mono","no","18","no","white","no","yes","768","legacy","82","11","C:/Users/bryan/OneDrive/Documents/School/PSYC 5316  (Quant Methods)/Lab 3/BS-subject-2.csv","legacy","7 4 2 6 3 5","Lentiform Loewenfeld","3.3.9","6","y","0","left","space","space","left","NA","1057","70474","27173","1057","NA","2","legacy","6","1024","2","48000","-16","experiment","2","even","5","686347","73260","682986","684127","2780","178995","684131","640384","2785","151821","688357","685139","689416","688356","NA","Sternberg Task","91","76916","95","yes","1024"
"95.8333333333","95.8333333333","806.96875","806.96875","black","experiment","legacy","legacy","legacy","0","uniform","1","undefined","1","right","95","0","95","95","0","0","95","95","0","0","95","95","95","95","0","10/20/21 14:20:05","The main experiment item","yes","SternbergTask.osexp","C:\Users\bryan\OneDrive\Documents\School\PSYC 5316  (Quant Methods)\Lab 3","no","mono","no","18","no","white","no","yes","768","legacy","83","11","C:/Users/bryan/OneDrive/Documents/School/PSYC 5316  (Quant Methods)/Lab 3/BS-subject-2.csv","legacy","5 2","Lentiform Loewenfeld","3.3.9","0","n","0","right","space","space","right","NA","553","70474","27173","553","NA","2","legacy","2","1024","2","48000","-16","experiment","2","even","7","692808","73260","689426","690588","2780","178995","690592","640384","2785","151821","694816","691600","695374","694816","NA","Sternberg Task","92","77469","96","yes","1024"
"95.8762886598","95.8762886598","802.608247423","802.608247423","black","experiment","legacy","legacy","legacy","0","uniform","1","undefined","1","left","96","0","96","96","0","0","96","96","0","0","96","96","96","96","0","10/20/21 14:20:05","The main experiment item","yes","SternbergTask.osexp","C:\Users\bryan\OneDrive\Documents\School\PSYC 5316  (Quant Methods)\Lab 3","no","mono","no","18","no","white","no","yes","768","legacy","84","11","C:/Users/bryan/OneDrive/Documents/School/PSYC 5316  (Quant Methods)/Lab 3/BS-subject-2.csv","legacy","6 5","Lentiform Loewenfeld","3.3.9","2","y","0","left","space","space","left","NA","384","70474","27173","384","NA","2","legacy","2","1024","2","48000","-16","experiment","2","even","5","698763","73260","695393","696542","2780","178995","696546","640384","2785","151821","700772","697554","701158","700771","NA","Sternberg Task","93","77853","97","yes","1024"
"95.9183673469","95.9183673469","801.214285714","801.214285714","black","experiment","legacy","legacy","legacy","0","uniform","1","undefined","1","left","97","0","97","97","0","0","97","97","0","0","97","97","97","97","0","10/20/21 14:20:05","The main experiment item","yes","SternbergTask.osexp","C:\Users\bryan\OneDrive\Documents\School\PSYC 5316  (Quant Methods)\Lab 3","no","mono","no","18","no","white","no","yes","768","legacy","85","11","C:/Users/bryan/OneDrive/Documents/School/PSYC 5316  (Quant Methods)/Lab 3/BS-subject-2.csv","legacy","4 6 2 5 1","Lentiform Loewenfeld","3.3.9","5","y","0","left","space","space","left","NA","666","70474","27173","666","NA","2","legacy","5","1024","2","48000","-16","experiment","2","even","1","704530","73260","701169","702309","2780","178995","702313","640384","2785","151821","706540","703321","707208","706539","NA","Sternberg Task","94","78519","98","yes","1024"
"95.9595959596","95.9595959596","798.444444444","798.444444444","black","experiment","legacy","legacy","legacy","0","uniform","1","undefined","1","left","98","0","98","98","0","0","98","98","0","0","98","98","98","98","0","10/20/21 14:20:05","The main experiment item","yes","SternbergTask.osexp","C:\Users\bryan\OneDrive\Documents\School\PSYC 5316  (Quant Methods)\Lab 3","no","mono","no","18","no","white","no","yes","768","legacy","86","11","C:/Users/bryan/OneDrive/Documents/School/PSYC 5316  (Quant Methods)/Lab 3/BS-subject-2.csv","legacy","8 5 4 7 3 1","Lentiform Loewenfeld","3.3.9","2","y","0","left","space","space","left","NA","527","70474","27173","527","NA","2","legacy","6","1024","2","48000","-16","experiment","2","even","5","710582","73260","707217","708363","2780","178995","708367","640384","2785","151821","712590","709375","713118","712590","NA","Sternberg Task","95","79046","99","yes","1024"
"96","96","795.34","795.34","black","experiment","legacy","legacy","legacy","0","uniform","1","undefined","1","left","99","0","99","99","0","0","99","99","0","0","99","99","99","99","0","10/20/21 14:20:05","The main experiment item","yes","SternbergTask.osexp","C:\Users\bryan\OneDrive\Documents\School\PSYC 5316  (Quant Methods)\Lab 3","no","mono","no","18","no","white","no","yes","768","legacy","87","11","C:/Users/bryan/OneDrive/Documents/School/PSYC 5316  (Quant Methods)/Lab 3/BS-subject-2.csv","legacy","4 1 5","Lentiform Loewenfeld","3.3.9","2","y","0","left","space","space","left","NA","488","70474","27173","488","NA","2","legacy","3","1024","2","48000","-16","experiment","2","even","1","716502","73260","713129","714281","2780","178995","714285","640384","2785","151821","718512","715293","719005","718511","NA","Sternberg Task","96","79534","100","yes","1024"
"95.0495049505","95.0495049505","792.742574257","792.742574257","black","experiment","legacy","legacy","legacy","0","uniform","0","undefined","0","right","100","0","100","100","0","0","100","100","0","0","100","100","100","100","0","10/20/21 14:20:05","The main experiment item","yes","SternbergTask.osexp","C:\Users\bryan\OneDrive\Documents\School\PSYC 5316  (Quant Methods)\Lab 3","no","mono","no","18","no","white","no","yes","768","legacy","88","11","C:/Users/bryan/OneDrive/Documents/School/PSYC 5316  (Quant Methods)/Lab 3/BS-subject-2.csv","legacy","7 9","Lentiform Loewenfeld","3.3.9","0","n","0","left","space","space","left","NA","533","70474","27173","533","NA","2","legacy","2","1024","2","48000","-16","experiment","2","even","1","722399","73260","719026","720178","2780","178995","720182","640384","2785","151821","724408","721190","724943","724407","NA","Sternberg Task","96","80067","101","yes","1024"
"95.0980392157","95.0980392157","793.941176471","793.941176471","black","experiment","legacy","legacy","legacy","0","uniform","1","undefined","1","right","101","0","101","101","0","0","101","101","0","0","101","101","101","101","0","10/20/21 14:20:05","The main experiment item","yes","SternbergTask.osexp","C:\Users\bryan\OneDrive\Documents\School\PSYC 5316  (Quant Methods)\Lab 3","no","mono","no","18","no","white","no","yes","768","legacy","89","11","C:/Users/bryan/OneDrive/Documents/School/PSYC 5316  (Quant Methods)/Lab 3/BS-subject-2.csv","legacy","2 3 8 5 6 7","Lentiform Loewenfeld","3.3.9","0","n","0","right","space","space","right","NA","915","70474","27173","915","NA","2","legacy","6","1024","2","48000","-16","experiment","2","even","1","728373","73260","719026","726153","2780","178995","726157","724952","2785","151821","730382","727165","731299","730381","NA","Sternberg Task","97","80982","102","yes","1024"
"95.145631068","95.145631068","792.029126214","792.029126214","black","experiment","legacy","legacy","legacy","0","uniform","1","undefined","1","right","102","0","102","102","0","0","102","102","0","0","102","102","102","102","0","10/20/21 14:20:05","The main experiment item","yes","SternbergTask.osexp","C:\Users\bryan\OneDrive\Documents\School\PSYC 5316  (Quant Methods)\Lab 3","no","mono","no","18","no","white","no","yes","768","legacy","90","11","C:/Users/bryan/OneDrive/Documents/School/PSYC 5316  (Quant Methods)/Lab 3/BS-subject-2.csv","legacy","7 1","Lentiform Loewenfeld","3.3.9","0","n","0","right","space","space","right","NA","597","70474","27173","597","NA","2","legacy","2","1024","2","48000","-16","experiment","2","even","8","734711","73260","731309","732490","2780","178995","732494","724952","2785","151821","736721","733502","737320","736720","NA","Sternberg Task","98","81579","103","yes","1024"
"95.1923076923","95.1923076923","791.682692308","791.682692308","black","experiment","legacy","legacy","legacy","0","uniform","1","undefined","1","right","103","0","103","103","0","0","103","103","0","0","103","103","103","103","0","10/20/21 14:20:05","The main experiment item","yes","SternbergTask.osexp","C:\Users\bryan\OneDrive\Documents\School\PSYC 5316  (Quant Methods)\Lab 3","no","mono","no","18","no","white","no","yes","768","legacy","91","11","C:/Users/bryan/OneDrive/Documents/School/PSYC 5316  (Quant Methods)/Lab 3/BS-subject-2.csv","legacy","3 4 9 6 7 8","Lentiform Loewenfeld","3.3.9","0","n","0","right","space","space","right","NA","756","70474","27173","756","NA","2","legacy","6","1024","2","48000","-16","experiment","2","even","2","740700","73260","737330","738479","2780","178995","738482","724952","2785","151821","742709","739491","743466","742709","NA","Sternberg Task","99","82335","104","yes","1024"
"95.2380952381","95.2380952381","789.238095238","789.238095238","black","experiment","legacy","legacy","legacy","0","uniform","1","undefined","1","left","104","0","104","104","0","0","104","104","0","0","104","104","104","104","0","10/20/21 14:20:05","The main experiment item","yes","SternbergTask.osexp","C:\Users\bryan\OneDrive\Documents\School\PSYC 5316  (Quant Methods)\Lab 3","no","mono","no","18","no","white","no","yes","768","legacy","92","11","C:/Users/bryan/OneDrive/Documents/School/PSYC 5316  (Quant Methods)/Lab 3/BS-subject-2.csv","legacy","4 6 5 8","Lentiform Loewenfeld","3.3.9","1","y","0","left","space","space","left","NA","535","70474","27173","535","NA","2","legacy","4","1024","2","48000","-16","experiment","2","even","4","746849","73260","743476","744628","2780","178995","744631","724952","2785","151821","748859","745640","749400","748858","NA","Sternberg Task","100","82870","105","yes","1024"
"95.2830188679","95.2830188679","786.556603774","786.556603774","black","experiment","legacy","legacy","legacy","0","uniform","1","undefined","1","right","105","0","105","105","0","0","105","105","0","0","105","105","105","105","0","10/20/21 14:20:05","The main experiment item","yes","SternbergTask.osexp","C:\Users\bryan\OneDrive\Documents\School\PSYC 5316  (Quant Methods)\Lab 3","no","mono","no","18","no","white","no","yes","768","legacy","93","11","C:/Users/bryan/OneDrive/Documents/School/PSYC 5316  (Quant Methods)/Lab 3/BS-subject-2.csv","legacy","5","Lentiform Loewenfeld","3.3.9","0","n","0","right","space","space","right","NA","505","70474","27173","505","NA","2","legacy","1","1024","2","48000","-16","experiment","2","even","8","752790","73260","749419","750570","2780","178995","750574","724952","2785","151821","754799","751582","755306","754798","NA","Sternberg Task","101","83375","106","yes","1024"
"95.3271028037","95.3271028037","786.028037383","786.028037383","black","experiment","legacy","legacy","legacy","0","uniform","1","undefined","1","left","106","0","106","106","0","0","106","106","0","0","106","106","106","106","0","10/20/21 14:20:05","The main experiment item","yes","SternbergTask.osexp","C:\Users\bryan\OneDrive\Documents\School\PSYC 5316  (Quant Methods)\Lab 3","no","mono","no","18","no","white","no","yes","768","legacy","94","11","C:/Users/bryan/OneDrive/Documents/School/PSYC 5316  (Quant Methods)/Lab 3/BS-subject-2.csv","legacy","8 9 5 6 7","Lentiform Loewenfeld","3.3.9","1","y","0","left","space","space","left","NA","730","70474","27173","730","NA","2","legacy","5","1024","2","48000","-16","experiment","2","even","8","758676","73260","755314","756456","2780","178995","756460","724952","2785","151821","760684","757468","761416","760684","NA","Sternberg Task","102","84105","107","yes","1024"
"95.3703703704","95.3703703704","785.564814815","785.564814815","black","experiment","legacy","legacy","legacy","0","uniform","1","undefined","1","right","107","0","107","107","0","0","107","107","0","0","107","107","107","107","0","10/20/21 14:20:05","The main experiment item","yes","SternbergTask.osexp","C:\Users\bryan\OneDrive\Documents\School\PSYC 5316  (Quant Methods)\Lab 3","no","mono","no","18","no","white","no","yes","768","legacy","95","11","C:/Users/bryan/OneDrive/Documents/School/PSYC 5316  (Quant Methods)/Lab 3/BS-subject-2.csv","legacy","1","Lentiform Loewenfeld","3.3.9","0","n","0","right","space","space","right","NA","736","70474","27173","736","NA","2","legacy","1","1024","2","48000","-16","experiment","2","even","7","764786","73260","761423","762565","2780","178995","762569","724952","2785","151821","766796","763578","767533","766795","NA","Sternberg Task","103","84841","108","yes","1024"
