"acc","accuracy","average_response_time","avg_rt","background","block","canvas_backend","clock_backend","color_backend","compensation","coordinates","correct","correct_instruction1","correct_keyboard_response","correct_response","count_ISI","count_PracticeLoop","count_correctFeedback","count_expSequence","count_experiment","count_experimentLoop","count_fixation","count_incorrectFeedback","count_instruction1","count_instructions2","count_keyboard_response","count_memorySet","count_new_logger","count_probe","count_thankYou","datetime","description","disable_garbage_collection","experiment_file","experiment_path","font_bold","font_family","font_italic","font_size","font_underline","foreground","form_clicks","fullscreen","height","keyboard_backend","live_row","live_row_PracticeLoop","logfile","mouse_backend","numberSet","opensesame_codename","opensesame_version","posInSet","present","repeat_cycle","response","response_instruction1","response_instructions2","response_keyboard_response","response_thankYou","response_time","response_time_instruction1","response_time_instructions2","response_time_keyboard_response","response_time_thankYou","round_decimals","sampler_backend","setSize","sound_buf_size","sound_channels","sound_freq","sound_sample_size","start","subject_nr","subject_parity","target","time_ISI","time_PracticeLoop","time_correctFeedback","time_expSequence","time_experiment","time_experimentLoop","time_fixation","time_incorrectFeedback","time_instruction1","time_instructions2","time_keyboard_response","time_memorySet","time_new_logger","time_probe","time_thankYou","title","total_correct","total_response_time","total_responses","uniform_coordinates","width"
"0","0","2000","2000","black","practice","legacy","legacy","legacy","0","uniform","0","undefined","0","left","0","0","0","0","0","0","0","0","0","0","0","0","0","0","0","10/16/21 18:24:29","The main experiment item","yes","SternbergTask.osexp","C:/Users/bryan/OneDrive/Documents/School/PSYC 5316  (Quant Methods)/Lab 3","no","mono","no","18","no","white","no","yes","768","legacy","0","0","C:/Users/bryan/OneDrive/Documents/School/PSYC 5316  (Quant Methods)/Lab 3/BS-subject-1.csv","legacy","6","Lentiform Loewenfeld","3.3.9","1","y","0","None","left","NA","None","NA","2000","27301","NA","2000","NA","2","legacy","1","1024","2","48000","-16","experiment","1","odd","6","33363","30074","NA","31142","2763","NA","31146","NA","2771","NA","35372","32154","37372","35371","NA","Sternberg Task","0","2000","1","yes","1024"
"50","50","1467.5","1467.5","black","practice","legacy","legacy","legacy","0","uniform","1","undefined","1","right","1","0","1","1","0","0","1","1","0","0","1","1","1","1","0","10/16/21 18:24:29","The main experiment item","yes","SternbergTask.osexp","C:/Users/bryan/OneDrive/Documents/School/PSYC 5316  (Quant Methods)/Lab 3","no","mono","no","18","no","white","no","yes","768","legacy","1","1","C:/Users/bryan/OneDrive/Documents/School/PSYC 5316  (Quant Methods)/Lab 3/BS-subject-1.csv","legacy","5 7 8 4 1 2","Lentiform Loewenfeld","3.3.9","0","n","0","right","left","NA","right","NA","935","27301","NA","935","NA","2","legacy","6","1024","2","48000","-16","experiment","1","odd","6","40825","30074","NA","38604","2763","NA","38608","37455","2771","NA","42834","39616","43770","42833","NA","Sternberg Task","1","2935","2","yes","1024"
"66.6666666667","66.6666666667","1200.33333333","1200.33333333","black","practice","legacy","legacy","legacy","0","uniform","1","undefined","1","right","2","0","2","2","0","0","2","2","0","0","2","2","2","2","0","10/16/21 18:24:29","The main experiment item","yes","SternbergTask.osexp","C:/Users/bryan/OneDrive/Documents/School/PSYC 5316  (Quant Methods)/Lab 3","no","mono","no","18","no","white","no","yes","768","legacy","2","2","C:/Users/bryan/OneDrive/Documents/School/PSYC 5316  (Quant Methods)/Lab 3/BS-subject-1.csv","legacy","5","Lentiform Loewenfeld","3.3.9","0","n","0","right","left","NA","right","NA","666","27301","NA","666","NA","2","legacy","1","1024","2","48000","-16","experiment","1","odd","3","47141","30074","43779","44920","2763","NA","44924","37455","2771","NA","49151","45932","49817","49150","NA","Sternberg Task","2","3601","3","yes","1024"
"75","75","1121","1121","black","practice","legacy","legacy","legacy","0","uniform","1","undefined","1","right","3","0","3","3","0","0","3","3","0","0","3","3","3","3","0","10/16/21 18:24:29","The main experiment item","yes","SternbergTask.osexp","C:/Users/bryan/OneDrive/Documents/School/PSYC 5316  (Quant Methods)/Lab 3","no","mono","no","18","no","white","no","yes","768","legacy","3","3","C:/Users/bryan/OneDrive/Documents/School/PSYC 5316  (Quant Methods)/Lab 3/BS-subject-1.csv","legacy","9 6 7 4 5","Lentiform Loewenfeld","3.3.9","0","n","0","right","left","NA","right","NA","883","27301","NA","883","NA","2","legacy","5","1024","2","48000","-16","experiment","1","odd","3","53183","30074","49826","50963","2763","NA","50967","37455","2771","NA","55192","51975","56076","55191","NA","Sternberg Task","3","4484","4","yes","1024"
"80","80","1118.8","1118.8","black","practice","legacy","legacy","legacy","0","uniform","1","undefined","1","right","4","0","4","4","0","0","4","4","0","0","4","4","4","4","0","10/16/21 18:24:29","The main experiment item","yes","SternbergTask.osexp","C:/Users/bryan/OneDrive/Documents/School/PSYC 5316  (Quant Methods)/Lab 3","no","mono","no","18","no","white","no","yes","768","legacy","4","4","C:/Users/bryan/OneDrive/Documents/School/PSYC 5316  (Quant Methods)/Lab 3/BS-subject-1.csv","legacy","3 1 9 4","Lentiform Loewenfeld","3.3.9","0","n","0","right","left","NA","right","NA","1110","27301","NA","1110","NA","2","legacy","4","1024","2","48000","-16","experiment","1","odd","6","59447","30074","56084","57227","2763","NA","57231","37455","2771","NA","61457","58239","62567","61456","NA","Sternberg Task","4","5594","5","yes","1024"
"83.3333333333","83.3333333333","1063.83333333","1063.83333333","black","practice","legacy","legacy","legacy","0","uniform","1","undefined","1","left","5","0","5","5","0","0","5","5","0","0","5","5","5","5","0","10/16/21 18:24:29","The main experiment item","yes","SternbergTask.osexp","C:/Users/bryan/OneDrive/Documents/School/PSYC 5316  (Quant Methods)/Lab 3","no","mono","no","18","no","white","no","yes","768","legacy","5","5","C:/Users/bryan/OneDrive/Documents/School/PSYC 5316  (Quant Methods)/Lab 3/BS-subject-1.csv","legacy","1 5 2 9","Lentiform Loewenfeld","3.3.9","2","y","0","left","left","NA","left","NA","789","27301","NA","789","NA","2","legacy","4","1024","2","48000","-16","experiment","1","odd","5","65928","30074","62576","63713","2763","NA","63717","37455","2771","NA","67936","64725","68726","67936","NA","Sternberg Task","5","6383","6","yes","1024"
"85.7142857143","85.7142857143","986.714285714","986.714285714","black","practice","legacy","legacy","legacy","0","uniform","1","undefined","1","left","6","0","6","6","0","0","6","6","0","0","6","6","6","6","0","10/16/21 18:24:29","The main experiment item","yes","SternbergTask.osexp","C:/Users/bryan/OneDrive/Documents/School/PSYC 5316  (Quant Methods)/Lab 3","no","mono","no","18","no","white","no","yes","768","legacy","6","6","C:/Users/bryan/OneDrive/Documents/School/PSYC 5316  (Quant Methods)/Lab 3/BS-subject-1.csv","legacy","4 3 1 7 9 8","Lentiform Loewenfeld","3.3.9","1","y","0","left","left","NA","left","NA","524","27301","NA","524","NA","2","legacy","6","1024","2","48000","-16","experiment","1","odd","4","72102","30074","68736","69883","2763","NA","69886","37455","2771","NA","74111","70894","74635","74110","NA","Sternberg Task","6","6907","7","yes","1024"
"75","75","927.625","927.625","black","practice","legacy","legacy","legacy","0","uniform","0","undefined","0","left","7","0","7","7","0","0","7","7","0","0","7","7","7","7","0","10/16/21 18:24:29","The main experiment item","yes","SternbergTask.osexp","C:/Users/bryan/OneDrive/Documents/School/PSYC 5316  (Quant Methods)/Lab 3","no","mono","no","18","no","white","no","yes","768","legacy","7","7","C:/Users/bryan/OneDrive/Documents/School/PSYC 5316  (Quant Methods)/Lab 3/BS-subject-1.csv","legacy","1 7 9 8 5","Lentiform Loewenfeld","3.3.9","4","y","0","right","left","NA","right","NA","514","27301","NA","514","NA","2","legacy","5","1024","2","48000","-16","experiment","1","odd","8","77993","30074","74644","75772","2763","NA","75775","37455","2771","NA","80002","76784","80517","80001","NA","Sternberg Task","6","7421","8","yes","1024"
"77.7777777778","77.7777777778","927.777777778","927.777777778","black","practice","legacy","legacy","legacy","0","uniform","1","undefined","1","left","8","0","8","8","0","0","8","8","0","0","8","8","8","8","0","10/16/21 18:24:29","The main experiment item","yes","SternbergTask.osexp","C:/Users/bryan/OneDrive/Documents/School/PSYC 5316  (Quant Methods)/Lab 3","no","mono","no","18","no","white","no","yes","768","legacy","8","8","C:/Users/bryan/OneDrive/Documents/School/PSYC 5316  (Quant Methods)/Lab 3/BS-subject-1.csv","legacy","2 9 4","Lentiform Loewenfeld","3.3.9","3","y","0","left","left","NA","left","NA","929","27301","NA","929","NA","2","legacy","3","1024","2","48000","-16","experiment","1","odd","4","83894","30074","74644","81674","2763","NA","81678","80527","2771","NA","85902","82686","86832","85902","NA","Sternberg Task","7","8350","9","yes","1024"
"80","80","887.8","887.8","black","practice","legacy","legacy","legacy","0","uniform","1","undefined","1","right","9","0","9","9","0","0","9","9","0","0","9","9","9","9","0","10/16/21 18:24:29","The main experiment item","yes","SternbergTask.osexp","C:/Users/bryan/OneDrive/Documents/School/PSYC 5316  (Quant Methods)/Lab 3","no","mono","no","18","no","white","no","yes","768","legacy","9","9","C:/Users/bryan/OneDrive/Documents/School/PSYC 5316  (Quant Methods)/Lab 3/BS-subject-1.csv","legacy","2 1","Lentiform Loewenfeld","3.3.9","0","n","0","right","left","NA","right","NA","528","27301","NA","528","NA","2","legacy","2","1024","2","48000","-16","experiment","1","odd","5","90189","30074","86838","87968","2763","NA","87972","80527","2771","NA","92198","88980","92726","92198","NA","Sternberg Task","8","8878","10","yes","1024"
"81.8181818182","81.8181818182","870.636363636","870.636363636","black","practice","legacy","legacy","legacy","0","uniform","1","undefined","1","right","10","0","10","10","0","0","10","10","0","0","10","10","10","10","0","10/16/21 18:24:29","The main experiment item","yes","SternbergTask.osexp","C:/Users/bryan/OneDrive/Documents/School/PSYC 5316  (Quant Methods)/Lab 3","no","mono","no","18","no","white","no","yes","768","legacy","10","10","C:/Users/bryan/OneDrive/Documents/School/PSYC 5316  (Quant Methods)/Lab 3/BS-subject-1.csv","legacy","4 1 5","Lentiform Loewenfeld","3.3.9","0","n","0","right","left","NA","right","NA","699","27301","NA","699","NA","2","legacy","3","1024","2","48000","-16","experiment","1","odd","2","96087","30074","92735","93867","2763","NA","93871","80527","2771","NA","98096","94879","98795","98095","NA","Sternberg Task","9","9577","11","yes","1024"
"83.3333333333","83.3333333333","843.5","843.5","black","practice","legacy","legacy","legacy","0","uniform","1","undefined","1","left","11","0","11","11","0","0","11","11","0","0","11","11","11","11","0","10/16/21 18:24:29","The main experiment item","yes","SternbergTask.osexp","C:/Users/bryan/OneDrive/Documents/School/PSYC 5316  (Quant Methods)/Lab 3","no","mono","no","18","no","white","no","yes","768","legacy","11","11","C:/Users/bryan/OneDrive/Documents/School/PSYC 5316  (Quant Methods)/Lab 3/BS-subject-1.csv","legacy","4 8","Lentiform Loewenfeld","3.3.9","1","y","0","left","left","NA","left","NA","545","27301","NA","545","NA","2","legacy","2","1024","2","48000","-16","experiment","1","odd","4","102166","30074","98805","99946","2763","NA","99950","80527","2771","NA","104176","100958","104721","104175","NA","Sternberg Task","10","10122","12","yes","1024"
"84.6153846154","84.6153846154","835.692307692","835.692307692","black","experiment","legacy","legacy","legacy","0","uniform","1","undefined","1","right","12","0","12","12","0","0","12","12","0","0","12","12","12","12","0","10/16/21 18:24:29","The main experiment item","yes","SternbergTask.osexp","C:/Users/bryan/OneDrive/Documents/School/PSYC 5316  (Quant Methods)/Lab 3","no","mono","no","18","no","white","no","yes","768","legacy","0","11","C:/Users/bryan/OneDrive/Documents/School/PSYC 5316  (Quant Methods)/Lab 3/BS-subject-1.csv","legacy","8 5 7 3 6","Lentiform Loewenfeld","3.3.9","0","n","0","right","left","left","right","NA","742","27301","34671","742","NA","2","legacy","5","1024","2","48000","-16","experiment","1","odd","9","142817","30074","104731","140597","2763","140440","140601","80527","2771","105769","144826","141609","145569","144825","NA","Sternberg Task","11","10864","13","yes","1024"
"85.7142857143","85.7142857143","813.142857143","813.142857143","black","experiment","legacy","legacy","legacy","0","uniform","1","undefined","1","left","13","0","13","13","0","0","13","13","0","0","13","13","13","13","0","10/16/21 18:24:29","The main experiment item","yes","SternbergTask.osexp","C:/Users/bryan/OneDrive/Documents/School/PSYC 5316  (Quant Methods)/Lab 3","no","mono","no","18","no","white","no","yes","768","legacy","1","11","C:/Users/bryan/OneDrive/Documents/School/PSYC 5316  (Quant Methods)/Lab 3/BS-subject-1.csv","legacy","7 6","Lentiform Loewenfeld","3.3.9","2","y","0","left","left","left","left","NA","520","27301","34671","520","NA","2","legacy","2","1024","2","48000","-16","experiment","1","odd","6","148939","30074","145578","146719","2763","140440","146723","80527","2771","105769","150948","147731","151469","150948","NA","Sternberg Task","12","11384","14","yes","1024"
"86.6666666667","86.6666666667","805.4","805.4","black","experiment","legacy","legacy","legacy","0","uniform","1","undefined","1","right","14","0","14","14","0","0","14","14","0","0","14","14","14","14","0","10/16/21 18:24:29","The main experiment item","yes","SternbergTask.osexp","C:/Users/bryan/OneDrive/Documents/School/PSYC 5316  (Quant Methods)/Lab 3","no","mono","no","18","no","white","no","yes","768","legacy","2","11","C:/Users/bryan/OneDrive/Documents/School/PSYC 5316  (Quant Methods)/Lab 3/BS-subject-1.csv","legacy","7 8 6 1","Lentiform Loewenfeld","3.3.9","0","n","0","right","left","left","right","NA","697","27301","34671","697","NA","2","legacy","4","1024","2","48000","-16","experiment","1","odd","3","154843","30074","151479","152623","2763","140440","152627","80527","2771","105769","156851","153635","157549","156851","NA","Sternberg Task","13","12081","15","yes","1024"
"87.5","87.5","819.1875","819.1875","black","experiment","legacy","legacy","legacy","0","uniform","1","undefined","1","left","15","0","15","15","0","0","15","15","0","0","15","15","15","15","0","10/16/21 18:24:29","The main experiment item","yes","SternbergTask.osexp","C:/Users/bryan/OneDrive/Documents/School/PSYC 5316  (Quant Methods)/Lab 3","no","mono","no","18","no","white","no","yes","768","legacy","3","11","C:/Users/bryan/OneDrive/Documents/School/PSYC 5316  (Quant Methods)/Lab 3/BS-subject-1.csv","legacy","7 2 3","Lentiform Loewenfeld","3.3.9","3","y","0","left","left","left","left","NA","1026","27301","34671","1026","NA","2","legacy","3","1024","2","48000","-16","experiment","1","odd","3","160904","30074","157558","158684","2763","140440","158687","80527","2771","105769","162914","159696","163941","162913","NA","Sternberg Task","14","13107","16","yes","1024"
"88.2352941176","88.2352941176","808.176470588","808.176470588","black","experiment","legacy","legacy","legacy","0","uniform","1","undefined","1","left","16","0","16","16","0","0","16","16","0","0","16","16","16","16","0","10/16/21 18:24:29","The main experiment item","yes","SternbergTask.osexp","C:/Users/bryan/OneDrive/Documents/School/PSYC 5316  (Quant Methods)/Lab 3","no","mono","no","18","no","white","no","yes","768","legacy","4","11","C:/Users/bryan/OneDrive/Documents/School/PSYC 5316  (Quant Methods)/Lab 3/BS-subject-1.csv","legacy","3 5 4 7","Lentiform Loewenfeld","3.3.9","1","y","0","left","left","left","left","NA","632","27301","34671","632","NA","2","legacy","4","1024","2","48000","-16","experiment","1","odd","3","167297","30074","163949","165077","2763","140440","165081","80527","2771","105769","169306","166089","169938","169306","NA","Sternberg Task","15","13739","17","yes","1024"
"88.8888888889","88.8888888889","801.722222222","801.722222222","black","experiment","legacy","legacy","legacy","0","uniform","1","undefined","1","right","17","0","17","17","0","0","17","17","0","0","17","17","17","17","0","10/16/21 18:24:29","The main experiment item","yes","SternbergTask.osexp","C:/Users/bryan/OneDrive/Documents/School/PSYC 5316  (Quant Methods)/Lab 3","no","mono","no","18","no","white","no","yes","768","legacy","5","11","C:/Users/bryan/OneDrive/Documents/School/PSYC 5316  (Quant Methods)/Lab 3/BS-subject-1.csv","legacy","6 7 5 9","Lentiform Loewenfeld","3.3.9","0","n","0","right","left","left","right","NA","692","27301","34671","692","NA","2","legacy","4","1024","2","48000","-16","experiment","1","odd","2","173294","30074","169948","171074","2763","140440","171078","80527","2771","105769","175302","172086","175995","175302","NA","Sternberg Task","16","14431","18","yes","1024"
"89.4736842105","89.4736842105","817.842105263","817.842105263","black","experiment","legacy","legacy","legacy","0","uniform","1","undefined","1","left","18","0","18","18","0","0","18","18","0","0","18","18","18","18","0","10/16/21 18:24:29","The main experiment item","yes","SternbergTask.osexp","C:/Users/bryan/OneDrive/Documents/School/PSYC 5316  (Quant Methods)/Lab 3","no","mono","no","18","no","white","no","yes","768","legacy","6","11","C:/Users/bryan/OneDrive/Documents/School/PSYC 5316  (Quant Methods)/Lab 3/BS-subject-1.csv","legacy","5 7 8 2 3 8","Lentiform Loewenfeld","3.3.9","5","y","0","left","left","left","left","NA","1108","27301","34671","1108","NA","2","legacy","6","1024","2","48000","-16","experiment","1","odd","3","179361","30074","176005","177141","2763","140440","177145","80527","2771","105769","181369","178153","182478","181369","NA","Sternberg Task","17","15539","19","yes","1024"
"90","90","819.75","819.75","black","experiment","legacy","legacy","legacy","0","uniform","1","undefined","1","left","19","0","19","19","0","0","19","19","0","0","19","19","19","19","0","10/16/21 18:24:29","The main experiment item","yes","SternbergTask.osexp","C:/Users/bryan/OneDrive/Documents/School/PSYC 5316  (Quant Methods)/Lab 3","no","mono","no","18","no","white","no","yes","768","legacy","7","11","C:/Users/bryan/OneDrive/Documents/School/PSYC 5316  (Quant Methods)/Lab 3/BS-subject-1.csv","legacy","3 2 1 4 7","Lentiform Loewenfeld","3.3.9","2","y","0","left","left","left","left","NA","856","27301","34671","856","NA","2","legacy","5","1024","2","48000","-16","experiment","1","odd","2","185842","30074","182489","183622","2763","140440","183626","80527","2771","105769","187851","184634","188708","187850","NA","Sternberg Task","18","16395","20","yes","1024"
"90.4761904762","90.4761904762","811.666666667","811.666666667","black","experiment","legacy","legacy","legacy","0","uniform","1","undefined","1","right","20","0","20","20","0","0","20","20","0","0","20","20","20","20","0","10/16/21 18:24:29","The main experiment item","yes","SternbergTask.osexp","C:/Users/bryan/OneDrive/Documents/School/PSYC 5316  (Quant Methods)/Lab 3","no","mono","no","18","no","white","no","yes","768","legacy","8","11","C:/Users/bryan/OneDrive/Documents/School/PSYC 5316  (Quant Methods)/Lab 3/BS-subject-1.csv","legacy","1 5 3 2 8","Lentiform Loewenfeld","3.3.9","0","n","0","right","left","left","right","NA","650","27301","34671","650","NA","2","legacy","5","1024","2","48000","-16","experiment","1","odd","4","192077","30074","188715","189857","2763","140440","189860","80527","2771","105769","194086","190869","194737","194086","NA","Sternberg Task","19","17045","21","yes","1024"
"90.9090909091","90.9090909091","798.318181818","798.318181818","black","experiment","legacy","legacy","legacy","0","uniform","1","undefined","1","right","21","0","21","21","0","0","21","21","0","0","21","21","21","21","0","10/16/21 18:24:29","The main experiment item","yes","SternbergTask.osexp","C:/Users/bryan/OneDrive/Documents/School/PSYC 5316  (Quant Methods)/Lab 3","no","mono","no","18","no","white","no","yes","768","legacy","9","11","C:/Users/bryan/OneDrive/Documents/School/PSYC 5316  (Quant Methods)/Lab 3/BS-subject-1.csv","legacy","8 9","Lentiform Loewenfeld","3.3.9","0","n","0","right","left","left","right","NA","518","27301","34671","518","NA","2","legacy","2","1024","2","48000","-16","experiment","1","odd","5","198103","30074","194748","195888","2763","140440","195892","80527","2771","105769","200111","196900","200630","200111","NA","Sternberg Task","20","17563","22","yes","1024"
"91.3043478261","91.3043478261","794.956521739","794.956521739","black","experiment","legacy","legacy","legacy","0","uniform","1","undefined","1","left","22","0","22","22","0","0","22","22","0","0","22","22","22","22","0","10/16/21 18:24:29","The main experiment item","yes","SternbergTask.osexp","C:/Users/bryan/OneDrive/Documents/School/PSYC 5316  (Quant Methods)/Lab 3","no","mono","no","18","no","white","no","yes","768","legacy","10","11","C:/Users/bryan/OneDrive/Documents/School/PSYC 5316  (Quant Methods)/Lab 3/BS-subject-1.csv","legacy","3 5 9 6 2 4","Lentiform Loewenfeld","3.3.9","1","y","0","left","left","left","left","NA","721","27301","34671","721","NA","2","legacy","6","1024","2","48000","-16","experiment","1","odd","3","203995","30074","200640","201775","2763","140440","201779","80527","2771","105769","206004","202787","206726","206003","NA","Sternberg Task","21","18284","23","yes","1024"
"91.6666666667","91.6666666667","791.666666667","791.666666667","black","experiment","legacy","legacy","legacy","0","uniform","1","undefined","1","left","23","0","23","23","0","0","23","23","0","0","23","23","23","23","0","10/16/21 18:24:29","The main experiment item","yes","SternbergTask.osexp","C:/Users/bryan/OneDrive/Documents/School/PSYC 5316  (Quant Methods)/Lab 3","no","mono","no","18","no","white","no","yes","768","legacy","11","11","C:/Users/bryan/OneDrive/Documents/School/PSYC 5316  (Quant Methods)/Lab 3/BS-subject-1.csv","legacy","9 5 8 1","Lentiform Loewenfeld","3.3.9","2","y","0","left","left","left","left","NA","716","27301","34671","716","NA","2","legacy","4","1024","2","48000","-16","experiment","1","odd","5","210079","30074","206736","207864","2763","140440","207867","80527","2771","105769","212088","208876","212805","212088","NA","Sternberg Task","22","19000","24","yes","1024"
"92","92","786.4","786.4","black","experiment","legacy","legacy","legacy","0","uniform","1","undefined","1","left","24","0","24","24","0","0","24","24","0","0","24","24","24","24","0","10/16/21 18:24:29","The main experiment item","yes","SternbergTask.osexp","C:/Users/bryan/OneDrive/Documents/School/PSYC 5316  (Quant Methods)/Lab 3","no","mono","no","18","no","white","no","yes","768","legacy","12","11","C:/Users/bryan/OneDrive/Documents/School/PSYC 5316  (Quant Methods)/Lab 3/BS-subject-1.csv","legacy","9 1 7 2","Lentiform Loewenfeld","3.3.9","2","y","0","left","left","left","left","NA","660","27301","34671","660","NA","2","legacy","4","1024","2","48000","-16","experiment","1","odd","1","216172","30074","212815","213952","2763","140440","213955","80527","2771","105769","218180","214964","218841","218180","NA","Sternberg Task","23","19660","25","yes","1024"
"92.3076923077","92.3076923077","781.692307692","781.692307692","black","experiment","legacy","legacy","legacy","0","uniform","1","undefined","1","left","25","0","25","25","0","0","25","25","0","0","25","25","25","25","0","10/16/21 18:24:29","The main experiment item","yes","SternbergTask.osexp","C:/Users/bryan/OneDrive/Documents/School/PSYC 5316  (Quant Methods)/Lab 3","no","mono","no","18","no","white","no","yes","768","legacy","13","11","C:/Users/bryan/OneDrive/Documents/School/PSYC 5316  (Quant Methods)/Lab 3/BS-subject-1.csv","legacy","1 4 9 3 2 5","Lentiform Loewenfeld","3.3.9","3","y","0","left","left","left","left","NA","664","27301","34671","664","NA","2","legacy","6","1024","2","48000","-16","experiment","1","odd","9","222198","30074","218851","219978","2763","140440","219982","80527","2771","105769","224201","220990","224866","224201","NA","Sternberg Task","24","20324","26","yes","1024"
"92.5925925926","92.5925925926","784.740740741","784.740740741","black","experiment","legacy","legacy","legacy","0","uniform","1","undefined","1","right","26","0","26","26","0","0","26","26","0","0","26","26","26","26","0","10/16/21 18:24:29","The main experiment item","yes","SternbergTask.osexp","C:/Users/bryan/OneDrive/Documents/School/PSYC 5316  (Quant Methods)/Lab 3","no","mono","no","18","no","white","no","yes","768","legacy","14","11","C:/Users/bryan/OneDrive/Documents/School/PSYC 5316  (Quant Methods)/Lab 3/BS-subject-1.csv","legacy","1 7 5 2 9","Lentiform Loewenfeld","3.3.9","0","n","0","right","left","left","right","NA","864","27301","34671","864","NA","2","legacy","5","1024","2","48000","-16","experiment","1","odd","3","228234","30074","224876","226013","2763","140440","226017","80527","2771","105769","230244","227026","231109","230243","NA","Sternberg Task","25","21188","27","yes","1024"
"92.8571428571","92.8571428571","781.178571429","781.178571429","black","experiment","legacy","legacy","legacy","0","uniform","1","undefined","1","left","27","0","27","27","0","0","27","27","0","0","27","27","27","27","0","10/16/21 18:24:29","The main experiment item","yes","SternbergTask.osexp","C:/Users/bryan/OneDrive/Documents/School/PSYC 5316  (Quant Methods)/Lab 3","no","mono","no","18","no","white","no","yes","768","legacy","15","11","C:/Users/bryan/OneDrive/Documents/School/PSYC 5316  (Quant Methods)/Lab 3/BS-subject-1.csv","legacy","2 4 6 9","Lentiform Loewenfeld","3.3.9","3","y","0","left","left","left","left","NA","685","27301","34671","685","NA","2","legacy","4","1024","2","48000","-16","experiment","1","odd","6","234475","30074","231119","232255","2763","140440","232258","80527","2771","105769","236485","233267","237171","236484","NA","Sternberg Task","26","21873","28","yes","1024"
"93.1034482759","93.1034482759","779.655172414","779.655172414","black","experiment","legacy","legacy","legacy","0","uniform","1","undefined","1","right","28","0","28","28","0","0","28","28","0","0","28","28","28","28","0","10/16/21 18:24:29","The main experiment item","yes","SternbergTask.osexp","C:/Users/bryan/OneDrive/Documents/School/PSYC 5316  (Quant Methods)/Lab 3","no","mono","no","18","no","white","no","yes","768","legacy","16","11","C:/Users/bryan/OneDrive/Documents/School/PSYC 5316  (Quant Methods)/Lab 3/BS-subject-1.csv","legacy","2 3 8 5 6 7","Lentiform Loewenfeld","3.3.9","0","n","0","right","left","left","right","NA","737","27301","34671","737","NA","2","legacy","6","1024","2","48000","-16","experiment","1","odd","1","240535","30074","237180","238314","2763","140440","238318","80527","2771","105769","242544","239326","243282","242544","NA","Sternberg Task","27","22610","29","yes","1024"
"93.3333333333","93.3333333333","779.566666667","779.566666667","black","experiment","legacy","legacy","legacy","0","uniform","1","undefined","1","right","29","0","29","29","0","0","29","29","0","0","29","29","29","29","0","10/16/21 18:24:29","The main experiment item","yes","SternbergTask.osexp","C:/Users/bryan/OneDrive/Documents/School/PSYC 5316  (Quant Methods)/Lab 3","no","mono","no","18","no","white","no","yes","768","legacy","17","11","C:/Users/bryan/OneDrive/Documents/School/PSYC 5316  (Quant Methods)/Lab 3/BS-subject-1.csv","legacy","7 3 2 8","Lentiform Loewenfeld","3.3.9","0","n","0","right","left","left","right","NA","777","27301","34671","777","NA","2","legacy","4","1024","2","48000","-16","experiment","1","odd","4","246651","30074","243290","244431","2763","140440","244435","80527","2771","105769","248659","245443","249437","248659","NA","Sternberg Task","28","23387","30","yes","1024"
"93.5483870968","93.5483870968","773.709677419","773.709677419","black","experiment","legacy","legacy","legacy","0","uniform","1","undefined","1","left","30","0","30","30","0","0","30","30","0","0","30","30","30","30","0","10/16/21 18:24:29","The main experiment item","yes","SternbergTask.osexp","C:/Users/bryan/OneDrive/Documents/School/PSYC 5316  (Quant Methods)/Lab 3","no","mono","no","18","no","white","no","yes","768","legacy","18","11","C:/Users/bryan/OneDrive/Documents/School/PSYC 5316  (Quant Methods)/Lab 3/BS-subject-1.csv","legacy","3 9 6 2","Lentiform Loewenfeld","3.3.9","4","y","0","left","left","left","left","NA","598","27301","34671","598","NA","2","legacy","4","1024","2","48000","-16","experiment","1","odd","2","252797","30074","249447","250577","2763","140440","250580","80527","2771","105769","254807","251589","255406","254806","NA","Sternberg Task","29","23985","31","yes","1024"
"93.75","93.75","771.90625","771.90625","black","experiment","legacy","legacy","legacy","0","uniform","1","undefined","1","right","31","0","31","31","0","0","31","31","0","0","31","31","31","31","0","10/16/21 18:24:29","The main experiment item","yes","SternbergTask.osexp","C:/Users/bryan/OneDrive/Documents/School/PSYC 5316  (Quant Methods)/Lab 3","no","mono","no","18","no","white","no","yes","768","legacy","19","11","C:/Users/bryan/OneDrive/Documents/School/PSYC 5316  (Quant Methods)/Lab 3/BS-subject-1.csv","legacy","5 3 8 7 2 4","Lentiform Loewenfeld","3.3.9","0","n","0","right","left","left","right","NA","716","27301","34671","716","NA","2","legacy","6","1024","2","48000","-16","experiment","1","odd","9","258766","30074","255416","256545","2763","140440","256549","80527","2771","105769","260776","257557","261493","260775","NA","Sternberg Task","30","24701","32","yes","1024"
"93.9393939394","93.9393939394","772.424242424","772.424242424","black","experiment","legacy","legacy","legacy","0","uniform","1","undefined","1","right","32","0","32","32","0","0","32","32","0","0","32","32","32","32","0","10/16/21 18:24:29","The main experiment item","yes","SternbergTask.osexp","C:/Users/bryan/OneDrive/Documents/School/PSYC 5316  (Quant Methods)/Lab 3","no","mono","no","18","no","white","no","yes","768","legacy","20","11","C:/Users/bryan/OneDrive/Documents/School/PSYC 5316  (Quant Methods)/Lab 3/BS-subject-1.csv","legacy","6 3 1 7 9 8","Lentiform Loewenfeld","3.3.9","0","n","0","right","left","left","right","NA","789","27301","34671","789","NA","2","legacy","6","1024","2","48000","-16","experiment","1","odd","4","264864","30074","261503","262643","2763","140440","262647","80527","2771","105769","266873","263655","267663","266872","NA","Sternberg Task","31","25490","33","yes","1024"
"94.1176470588","94.1176470588","770.852941176","770.852941176","black","experiment","legacy","legacy","legacy","0","uniform","1","undefined","1","right","33","0","33","33","0","0","33","33","0","0","33","33","33","33","0","10/16/21 18:24:29","The main experiment item","yes","SternbergTask.osexp","C:/Users/bryan/OneDrive/Documents/School/PSYC 5316  (Quant Methods)/Lab 3","no","mono","no","18","no","white","no","yes","768","legacy","21","11","C:/Users/bryan/OneDrive/Documents/School/PSYC 5316  (Quant Methods)/Lab 3/BS-subject-1.csv","legacy","7 1 8 4 9 3","Lentiform Loewenfeld","3.3.9","0","n","0","right","left","left","right","NA","719","27301","34671","719","NA","2","legacy","6","1024","2","48000","-16","experiment","1","odd","6","271018","30074","267673","268802","2763","140440","268806","80527","2771","105769","273027","269810","273747","273027","NA","Sternberg Task","32","26209","34","yes","1024"
"94.2857142857","94.2857142857","767.028571429","767.028571429","black","experiment","legacy","legacy","legacy","0","uniform","1","undefined","1","right","34","0","34","34","0","0","34","34","0","0","34","34","34","34","0","10/16/21 18:24:29","The main experiment item","yes","SternbergTask.osexp","C:/Users/bryan/OneDrive/Documents/School/PSYC 5316  (Quant Methods)/Lab 3","no","mono","no","18","no","white","no","yes","768","legacy","22","11","C:/Users/bryan/OneDrive/Documents/School/PSYC 5316  (Quant Methods)/Lab 3/BS-subject-1.csv","legacy","6 9 5","Lentiform Loewenfeld","3.3.9","0","n","0","right","left","left","right","NA","637","27301","34671","637","NA","2","legacy","3","1024","2","48000","-16","experiment","1","odd","8","277123","30074","273757","274903","2763","140440","274907","80527","2771","105769","279133","275915","279771","279132","NA","Sternberg Task","33","26846","35","yes","1024"
"94.4444444444","94.4444444444","762.611111111","762.611111111","black","experiment","legacy","legacy","legacy","0","uniform","1","undefined","1","left","35","0","35","35","0","0","35","35","0","0","35","35","35","35","0","10/16/21 18:24:29","The main experiment item","yes","SternbergTask.osexp","C:/Users/bryan/OneDrive/Documents/School/PSYC 5316  (Quant Methods)/Lab 3","no","mono","no","18","no","white","no","yes","768","legacy","23","11","C:/Users/bryan/OneDrive/Documents/School/PSYC 5316  (Quant Methods)/Lab 3/BS-subject-1.csv","legacy","6 5","Lentiform Loewenfeld","3.3.9","2","y","0","left","left","left","left","NA","608","27301","34671","608","NA","2","legacy","2","1024","2","48000","-16","experiment","1","odd","5","283137","30074","279780","280916","2763","140440","280920","80527","2771","105769","285146","281928","285755","285146","NA","Sternberg Task","34","27454","36","yes","1024"
"94.5945945946","94.5945945946","758.513513514","758.513513514","black","experiment","legacy","legacy","legacy","0","uniform","1","undefined","1","right","36","0","36","36","0","0","36","36","0","0","36","36","36","36","0","10/16/21 18:24:29","The main experiment item","yes","SternbergTask.osexp","C:/Users/bryan/OneDrive/Documents/School/PSYC 5316  (Quant Methods)/Lab 3","no","mono","no","18","no","white","no","yes","768","legacy","24","11","C:/Users/bryan/OneDrive/Documents/School/PSYC 5316  (Quant Methods)/Lab 3/BS-subject-1.csv","legacy","7 1 5 6 3","Lentiform Loewenfeld","3.3.9","0","n","0","right","left","left","right","NA","611","27301","34671","611","NA","2","legacy","5","1024","2","48000","-16","experiment","1","odd","8","289127","30074","285765","286908","2763","140440","286912","80527","2771","105769","291136","287919","291748","291135","NA","Sternberg Task","35","28065","37","yes","1024"
"94.7368421053","94.7368421053","754.684210526","754.684210526","black","experiment","legacy","legacy","legacy","0","uniform","1","undefined","1","left","37","0","37","37","0","0","37","37","0","0","37","37","37","37","0","10/16/21 18:24:29","The main experiment item","yes","SternbergTask.osexp","C:/Users/bryan/OneDrive/Documents/School/PSYC 5316  (Quant Methods)/Lab 3","no","mono","no","18","no","white","no","yes","768","legacy","25","11","C:/Users/bryan/OneDrive/Documents/School/PSYC 5316  (Quant Methods)/Lab 3/BS-subject-1.csv","legacy","7 1 3","Lentiform Loewenfeld","3.3.9","2","y","0","left","left","left","left","NA","613","27301","34671","613","NA","2","legacy","3","1024","2","48000","-16","experiment","1","odd","1","295125","30074","291758","292905","2763","140440","292908","80527","2771","105769","297135","293916","297749","297134","NA","Sternberg Task","36","28678","38","yes","1024"
"94.8717948718","94.8717948718","748.948717949","748.948717949","black","experiment","legacy","legacy","legacy","0","uniform","1","undefined","1","right","38","0","38","38","0","0","38","38","0","0","38","38","38","38","0","10/16/21 18:24:29","The main experiment item","yes","SternbergTask.osexp","C:/Users/bryan/OneDrive/Documents/School/PSYC 5316  (Quant Methods)/Lab 3","no","mono","no","18","no","white","no","yes","768","legacy","26","11","C:/Users/bryan/OneDrive/Documents/School/PSYC 5316  (Quant Methods)/Lab 3/BS-subject-1.csv","legacy","5","Lentiform Loewenfeld","3.3.9","0","n","0","right","left","left","right","NA","531","27301","34671","531","NA","2","legacy","1","1024","2","48000","-16","experiment","1","odd","8","301106","30074","297759","298886","2763","140440","298890","80527","2771","105769","303115","299898","303647","303115","NA","Sternberg Task","37","29209","39","yes","1024"
"95","95","746.475","746.475","black","experiment","legacy","legacy","legacy","0","uniform","1","undefined","1","left","39","0","39","39","0","0","39","39","0","0","39","39","39","39","0","10/16/21 18:24:29","The main experiment item","yes","SternbergTask.osexp","C:/Users/bryan/OneDrive/Documents/School/PSYC 5316  (Quant Methods)/Lab 3","no","mono","no","18","no","white","no","yes","768","legacy","27","11","C:/Users/bryan/OneDrive/Documents/School/PSYC 5316  (Quant Methods)/Lab 3/BS-subject-1.csv","legacy","8 3","Lentiform Loewenfeld","3.3.9","2","y","0","left","left","left","left","NA","650","27301","34671","650","NA","2","legacy","2","1024","2","48000","-16","experiment","1","odd","3","307010","30074","303658","304790","2763","140440","304794","80527","2771","105769","309019","305802","309670","309018","NA","Sternberg Task","38","29859","40","yes","1024"
"95.1219512195","95.1219512195","744.56097561","744.56097561","black","experiment","legacy","legacy","legacy","0","uniform","1","undefined","1","left","40","0","40","40","0","0","40","40","0","0","40","40","40","40","0","10/16/21 18:24:29","The main experiment item","yes","SternbergTask.osexp","C:/Users/bryan/OneDrive/Documents/School/PSYC 5316  (Quant Methods)/Lab 3","no","mono","no","18","no","white","no","yes","768","legacy","28","11","C:/Users/bryan/OneDrive/Documents/School/PSYC 5316  (Quant Methods)/Lab 3/BS-subject-1.csv","legacy","3 4 9 6 2 9","Lentiform Loewenfeld","3.3.9","5","y","0","left","left","left","left","NA","668","27301","34671","668","NA","2","legacy","6","1024","2","48000","-16","experiment","1","odd","2","313031","30074","309680","310811","2763","140440","310814","80527","2771","105769","315041","311823","315710","315040","NA","Sternberg Task","39","30527","41","yes","1024"
"95.2380952381","95.2380952381","749.738095238","749.738095238","black","experiment","legacy","legacy","legacy","0","uniform","1","undefined","1","right","41","0","41","41","0","0","41","41","0","0","41","41","41","41","0","10/16/21 18:24:29","The main experiment item","yes","SternbergTask.osexp","C:/Users/bryan/OneDrive/Documents/School/PSYC 5316  (Quant Methods)/Lab 3","no","mono","no","18","no","white","no","yes","768","legacy","29","11","C:/Users/bryan/OneDrive/Documents/School/PSYC 5316  (Quant Methods)/Lab 3/BS-subject-1.csv","legacy","3 9 1","Lentiform Loewenfeld","3.3.9","0","n","0","right","left","left","right","NA","962","27301","34671","962","NA","2","legacy","3","1024","2","48000","-16","experiment","1","odd","7","319071","30074","315721","316850","2763","140440","316854","80527","2771","105769","321081","317863","322045","321080","NA","Sternberg Task","40","31489","42","yes","1024"
"95.3488372093","95.3488372093","757.069767442","757.069767442","black","experiment","legacy","legacy","legacy","0","uniform","1","undefined","1","left","42","0","42","42","0","0","42","42","0","0","42","42","42","42","0","10/16/21 18:24:29","The main experiment item","yes","SternbergTask.osexp","C:/Users/bryan/OneDrive/Documents/School/PSYC 5316  (Quant Methods)/Lab 3","no","mono","no","18","no","white","no","yes","768","legacy","30","11","C:/Users/bryan/OneDrive/Documents/School/PSYC 5316  (Quant Methods)/Lab 3/BS-subject-1.csv","legacy","6 2","Lentiform Loewenfeld","3.3.9","1","y","0","left","left","left","left","NA","1065","27301","34671","1065","NA","2","legacy","2","1024","2","48000","-16","experiment","1","odd","6","325406","30074","322053","323186","2763","140440","323190","80527","2771","105769","327415","324198","328481","327415","NA","Sternberg Task","41","32554","43","yes","1024"
"95.4545454545","95.4545454545","755.340909091","755.340909091","black","experiment","legacy","legacy","legacy","0","uniform","1","undefined","1","right","43","0","43","43","0","0","43","43","0","0","43","43","43","43","0","10/16/21 18:24:29","The main experiment item","yes","SternbergTask.osexp","C:/Users/bryan/OneDrive/Documents/School/PSYC 5316  (Quant Methods)/Lab 3","no","mono","no","18","no","white","no","yes","768","legacy","31","11","C:/Users/bryan/OneDrive/Documents/School/PSYC 5316  (Quant Methods)/Lab 3/BS-subject-1.csv","legacy","1 8 7","Lentiform Loewenfeld","3.3.9","0","n","0","right","left","left","right","NA","681","27301","34671","681","NA","2","legacy","3","1024","2","48000","-16","experiment","1","odd","4","331838","30074","328489","329617","2763","140440","329621","80527","2771","105769","333847","330629","334530","333846","NA","Sternberg Task","42","33235","44","yes","1024"
"95.5555555556","95.5555555556","753.955555556","753.955555556","black","experiment","legacy","legacy","legacy","0","uniform","1","undefined","1","left","44","0","44","44","0","0","44","44","0","0","44","44","44","44","0","10/16/21 18:24:29","The main experiment item","yes","SternbergTask.osexp","C:/Users/bryan/OneDrive/Documents/School/PSYC 5316  (Quant Methods)/Lab 3","no","mono","no","18","no","white","no","yes","768","legacy","32","11","C:/Users/bryan/OneDrive/Documents/School/PSYC 5316  (Quant Methods)/Lab 3/BS-subject-1.csv","legacy","9 8 4","Lentiform Loewenfeld","3.3.9","1","y","0","left","left","left","left","NA","693","27301","34671","693","NA","2","legacy","3","1024","2","48000","-16","experiment","1","odd","9","337890","30074","334538","335669","2763","140440","335673","80527","2771","105769","339899","336681","340594","339898","NA","Sternberg Task","43","33928","45","yes","1024"
"95.652173913","95.652173913","751.630434783","751.630434783","black","experiment","legacy","legacy","legacy","0","uniform","1","undefined","1","right","45","0","45","45","0","0","45","45","0","0","45","45","45","45","0","10/16/21 18:24:29","The main experiment item","yes","SternbergTask.osexp","C:/Users/bryan/OneDrive/Documents/School/PSYC 5316  (Quant Methods)/Lab 3","no","mono","no","18","no","white","no","yes","768","legacy","33","11","C:/Users/bryan/OneDrive/Documents/School/PSYC 5316  (Quant Methods)/Lab 3/BS-subject-1.csv","legacy","8 6 3 4 7","Lentiform Loewenfeld","3.3.9","0","n","0","right","left","left","right","NA","647","27301","34671","647","NA","2","legacy","5","1024","2","48000","-16","experiment","1","odd","1","343952","30074","340602","341732","2763","140440","341736","80527","2771","105769","345961","342744","346609","345960","NA","Sternberg Task","44","34575","46","yes","1024"
"95.7446808511","95.7446808511","751.680851064","751.680851064","black","experiment","legacy","legacy","legacy","0","uniform","1","undefined","1","left","46","0","46","46","0","0","46","46","0","0","46","46","46","46","0","10/16/21 18:24:29","The main experiment item","yes","SternbergTask.osexp","C:/Users/bryan/OneDrive/Documents/School/PSYC 5316  (Quant Methods)/Lab 3","no","mono","no","18","no","white","no","yes","768","legacy","34","11","C:/Users/bryan/OneDrive/Documents/School/PSYC 5316  (Quant Methods)/Lab 3/BS-subject-1.csv","legacy","3 5 7 1","Lentiform Loewenfeld","3.3.9","3","y","0","left","left","left","left","NA","754","27301","34671","754","NA","2","legacy","4","1024","2","48000","-16","experiment","1","odd","7","349977","30074","346618","347756","2763","140440","347760","80527","2771","105769","351986","348768","352741","351986","NA","Sternberg Task","45","35329","47","yes","1024"
"95.8333333333","95.8333333333","750.833333333","750.833333333","black","experiment","legacy","legacy","legacy","0","uniform","1","undefined","1","left","47","0","47","47","0","0","47","47","0","0","47","47","47","47","0","10/16/21 18:24:29","The main experiment item","yes","SternbergTask.osexp","C:/Users/bryan/OneDrive/Documents/School/PSYC 5316  (Quant Methods)/Lab 3","no","mono","no","18","no","white","no","yes","768","legacy","35","11","C:/Users/bryan/OneDrive/Documents/School/PSYC 5316  (Quant Methods)/Lab 3/BS-subject-1.csv","legacy","3 9 7 6 4","Lentiform Loewenfeld","3.3.9","3","y","0","left","left","left","left","NA","711","27301","34671","711","NA","2","legacy","5","1024","2","48000","-16","experiment","1","odd","7","356100","30074","352751","353880","2763","140440","353884","80527","2771","105769","358110","354892","358822","358109","NA","Sternberg Task","46","36040","48","yes","1024"
"95.9183673469","95.9183673469","757.693877551","757.693877551","black","experiment","legacy","legacy","legacy","0","uniform","1","undefined","1","right","48","0","48","48","0","0","48","48","0","0","48","48","48","48","0","10/16/21 18:24:29","The main experiment item","yes","SternbergTask.osexp","C:/Users/bryan/OneDrive/Documents/School/PSYC 5316  (Quant Methods)/Lab 3","no","mono","no","18","no","white","no","yes","768","legacy","36","11","C:/Users/bryan/OneDrive/Documents/School/PSYC 5316  (Quant Methods)/Lab 3/BS-subject-1.csv","legacy","8 4 3 9","Lentiform Loewenfeld","3.3.9","0","n","0","right","left","left","right","NA","1087","27301","34671","1087","NA","2","legacy","4","1024","2","48000","-16","experiment","1","odd","5","362185","30074","358830","359965","2763","140440","359969","80527","2771","105769","364194","360977","365282","364193","NA","Sternberg Task","47","37127","49","yes","1024"
"96","96","756.78","756.78","black","experiment","legacy","legacy","legacy","0","uniform","1","undefined","1","left","49","0","49","49","0","0","49","49","0","0","49","49","49","49","0","10/16/21 18:24:29","The main experiment item","yes","SternbergTask.osexp","C:/Users/bryan/OneDrive/Documents/School/PSYC 5316  (Quant Methods)/Lab 3","no","mono","no","18","no","white","no","yes","768","legacy","37","11","C:/Users/bryan/OneDrive/Documents/School/PSYC 5316  (Quant Methods)/Lab 3/BS-subject-1.csv","legacy","8 5 3 7 4 6","Lentiform Loewenfeld","3.3.9","6","y","0","left","left","left","left","NA","712","27301","34671","712","NA","2","legacy","6","1024","2","48000","-16","experiment","1","odd","6","368635","30074","365291","366419","2763","140440","366424","80527","2771","105769","370643","367432","371356","370643","NA","Sternberg Task","48","37839","50","yes","1024"
"96.0784313725","96.0784313725","753.176470588","753.176470588","black","experiment","legacy","legacy","legacy","0","uniform","1","undefined","1","left","50","0","50","50","0","0","50","50","0","0","50","50","50","50","0","10/16/21 18:24:29","The main experiment item","yes","SternbergTask.osexp","C:/Users/bryan/OneDrive/Documents/School/PSYC 5316  (Quant Methods)/Lab 3","no","mono","no","18","no","white","no","yes","768","legacy","38","11","C:/Users/bryan/OneDrive/Documents/School/PSYC 5316  (Quant Methods)/Lab 3/BS-subject-1.csv","legacy","4 1 5","Lentiform Loewenfeld","3.3.9","2","y","0","left","left","left","left","NA","573","27301","34671","573","NA","2","legacy","3","1024","2","48000","-16","experiment","1","odd","1","374714","30074","371366","372503","2763","140440","372507","80527","2771","105769","376717","373510","377291","376717","NA","Sternberg Task","49","38412","51","yes","1024"
"96.1538461538","96.1538461538","750.038461538","750.038461538","black","experiment","legacy","legacy","legacy","0","uniform","1","undefined","1","left","51","0","51","51","0","0","51","51","0","0","51","51","51","51","0","10/16/21 18:24:29","The main experiment item","yes","SternbergTask.osexp","C:/Users/bryan/OneDrive/Documents/School/PSYC 5316  (Quant Methods)/Lab 3","no","mono","no","18","no","white","no","yes","768","legacy","39","11","C:/Users/bryan/OneDrive/Documents/School/PSYC 5316  (Quant Methods)/Lab 3/BS-subject-1.csv","legacy","8 5 4 7 3 1","Lentiform Loewenfeld","3.3.9","2","y","0","left","left","left","left","NA","590","27301","34671","590","NA","2","legacy","6","1024","2","48000","-16","experiment","1","odd","5","380657","30074","377301","378442","2763","140440","378445","80527","2771","105769","382667","379454","383259","382666","NA","Sternberg Task","50","39002","52","yes","1024"
"96.2264150943","96.2264150943","747.132075472","747.132075472","black","experiment","legacy","legacy","legacy","0","uniform","1","undefined","1","left","52","0","52","52","0","0","52","52","0","0","52","52","52","52","0","10/16/21 18:24:29","The main experiment item","yes","SternbergTask.osexp","C:/Users/bryan/OneDrive/Documents/School/PSYC 5316  (Quant Methods)/Lab 3","no","mono","no","18","no","white","no","yes","768","legacy","40","11","C:/Users/bryan/OneDrive/Documents/School/PSYC 5316  (Quant Methods)/Lab 3/BS-subject-1.csv","legacy","2 4 8 5 1 3","Lentiform Loewenfeld","3.3.9","1","y","0","left","left","left","left","NA","596","27301","34671","596","NA","2","legacy","6","1024","2","48000","-16","experiment","1","odd","2","386613","30074","383269","384397","2763","140440","384401","80527","2771","105769","388622","385409","389219","388621","NA","Sternberg Task","51","39598","53","yes","1024"
"96.2962962963","96.2962962963","746.314814815","746.314814815","black","experiment","legacy","legacy","legacy","0","uniform","1","undefined","1","right","53","0","53","53","0","0","53","53","0","0","53","53","53","53","0","10/16/21 18:24:29","The main experiment item","yes","SternbergTask.osexp","C:/Users/bryan/OneDrive/Documents/School/PSYC 5316  (Quant Methods)/Lab 3","no","mono","no","18","no","white","no","yes","768","legacy","41","11","C:/Users/bryan/OneDrive/Documents/School/PSYC 5316  (Quant Methods)/Lab 3/BS-subject-1.csv","legacy","8 2 1 4 5 9","Lentiform Loewenfeld","3.3.9","0","n","0","right","left","left","right","NA","703","27301","34671","703","NA","2","legacy","6","1024","2","48000","-16","experiment","1","odd","7","392577","30074","389228","390357","2763","140440","390361","80527","2771","105769","394587","391369","395291","394586","NA","Sternberg Task","52","40301","54","yes","1024"
"96.3636363636","96.3636363636","745.418181818","745.418181818","black","experiment","legacy","legacy","legacy","0","uniform","1","undefined","1","left","54","0","54","54","0","0","54","54","0","0","54","54","54","54","0","10/16/21 18:24:29","The main experiment item","yes","SternbergTask.osexp","C:/Users/bryan/OneDrive/Documents/School/PSYC 5316  (Quant Methods)/Lab 3","no","mono","no","18","no","white","no","yes","768","legacy","42","11","C:/Users/bryan/OneDrive/Documents/School/PSYC 5316  (Quant Methods)/Lab 3/BS-subject-1.csv","legacy","7 8 6 3 1","Lentiform Loewenfeld","3.3.9","5","y","0","left","left","left","left","NA","697","27301","34671","697","NA","2","legacy","5","1024","2","48000","-16","experiment","1","odd","1","398652","30074","395301","396432","2763","140440","396435","80527","2771","105769","400660","397444","401358","400660","NA","Sternberg Task","53","40998","55","yes","1024"
"96.4285714286","96.4285714286","741.5","741.5","black","experiment","legacy","legacy","legacy","0","uniform","1","undefined","1","right","55","0","55","55","0","0","55","55","0","0","55","55","55","55","0","10/16/21 18:24:29","The main experiment item","yes","SternbergTask.osexp","C:/Users/bryan/OneDrive/Documents/School/PSYC 5316  (Quant Methods)/Lab 3","no","mono","no","18","no","white","no","yes","768","legacy","43","11","C:/Users/bryan/OneDrive/Documents/School/PSYC 5316  (Quant Methods)/Lab 3/BS-subject-1.csv","legacy","3 4 2","Lentiform Loewenfeld","3.3.9","0","n","0","right","left","left","right","NA","526","27301","34671","526","NA","2","legacy","3","1024","2","48000","-16","experiment","1","odd","5","404720","30074","401368","402505","2763","140440","402509","80527","2771","105769","406729","403512","407256","406729","NA","Sternberg Task","54","41524","56","yes","1024"
"96.4912280702","96.4912280702","745.912280702","745.912280702","black","experiment","legacy","legacy","legacy","0","uniform","1","undefined","1","left","56","0","56","56","0","0","56","56","0","0","56","56","56","56","0","10/16/21 18:24:29","The main experiment item","yes","SternbergTask.osexp","C:/Users/bryan/OneDrive/Documents/School/PSYC 5316  (Quant Methods)/Lab 3","no","mono","no","18","no","white","no","yes","768","legacy","44","11","C:/Users/bryan/OneDrive/Documents/School/PSYC 5316  (Quant Methods)/Lab 3/BS-subject-1.csv","legacy","9 5 3 8 4","Lentiform Loewenfeld","3.3.9","1","y","0","left","left","left","left","NA","993","27301","34671","993","NA","2","legacy","5","1024","2","48000","-16","experiment","1","odd","9","410630","30074","407267","408410","2763","140440","408414","80527","2771","105769","412639","409422","413633","412639","NA","Sternberg Task","55","42517","57","yes","1024"
"96.5517241379","96.5517241379","743.827586207","743.827586207","black","experiment","legacy","legacy","legacy","0","uniform","1","undefined","1","left","57","0","57","57","0","0","57","57","0","0","57","57","57","57","0","10/16/21 18:24:29","The main experiment item","yes","SternbergTask.osexp","C:/Users/bryan/OneDrive/Documents/School/PSYC 5316  (Quant Methods)/Lab 3","no","mono","no","18","no","white","no","yes","768","legacy","45","11","C:/Users/bryan/OneDrive/Documents/School/PSYC 5316  (Quant Methods)/Lab 3/BS-subject-1.csv","legacy","2 3","Lentiform Loewenfeld","3.3.9","1","y","0","left","left","left","left","NA","625","27301","34671","625","NA","2","legacy","2","1024","2","48000","-16","experiment","1","odd","2","416997","30074","413643","414776","2763","140440","414779","80527","2771","105769","419005","415788","419632","419005","NA","Sternberg Task","56","43142","58","yes","1024"
"96.6101694915","96.6101694915","741.084745763","741.084745763","black","experiment","legacy","legacy","legacy","0","uniform","1","undefined","1","right","58","0","58","58","0","0","58","58","0","0","58","58","58","58","0","10/16/21 18:24:29","The main experiment item","yes","SternbergTask.osexp","C:/Users/bryan/OneDrive/Documents/School/PSYC 5316  (Quant Methods)/Lab 3","no","mono","no","18","no","white","no","yes","768","legacy","46","11","C:/Users/bryan/OneDrive/Documents/School/PSYC 5316  (Quant Methods)/Lab 3/BS-subject-1.csv","legacy","4 8 1 2","Lentiform Loewenfeld","3.3.9","0","n","0","right","left","left","right","NA","582","27301","34671","582","NA","2","legacy","4","1024","2","48000","-16","experiment","1","odd","7","422992","30074","419642","420772","2763","140440","420775","80527","2771","105769","425000","421784","425583","425000","NA","Sternberg Task","57","43724","59","yes","1024"
"96.6666666667","96.6666666667","740.683333333","740.683333333","black","experiment","legacy","legacy","legacy","0","uniform","1","undefined","1","left","59","0","59","59","0","0","59","59","0","0","59","59","59","59","0","10/16/21 18:24:29","The main experiment item","yes","SternbergTask.osexp","C:/Users/bryan/OneDrive/Documents/School/PSYC 5316  (Quant Methods)/Lab 3","no","mono","no","18","no","white","no","yes","768","legacy","47","11","C:/Users/bryan/OneDrive/Documents/School/PSYC 5316  (Quant Methods)/Lab 3/BS-subject-1.csv","legacy","6 9 3 1","Lentiform Loewenfeld","3.3.9","4","y","0","left","left","left","left","NA","717","27301","34671","717","NA","2","legacy","4","1024","2","48000","-16","experiment","1","odd","1","428941","30074","425593","426723","2763","140440","426729","80527","2771","105769","430950","427737","431668","430949","NA","Sternberg Task","58","44441","60","yes","1024"
"96.7213114754","96.7213114754","738.62295082","738.62295082","black","experiment","legacy","legacy","legacy","0","uniform","1","undefined","1","left","60","0","60","60","0","0","60","60","0","0","60","60","60","60","0","10/16/21 18:24:29","The main experiment item","yes","SternbergTask.osexp","C:/Users/bryan/OneDrive/Documents/School/PSYC 5316  (Quant Methods)/Lab 3","no","mono","no","18","no","white","no","yes","768","legacy","48","11","C:/Users/bryan/OneDrive/Documents/School/PSYC 5316  (Quant Methods)/Lab 3/BS-subject-1.csv","legacy","8 7 3","Lentiform Loewenfeld","3.3.9","1","y","0","left","left","left","left","NA","615","27301","34671","615","NA","2","legacy","3","1024","2","48000","-16","experiment","1","odd","8","435025","30074","431679","432809","2763","140440","432813","80527","2771","105769","437033","433821","437649","437033","NA","Sternberg Task","59","45056","61","yes","1024"
"96.7741935484","96.7741935484","738.806451613","738.806451613","black","experiment","legacy","legacy","legacy","0","uniform","1","undefined","1","left","61","0","61","61","0","0","61","61","0","0","61","61","61","61","0","10/16/21 18:24:29","The main experiment item","yes","SternbergTask.osexp","C:/Users/bryan/OneDrive/Documents/School/PSYC 5316  (Quant Methods)/Lab 3","no","mono","no","18","no","white","no","yes","768","legacy","49","11","C:/Users/bryan/OneDrive/Documents/School/PSYC 5316  (Quant Methods)/Lab 3/BS-subject-1.csv","legacy","6 9 7 4 5 1","Lentiform Loewenfeld","3.3.9","2","y","0","left","left","left","left","NA","750","27301","34671","750","NA","2","legacy","6","1024","2","48000","-16","experiment","1","odd","9","441024","30074","437659","438803","2763","140440","438806","80527","2771","105769","443034","439815","443785","443033","NA","Sternberg Task","60","45806","62","yes","1024"
"96.8253968254","96.8253968254","739.714285714","739.714285714","black","experiment","legacy","legacy","legacy","0","uniform","1","undefined","1","right","62","0","62","62","0","0","62","62","0","0","62","62","62","62","0","10/16/21 18:24:29","The main experiment item","yes","SternbergTask.osexp","C:/Users/bryan/OneDrive/Documents/School/PSYC 5316  (Quant Methods)/Lab 3","no","mono","no","18","no","white","no","yes","768","legacy","50","11","C:/Users/bryan/OneDrive/Documents/School/PSYC 5316  (Quant Methods)/Lab 3/BS-subject-1.csv","legacy","5 9 2 3","Lentiform Loewenfeld","3.3.9","0","n","0","right","left","left","right","NA","796","27301","34671","796","NA","2","legacy","4","1024","2","48000","-16","experiment","1","odd","8","447141","30074","443792","444921","2763","140440","444924","80527","2771","105769","449149","445932","449947","449149","NA","Sternberg Task","61","46602","63","yes","1024"
"96.875","96.875","739.28125","739.28125","black","experiment","legacy","legacy","legacy","0","uniform","1","undefined","1","right","63","0","63","63","0","0","63","63","0","0","63","63","63","63","0","10/16/21 18:24:29","The main experiment item","yes","SternbergTask.osexp","C:/Users/bryan/OneDrive/Documents/School/PSYC 5316  (Quant Methods)/Lab 3","no","mono","no","18","no","white","no","yes","768","legacy","51","11","C:/Users/bryan/OneDrive/Documents/School/PSYC 5316  (Quant Methods)/Lab 3/BS-subject-1.csv","legacy","1 4 9 3","Lentiform Loewenfeld","3.3.9","0","n","0","right","left","left","right","NA","712","27301","34671","712","NA","2","legacy","4","1024","2","48000","-16","experiment","1","odd","5","453306","30074","449955","451085","2763","140440","451089","80527","2771","105769","455315","452097","456028","455314","NA","Sternberg Task","62","47314","64","yes","1024"
"96.9230769231","96.9230769231","737.907692308","737.907692308","black","experiment","legacy","legacy","legacy","0","uniform","1","undefined","1","right","64","0","64","64","0","0","64","64","0","0","64","64","64","64","0","10/16/21 18:24:29","The main experiment item","yes","SternbergTask.osexp","C:/Users/bryan/OneDrive/Documents/School/PSYC 5316  (Quant Methods)/Lab 3","no","mono","no","18","no","white","no","yes","768","legacy","52","11","C:/Users/bryan/OneDrive/Documents/School/PSYC 5316  (Quant Methods)/Lab 3/BS-subject-1.csv","legacy","6 8","Lentiform Loewenfeld","3.3.9","0","n","0","right","left","left","right","NA","650","27301","34671","650","NA","2","legacy","2","1024","2","48000","-16","experiment","1","odd","9","459387","30074","456038","457167","2763","140440","457171","80527","2771","105769","461396","458179","462047","461396","NA","Sternberg Task","63","47964","65","yes","1024"
"96.9696969697","96.9696969697","737.863636364","737.863636364","black","experiment","legacy","legacy","legacy","0","uniform","1","undefined","1","left","65","0","65","65","0","0","65","65","0","0","65","65","65","65","0","10/16/21 18:24:29","The main experiment item","yes","SternbergTask.osexp","C:/Users/bryan/OneDrive/Documents/School/PSYC 5316  (Quant Methods)/Lab 3","no","mono","no","18","no","white","no","yes","768","legacy","53","11","C:/Users/bryan/OneDrive/Documents/School/PSYC 5316  (Quant Methods)/Lab 3/BS-subject-1.csv","legacy","8","Lentiform Loewenfeld","3.3.9","1","y","0","left","left","left","left","NA","735","27301","34671","735","NA","2","legacy","1","1024","2","48000","-16","experiment","1","odd","8","465412","30074","462054","463192","2763","140440","463196","80527","2771","105769","467421","464204","468158","467420","NA","Sternberg Task","64","48699","66","yes","1024"
"97.0149253731","97.0149253731","736.940298507","736.940298507","black","experiment","legacy","legacy","legacy","0","uniform","1","undefined","1","right","66","0","66","66","0","0","66","66","0","0","66","66","66","66","0","10/16/21 18:24:29","The main experiment item","yes","SternbergTask.osexp","C:/Users/bryan/OneDrive/Documents/School/PSYC 5316  (Quant Methods)/Lab 3","no","mono","no","18","no","white","no","yes","768","legacy","54","11","C:/Users/bryan/OneDrive/Documents/School/PSYC 5316  (Quant Methods)/Lab 3/BS-subject-1.csv","legacy","6 8 4","Lentiform Loewenfeld","3.3.9","0","n","0","right","left","left","right","NA","676","27301","34671","676","NA","2","legacy","3","1024","2","48000","-16","experiment","1","odd","1","471516","30074","468166","469296","2763","140440","469300","80527","2771","105769","473525","470308","474202","473524","NA","Sternberg Task","65","49375","67","yes","1024"
"97.0588235294","97.0588235294","737.867647059","737.867647059","black","experiment","legacy","legacy","legacy","0","uniform","1","undefined","1","left","67","0","67","67","0","0","67","67","0","0","67","67","67","67","0","10/16/21 18:24:29","The main experiment item","yes","SternbergTask.osexp","C:/Users/bryan/OneDrive/Documents/School/PSYC 5316  (Quant Methods)/Lab 3","no","mono","no","18","no","white","no","yes","768","legacy","55","11","C:/Users/bryan/OneDrive/Documents/School/PSYC 5316  (Quant Methods)/Lab 3/BS-subject-1.csv","legacy","6 7 8 5","Lentiform Loewenfeld","3.3.9","3","y","0","left","left","left","left","NA","800","27301","34671","800","NA","2","legacy","4","1024","2","48000","-16","experiment","1","odd","8","477561","30074","474212","475341","2763","140440","475345","80527","2771","105769","479571","476353","480372","479570","NA","Sternberg Task","66","50175","68","yes","1024"
"97.1014492754","97.1014492754","740.333333333","740.333333333","black","experiment","legacy","legacy","legacy","0","uniform","1","undefined","1","right","68","0","68","68","0","0","68","68","0","0","68","68","68","68","0","10/16/21 18:24:29","The main experiment item","yes","SternbergTask.osexp","C:/Users/bryan/OneDrive/Documents/School/PSYC 5316  (Quant Methods)/Lab 3","no","mono","no","18","no","white","no","yes","768","legacy","56","11","C:/Users/bryan/OneDrive/Documents/School/PSYC 5316  (Quant Methods)/Lab 3/BS-subject-1.csv","legacy","7 9 1 6","Lentiform Loewenfeld","3.3.9","0","n","0","right","left","left","right","NA","908","27301","34671","908","NA","2","legacy","4","1024","2","48000","-16","experiment","1","odd","4","483742","30074","480382","481522","2763","140440","481526","80527","2771","105769","485751","482534","486660","485750","NA","Sternberg Task","67","51083","69","yes","1024"
"97.1428571429","97.1428571429","739.514285714","739.514285714","black","experiment","legacy","legacy","legacy","0","uniform","1","undefined","1","right","69","0","69","69","0","0","69","69","0","0","69","69","69","69","0","10/16/21 18:24:29","The main experiment item","yes","SternbergTask.osexp","C:/Users/bryan/OneDrive/Documents/School/PSYC 5316  (Quant Methods)/Lab 3","no","mono","no","18","no","white","no","yes","768","legacy","57","11","C:/Users/bryan/OneDrive/Documents/School/PSYC 5316  (Quant Methods)/Lab 3/BS-subject-1.csv","legacy","2 7 5","Lentiform Loewenfeld","3.3.9","0","n","0","right","left","left","right","NA","683","27301","34671","683","NA","2","legacy","3","1024","2","48000","-16","experiment","1","odd","8","490035","30074","486670","487816","2763","140440","487819","80527","2771","105769","492043","488827","492728","492043","NA","Sternberg Task","68","51766","70","yes","1024"
"97.1830985915","97.1830985915","742.492957746","742.492957746","black","experiment","legacy","legacy","legacy","0","uniform","1","undefined","1","right","70","0","70","70","0","0","70","70","0","0","70","70","70","70","0","10/16/21 18:24:29","The main experiment item","yes","SternbergTask.osexp","C:/Users/bryan/OneDrive/Documents/School/PSYC 5316  (Quant Methods)/Lab 3","no","mono","no","18","no","white","no","yes","768","legacy","58","11","C:/Users/bryan/OneDrive/Documents/School/PSYC 5316  (Quant Methods)/Lab 3/BS-subject-1.csv","legacy","2 5 1 4","Lentiform Loewenfeld","3.3.9","0","n","0","right","left","left","right","NA","951","27301","34671","951","NA","2","legacy","4","1024","2","48000","-16","experiment","1","odd","6","496095","30074","492736","493880","2763","140440","493884","80527","2771","105769","498104","494892","499057","498103","NA","Sternberg Task","69","52717","71","yes","1024"
"97.2222222222","97.2222222222","749.277777778","749.277777778","black","experiment","legacy","legacy","legacy","0","uniform","1","undefined","1","left","71","0","71","71","0","0","71","71","0","0","71","71","71","71","0","10/16/21 18:24:29","The main experiment item","yes","SternbergTask.osexp","C:/Users/bryan/OneDrive/Documents/School/PSYC 5316  (Quant Methods)/Lab 3","no","mono","no","18","no","white","no","yes","768","legacy","59","11","C:/Users/bryan/OneDrive/Documents/School/PSYC 5316  (Quant Methods)/Lab 3/BS-subject-1.csv","legacy","4 1 8 7 5","Lentiform Loewenfeld","3.3.9","3","y","0","left","left","left","left","NA","1231","27301","34671","1231","NA","2","legacy","5","1024","2","48000","-16","experiment","1","odd","8","502424","30074","499064","500208","2763","140440","500212","80527","2771","105769","504433","501221","505666","504432","NA","Sternberg Task","70","53948","72","yes","1024"
"97.2602739726","97.2602739726","748.780821918","748.780821918","black","experiment","legacy","legacy","legacy","0","uniform","1","undefined","1","right","72","0","72","72","0","0","72","72","0","0","72","72","72","72","0","10/16/21 18:24:29","The main experiment item","yes","SternbergTask.osexp","C:/Users/bryan/OneDrive/Documents/School/PSYC 5316  (Quant Methods)/Lab 3","no","mono","no","18","no","white","no","yes","768","legacy","60","11","C:/Users/bryan/OneDrive/Documents/School/PSYC 5316  (Quant Methods)/Lab 3/BS-subject-1.csv","legacy","6 2 9 3 8 4","Lentiform Loewenfeld","3.3.9","0","n","0","right","left","left","right","NA","713","27301","34671","713","NA","2","legacy","6","1024","2","48000","-16","experiment","1","odd","1","509026","30074","505676","506805","2763","140440","506809","80527","2771","105769","511036","507818","511751","511036","NA","Sternberg Task","71","54661","73","yes","1024"
"97.2972972973","97.2972972973","750.824324324","750.824324324","black","experiment","legacy","legacy","legacy","0","uniform","1","undefined","1","left","73","0","73","73","0","0","73","73","0","0","73","73","73","73","0","10/16/21 18:24:29","The main experiment item","yes","SternbergTask.osexp","C:/Users/bryan/OneDrive/Documents/School/PSYC 5316  (Quant Methods)/Lab 3","no","mono","no","18","no","white","no","yes","768","legacy","61","11","C:/Users/bryan/OneDrive/Documents/School/PSYC 5316  (Quant Methods)/Lab 3/BS-subject-1.csv","legacy","6 7 9 3 1 2","Lentiform Loewenfeld","3.3.9","1","y","0","left","left","left","left","NA","900","27301","34671","900","NA","2","legacy","6","1024","2","48000","-16","experiment","1","odd","6","515117","30074","511761","512902","2763","140440","512906","80527","2771","105769","517127","513909","518028","517126","NA","Sternberg Task","72","55561","74","yes","1024"
"97.3333333333","97.3333333333","749.106666667","749.106666667","black","experiment","legacy","legacy","legacy","0","uniform","1","undefined","1","left","74","0","74","74","0","0","74","74","0","0","74","74","74","74","0","10/16/21 18:24:29","The main experiment item","yes","SternbergTask.osexp","C:/Users/bryan/OneDrive/Documents/School/PSYC 5316  (Quant Methods)/Lab 3","no","mono","no","18","no","white","no","yes","768","legacy","62","11","C:/Users/bryan/OneDrive/Documents/School/PSYC 5316  (Quant Methods)/Lab 3/BS-subject-1.csv","legacy","5 2 6","Lentiform Loewenfeld","3.3.9","2","y","0","left","left","left","left","NA","622","27301","34671","622","NA","2","legacy","3","1024","2","48000","-16","experiment","1","odd","2","521395","30074","518038","519174","2763","140440","519179","80527","2771","105769","523405","520187","524029","523404","NA","Sternberg Task","73","56183","75","yes","1024"
"97.3684210526","97.3684210526","747.565789474","747.565789474","black","experiment","legacy","legacy","legacy","0","uniform","1","undefined","1","right","75","0","75","75","0","0","75","75","0","0","75","75","75","75","0","10/16/21 18:24:29","The main experiment item","yes","SternbergTask.osexp","C:/Users/bryan/OneDrive/Documents/School/PSYC 5316  (Quant Methods)/Lab 3","no","mono","no","18","no","white","no","yes","768","legacy","63","11","C:/Users/bryan/OneDrive/Documents/School/PSYC 5316  (Quant Methods)/Lab 3/BS-subject-1.csv","legacy","5 2","Lentiform Loewenfeld","3.3.9","0","n","0","right","left","left","right","NA","632","27301","34671","632","NA","2","legacy","2","1024","2","48000","-16","experiment","1","odd","7","527401","30074","524038","525181","2763","140440","525185","80527","2771","105769","529410","526193","530044","529409","NA","Sternberg Task","74","56815","76","yes","1024"
"97.4025974026","97.4025974026","745.376623377","745.376623377","black","experiment","legacy","legacy","legacy","0","uniform","1","undefined","1","left","76","0","76","76","0","0","76","76","0","0","76","76","76","76","0","10/16/21 18:24:29","The main experiment item","yes","SternbergTask.osexp","C:/Users/bryan/OneDrive/Documents/School/PSYC 5316  (Quant Methods)/Lab 3","no","mono","no","18","no","white","no","yes","768","legacy","64","11","C:/Users/bryan/OneDrive/Documents/School/PSYC 5316  (Quant Methods)/Lab 3/BS-subject-1.csv","legacy","8 9 5 6 7","Lentiform Loewenfeld","3.3.9","1","y","0","left","left","left","left","NA","579","27301","34671","579","NA","2","legacy","5","1024","2","48000","-16","experiment","1","odd","8","533417","30074","530054","531199","2763","140440","531202","80527","2771","105769","535427","532210","536007","535426","NA","Sternberg Task","75","57394","77","yes","1024"
"97.4358974359","97.4358974359","745.525641026","745.525641026","black","experiment","legacy","legacy","legacy","0","uniform","1","undefined","1","right","77","0","77","77","0","0","77","77","0","0","77","77","77","77","0","10/16/21 18:24:29","The main experiment item","yes","SternbergTask.osexp","C:/Users/bryan/OneDrive/Documents/School/PSYC 5316  (Quant Methods)/Lab 3","no","mono","no","18","no","white","no","yes","768","legacy","65","11","C:/Users/bryan/OneDrive/Documents/School/PSYC 5316  (Quant Methods)/Lab 3/BS-subject-1.csv","legacy","9 5 3 2 8 6","Lentiform Loewenfeld","3.3.9","0","n","0","right","left","left","right","NA","757","27301","34671","757","NA","2","legacy","6","1024","2","48000","-16","experiment","1","odd","7","539369","30074","536014","537149","2763","140440","537153","80527","2771","105769","541378","538161","542136","541378","NA","Sternberg Task","76","58151","78","yes","1024"
"97.4683544304","97.4683544304","744.253164557","744.253164557","black","experiment","legacy","legacy","legacy","0","uniform","1","undefined","1","left","78","0","78","78","0","0","78","78","0","0","78","78","78","78","0","10/16/21 18:24:29","The main experiment item","yes","SternbergTask.osexp","C:/Users/bryan/OneDrive/Documents/School/PSYC 5316  (Quant Methods)/Lab 3","no","mono","no","18","no","white","no","yes","768","legacy","66","11","C:/Users/bryan/OneDrive/Documents/School/PSYC 5316  (Quant Methods)/Lab 3/BS-subject-1.csv","legacy","2 5 4 8 7","Lentiform Loewenfeld","3.3.9","3","y","0","left","left","left","left","NA","645","27301","34671","645","NA","2","legacy","5","1024","2","48000","-16","experiment","1","odd","4","545509","30074","542143","543289","2763","140440","543292","80527","2771","105769","547518","544301","548165","547517","NA","Sternberg Task","77","58796","79","yes","1024"
"97.5","97.5","742.0125","742.0125","black","experiment","legacy","legacy","legacy","0","uniform","1","undefined","1","right","79","0","79","79","0","0","79","79","0","0","79","79","79","79","0","10/16/21 18:24:29","The main experiment item","yes","SternbergTask.osexp","C:/Users/bryan/OneDrive/Documents/School/PSYC 5316  (Quant Methods)/Lab 3","no","mono","no","18","no","white","no","yes","768","legacy","67","11","C:/Users/bryan/OneDrive/Documents/School/PSYC 5316  (Quant Methods)/Lab 3/BS-subject-1.csv","legacy","1 7 5 2","Lentiform Loewenfeld","3.3.9","0","n","0","right","left","left","right","NA","565","27301","34671","565","NA","2","legacy","4","1024","2","48000","-16","experiment","1","odd","3","551541","30074","548175","549320","2763","140440","549324","80527","2771","105769","553550","550333","554116","553549","NA","Sternberg Task","78","59361","80","yes","1024"
"97.5308641975","97.5308641975","741.296296296","741.296296296","black","experiment","legacy","legacy","legacy","0","uniform","1","undefined","1","left","80","0","80","80","0","0","80","80","0","0","80","80","80","80","0","10/16/21 18:24:29","The main experiment item","yes","SternbergTask.osexp","C:/Users/bryan/OneDrive/Documents/School/PSYC 5316  (Quant Methods)/Lab 3","no","mono","no","18","no","white","no","yes","768","legacy","68","11","C:/Users/bryan/OneDrive/Documents/School/PSYC 5316  (Quant Methods)/Lab 3/BS-subject-1.csv","legacy","4 7 6 8 2 3","Lentiform Loewenfeld","3.3.9","6","y","0","left","left","left","left","NA","684","27301","34671","684","NA","2","legacy","6","1024","2","48000","-16","experiment","1","odd","3","557472","30074","554126","555257","2763","140440","555261","80527","2771","105769","559481","556264","560166","559480","NA","Sternberg Task","79","60045","81","yes","1024"
"97.5609756098","97.5609756098","740.792682927","740.792682927","black","experiment","legacy","legacy","legacy","0","uniform","1","undefined","1","right","81","0","81","81","0","0","81","81","0","0","81","81","81","81","0","10/16/21 18:24:29","The main experiment item","yes","SternbergTask.osexp","C:/Users/bryan/OneDrive/Documents/School/PSYC 5316  (Quant Methods)/Lab 3","no","mono","no","18","no","white","no","yes","768","legacy","69","11","C:/Users/bryan/OneDrive/Documents/School/PSYC 5316  (Quant Methods)/Lab 3/BS-subject-1.csv","legacy","4 1","Lentiform Loewenfeld","3.3.9","0","n","0","right","left","left","right","NA","700","27301","34671","700","NA","2","legacy","2","1024","2","48000","-16","experiment","1","odd","6","563526","30074","560176","561306","2763","140440","561310","80527","2771","105769","565535","562318","566237","565534","NA","Sternberg Task","80","60745","82","yes","1024"
"97.5903614458","97.5903614458","741.325301205","741.325301205","black","experiment","legacy","legacy","legacy","0","uniform","1","undefined","1","right","82","0","82","82","0","0","82","82","0","0","82","82","82","82","0","10/16/21 18:24:29","The main experiment item","yes","SternbergTask.osexp","C:/Users/bryan/OneDrive/Documents/School/PSYC 5316  (Quant Methods)/Lab 3","no","mono","no","18","no","white","no","yes","768","legacy","70","11","C:/Users/bryan/OneDrive/Documents/School/PSYC 5316  (Quant Methods)/Lab 3/BS-subject-1.csv","legacy","2 8 9","Lentiform Loewenfeld","3.3.9","0","n","0","right","left","left","right","NA","785","27301","34671","785","NA","2","legacy","3","1024","2","48000","-16","experiment","1","odd","6","569602","30074","566246","567382","2763","140440","567386","80527","2771","105769","571611","568394","572397","571611","NA","Sternberg Task","81","61530","83","yes","1024"
"97.619047619","97.619047619","740.392857143","740.392857143","black","experiment","legacy","legacy","legacy","0","uniform","1","undefined","1","left","83","0","83","83","0","0","83","83","0","0","83","83","83","83","0","10/16/21 18:24:29","The main experiment item","yes","SternbergTask.osexp","C:/Users/bryan/OneDrive/Documents/School/PSYC 5316  (Quant Methods)/Lab 3","no","mono","no","18","no","white","no","yes","768","legacy","71","11","C:/Users/bryan/OneDrive/Documents/School/PSYC 5316  (Quant Methods)/Lab 3/BS-subject-1.csv","legacy","7 8 4 6 9 5","Lentiform Loewenfeld","3.3.9","4","y","0","left","left","left","left","NA","663","27301","34671","663","NA","2","legacy","6","1024","2","48000","-16","experiment","1","odd","6","575760","30074","572404","573539","2763","140440","573544","80527","2771","105769","577767","574552","578432","577766","NA","Sternberg Task","82","62193","84","yes","1024"
"97.6470588235","97.6470588235","740.235294118","740.235294118","black","experiment","legacy","legacy","legacy","0","uniform","1","undefined","1","left","84","0","84","84","0","0","84","84","0","0","84","84","84","84","0","10/16/21 18:24:29","The main experiment item","yes","SternbergTask.osexp","C:/Users/bryan/OneDrive/Documents/School/PSYC 5316  (Quant Methods)/Lab 3","no","mono","no","18","no","white","no","yes","768","legacy","72","11","C:/Users/bryan/OneDrive/Documents/School/PSYC 5316  (Quant Methods)/Lab 3/BS-subject-1.csv","legacy","7 1 8 5 6 2","Lentiform Loewenfeld","3.3.9","2","y","0","left","left","left","left","NA","727","27301","34671","727","NA","2","legacy","6","1024","2","48000","-16","experiment","1","odd","1","581808","30074","578442","579588","2763","140440","579592","80527","2771","105769","583817","580600","584546","583816","NA","Sternberg Task","83","62920","85","yes","1024"
"97.6744186047","97.6744186047","739.11627907","739.11627907","black","experiment","legacy","legacy","legacy","0","uniform","1","undefined","1","right","85","0","85","85","0","0","85","85","0","0","85","85","85","85","0","10/16/21 18:24:29","The main experiment item","yes","SternbergTask.osexp","C:/Users/bryan/OneDrive/Documents/School/PSYC 5316  (Quant Methods)/Lab 3","no","mono","no","18","no","white","no","yes","768","legacy","73","11","C:/Users/bryan/OneDrive/Documents/School/PSYC 5316  (Quant Methods)/Lab 3/BS-subject-1.csv","legacy","1","Lentiform Loewenfeld","3.3.9","0","n","0","right","left","left","right","NA","644","27301","34671","644","NA","2","legacy","1","1024","2","48000","-16","experiment","1","odd","7","587899","30074","584556","585683","2763","140440","585687","80527","2771","105769","589909","586691","590554","589908","NA","Sternberg Task","84","63564","86","yes","1024"
"97.7011494253","97.7011494253","737.390804598","737.390804598","black","experiment","legacy","legacy","legacy","0","uniform","1","undefined","1","left","86","0","86","86","0","0","86","86","0","0","86","86","86","86","0","10/16/21 18:24:29","The main experiment item","yes","SternbergTask.osexp","C:/Users/bryan/OneDrive/Documents/School/PSYC 5316  (Quant Methods)/Lab 3","no","mono","no","18","no","white","no","yes","768","legacy","74","11","C:/Users/bryan/OneDrive/Documents/School/PSYC 5316  (Quant Methods)/Lab 3/BS-subject-1.csv","legacy","2 3 7 4","Lentiform Loewenfeld","3.3.9","1","y","0","left","left","left","left","NA","589","27301","34671","589","NA","2","legacy","4","1024","2","48000","-16","experiment","1","odd","2","593909","30074","590564","591692","2763","140440","591696","80527","2771","105769","595918","592704","596509","595917","NA","Sternberg Task","85","64153","87","yes","1024"
"97.7272727273","97.7272727273","737.875","737.875","black","experiment","legacy","legacy","legacy","0","uniform","1","undefined","1","right","87","0","87","87","0","0","87","87","0","0","87","87","87","87","0","10/16/21 18:24:29","The main experiment item","yes","SternbergTask.osexp","C:/Users/bryan/OneDrive/Documents/School/PSYC 5316  (Quant Methods)/Lab 3","no","mono","no","18","no","white","no","yes","768","legacy","75","11","C:/Users/bryan/OneDrive/Documents/School/PSYC 5316  (Quant Methods)/Lab 3/BS-subject-1.csv","legacy","1 7 8 3 9","Lentiform Loewenfeld","3.3.9","0","n","0","right","left","left","right","NA","780","27301","34671","780","NA","2","legacy","5","1024","2","48000","-16","experiment","1","odd","2","599871","30074","596518","597650","2763","140440","597654","80527","2771","105769","601881","598663","602662","601880","NA","Sternberg Task","86","64933","88","yes","1024"
"97.7528089888","97.7528089888","738.528089888","738.528089888","black","experiment","legacy","legacy","legacy","0","uniform","1","undefined","1","right","88","0","88","88","0","0","88","88","0","0","88","88","88","88","0","10/16/21 18:24:29","The main experiment item","yes","SternbergTask.osexp","C:/Users/bryan/OneDrive/Documents/School/PSYC 5316  (Quant Methods)/Lab 3","no","mono","no","18","no","white","no","yes","768","legacy","76","11","C:/Users/bryan/OneDrive/Documents/School/PSYC 5316  (Quant Methods)/Lab 3/BS-subject-1.csv","legacy","1 4 3 6 5","Lentiform Loewenfeld","3.3.9","0","n","0","right","left","left","right","NA","796","27301","34671","796","NA","2","legacy","5","1024","2","48000","-16","experiment","1","odd","8","606022","30074","602672","603802","2763","140440","603806","80527","2771","105769","608031","604814","608829","608030","NA","Sternberg Task","87","65729","89","yes","1024"
"97.7777777778","97.7777777778","737.666666667","737.666666667","black","experiment","legacy","legacy","legacy","0","uniform","1","undefined","1","left","89","0","89","89","0","0","89","89","0","0","89","89","89","89","0","10/16/21 18:24:29","The main experiment item","yes","SternbergTask.osexp","C:/Users/bryan/OneDrive/Documents/School/PSYC 5316  (Quant Methods)/Lab 3","no","mono","no","18","no","white","no","yes","768","legacy","77","11","C:/Users/bryan/OneDrive/Documents/School/PSYC 5316  (Quant Methods)/Lab 3/BS-subject-1.csv","legacy","6 8 9 3 4 9","Lentiform Loewenfeld","3.3.9","5","y","0","left","left","left","left","NA","661","27301","34671","661","NA","2","legacy","6","1024","2","48000","-16","experiment","1","odd","4","612190","30074","608836","609970","2763","140440","609974","80527","2771","105769","614198","610982","614861","614198","NA","Sternberg Task","88","66390","90","yes","1024"
"97.8021978022","97.8021978022","739.164835165","739.164835165","black","experiment","legacy","legacy","legacy","0","uniform","1","undefined","1","right","90","0","90","90","0","0","90","90","0","0","90","90","90","90","0","10/16/21 18:24:29","The main experiment item","yes","SternbergTask.osexp","C:/Users/bryan/OneDrive/Documents/School/PSYC 5316  (Quant Methods)/Lab 3","no","mono","no","18","no","white","no","yes","768","legacy","78","11","C:/Users/bryan/OneDrive/Documents/School/PSYC 5316  (Quant Methods)/Lab 3/BS-subject-1.csv","legacy","9 7 4 5 8","Lentiform Loewenfeld","3.3.9","0","n","0","right","left","left","right","NA","874","27301","34671","874","NA","2","legacy","5","1024","2","48000","-16","experiment","1","odd","6","618219","30074","614871","615999","2763","140440","616003","80527","2771","105769","620229","617011","621105","620228","NA","Sternberg Task","89","67264","91","yes","1024"
"97.8260869565","97.8260869565","738.836956522","738.836956522","black","experiment","legacy","legacy","legacy","0","uniform","1","undefined","1","right","91","0","91","91","0","0","91","91","0","0","91","91","91","91","0","10/16/21 18:24:29","The main experiment item","yes","SternbergTask.osexp","C:/Users/bryan/OneDrive/Documents/School/PSYC 5316  (Quant Methods)/Lab 3","no","mono","no","18","no","white","no","yes","768","legacy","79","11","C:/Users/bryan/OneDrive/Documents/School/PSYC 5316  (Quant Methods)/Lab 3/BS-subject-1.csv","legacy","3 4 9 6 7 8","Lentiform Loewenfeld","3.3.9","0","n","0","right","left","left","right","NA","709","27301","34671","709","NA","2","legacy","6","1024","2","48000","-16","experiment","1","odd","2","624464","30074","621113","622243","2763","140440","622247","80527","2771","105769","626474","623255","627185","626473","NA","Sternberg Task","90","67973","92","yes","1024"
"97.8494623656","97.8494623656","737.365591398","737.365591398","black","experiment","legacy","legacy","legacy","0","uniform","1","undefined","1","left","92","0","92","92","0","0","92","92","0","0","92","92","92","92","0","10/16/21 18:24:29","The main experiment item","yes","SternbergTask.osexp","C:/Users/bryan/OneDrive/Documents/School/PSYC 5316  (Quant Methods)/Lab 3","no","mono","no","18","no","white","no","yes","768","legacy","80","11","C:/Users/bryan/OneDrive/Documents/School/PSYC 5316  (Quant Methods)/Lab 3/BS-subject-1.csv","legacy","7","Lentiform Loewenfeld","3.3.9","1","y","0","left","left","left","left","NA","602","27301","34671","602","NA","2","legacy","1","1024","2","48000","-16","experiment","1","odd","7","630558","30074","627196","628338","2763","140440","628341","80527","2771","105769","632568","629350","633172","632567","NA","Sternberg Task","91","68575","93","yes","1024"
"97.8723404255","97.8723404255","736.744680851","736.744680851","black","experiment","legacy","legacy","legacy","0","uniform","1","undefined","1","right","93","0","93","93","0","0","93","93","0","0","93","93","93","93","0","10/16/21 18:24:29","The main experiment item","yes","SternbergTask.osexp","C:/Users/bryan/OneDrive/Documents/School/PSYC 5316  (Quant Methods)/Lab 3","no","mono","no","18","no","white","no","yes","768","legacy","81","11","C:/Users/bryan/OneDrive/Documents/School/PSYC 5316  (Quant Methods)/Lab 3/BS-subject-1.csv","legacy","4 2 7 6 1 3","Lentiform Loewenfeld","3.3.9","0","n","0","right","left","left","right","NA","679","27301","34671","679","NA","2","legacy","6","1024","2","48000","-16","experiment","1","odd","8","636530","30074","633181","634310","2763","140440","634314","80527","2771","105769","638539","635322","639219","638538","NA","Sternberg Task","92","69254","94","yes","1024"
"97.8947368421","97.8947368421","736.431578947","736.431578947","black","experiment","legacy","legacy","legacy","0","uniform","1","undefined","1","left","94","0","94","94","0","0","94","94","0","0","94","94","94","94","0","10/16/21 18:24:29","The main experiment item","yes","SternbergTask.osexp","C:/Users/bryan/OneDrive/Documents/School/PSYC 5316  (Quant Methods)/Lab 3","no","mono","no","18","no","white","no","yes","768","legacy","82","11","C:/Users/bryan/OneDrive/Documents/School/PSYC 5316  (Quant Methods)/Lab 3/BS-subject-1.csv","legacy","8 9 6 1","Lentiform Loewenfeld","3.3.9","2","y","0","left","left","left","left","NA","707","27301","34671","707","NA","2","legacy","4","1024","2","48000","-16","experiment","1","odd","9","642591","30074","639229","640370","2763","140440","640375","80527","2771","105769","644596","641383","645305","644596","NA","Sternberg Task","93","69961","95","yes","1024"
"97.9166666667","97.9166666667","734.84375","734.84375","black","experiment","legacy","legacy","legacy","0","uniform","1","undefined","1","left","95","0","95","95","0","0","95","95","0","0","95","95","95","95","0","10/16/21 18:24:29","The main experiment item","yes","SternbergTask.osexp","C:/Users/bryan/OneDrive/Documents/School/PSYC 5316  (Quant Methods)/Lab 3","no","mono","no","18","no","white","no","yes","768","legacy","83","11","C:/Users/bryan/OneDrive/Documents/School/PSYC 5316  (Quant Methods)/Lab 3/BS-subject-1.csv","legacy","3 4","Lentiform Loewenfeld","3.3.9","1","y","0","left","left","left","left","NA","584","27301","34671","584","NA","2","legacy","2","1024","2","48000","-16","experiment","1","odd","3","648678","30074","645315","646458","2763","140440","646462","80527","2771","105769","650687","647470","651274","650686","NA","Sternberg Task","94","70545","96","yes","1024"
"97.9381443299","97.9381443299","733.474226804","733.474226804","black","experiment","legacy","legacy","legacy","0","uniform","1","undefined","1","right","96","0","96","96","0","0","96","96","0","0","96","96","96","96","0","10/16/21 18:24:29","The main experiment item","yes","SternbergTask.osexp","C:/Users/bryan/OneDrive/Documents/School/PSYC 5316  (Quant Methods)/Lab 3","no","mono","no","18","no","white","no","yes","768","legacy","84","11","C:/Users/bryan/OneDrive/Documents/School/PSYC 5316  (Quant Methods)/Lab 3/BS-subject-1.csv","legacy","4 2 6 9","Lentiform Loewenfeld","3.3.9","0","n","0","right","left","left","right","NA","602","27301","34671","602","NA","2","legacy","4","1024","2","48000","-16","experiment","1","odd","7","654630","30074","651282","652410","2763","140440","652414","80527","2771","105769","656640","653422","657244","656639","NA","Sternberg Task","95","71147","97","yes","1024"
"97.9591836735","97.9591836735","731.091836735","731.091836735","black","experiment","legacy","legacy","legacy","0","uniform","1","undefined","1","left","97","0","97","97","0","0","97","97","0","0","97","97","97","97","0","10/16/21 18:24:29","The main experiment item","yes","SternbergTask.osexp","C:/Users/bryan/OneDrive/Documents/School/PSYC 5316  (Quant Methods)/Lab 3","no","mono","no","18","no","white","no","yes","768","legacy","85","11","C:/Users/bryan/OneDrive/Documents/School/PSYC 5316  (Quant Methods)/Lab 3/BS-subject-1.csv","legacy","6 1 2","Lentiform Loewenfeld","3.3.9","3","y","0","left","left","left","left","NA","500","27301","34671","500","NA","2","legacy","3","1024","2","48000","-16","experiment","1","odd","2","660604","30074","657254","658383","2763","140440","658387","80527","2771","105769","662613","659395","663115","662612","NA","Sternberg Task","96","71647","98","yes","1024"
"97.9797979798","97.9797979798","730.161616162","730.161616162","black","experiment","legacy","legacy","legacy","0","uniform","1","undefined","1","right","98","0","98","98","0","0","98","98","0","0","98","98","98","98","0","10/16/21 18:24:29","The main experiment item","yes","SternbergTask.osexp","C:/Users/bryan/OneDrive/Documents/School/PSYC 5316  (Quant Methods)/Lab 3","no","mono","no","18","no","white","no","yes","768","legacy","86","11","C:/Users/bryan/OneDrive/Documents/School/PSYC 5316  (Quant Methods)/Lab 3/BS-subject-1.csv","legacy","7 4 2 8 1 9","Lentiform Loewenfeld","3.3.9","0","n","0","right","left","left","right","NA","639","27301","34671","639","NA","2","legacy","6","1024","2","48000","-16","experiment","1","odd","5","666478","30074","663126","664258","2763","140440","664262","80527","2771","105769","668486","665271","669127","668486","NA","Sternberg Task","97","72286","99","yes","1024"
"98","98","729.45","729.45","black","experiment","legacy","legacy","legacy","0","uniform","1","undefined","1","left","99","0","99","99","0","0","99","99","0","0","99","99","99","99","0","10/16/21 18:24:29","The main experiment item","yes","SternbergTask.osexp","C:/Users/bryan/OneDrive/Documents/School/PSYC 5316  (Quant Methods)/Lab 3","no","mono","no","18","no","white","no","yes","768","legacy","87","11","C:/Users/bryan/OneDrive/Documents/School/PSYC 5316  (Quant Methods)/Lab 3/BS-subject-1.csv","legacy","5 7 3 6 2","Lentiform Loewenfeld","3.3.9","5","y","0","left","left","left","left","NA","659","27301","34671","659","NA","2","legacy","5","1024","2","48000","-16","experiment","1","odd","2","672480","30074","669136","670265","2763","140440","670268","80527","2771","105769","674489","671277","675149","674488","NA","Sternberg Task","98","72945","100","yes","1024"
"98.0198019802","98.0198019802","729.326732673","729.326732673","black","experiment","legacy","legacy","legacy","0","uniform","1","undefined","1","right","100","0","100","100","0","0","100","100","0","0","100","100","100","100","0","10/16/21 18:24:29","The main experiment item","yes","SternbergTask.osexp","C:/Users/bryan/OneDrive/Documents/School/PSYC 5316  (Quant Methods)/Lab 3","no","mono","no","18","no","white","no","yes","768","legacy","88","11","C:/Users/bryan/OneDrive/Documents/School/PSYC 5316  (Quant Methods)/Lab 3/BS-subject-1.csv","legacy","5 3 2 6 9 8","Lentiform Loewenfeld","3.3.9","0","n","0","right","left","left","right","NA","717","27301","34671","717","NA","2","legacy","6","1024","2","48000","-16","experiment","1","odd","4","678537","30074","675158","676316","2763","140440","676321","80527","2771","105769","680545","677329","681264","680545","NA","Sternberg Task","99","73662","101","yes","1024"
"98.0392156863","98.0392156863","731.294117647","731.294117647","black","experiment","legacy","legacy","legacy","0","uniform","1","undefined","1","right","101","0","101","101","0","0","101","101","0","0","101","101","101","101","0","10/16/21 18:24:29","The main experiment item","yes","SternbergTask.osexp","C:/Users/bryan/OneDrive/Documents/School/PSYC 5316  (Quant Methods)/Lab 3","no","mono","no","18","no","white","no","yes","768","legacy","89","11","C:/Users/bryan/OneDrive/Documents/School/PSYC 5316  (Quant Methods)/Lab 3/BS-subject-1.csv","legacy","9 8 2 7 4","Lentiform Loewenfeld","3.3.9","0","n","0","right","left","left","right","NA","930","27301","34671","930","NA","2","legacy","5","1024","2","48000","-16","experiment","1","odd","5","684627","30074","681272","682407","2763","140440","682410","80527","2771","105769","686636","683419","687568","686636","NA","Sternberg Task","100","74592","102","yes","1024"
"98.0582524272","98.0582524272","731.048543689","731.048543689","black","experiment","legacy","legacy","legacy","0","uniform","1","undefined","1","right","102","0","102","102","0","0","102","102","0","0","102","102","102","102","0","10/16/21 18:24:29","The main experiment item","yes","SternbergTask.osexp","C:/Users/bryan/OneDrive/Documents/School/PSYC 5316  (Quant Methods)/Lab 3","no","mono","no","18","no","white","no","yes","768","legacy","90","11","C:/Users/bryan/OneDrive/Documents/School/PSYC 5316  (Quant Methods)/Lab 3/BS-subject-1.csv","legacy","1 6 4","Lentiform Loewenfeld","3.3.9","0","n","0","right","left","left","right","NA","706","27301","34671","706","NA","2","legacy","3","1024","2","48000","-16","experiment","1","odd","7","690927","30074","687576","688706","2763","140440","688710","80527","2771","105769","692936","689718","693644","692935","NA","Sternberg Task","101","75298","103","yes","1024"
"98.0769230769","98.0769230769","735.615384615","735.615384615","black","experiment","legacy","legacy","legacy","0","uniform","1","undefined","1","right","103","0","103","103","0","0","103","103","0","0","103","103","103","103","0","10/16/21 18:24:29","The main experiment item","yes","SternbergTask.osexp","C:/Users/bryan/OneDrive/Documents/School/PSYC 5316  (Quant Methods)/Lab 3","no","mono","no","18","no","white","no","yes","768","legacy","91","11","C:/Users/bryan/OneDrive/Documents/School/PSYC 5316  (Quant Methods)/Lab 3/BS-subject-1.csv","legacy","3 9 8 1 6 4","Lentiform Loewenfeld","3.3.9","0","n","0","right","left","left","right","NA","1206","27301","34671","1206","NA","2","legacy","6","1024","2","48000","-16","experiment","1","odd","7","696999","30074","693652","694782","2763","140440","694787","80527","2771","105769","699008","695795","700216","699007","NA","Sternberg Task","102","76504","104","yes","1024"
"98.0952380952","98.0952380952","735.980952381","735.980952381","black","experiment","legacy","legacy","legacy","0","uniform","1","undefined","1","left","104","0","104","104","0","0","104","104","0","0","104","104","104","104","0","10/16/21 18:24:29","The main experiment item","yes","SternbergTask.osexp","C:/Users/bryan/OneDrive/Documents/School/PSYC 5316  (Quant Methods)/Lab 3","no","mono","no","18","no","white","no","yes","768","legacy","92","11","C:/Users/bryan/OneDrive/Documents/School/PSYC 5316  (Quant Methods)/Lab 3/BS-subject-1.csv","legacy","7 4 2 6 3 5","Lentiform Loewenfeld","3.3.9","6","y","0","left","left","left","left","NA","774","27301","34671","774","NA","2","legacy","6","1024","2","48000","-16","experiment","1","odd","5","703587","30074","700226","701365","2763","140440","701370","80527","2771","105769","705596","702379","706372","705595","NA","Sternberg Task","103","77278","105","yes","1024"
"98.1132075472","98.1132075472","734.41509434","734.41509434","black","experiment","legacy","legacy","legacy","0","uniform","1","undefined","1","right","105","0","105","105","0","0","105","105","0","0","105","105","105","105","0","10/16/21 18:24:29","The main experiment item","yes","SternbergTask.osexp","C:/Users/bryan/OneDrive/Documents/School/PSYC 5316  (Quant Methods)/Lab 3","no","mono","no","18","no","white","no","yes","768","legacy","93","11","C:/Users/bryan/OneDrive/Documents/School/PSYC 5316  (Quant Methods)/Lab 3/BS-subject-1.csv","legacy","7 1","Lentiform Loewenfeld","3.3.9","0","n","0","right","left","left","right","NA","570","27301","34671","570","NA","2","legacy","2","1024","2","48000","-16","experiment","1","odd","8","709734","30074","706381","707512","2763","140440","707517","80527","2771","105769","711743","708526","712315","711742","NA","Sternberg Task","104","77848","106","yes","1024"
"98.1308411215","98.1308411215","733.373831776","733.373831776","black","experiment","legacy","legacy","legacy","0","uniform","1","undefined","1","right","106","0","106","106","0","0","106","106","0","0","106","106","106","106","0","10/16/21 18:24:29","The main experiment item","yes","SternbergTask.osexp","C:/Users/bryan/OneDrive/Documents/School/PSYC 5316  (Quant Methods)/Lab 3","no","mono","no","18","no","white","no","yes","768","legacy","94","11","C:/Users/bryan/OneDrive/Documents/School/PSYC 5316  (Quant Methods)/Lab 3/BS-subject-1.csv","legacy","6 9 4 5 2","Lentiform Loewenfeld","3.3.9","0","n","0","right","left","left","right","NA","623","27301","34671","623","NA","2","legacy","5","1024","2","48000","-16","experiment","1","odd","1","715696","30074","712325","713476","2763","140440","713479","80527","2771","105769","717705","714488","718330","717704","NA","Sternberg Task","105","78471","107","yes","1024"
"98.1481481481","98.1481481481","733","733","black","experiment","legacy","legacy","legacy","0","uniform","1","undefined","1","left","107","0","107","107","0","0","107","107","0","0","107","107","107","107","0","10/16/21 18:24:29","The main experiment item","yes","SternbergTask.osexp","C:/Users/bryan/OneDrive/Documents/School/PSYC 5316  (Quant Methods)/Lab 3","no","mono","no","18","no","white","no","yes","768","legacy","95","11","C:/Users/bryan/OneDrive/Documents/School/PSYC 5316  (Quant Methods)/Lab 3/BS-subject-1.csv","legacy","4","Lentiform Loewenfeld","3.3.9","1","y","0","left","left","left","left","NA","693","27301","34671","693","NA","2","legacy","1","1024","2","48000","-16","experiment","1","odd","4","721700","30074","718336","719480","2763","140440","719484","80527","2771","105769","723709","720492","724404","723708","NA","Sternberg Task","106","79164","108","yes","1024"
"98.1651376147","98.1651376147","733.321100917","733.321100917","black","experiment","legacy","legacy","legacy","0","uniform","1","undefined","1","left","108","0","108","108","0","0","108","108","0","0","108","108","108","108","0","10/16/21 18:24:29","The main experiment item","yes","SternbergTask.osexp","C:/Users/bryan/OneDrive/Documents/School/PSYC 5316  (Quant Methods)/Lab 3","no","mono","no","18","no","white","no","yes","768","legacy","96","11","C:/Users/bryan/OneDrive/Documents/School/PSYC 5316  (Quant Methods)/Lab 3/BS-subject-1.csv","legacy","8 9 5 7 1 6","Lentiform Loewenfeld","3.3.9","4","y","0","left","left","left","left","NA","768","27301","34671","768","NA","2","legacy","6","1024","2","48000","-16","experiment","1","odd","7","727771","30074","724413","725550","2763","140440","725554","80527","2771","105769","729778","726562","730547","729777","NA","Sternberg Task","107","79932","109","yes","1024"
