"acc","accuracy","average_response_time","avg_rt","background","block","canvas_backend","clock_backend","color_backend","correct","correct_instruction1","correct_keyboard_response","correct_response","count_Fixation","count_ISI","count_correctFeedback","count_expSequence","count_experiment","count_experimentLoop","count_incorrectFeedback","count_instruction1","count_instructions2","count_keyboard_response","count_logger","count_memorySet","count_practiceloop","count_probe","count_thankYou","datetime","description","disable_garbage_collection","experiment_file","experiment_path","font_bold","font_family","font_italic","font_size","font_underline","foreground","form_clicks","fullscreen","height","keyboard_backend","live_row","live_row_practiceloop","logfile","mouse_backend","numberSet","opensesame_codename","opensesame_version","posInSet","present","repeat_cycle","response","response_instruction1","response_instructions2","response_keyboard_response","response_thankYou","response_time","response_time_instruction1","response_time_instructions2","response_time_keyboard_response","response_time_thankYou","round_decimals","sampler_backend","setSize","sound_buf_size","sound_channels","sound_freq","sound_sample_size","start","subject_nr","subject_parity","target","time_Fixation","time_ISI","time_correctFeedback","time_expSequence","time_experiment","time_experimentLoop","time_incorrectFeedback","time_instruction1","time_instructions2","time_keyboard_response","time_logger","time_memorySet","time_practiceloop","time_probe","time_thankYou","title","total_correct","total_response_time","total_responses","width"
"0","0","626","626","#3d3846","practice","legacy","legacy","legacy","0","undefined","0","left","0","0","0","0","0","0","0","0","0","0","0","0","0","0","0","Sun Oct 22 14:20:05 2023","The main experiment item","False","Sternbergtask.osexp","/Users/keelihatcher/Desktop/Tarleton M.D./Advanced Quantitative Methods & Experimental Design","False","mono","False","18","no","white","no","yes","768","legacy","0","0","/Users/keelihatcher/Desktop/Tarleton M.D./Advanced Quantitative Methods & Experimental Design/subject-2.csv","legacy","4 3 1 7 9 8","Melodramatic Milgram","4.0.5","1","y","0","right","left","NA","right","NA","626.0","419949","NA","626","NA","2","legacy","6","1024","2","48000","-16","experiment","2","even","4","423914","426125","NA","423889","2829","NA","NA","2948","NA","428129","428757","424919","423164","428129","NA","Sternberg task","0","626.0","1","1024"
"50","50","705","705","#3d3846","practice","legacy","legacy","legacy","1","undefined","1","right","1","1","1","1","0","0","1","0","0","1","1","1","0","1","0","Sun Oct 22 14:20:05 2023","The main experiment item","False","Sternbergtask.osexp","/Users/keelihatcher/Desktop/Tarleton M.D./Advanced Quantitative Methods & Experimental Design","False","mono","False","18","no","white","no","yes","768","legacy","1","1","/Users/keelihatcher/Desktop/Tarleton M.D./Advanced Quantitative Methods & Experimental Design/subject-2.csv","legacy","4 1 5","Melodramatic Milgram","4.0.5","0","n","0","right","left","NA","right","NA","784.0","419949","NA","784","NA","2","legacy","3","1024","2","48000","-16","experiment","2","even","2","429830","432040","NA","429827","2829","NA","428780","2948","NA","434043","434842","430835","423164","434043","NA","Sternberg task","1","1410.0","2","1024"
"66","66","656","656","#3d3846","practice","legacy","legacy","legacy","1","undefined","1","left","2","2","2","2","0","0","2","0","0","2","2","2","0","2","0","Sun Oct 22 14:20:05 2023","The main experiment item","False","Sternbergtask.osexp","/Users/keelihatcher/Desktop/Tarleton M.D./Advanced Quantitative Methods & Experimental Design","False","mono","False","18","no","white","no","yes","768","legacy","2","2","/Users/keelihatcher/Desktop/Tarleton M.D./Advanced Quantitative Methods & Experimental Design/subject-2.csv","legacy","2 9 4","Melodramatic Milgram","4.0.5","3","y","0","left","left","NA","left","NA","558.0","419949","NA","558","NA","2","legacy","3","1024","2","48000","-16","experiment","2","even","4","435896","438106","434843","435894","2829","NA","428780","2948","NA","440109","440668","436901","423164","440109","NA","Sternberg task","2","1968.0","3","1024"
"50","50","583","583","#3d3846","practice","legacy","legacy","legacy","0","undefined","0","left","3","3","3","3","0","0","3","0","0","3","3","3","0","3","0","Sun Oct 22 14:20:05 2023","The main experiment item","False","Sternbergtask.osexp","/Users/keelihatcher/Desktop/Tarleton M.D./Advanced Quantitative Methods & Experimental Design","False","mono","False","18","no","white","no","yes","768","legacy","3","3","/Users/keelihatcher/Desktop/Tarleton M.D./Advanced Quantitative Methods & Experimental Design/subject-2.csv","legacy","1 7 9 8 5","Melodramatic Milgram","4.0.5","4","y","0","right","left","NA","right","NA","367.0","419949","NA","367","NA","2","legacy","5","1024","2","48000","-16","experiment","2","even","8","441716","443928","440670","441714","2829","NA","428780","2948","NA","445932","446300","442720","423164","445932","NA","Sternberg task","2","2335.0","4","1024"
"40","40","574","574","#3d3846","practice","legacy","legacy","legacy","0","undefined","0","right","4","4","4","4","0","0","4","0","0","4","4","4","0","4","0","Sun Oct 22 14:20:05 2023","The main experiment item","False","Sternbergtask.osexp","/Users/keelihatcher/Desktop/Tarleton M.D./Advanced Quantitative Methods & Experimental Design","False","mono","False","18","no","white","no","yes","768","legacy","4","4","/Users/keelihatcher/Desktop/Tarleton M.D./Advanced Quantitative Methods & Experimental Design/subject-2.csv","legacy","3 1 9 4","Melodramatic Milgram","4.0.5","0","n","0","left","left","NA","left","NA","539.0","419949","NA","539","NA","2","legacy","4","1024","2","48000","-16","experiment","2","even","6","447357","449566","440670","447354","2829","NA","446302","2948","NA","451568","452107","448360","423164","451568","NA","Sternberg task","2","2874.0","5","1024"
"50","50","570","570","#3d3846","practice","legacy","legacy","legacy","1","undefined","1","right","5","5","5","5","0","0","5","0","0","5","5","5","0","5","0","Sun Oct 22 14:20:05 2023","The main experiment item","False","Sternbergtask.osexp","/Users/keelihatcher/Desktop/Tarleton M.D./Advanced Quantitative Methods & Experimental Design","False","mono","False","18","no","white","no","yes","768","legacy","5","5","/Users/keelihatcher/Desktop/Tarleton M.D./Advanced Quantitative Methods & Experimental Design/subject-2.csv","legacy","5","Melodramatic Milgram","4.0.5","0","n","0","right","left","NA","right","NA","547.0","419949","NA","547","NA","2","legacy","1","1024","2","48000","-16","experiment","2","even","3","453162","455373","440670","453160","2829","NA","452109","2948","NA","457376","457923","454167","423164","457376","NA","Sternberg task","3","3421.0","6","1024"
"57","57","578","578","#3d3846","practice","legacy","legacy","legacy","1","undefined","1","left","6","6","6","6","0","0","6","0","0","6","6","6","0","6","0","Sun Oct 22 14:20:05 2023","The main experiment item","False","Sternbergtask.osexp","/Users/keelihatcher/Desktop/Tarleton M.D./Advanced Quantitative Methods & Experimental Design","False","mono","False","18","no","white","no","yes","768","legacy","6","6","/Users/keelihatcher/Desktop/Tarleton M.D./Advanced Quantitative Methods & Experimental Design/subject-2.csv","legacy","1 5 2 9","Melodramatic Milgram","4.0.5","2","y","0","left","left","NA","left","NA","627.0","419949","NA","627","NA","2","legacy","4","1024","2","48000","-16","experiment","2","even","5","458980","461189","457926","458978","2829","NA","452109","2948","NA","463192","463819","459984","423164","463192","NA","Sternberg task","4","4048.0","7","1024"
"62","62","566","566","#3d3846","practice","legacy","legacy","legacy","1","undefined","1","right","7","7","7","7","0","0","7","0","0","7","7","7","0","7","0","Sun Oct 22 14:20:05 2023","The main experiment item","False","Sternbergtask.osexp","/Users/keelihatcher/Desktop/Tarleton M.D./Advanced Quantitative Methods & Experimental Design","False","mono","False","18","no","white","no","yes","768","legacy","7","7","/Users/keelihatcher/Desktop/Tarleton M.D./Advanced Quantitative Methods & Experimental Design/subject-2.csv","legacy","9 6 7 4 5","Melodramatic Milgram","4.0.5","0","n","0","right","left","NA","right","NA","481.0","419949","NA","481","NA","2","legacy","5","1024","2","48000","-16","experiment","2","even","3","464870","467078","463821","464868","2829","NA","452109","2948","NA","469081","469562","465874","423164","469081","NA","Sternberg task","5","4529.0","8","1024"
"66","66","545","545","#3d3846","practice","legacy","legacy","legacy","1","undefined","1","left","8","8","8","8","0","0","8","0","0","8","8","8","0","8","0","Sun Oct 22 14:20:05 2023","The main experiment item","False","Sternbergtask.osexp","/Users/keelihatcher/Desktop/Tarleton M.D./Advanced Quantitative Methods & Experimental Design","False","mono","False","18","no","white","no","yes","768","legacy","8","8","/Users/keelihatcher/Desktop/Tarleton M.D./Advanced Quantitative Methods & Experimental Design/subject-2.csv","legacy","6","Melodramatic Milgram","4.0.5","1","y","0","left","left","NA","left","NA","382.0","419949","NA","382","NA","2","legacy","1","1024","2","48000","-16","experiment","2","even","6","470611","472818","469564","470608","2829","NA","452109","2948","NA","474821","475203","471613","423164","474821","NA","Sternberg task","6","4911.0","9","1024"
"70","70","569","569","#3d3846","practice","legacy","legacy","legacy","1","undefined","1","right","9","9","9","9","0","0","9","0","0","9","9","9","0","9","0","Sun Oct 22 14:20:05 2023","The main experiment item","False","Sternbergtask.osexp","/Users/keelihatcher/Desktop/Tarleton M.D./Advanced Quantitative Methods & Experimental Design","False","mono","False","18","no","white","no","yes","768","legacy","9","9","/Users/keelihatcher/Desktop/Tarleton M.D./Advanced Quantitative Methods & Experimental Design/subject-2.csv","legacy","5 7 8 4 1 2","Melodramatic Milgram","4.0.5","0","n","0","right","left","NA","right","NA","788.0","419949","NA","788","NA","2","legacy","6","1024","2","48000","-16","experiment","2","even","6","476253","478460","475205","476251","2829","NA","452109","2948","NA","480463","481251","477256","423164","480463","NA","Sternberg task","7","5699.0","10","1024"
"72","72","580","580","#3d3846","practice","legacy","legacy","legacy","1","undefined","1","right","10","10","10","10","0","0","10","0","0","10","10","10","0","10","0","Sun Oct 22 14:20:05 2023","The main experiment item","False","Sternbergtask.osexp","/Users/keelihatcher/Desktop/Tarleton M.D./Advanced Quantitative Methods & Experimental Design","False","mono","False","18","no","white","no","yes","768","legacy","10","10","/Users/keelihatcher/Desktop/Tarleton M.D./Advanced Quantitative Methods & Experimental Design/subject-2.csv","legacy","2 1","Melodramatic Milgram","4.0.5","0","n","0","right","left","NA","right","NA","685.0","419949","NA","685","NA","2","legacy","2","1024","2","48000","-16","experiment","2","even","5","482306","484514","481253","482303","2829","NA","452109","2948","NA","486518","487203","483310","423164","486518","NA","Sternberg task","8","6384.0","11","1024"
"75","75","575","575","#3d3846","practice","legacy","legacy","legacy","1","undefined","1","left","11","11","11","11","0","0","11","0","0","11","11","11","0","11","0","Sun Oct 22 14:20:05 2023","The main experiment item","False","Sternbergtask.osexp","/Users/keelihatcher/Desktop/Tarleton M.D./Advanced Quantitative Methods & Experimental Design","False","mono","False","18","no","white","no","yes","768","legacy","11","11","/Users/keelihatcher/Desktop/Tarleton M.D./Advanced Quantitative Methods & Experimental Design/subject-2.csv","legacy","4 8","Melodramatic Milgram","4.0.5","1","y","0","left","left","NA","left","NA","521.0","419949","NA","521","NA","2","legacy","2","1024","2","48000","-16","experiment","2","even","4","488260","490468","487206","488257","2829","NA","452109","2948","NA","492471","492993","489263","423164","492471","NA","Sternberg task","9","6905.0","12","1024"
"76","76","565","565","#3d3846","experiment","legacy","legacy","legacy","1","undefined","1","left","12","12","12","12","0","0","12","0","0","12","12","12","0","12","0","Sun Oct 22 14:20:05 2023","The main experiment item","False","Sternbergtask.osexp","/Users/keelihatcher/Desktop/Tarleton M.D./Advanced Quantitative Methods & Experimental Design","False","mono","False","18","no","white","no","yes","768","legacy","0","11","/Users/keelihatcher/Desktop/Tarleton M.D./Advanced Quantitative Methods & Experimental Design/subject-2.csv","legacy","4 1 5","Melodramatic Milgram","4.0.5","2","y","0","left","left","right","left","NA","440.0","419949","289478","440","NA","2","legacy","3","1024","2","48000","-16","experiment","2","even","1","783622","785834","492995","783586","2829","783496","452109","2948","494000","787841","788282","784626","423164","787841","NA","Sternberg task","10","7345.0","13","1024"
"78","78","556","556","#3d3846","experiment","legacy","legacy","legacy","1","undefined","1","left","13","13","13","13","0","0","13","0","0","13","13","13","0","13","0","Sun Oct 22 14:20:05 2023","The main experiment item","False","Sternbergtask.osexp","/Users/keelihatcher/Desktop/Tarleton M.D./Advanced Quantitative Methods & Experimental Design","False","mono","False","18","no","white","no","yes","768","legacy","1","11","/Users/keelihatcher/Desktop/Tarleton M.D./Advanced Quantitative Methods & Experimental Design/subject-2.csv","legacy","8 3","Melodramatic Milgram","4.0.5","2","y","0","left","left","right","left","NA","443.0","419949","289478","443","NA","2","legacy","2","1024","2","48000","-16","experiment","2","even","3","789341","791547","788286","789339","2829","783496","452109","2948","494000","793550","793994","790344","423164","793550","NA","Sternberg task","11","7788.0","14","1024"
"80","80","546","546","#3d3846","experiment","legacy","legacy","legacy","1","undefined","1","right","14","14","14","14","0","0","14","0","0","14","14","14","0","14","0","Sun Oct 22 14:20:05 2023","The main experiment item","False","Sternbergtask.osexp","/Users/keelihatcher/Desktop/Tarleton M.D./Advanced Quantitative Methods & Experimental Design","False","mono","False","18","no","white","no","yes","768","legacy","2","11","/Users/keelihatcher/Desktop/Tarleton M.D./Advanced Quantitative Methods & Experimental Design/subject-2.csv","legacy","4 1","Melodramatic Milgram","4.0.5","0","n","0","right","left","right","right","NA","413.0","419949","289478","413","NA","2","legacy","2","1024","2","48000","-16","experiment","2","even","6","795049","797257","793996","795047","2829","783496","452109","2948","494000","799260","799674","796053","423164","799260","NA","Sternberg task","12","8201.0","15","1024"
"81","81","543","543","#3d3846","experiment","legacy","legacy","legacy","1","undefined","1","left","15","15","15","15","0","0","15","0","0","15","15","15","0","15","0","Sun Oct 22 14:20:05 2023","The main experiment item","False","Sternbergtask.osexp","/Users/keelihatcher/Desktop/Tarleton M.D./Advanced Quantitative Methods & Experimental Design","False","mono","False","18","no","white","no","yes","768","legacy","3","11","/Users/keelihatcher/Desktop/Tarleton M.D./Advanced Quantitative Methods & Experimental Design/subject-2.csv","legacy","3 5 4 7","Melodramatic Milgram","4.0.5","1","y","0","left","left","right","left","NA","497.0","419949","289478","497","NA","2","legacy","4","1024","2","48000","-16","experiment","2","even","3","800725","802933","799676","800723","2829","783496","452109","2948","494000","804936","805434","801728","423164","804936","NA","Sternberg task","13","8698.0","16","1024"
"82","82","542","542","#3d3846","experiment","legacy","legacy","legacy","1","undefined","1","right","16","16","16","16","0","0","16","0","0","16","16","16","0","16","0","Sun Oct 22 14:20:05 2023","The main experiment item","False","Sternbergtask.osexp","/Users/keelihatcher/Desktop/Tarleton M.D./Advanced Quantitative Methods & Experimental Design","False","mono","False","18","no","white","no","yes","768","legacy","4","11","/Users/keelihatcher/Desktop/Tarleton M.D./Advanced Quantitative Methods & Experimental Design/subject-2.csv","legacy","4 2 7 6 1 3","Melodramatic Milgram","4.0.5","0","n","0","right","left","right","right","NA","531.0","419949","289478","531","NA","2","legacy","6","1024","2","48000","-16","experiment","2","even","8","806477","808685","805436","806475","2829","783496","452109","2948","494000","810687","811219","807481","423164","810687","NA","Sternberg task","14","9229.0","17","1024"
"83","83","539","539","#3d3846","experiment","legacy","legacy","legacy","1","undefined","1","right","17","17","17","17","0","0","17","0","0","17","17","17","0","17","0","Sun Oct 22 14:20:05 2023","The main experiment item","False","Sternbergtask.osexp","/Users/keelihatcher/Desktop/Tarleton M.D./Advanced Quantitative Methods & Experimental Design","False","mono","False","18","no","white","no","yes","768","legacy","5","11","/Users/keelihatcher/Desktop/Tarleton M.D./Advanced Quantitative Methods & Experimental Design/subject-2.csv","legacy","1 7 8 3 9","Melodramatic Milgram","4.0.5","0","n","0","right","left","right","right","NA","481.0","419949","289478","481","NA","2","legacy","5","1024","2","48000","-16","experiment","2","even","2","812275","814485","811221","812273","2829","783496","452109","2948","494000","816488","816970","813279","423164","816488","NA","Sternberg task","15","9710.0","18","1024"
"84","84","535","535","#3d3846","experiment","legacy","legacy","legacy","1","undefined","1","left","18","18","18","18","0","0","18","0","0","18","18","18","0","18","0","Sun Oct 22 14:20:05 2023","The main experiment item","False","Sternbergtask.osexp","/Users/keelihatcher/Desktop/Tarleton M.D./Advanced Quantitative Methods & Experimental Design","False","mono","False","18","no","white","no","yes","768","legacy","6","11","/Users/keelihatcher/Desktop/Tarleton M.D./Advanced Quantitative Methods & Experimental Design/subject-2.csv","legacy","4 6 5 8","Melodramatic Milgram","4.0.5","1","y","0","left","left","right","left","NA","467.0","419949","289478","467","NA","2","legacy","4","1024","2","48000","-16","experiment","2","even","4","818025","820235","816972","818023","2829","783496","452109","2948","494000","822238","822706","819029","423164","822238","NA","Sternberg task","16","10177.0","19","1024"
"85","85","530","530","#3d3846","experiment","legacy","legacy","legacy","1","undefined","1","right","19","19","19","19","0","0","19","0","0","19","19","19","0","19","0","Sun Oct 22 14:20:05 2023","The main experiment item","False","Sternbergtask.osexp","/Users/keelihatcher/Desktop/Tarleton M.D./Advanced Quantitative Methods & Experimental Design","False","mono","False","18","no","white","no","yes","768","legacy","7","11","/Users/keelihatcher/Desktop/Tarleton M.D./Advanced Quantitative Methods & Experimental Design/subject-2.csv","legacy","2 7 5","Melodramatic Milgram","4.0.5","0","n","0","right","left","right","right","NA","427.0","419949","289478","427","NA","2","legacy","3","1024","2","48000","-16","experiment","2","even","8","823762","825970","822708","823760","2829","783496","452109","2948","494000","827974","828402","824765","423164","827974","NA","Sternberg task","17","10604.0","20","1024"
"85","85","527","527","#3d3846","experiment","legacy","legacy","legacy","1","undefined","1","right","20","20","20","20","0","0","20","0","0","20","20","20","0","20","0","Sun Oct 22 14:20:05 2023","The main experiment item","False","Sternbergtask.osexp","/Users/keelihatcher/Desktop/Tarleton M.D./Advanced Quantitative Methods & Experimental Design","False","mono","False","18","no","white","no","yes","768","legacy","8","11","/Users/keelihatcher/Desktop/Tarleton M.D./Advanced Quantitative Methods & Experimental Design/subject-2.csv","legacy","2 8 9 4 1","Melodramatic Milgram","4.0.5","0","n","0","right","left","right","right","NA","466.0","419949","289478","466","NA","2","legacy","5","1024","2","48000","-16","experiment","2","even","5","829459","831667","828404","829457","2829","783496","452109","2948","494000","833671","834138","830463","423164","833670","NA","Sternberg task","18","11070.0","21","1024"
"86","86","521","521","#3d3846","experiment","legacy","legacy","legacy","1","undefined","1","left","21","21","21","21","0","0","21","0","0","21","21","21","0","21","0","Sun Oct 22 14:20:05 2023","The main experiment item","False","Sternbergtask.osexp","/Users/keelihatcher/Desktop/Tarleton M.D./Advanced Quantitative Methods & Experimental Design","False","mono","False","18","no","white","no","yes","768","legacy","9","11","/Users/keelihatcher/Desktop/Tarleton M.D./Advanced Quantitative Methods & Experimental Design/subject-2.csv","legacy","8 5 4 7 3 1","Melodramatic Milgram","4.0.5","2","y","0","left","left","right","left","NA","396.0","419949","289478","396","NA","2","legacy","6","1024","2","48000","-16","experiment","2","even","5","835190","837399","834140","835188","2829","783496","452109","2948","494000","839405","839802","836194","423164","839404","NA","Sternberg task","19","11466.0","22","1024"
"82","82","518","518","#3d3846","experiment","legacy","legacy","legacy","0","undefined","0","right","22","22","22","22","0","0","22","0","0","22","22","22","0","22","0","Sun Oct 22 14:20:05 2023","The main experiment item","False","Sternbergtask.osexp","/Users/keelihatcher/Desktop/Tarleton M.D./Advanced Quantitative Methods & Experimental Design","False","mono","False","18","no","white","no","yes","768","legacy","10","11","/Users/keelihatcher/Desktop/Tarleton M.D./Advanced Quantitative Methods & Experimental Design/subject-2.csv","legacy","5 3 2 6 9 8","Melodramatic Milgram","4.0.5","0","n","0","left","left","right","left","NA","463.0","419949","289478","463","NA","2","legacy","6","1024","2","48000","-16","experiment","2","even","4","840854","843061","839804","840852","2829","783496","452109","2948","494000","845066","845530","841857","423164","845066","NA","Sternberg task","19","11929.0","23","1024"
"79","79","516","516","#3d3846","experiment","legacy","legacy","legacy","0","undefined","0","left","23","23","23","23","0","0","23","0","0","23","23","23","0","23","0","Sun Oct 22 14:20:05 2023","The main experiment item","False","Sternbergtask.osexp","/Users/keelihatcher/Desktop/Tarleton M.D./Advanced Quantitative Methods & Experimental Design","False","mono","False","18","no","white","no","yes","768","legacy","11","11","/Users/keelihatcher/Desktop/Tarleton M.D./Advanced Quantitative Methods & Experimental Design/subject-2.csv","legacy","6 5","Melodramatic Milgram","4.0.5","2","y","0","right","left","right","right","NA","468.0","419949","289478","468","NA","2","legacy","2","1024","2","48000","-16","experiment","2","even","5","846577","848785","839804","846575","2829","783496","845532","2948","494000","850789","851258","847581","423164","850789","NA","Sternberg task","19","12397.0","24","1024"
"80","80","513","513","#3d3846","experiment","legacy","legacy","legacy","1","undefined","1","right","24","24","24","24","0","0","24","0","0","24","24","24","0","24","0","Sun Oct 22 14:20:05 2023","The main experiment item","False","Sternbergtask.osexp","/Users/keelihatcher/Desktop/Tarleton M.D./Advanced Quantitative Methods & Experimental Design","False","mono","False","18","no","white","no","yes","768","legacy","12","11","/Users/keelihatcher/Desktop/Tarleton M.D./Advanced Quantitative Methods & Experimental Design/subject-2.csv","legacy","7 9 1 6","Melodramatic Milgram","4.0.5","0","n","0","right","left","right","right","NA","444.0","419949","289478","444","NA","2","legacy","4","1024","2","48000","-16","experiment","2","even","4","852306","854513","839804","852304","2829","783496","851260","2948","494000","856517","856962","853309","423164","856516","NA","Sternberg task","20","12841.0","25","1024"
"80","80","516","516","#3d3846","experiment","legacy","legacy","legacy","1","undefined","1","left","25","25","25","25","0","0","25","0","0","25","25","25","0","25","0","Sun Oct 22 14:20:05 2023","The main experiment item","False","Sternbergtask.osexp","/Users/keelihatcher/Desktop/Tarleton M.D./Advanced Quantitative Methods & Experimental Design","False","mono","False","18","no","white","no","yes","768","legacy","13","11","/Users/keelihatcher/Desktop/Tarleton M.D./Advanced Quantitative Methods & Experimental Design/subject-2.csv","legacy","9 5 8 1","Melodramatic Milgram","4.0.5","2","y","0","left","left","right","left","NA","596.0","419949","289478","596","NA","2","legacy","4","1024","2","48000","-16","experiment","2","even","5","858009","860218","856964","858007","2829","783496","851260","2948","494000","862221","862818","859013","423164","862221","NA","Sternberg task","21","13437.0","26","1024"
"77","77","511","511","#3d3846","experiment","legacy","legacy","legacy","0","undefined","0","left","26","26","26","26","0","0","26","0","0","26","26","26","0","26","0","Sun Oct 22 14:20:05 2023","The main experiment item","False","Sternbergtask.osexp","/Users/keelihatcher/Desktop/Tarleton M.D./Advanced Quantitative Methods & Experimental Design","False","mono","False","18","no","white","no","yes","768","legacy","14","11","/Users/keelihatcher/Desktop/Tarleton M.D./Advanced Quantitative Methods & Experimental Design/subject-2.csv","legacy","9 1 7 2","Melodramatic Milgram","4.0.5","2","y","0","right","left","right","right","NA","364.0","419949","289478","364","NA","2","legacy","4","1024","2","48000","-16","experiment","2","even","1","863873","866081","862821","863870","2829","783496","851260","2948","494000","868085","868449","864876","423164","868085","NA","Sternberg task","21","13801.0","27","1024"
"78","78","514","514","#3d3846","experiment","legacy","legacy","legacy","1","undefined","1","right","27","27","27","27","0","0","27","0","0","27","27","27","0","27","0","Sun Oct 22 14:20:05 2023","The main experiment item","False","Sternbergtask.osexp","/Users/keelihatcher/Desktop/Tarleton M.D./Advanced Quantitative Methods & Experimental Design","False","mono","False","18","no","white","no","yes","768","legacy","15","11","/Users/keelihatcher/Desktop/Tarleton M.D./Advanced Quantitative Methods & Experimental Design/subject-2.csv","legacy","6 9 4 5 3 2","Melodramatic Milgram","4.0.5","0","n","0","right","left","right","right","NA","612.0","419949","289478","612","NA","2","legacy","6","1024","2","48000","-16","experiment","2","even","8","869505","871714","862821","869503","2829","783496","868451","2948","494000","873717","874330","870508","423164","873717","NA","Sternberg task","22","14413.0","28","1024"
"79","79","511","511","#3d3846","experiment","legacy","legacy","legacy","1","undefined","1","left","28","28","28","28","0","0","28","0","0","28","28","28","0","28","0","Sun Oct 22 14:20:05 2023","The main experiment item","False","Sternbergtask.osexp","/Users/keelihatcher/Desktop/Tarleton M.D./Advanced Quantitative Methods & Experimental Design","False","mono","False","18","no","white","no","yes","768","legacy","16","11","/Users/keelihatcher/Desktop/Tarleton M.D./Advanced Quantitative Methods & Experimental Design/subject-2.csv","legacy","4 1 8 7 5","Melodramatic Milgram","4.0.5","3","y","0","left","left","right","left","NA","412.0","419949","289478","412","NA","2","legacy","5","1024","2","48000","-16","experiment","2","even","8","875378","877586","874332","875376","2829","783496","868451","2948","494000","879589","880002","876381","423164","879589","NA","Sternberg task","23","14825.0","29","1024"
"80","80","508","508","#3d3846","experiment","legacy","legacy","legacy","1","undefined","1","right","29","29","29","29","0","0","29","0","0","29","29","29","0","29","0","Sun Oct 22 14:20:05 2023","The main experiment item","False","Sternbergtask.osexp","/Users/keelihatcher/Desktop/Tarleton M.D./Advanced Quantitative Methods & Experimental Design","False","mono","False","18","no","white","no","yes","768","legacy","17","11","/Users/keelihatcher/Desktop/Tarleton M.D./Advanced Quantitative Methods & Experimental Design/subject-2.csv","legacy","3 4 2","Melodramatic Milgram","4.0.5","0","n","0","right","left","right","right","NA","441.0","419949","289478","441","NA","2","legacy","3","1024","2","48000","-16","experiment","2","even","5","881053","883261","880003","881051","2829","783496","868451","2948","494000","885264","885706","882056","423164","885264","NA","Sternberg task","24","15266.0","30","1024"
"80","80","506","506","#3d3846","experiment","legacy","legacy","legacy","1","undefined","1","left","30","30","30","30","0","0","30","0","0","30","30","30","0","30","0","Sun Oct 22 14:20:05 2023","The main experiment item","False","Sternbergtask.osexp","/Users/keelihatcher/Desktop/Tarleton M.D./Advanced Quantitative Methods & Experimental Design","False","mono","False","18","no","white","no","yes","768","legacy","18","11","/Users/keelihatcher/Desktop/Tarleton M.D./Advanced Quantitative Methods & Experimental Design/subject-2.csv","legacy","8 1 6","Melodramatic Milgram","4.0.5","3","y","0","left","left","right","left","NA","442.0","419949","289478","442","NA","2","legacy","3","1024","2","48000","-16","experiment","2","even","6","886762","888971","885708","886760","2829","783496","868451","2948","494000","890975","891418","887765","423164","890975","NA","Sternberg task","25","15708.0","31","1024"
"81","81","505","505","#3d3846","experiment","legacy","legacy","legacy","1","undefined","1","right","31","31","31","31","0","0","31","0","0","31","31","31","0","31","0","Sun Oct 22 14:20:05 2023","The main experiment item","False","Sternbergtask.osexp","/Users/keelihatcher/Desktop/Tarleton M.D./Advanced Quantitative Methods & Experimental Design","False","mono","False","18","no","white","no","yes","768","legacy","19","11","/Users/keelihatcher/Desktop/Tarleton M.D./Advanced Quantitative Methods & Experimental Design/subject-2.csv","legacy","6 3 1 7 9 8","Melodramatic Milgram","4.0.5","0","n","0","right","left","right","right","NA","474.0","419949","289478","474","NA","2","legacy","6","1024","2","48000","-16","experiment","2","even","4","892473","894684","891420","892471","2829","783496","868451","2948","494000","896687","897162","893477","423164","896687","NA","Sternberg task","26","16182.0","32","1024"
"81","81","506","506","#3d3846","experiment","legacy","legacy","legacy","1","undefined","1","right","32","32","32","32","0","0","32","0","0","32","32","32","0","32","0","Sun Oct 22 14:20:05 2023","The main experiment item","False","Sternbergtask.osexp","/Users/keelihatcher/Desktop/Tarleton M.D./Advanced Quantitative Methods & Experimental Design","False","mono","False","18","no","white","no","yes","768","legacy","20","11","/Users/keelihatcher/Desktop/Tarleton M.D./Advanced Quantitative Methods & Experimental Design/subject-2.csv","legacy","1 5 3 2 8","Melodramatic Milgram","4.0.5","0","n","0","right","left","right","right","NA","547.0","419949","289478","547","NA","2","legacy","5","1024","2","48000","-16","experiment","2","even","4","898217","900425","897163","898215","2829","783496","868451","2948","494000","902429","902977","899220","423164","902429","NA","Sternberg task","27","16729.0","33","1024"
"82","82","503","503","#3d3846","experiment","legacy","legacy","legacy","1","undefined","1","right","33","33","33","33","0","0","33","0","0","33","33","33","0","33","0","Sun Oct 22 14:20:05 2023","The main experiment item","False","Sternbergtask.osexp","/Users/keelihatcher/Desktop/Tarleton M.D./Advanced Quantitative Methods & Experimental Design","False","mono","False","18","no","white","no","yes","768","legacy","21","11","/Users/keelihatcher/Desktop/Tarleton M.D./Advanced Quantitative Methods & Experimental Design/subject-2.csv","legacy","4 2 6 9","Melodramatic Milgram","4.0.5","0","n","0","right","left","right","right","NA","402.0","419949","289478","402","NA","2","legacy","4","1024","2","48000","-16","experiment","2","even","7","904033","906243","902981","904031","2829","783496","868451","2948","494000","908247","908650","905037","423164","908246","NA","Sternberg task","28","17131.0","34","1024"
"80","80","501","501","#3d3846","experiment","legacy","legacy","legacy","0","undefined","0","right","34","34","34","34","0","0","34","0","0","34","34","34","0","34","0","Sun Oct 22 14:20:05 2023","The main experiment item","False","Sternbergtask.osexp","/Users/keelihatcher/Desktop/Tarleton M.D./Advanced Quantitative Methods & Experimental Design","False","mono","False","18","no","white","no","yes","768","legacy","22","11","/Users/keelihatcher/Desktop/Tarleton M.D./Advanced Quantitative Methods & Experimental Design/subject-2.csv","legacy","1 7 5 2","Melodramatic Milgram","4.0.5","0","n","0","left","left","right","left","NA","409.0","419949","289478","409","NA","2","legacy","4","1024","2","48000","-16","experiment","2","even","3","909700","911908","908651","909698","2829","783496","868451","2948","494000","913911","914320","910703","423164","913911","NA","Sternberg task","28","17540.0","35","1024"
"80","80","503","503","#3d3846","experiment","legacy","legacy","legacy","1","undefined","1","right","35","35","35","35","0","0","35","0","0","35","35","35","0","35","0","Sun Oct 22 14:20:05 2023","The main experiment item","False","Sternbergtask.osexp","/Users/keelihatcher/Desktop/Tarleton M.D./Advanced Quantitative Methods & Experimental Design","False","mono","False","18","no","white","no","yes","768","legacy","23","11","/Users/keelihatcher/Desktop/Tarleton M.D./Advanced Quantitative Methods & Experimental Design/subject-2.csv","legacy","2 5 1 4","Melodramatic Milgram","4.0.5","0","n","0","right","left","right","right","NA","585.0","419949","289478","585","NA","2","legacy","4","1024","2","48000","-16","experiment","2","even","6","915374","917581","908651","915372","2829","783496","914323","2948","494000","919584","920170","916377","423164","919584","NA","Sternberg task","29","18125.0","36","1024"
"81","81","500","500","#3d3846","experiment","legacy","legacy","legacy","1","undefined","1","left","36","36","36","36","0","0","36","0","0","36","36","36","0","36","0","Sun Oct 22 14:20:05 2023","The main experiment item","False","Sternbergtask.osexp","/Users/keelihatcher/Desktop/Tarleton M.D./Advanced Quantitative Methods & Experimental Design","False","mono","False","18","no","white","no","yes","768","legacy","24","11","/Users/keelihatcher/Desktop/Tarleton M.D./Advanced Quantitative Methods & Experimental Design/subject-2.csv","legacy","5 2 6","Melodramatic Milgram","4.0.5","2","y","0","left","left","right","left","NA","402.0","419949","289478","402","NA","2","legacy","3","1024","2","48000","-16","experiment","2","even","2","921203","923412","920171","921202","2829","783496","914323","2948","494000","925415","925818","922207","423164","925415","NA","Sternberg task","30","18527.0","37","1024"
"81","81","498","498","#3d3846","experiment","legacy","legacy","legacy","1","undefined","1","left","37","37","37","37","0","0","37","0","0","37","37","37","0","37","0","Sun Oct 22 14:20:05 2023","The main experiment item","False","Sternbergtask.osexp","/Users/keelihatcher/Desktop/Tarleton M.D./Advanced Quantitative Methods & Experimental Design","False","mono","False","18","no","white","no","yes","768","legacy","25","11","/Users/keelihatcher/Desktop/Tarleton M.D./Advanced Quantitative Methods & Experimental Design/subject-2.csv","legacy","6 1 2","Melodramatic Milgram","4.0.5","3","y","0","left","left","right","left","NA","399.0","419949","289478","399","NA","2","legacy","3","1024","2","48000","-16","experiment","2","even","2","926866","929073","925820","926864","2829","783496","914323","2948","494000","931077","931477","927870","423164","931077","NA","Sternberg task","31","18926.0","38","1024"
"82","82","496","496","#3d3846","experiment","legacy","legacy","legacy","1","undefined","1","right","38","38","38","38","0","0","38","0","0","38","38","38","0","38","0","Sun Oct 22 14:20:05 2023","The main experiment item","False","Sternbergtask.osexp","/Users/keelihatcher/Desktop/Tarleton M.D./Advanced Quantitative Methods & Experimental Design","False","mono","False","18","no","white","no","yes","768","legacy","26","11","/Users/keelihatcher/Desktop/Tarleton M.D./Advanced Quantitative Methods & Experimental Design/subject-2.csv","legacy","1 4 3 6 5","Melodramatic Milgram","4.0.5","0","n","0","right","left","right","right","NA","427.0","419949","289478","427","NA","2","legacy","5","1024","2","48000","-16","experiment","2","even","8","932530","934739","931479","932528","2829","783496","914323","2948","494000","936742","937170","933534","423164","936741","NA","Sternberg task","32","19353.0","39","1024"
"82","82","495","495","#3d3846","experiment","legacy","legacy","legacy","1","undefined","1","right","39","39","39","39","0","0","39","0","0","39","39","39","0","39","0","Sun Oct 22 14:20:05 2023","The main experiment item","False","Sternbergtask.osexp","/Users/keelihatcher/Desktop/Tarleton M.D./Advanced Quantitative Methods & Experimental Design","False","mono","False","18","no","white","no","yes","768","legacy","27","11","/Users/keelihatcher/Desktop/Tarleton M.D./Advanced Quantitative Methods & Experimental Design/subject-2.csv","legacy","8 5 4 2 9 6","Melodramatic Milgram","4.0.5","0","n","0","right","left","right","right","NA","455.0","419949","289478","455","NA","2","legacy","6","1024","2","48000","-16","experiment","2","even","3","938220","940429","937172","938218","2829","783496","914323","2948","494000","942434","942889","939224","423164","942434","NA","Sternberg task","33","19808.0","40","1024"
"80","80","496","496","#3d3846","experiment","legacy","legacy","legacy","0","undefined","0","left","40","40","40","40","0","0","40","0","0","40","40","40","0","40","0","Sun Oct 22 14:20:05 2023","The main experiment item","False","Sternbergtask.osexp","/Users/keelihatcher/Desktop/Tarleton M.D./Advanced Quantitative Methods & Experimental Design","False","mono","False","18","no","white","no","yes","768","legacy","28","11","/Users/keelihatcher/Desktop/Tarleton M.D./Advanced Quantitative Methods & Experimental Design/subject-2.csv","legacy","3 5 7 1","Melodramatic Milgram","4.0.5","3","y","0","right","left","right","right","NA","548.0","419949","289478","548","NA","2","legacy","4","1024","2","48000","-16","experiment","2","even","7","943939","946146","942892","943936","2829","783496","914323","2948","494000","948149","948698","944942","423164","948148","NA","Sternberg task","33","20356.0","41","1024"
"80","80","496","496","#3d3846","experiment","legacy","legacy","legacy","1","undefined","1","right","41","41","41","41","0","0","41","0","0","41","41","41","0","41","0","Sun Oct 22 14:20:05 2023","The main experiment item","False","Sternbergtask.osexp","/Users/keelihatcher/Desktop/Tarleton M.D./Advanced Quantitative Methods & Experimental Design","False","mono","False","18","no","white","no","yes","768","legacy","29","11","/Users/keelihatcher/Desktop/Tarleton M.D./Advanced Quantitative Methods & Experimental Design/subject-2.csv","legacy","8 2 1 4 5 9","Melodramatic Milgram","4.0.5","0","n","0","right","left","right","right","NA","482.0","419949","289478","482","NA","2","legacy","6","1024","2","48000","-16","experiment","2","even","7","949745","951953","942892","949743","2829","783496","948699","2948","494000","953957","954439","950748","423164","953957","NA","Sternberg task","34","20838.0","42","1024"
"81","81","494","494","#3d3846","experiment","legacy","legacy","legacy","1","undefined","1","right","42","42","42","42","0","0","42","0","0","42","42","42","0","42","0","Sun Oct 22 14:20:05 2023","The main experiment item","False","Sternbergtask.osexp","/Users/keelihatcher/Desktop/Tarleton M.D./Advanced Quantitative Methods & Experimental Design","False","mono","False","18","no","white","no","yes","768","legacy","30","11","/Users/keelihatcher/Desktop/Tarleton M.D./Advanced Quantitative Methods & Experimental Design/subject-2.csv","legacy","9 8 2 7 4","Melodramatic Milgram","4.0.5","0","n","0","right","left","right","right","NA","406.0","419949","289478","406","NA","2","legacy","5","1024","2","48000","-16","experiment","2","even","5","955488","957696","954441","955486","2829","783496","948699","2948","494000","959699","960106","956492","423164","959699","NA","Sternberg task","35","21244.0","43","1024"
"81","81","490","490","#3d3846","experiment","legacy","legacy","legacy","1","undefined","1","left","43","43","43","43","0","0","43","0","0","43","43","43","0","43","0","Sun Oct 22 14:20:05 2023","The main experiment item","False","Sternbergtask.osexp","/Users/keelihatcher/Desktop/Tarleton M.D./Advanced Quantitative Methods & Experimental Design","False","mono","False","18","no","white","no","yes","768","legacy","31","11","/Users/keelihatcher/Desktop/Tarleton M.D./Advanced Quantitative Methods & Experimental Design/subject-2.csv","legacy","7","Melodramatic Milgram","4.0.5","1","y","0","left","left","right","left","NA","358.0","419949","289478","358","NA","2","legacy","1","1024","2","48000","-16","experiment","2","even","7","961159","963366","960107","961157","2829","783496","948699","2948","494000","965370","965728","962162","423164","965369","NA","Sternberg task","36","21602.0","44","1024"
"82","82","491","491","#3d3846","experiment","legacy","legacy","legacy","1","undefined","1","right","44","44","44","44","0","0","44","0","0","44","44","44","0","44","0","Sun Oct 22 14:20:05 2023","The main experiment item","False","Sternbergtask.osexp","/Users/keelihatcher/Desktop/Tarleton M.D./Advanced Quantitative Methods & Experimental Design","False","mono","False","18","no","white","no","yes","768","legacy","32","11","/Users/keelihatcher/Desktop/Tarleton M.D./Advanced Quantitative Methods & Experimental Design/subject-2.csv","legacy","3 9 1","Melodramatic Milgram","4.0.5","0","n","0","right","left","right","right","NA","499.0","419949","289478","499","NA","2","legacy","3","1024","2","48000","-16","experiment","2","even","7","966786","968994","965730","966784","2829","783496","948699","2948","494000","970998","971498","967790","423164","970998","NA","Sternberg task","37","22101.0","45","1024"
"82","82","494","494","#3d3846","experiment","legacy","legacy","legacy","1","undefined","1","left","45","45","45","45","0","0","45","0","0","45","45","45","0","45","0","Sun Oct 22 14:20:05 2023","The main experiment item","False","Sternbergtask.osexp","/Users/keelihatcher/Desktop/Tarleton M.D./Advanced Quantitative Methods & Experimental Design","False","mono","False","18","no","white","no","yes","768","legacy","33","11","/Users/keelihatcher/Desktop/Tarleton M.D./Advanced Quantitative Methods & Experimental Design/subject-2.csv","legacy","4 6 2 5 1","Melodramatic Milgram","4.0.5","5","y","0","left","left","right","left","NA","625.0","419949","289478","625","NA","2","legacy","5","1024","2","48000","-16","experiment","2","even","1","972556","974764","971500","972553","2829","783496","948699","2948","494000","976768","977394","973560","423164","976768","NA","Sternberg task","38","22726.0","46","1024"
"82","82","490","490","#3d3846","experiment","legacy","legacy","legacy","1","undefined","1","right","46","46","46","46","0","0","46","0","0","46","46","46","0","46","0","Sun Oct 22 14:20:05 2023","The main experiment item","False","Sternbergtask.osexp","/Users/keelihatcher/Desktop/Tarleton M.D./Advanced Quantitative Methods & Experimental Design","False","mono","False","18","no","white","no","yes","768","legacy","34","11","/Users/keelihatcher/Desktop/Tarleton M.D./Advanced Quantitative Methods & Experimental Design/subject-2.csv","legacy","1","Melodramatic Milgram","4.0.5","0","n","0","right","left","right","right","NA","311.0","419949","289478","311","NA","2","legacy","1","1024","2","48000","-16","experiment","2","even","7","978444","980652","977398","978441","2829","783496","948699","2948","494000","982655","982967","979447","423164","982655","NA","Sternberg task","39","23037.0","47","1024"
"83","83","489","489","#3d3846","experiment","legacy","legacy","legacy","1","undefined","1","right","47","47","47","47","0","0","47","0","0","47","47","47","0","47","0","Sun Oct 22 14:20:05 2023","The main experiment item","False","Sternbergtask.osexp","/Users/keelihatcher/Desktop/Tarleton M.D./Advanced Quantitative Methods & Experimental Design","False","mono","False","18","no","white","no","yes","768","legacy","35","11","/Users/keelihatcher/Desktop/Tarleton M.D./Advanced Quantitative Methods & Experimental Design/subject-2.csv","legacy","4 8 1 2","Melodramatic Milgram","4.0.5","0","n","0","right","left","right","right","NA","443.0","419949","289478","443","NA","2","legacy","4","1024","2","48000","-16","experiment","2","even","7","984036","986244","982979","984034","2829","783496","948699","2948","494000","988262","988706","985039","423164","988262","NA","Sternberg task","40","23480.0","48","1024"
"83","83","488","488","#3d3846","experiment","legacy","legacy","legacy","1","undefined","1","right","48","48","48","48","0","0","48","0","0","48","48","48","0","48","0","Sun Oct 22 14:20:05 2023","The main experiment item","False","Sternbergtask.osexp","/Users/keelihatcher/Desktop/Tarleton M.D./Advanced Quantitative Methods & Experimental Design","False","mono","False","18","no","white","no","yes","768","legacy","36","11","/Users/keelihatcher/Desktop/Tarleton M.D./Advanced Quantitative Methods & Experimental Design/subject-2.csv","legacy","1 7 5 2 9","Melodramatic Milgram","4.0.5","0","n","0","right","left","right","right","NA","436.0","419949","289478","436","NA","2","legacy","5","1024","2","48000","-16","experiment","2","even","3","989770","991979","988708","989768","2829","783496","948699","2948","494000","993982","994419","990774","423164","993982","NA","Sternberg task","41","23916.0","49","1024"
"82","82","492","492","#3d3846","experiment","legacy","legacy","legacy","0","undefined","0","left","49","49","49","49","0","0","49","0","0","49","49","49","0","49","0","Sun Oct 22 14:20:05 2023","The main experiment item","False","Sternbergtask.osexp","/Users/keelihatcher/Desktop/Tarleton M.D./Advanced Quantitative Methods & Experimental Design","False","mono","False","18","no","white","no","yes","768","legacy","37","11","/Users/keelihatcher/Desktop/Tarleton M.D./Advanced Quantitative Methods & Experimental Design/subject-2.csv","legacy","6 9 7 4 5 1","Melodramatic Milgram","4.0.5","2","y","0","right","left","right","right","NA","715.0","419949","289478","715","NA","2","legacy","6","1024","2","48000","-16","experiment","2","even","9","995474","997682","994421","995472","2829","783496","948699","2948","494000","999686","1000402","996478","423164","999686","NA","Sternberg task","41","24631.0","50","1024"
"82","82","493","493","#3d3846","experiment","legacy","legacy","legacy","1","undefined","1","right","50","50","50","50","0","0","50","0","0","50","50","50","0","50","0","Sun Oct 22 14:20:05 2023","The main experiment item","False","Sternbergtask.osexp","/Users/keelihatcher/Desktop/Tarleton M.D./Advanced Quantitative Methods & Experimental Design","False","mono","False","18","no","white","no","yes","768","legacy","38","11","/Users/keelihatcher/Desktop/Tarleton M.D./Advanced Quantitative Methods & Experimental Design/subject-2.csv","legacy","8 4 3 5","Melodramatic Milgram","4.0.5","0","n","0","right","left","right","right","NA","530.0","419949","289478","530","NA","2","legacy","4","1024","2","48000","-16","experiment","2","even","6","1001460","1003667","994421","1001458","2829","783496","1000404","2948","494000","1005671","1006202","1002463","423164","1005671","NA","Sternberg task","42","25161.0","51","1024"
"82","82","491","491","#3d3846","experiment","legacy","legacy","legacy","1","undefined","1","left","51","51","51","51","0","0","51","0","0","51","51","51","0","51","0","Sun Oct 22 14:20:05 2023","The main experiment item","False","Sternbergtask.osexp","/Users/keelihatcher/Desktop/Tarleton M.D./Advanced Quantitative Methods & Experimental Design","False","mono","False","18","no","white","no","yes","768","legacy","39","11","/Users/keelihatcher/Desktop/Tarleton M.D./Advanced Quantitative Methods & Experimental Design/subject-2.csv","legacy","3 4","Melodramatic Milgram","4.0.5","1","y","0","left","left","right","left","NA","390.0","419949","289478","390","NA","2","legacy","2","1024","2","48000","-16","experiment","2","even","3","1007264","1009471","1006204","1007261","2829","783496","1000404","2948","494000","1011475","1011866","1008267","423164","1011475","NA","Sternberg task","43","25551.0","52","1024"
"83","83","492","492","#3d3846","experiment","legacy","legacy","legacy","1","undefined","1","left","52","52","52","52","0","0","52","0","0","52","52","52","0","52","0","Sun Oct 22 14:20:05 2023","The main experiment item","False","Sternbergtask.osexp","/Users/keelihatcher/Desktop/Tarleton M.D./Advanced Quantitative Methods & Experimental Design","False","mono","False","18","no","white","no","yes","768","legacy","40","11","/Users/keelihatcher/Desktop/Tarleton M.D./Advanced Quantitative Methods & Experimental Design/subject-2.csv","legacy","7 8 6 3 1","Melodramatic Milgram","4.0.5","5","y","0","left","left","right","left","NA","564.0","419949","289478","564","NA","2","legacy","5","1024","2","48000","-16","experiment","2","even","1","1012914","1015122","1011868","1012912","2829","783496","1000404","2948","494000","1017125","1017690","1013917","423164","1017125","NA","Sternberg task","44","26115.0","53","1024"
"83","83","493","493","#3d3846","experiment","legacy","legacy","legacy","1","undefined","1","right","53","53","53","53","0","0","53","0","0","53","53","53","0","53","0","Sun Oct 22 14:20:05 2023","The main experiment item","False","Sternbergtask.osexp","/Users/keelihatcher/Desktop/Tarleton M.D./Advanced Quantitative Methods & Experimental Design","False","mono","False","18","no","white","no","yes","768","legacy","41","11","/Users/keelihatcher/Desktop/Tarleton M.D./Advanced Quantitative Methods & Experimental Design/subject-2.csv","legacy","3 9 8 1 6 4","Melodramatic Milgram","4.0.5","0","n","0","right","left","right","right","NA","556.0","419949","289478","556","NA","2","legacy","6","1024","2","48000","-16","experiment","2","even","7","1018739","1020947","1017692","1018736","2829","783496","1000404","2948","494000","1022950","1023506","1019742","423164","1022950","NA","Sternberg task","45","26671.0","54","1024"
"83","83","496","496","#3d3846","experiment","legacy","legacy","legacy","1","undefined","1","left","54","54","54","54","0","0","54","0","0","54","54","54","0","54","0","Sun Oct 22 14:20:05 2023","The main experiment item","False","Sternbergtask.osexp","/Users/keelihatcher/Desktop/Tarleton M.D./Advanced Quantitative Methods & Experimental Design","False","mono","False","18","no","white","no","yes","768","legacy","42","11","/Users/keelihatcher/Desktop/Tarleton M.D./Advanced Quantitative Methods & Experimental Design/subject-2.csv","legacy","9 6 2 4 1","Melodramatic Milgram","4.0.5","4","y","0","left","left","right","left","NA","643.0","419949","289478","643","NA","2","legacy","5","1024","2","48000","-16","experiment","2","even","4","1024558","1026766","1023508","1024555","2829","783496","1000404","2948","494000","1028774","1029418","1025562","423164","1028774","NA","Sternberg task","46","27314.0","55","1024"
"83","83","496","496","#3d3846","experiment","legacy","legacy","legacy","1","undefined","1","right","55","55","55","55","0","0","55","0","0","55","55","55","0","55","0","Sun Oct 22 14:20:05 2023","The main experiment item","False","Sternbergtask.osexp","/Users/keelihatcher/Desktop/Tarleton M.D./Advanced Quantitative Methods & Experimental Design","False","mono","False","18","no","white","no","yes","768","legacy","43","11","/Users/keelihatcher/Desktop/Tarleton M.D./Advanced Quantitative Methods & Experimental Design/subject-2.csv","legacy","7 9","Melodramatic Milgram","4.0.5","0","n","0","right","left","right","right","NA","494.0","419949","289478","494","NA","2","legacy","2","1024","2","48000","-16","experiment","2","even","1","1030472","1032680","1029419","1030470","2829","783496","1000404","2948","494000","1034683","1035178","1031475","423164","1034683","NA","Sternberg task","47","27808.0","56","1024"
"84","84","495","495","#3d3846","experiment","legacy","legacy","legacy","1","undefined","1","left","56","56","56","56","0","0","56","0","0","56","56","56","0","56","0","Sun Oct 22 14:20:05 2023","The main experiment item","False","Sternbergtask.osexp","/Users/keelihatcher/Desktop/Tarleton M.D./Advanced Quantitative Methods & Experimental Design","False","mono","False","18","no","white","no","yes","768","legacy","44","11","/Users/keelihatcher/Desktop/Tarleton M.D./Advanced Quantitative Methods & Experimental Design/subject-2.csv","legacy","7 1 8 5 6 2","Melodramatic Milgram","4.0.5","2","y","0","left","left","right","left","NA","430.0","419949","289478","430","NA","2","legacy","6","1024","2","48000","-16","experiment","2","even","1","1036232","1038440","1035180","1036230","2829","783496","1000404","2948","494000","1040443","1040874","1037236","423164","1040443","NA","Sternberg task","48","28238.0","57","1024"
"82","82","495","495","#3d3846","experiment","legacy","legacy","legacy","0","undefined","0","left","57","57","57","57","0","0","57","0","0","57","57","57","0","57","0","Sun Oct 22 14:20:05 2023","The main experiment item","False","Sternbergtask.osexp","/Users/keelihatcher/Desktop/Tarleton M.D./Advanced Quantitative Methods & Experimental Design","False","mono","False","18","no","white","no","yes","768","legacy","45","11","/Users/keelihatcher/Desktop/Tarleton M.D./Advanced Quantitative Methods & Experimental Design/subject-2.csv","legacy","1 4 9 3 2 5","Melodramatic Milgram","4.0.5","3","y","0","right","left","right","right","NA","475.0","419949","289478","475","NA","2","legacy","6","1024","2","48000","-16","experiment","2","even","9","1041928","1044138","1040876","1041925","2829","783496","1000404","2948","494000","1046141","1046616","1042932","423164","1046141","NA","Sternberg task","48","28713.0","58","1024"
"83","83","498","498","#3d3846","experiment","legacy","legacy","legacy","1","undefined","1","left","58","58","58","58","0","0","58","0","0","58","58","58","0","58","0","Sun Oct 22 14:20:05 2023","The main experiment item","False","Sternbergtask.osexp","/Users/keelihatcher/Desktop/Tarleton M.D./Advanced Quantitative Methods & Experimental Design","False","mono","False","18","no","white","no","yes","768","legacy","46","11","/Users/keelihatcher/Desktop/Tarleton M.D./Advanced Quantitative Methods & Experimental Design/subject-2.csv","legacy","7 8 4 6 9 5","Melodramatic Milgram","4.0.5","4","y","0","left","left","right","left","NA","707.0","419949","289478","707","NA","2","legacy","6","1024","2","48000","-16","experiment","2","even","6","1047666","1049872","1040876","1047664","2829","783496","1046618","2948","494000","1051878","1052586","1048669","423164","1051878","NA","Sternberg task","49","29420.0","59","1024"
"83","83","499","499","#3d3846","experiment","legacy","legacy","legacy","1","undefined","1","right","59","59","59","59","0","0","59","0","0","59","59","59","0","59","0","Sun Oct 22 14:20:05 2023","The main experiment item","False","Sternbergtask.osexp","/Users/keelihatcher/Desktop/Tarleton M.D./Advanced Quantitative Methods & Experimental Design","False","mono","False","18","no","white","no","yes","768","legacy","47","11","/Users/keelihatcher/Desktop/Tarleton M.D./Advanced Quantitative Methods & Experimental Design/subject-2.csv","legacy","1 3 2 6 9","Melodramatic Milgram","4.0.5","0","n","0","right","left","right","right","NA","549.0","419949","289478","549","NA","2","legacy","5","1024","2","48000","-16","experiment","2","even","5","1053642","1055850","1052588","1053639","2829","783496","1046618","2948","494000","1057853","1058403","1054645","423164","1057853","NA","Sternberg task","50","29969.0","60","1024"
"83","83","500","500","#3d3846","experiment","legacy","legacy","legacy","1","undefined","1","right","60","60","60","60","0","0","60","0","0","60","60","60","0","60","0","Sun Oct 22 14:20:05 2023","The main experiment item","False","Sternbergtask.osexp","/Users/keelihatcher/Desktop/Tarleton M.D./Advanced Quantitative Methods & Experimental Design","False","mono","False","18","no","white","no","yes","768","legacy","48","11","/Users/keelihatcher/Desktop/Tarleton M.D./Advanced Quantitative Methods & Experimental Design/subject-2.csv","legacy","1 6 4","Melodramatic Milgram","4.0.5","0","n","0","right","left","right","right","NA","551.0","419949","289478","551","NA","2","legacy","3","1024","2","48000","-16","experiment","2","even","7","1059459","1061667","1058405","1059457","2829","783496","1046618","2948","494000","1063672","1064224","1060463","423164","1063671","NA","Sternberg task","51","30520.0","61","1024"
"82","82","499","499","#3d3846","experiment","legacy","legacy","legacy","0","undefined","0","right","61","61","61","61","0","0","61","0","0","61","61","61","0","61","0","Sun Oct 22 14:20:05 2023","The main experiment item","False","Sternbergtask.osexp","/Users/keelihatcher/Desktop/Tarleton M.D./Advanced Quantitative Methods & Experimental Design","False","mono","False","18","no","white","no","yes","768","legacy","49","11","/Users/keelihatcher/Desktop/Tarleton M.D./Advanced Quantitative Methods & Experimental Design/subject-2.csv","legacy","8 6 3 4 7","Melodramatic Milgram","4.0.5","0","n","0","left","left","right","left","NA","459.0","419949","289478","459","NA","2","legacy","5","1024","2","48000","-16","experiment","2","even","1","1065281","1067489","1064226","1065279","2829","783496","1046618","2948","494000","1069493","1069953","1066284","423164","1069493","NA","Sternberg task","51","30979.0","62","1024"
"82","82","501","501","#3d3846","experiment","legacy","legacy","legacy","1","undefined","1","right","62","62","62","62","0","0","62","0","0","62","62","62","0","62","0","Sun Oct 22 14:20:05 2023","The main experiment item","False","Sternbergtask.osexp","/Users/keelihatcher/Desktop/Tarleton M.D./Advanced Quantitative Methods & Experimental Design","False","mono","False","18","no","white","no","yes","768","legacy","50","11","/Users/keelihatcher/Desktop/Tarleton M.D./Advanced Quantitative Methods & Experimental Design/subject-2.csv","legacy","6 9 5","Melodramatic Milgram","4.0.5","0","n","0","right","left","right","right","NA","629.0","419949","289478","629","NA","2","legacy","3","1024","2","48000","-16","experiment","2","even","8","1071008","1073215","1064226","1071006","2829","783496","1069954","2948","494000","1075218","1075847","1072011","423164","1075218","NA","Sternberg task","52","31608.0","63","1024"
"82","82","502","502","#3d3846","experiment","legacy","legacy","legacy","1","undefined","1","right","63","63","63","63","0","0","63","0","0","63","63","63","0","63","0","Sun Oct 22 14:20:05 2023","The main experiment item","False","Sternbergtask.osexp","/Users/keelihatcher/Desktop/Tarleton M.D./Advanced Quantitative Methods & Experimental Design","False","mono","False","18","no","white","no","yes","768","legacy","51","11","/Users/keelihatcher/Desktop/Tarleton M.D./Advanced Quantitative Methods & Experimental Design/subject-2.csv","legacy","1 4 9 3","Melodramatic Milgram","4.0.5","0","n","0","right","left","right","right","NA","576.0","419949","289478","576","NA","2","legacy","4","1024","2","48000","-16","experiment","2","even","5","1076908","1079118","1075851","1076906","2829","783496","1069954","2948","494000","1081122","1081699","1077912","423164","1081122","NA","Sternberg task","53","32184.0","64","1024"
"83","83","505","505","#3d3846","experiment","legacy","legacy","legacy","1","undefined","1","right","64","64","64","64","0","0","64","0","0","64","64","64","0","64","0","Sun Oct 22 14:20:05 2023","The main experiment item","False","Sternbergtask.osexp","/Users/keelihatcher/Desktop/Tarleton M.D./Advanced Quantitative Methods & Experimental Design","False","mono","False","18","no","white","no","yes","768","legacy","52","11","/Users/keelihatcher/Desktop/Tarleton M.D./Advanced Quantitative Methods & Experimental Design/subject-2.csv","legacy","7 3 2 8","Melodramatic Milgram","4.0.5","0","n","0","right","left","right","right","NA","647.0","419949","289478","647","NA","2","legacy","4","1024","2","48000","-16","experiment","2","even","4","1082751","1084959","1081701","1082749","2829","783496","1069954","2948","494000","1086970","1087618","1083755","423164","1086970","NA","Sternberg task","54","32831.0","65","1024"
"81","81","504","504","#3d3846","experiment","legacy","legacy","legacy","0","undefined","0","left","65","65","65","65","0","0","65","0","0","65","65","65","0","65","0","Sun Oct 22 14:20:05 2023","The main experiment item","False","Sternbergtask.osexp","/Users/keelihatcher/Desktop/Tarleton M.D./Advanced Quantitative Methods & Experimental Design","False","mono","False","18","no","white","no","yes","768","legacy","53","11","/Users/keelihatcher/Desktop/Tarleton M.D./Advanced Quantitative Methods & Experimental Design/subject-2.csv","legacy","2 4 6 9","Melodramatic Milgram","4.0.5","3","y","0","right","left","right","right","NA","498.0","419949","289478","498","NA","2","legacy","4","1024","2","48000","-16","experiment","2","even","6","1088668","1090876","1087622","1088666","2829","783496","1069954","2948","494000","1092879","1093378","1089671","423164","1092878","NA","Sternberg task","54","33329.0","66","1024"
"82","82","506","506","#3d3846","experiment","legacy","legacy","legacy","1","undefined","1","right","66","66","66","66","0","0","66","0","0","66","66","66","0","66","0","Sun Oct 22 14:20:05 2023","The main experiment item","False","Sternbergtask.osexp","/Users/keelihatcher/Desktop/Tarleton M.D./Advanced Quantitative Methods & Experimental Design","False","mono","False","18","no","white","no","yes","768","legacy","54","11","/Users/keelihatcher/Desktop/Tarleton M.D./Advanced Quantitative Methods & Experimental Design/subject-2.csv","legacy","9 5 3 2 8 6","Melodramatic Milgram","4.0.5","0","n","0","right","left","right","right","NA","608.0","419949","289478","608","NA","2","legacy","6","1024","2","48000","-16","experiment","2","even","7","1094428","1096636","1087622","1094426","2829","783496","1093380","2948","494000","1098639","1099248","1095431","423164","1098639","NA","Sternberg task","55","33937.0","67","1024"
"80","80","505","505","#3d3846","experiment","legacy","legacy","legacy","0","undefined","0","left","67","67","67","67","0","0","67","0","0","67","67","67","0","67","0","Sun Oct 22 14:20:05 2023","The main experiment item","False","Sternbergtask.osexp","/Users/keelihatcher/Desktop/Tarleton M.D./Advanced Quantitative Methods & Experimental Design","False","mono","False","18","no","white","no","yes","768","legacy","55","11","/Users/keelihatcher/Desktop/Tarleton M.D./Advanced Quantitative Methods & Experimental Design/subject-2.csv","legacy","7 6","Melodramatic Milgram","4.0.5","2","y","0","right","left","right","right","NA","459.0","419949","289478","459","NA","2","legacy","2","1024","2","48000","-16","experiment","2","even","6","1100308","1102515","1099252","1100305","2829","783496","1093380","2948","494000","1104518","1104978","1101312","423164","1104518","NA","Sternberg task","55","34396.0","68","1024"
"81","81","508","508","#3d3846","experiment","legacy","legacy","legacy","1","undefined","1","left","68","68","68","68","0","0","68","0","0","68","68","68","0","68","0","Sun Oct 22 14:20:05 2023","The main experiment item","False","Sternbergtask.osexp","/Users/keelihatcher/Desktop/Tarleton M.D./Advanced Quantitative Methods & Experimental Design","False","mono","False","18","no","white","no","yes","768","legacy","56","11","/Users/keelihatcher/Desktop/Tarleton M.D./Advanced Quantitative Methods & Experimental Design/subject-2.csv","legacy","4 7 6 8 2 3","Melodramatic Milgram","4.0.5","6","y","0","left","left","right","left","NA","720.0","419949","289478","720","NA","2","legacy","6","1024","2","48000","-16","experiment","2","even","3","1106031","1108238","1099252","1106029","2829","783496","1104980","2948","494000","1110241","1110961","1107034","423164","1110241","NA","Sternberg task","56","35116.0","69","1024"
"81","81","508","508","#3d3846","experiment","legacy","legacy","legacy","1","undefined","1","left","69","69","69","69","0","0","69","0","0","69","69","69","0","69","0","Sun Oct 22 14:20:05 2023","The main experiment item","False","Sternbergtask.osexp","/Users/keelihatcher/Desktop/Tarleton M.D./Advanced Quantitative Methods & Experimental Design","False","mono","False","18","no","white","no","yes","768","legacy","57","11","/Users/keelihatcher/Desktop/Tarleton M.D./Advanced Quantitative Methods & Experimental Design/subject-2.csv","legacy","3 4 9 6 2 9","Melodramatic Milgram","4.0.5","5","y","0","left","left","right","left","NA","509.0","419949","289478","509","NA","2","legacy","6","1024","2","48000","-16","experiment","2","even","2","1112017","1114225","1110966","1112015","2829","783496","1104980","2948","494000","1116228","1116738","1113021","423164","1116228","NA","Sternberg task","57","35625.0","70","1024"
"81","81","508","508","#3d3846","experiment","legacy","legacy","legacy","1","undefined","1","left","70","70","70","70","0","0","70","0","0","70","70","70","0","70","0","Sun Oct 22 14:20:05 2023","The main experiment item","False","Sternbergtask.osexp","/Users/keelihatcher/Desktop/Tarleton M.D./Advanced Quantitative Methods & Experimental Design","False","mono","False","18","no","white","no","yes","768","legacy","58","11","/Users/keelihatcher/Desktop/Tarleton M.D./Advanced Quantitative Methods & Experimental Design/subject-2.csv","legacy","2 5 4 8 7","Melodramatic Milgram","4.0.5","3","y","0","left","left","right","left","NA","459.0","419949","289478","459","NA","2","legacy","5","1024","2","48000","-16","experiment","2","even","4","1117787","1119995","1116740","1117785","2829","783496","1104980","2948","494000","1121998","1122458","1118790","423164","1121998","NA","Sternberg task","58","36084.0","71","1024"
"81","81","506","506","#3d3846","experiment","legacy","legacy","legacy","1","undefined","1","left","71","71","71","71","0","0","71","0","0","71","71","71","0","71","0","Sun Oct 22 14:20:05 2023","The main experiment item","False","Sternbergtask.osexp","/Users/keelihatcher/Desktop/Tarleton M.D./Advanced Quantitative Methods & Experimental Design","False","mono","False","18","no","white","no","yes","768","legacy","59","11","/Users/keelihatcher/Desktop/Tarleton M.D./Advanced Quantitative Methods & Experimental Design/subject-2.csv","legacy","5 7 8 2 3 8","Melodramatic Milgram","4.0.5","5","y","0","left","left","right","left","NA","412.0","419949","289478","412","NA","2","legacy","6","1024","2","48000","-16","experiment","2","even","3","1123507","1125714","1122460","1123504","2829","783496","1104980","2948","494000","1127717","1128130","1124511","423164","1127717","NA","Sternberg task","59","36496.0","72","1024"
"82","82","506","506","#3d3846","experiment","legacy","legacy","legacy","1","undefined","1","left","72","72","72","72","0","0","72","0","0","72","72","72","0","72","0","Sun Oct 22 14:20:05 2023","The main experiment item","False","Sternbergtask.osexp","/Users/keelihatcher/Desktop/Tarleton M.D./Advanced Quantitative Methods & Experimental Design","False","mono","False","18","no","white","no","yes","768","legacy","60","11","/Users/keelihatcher/Desktop/Tarleton M.D./Advanced Quantitative Methods & Experimental Design/subject-2.csv","legacy","8 5 1 3 9","Melodramatic Milgram","4.0.5","4","y","0","left","left","right","left","NA","442.0","419949","289478","442","NA","2","legacy","5","1024","2","48000","-16","experiment","2","even","3","1129181","1131388","1128132","1129179","2829","783496","1104980","2948","494000","1133391","1133834","1130184","423164","1133391","NA","Sternberg task","60","36938.0","73","1024"
"82","82","504","504","#3d3846","experiment","legacy","legacy","legacy","1","undefined","1","left","73","73","73","73","0","0","73","0","0","73","73","73","0","73","0","Sun Oct 22 14:20:05 2023","The main experiment item","False","Sternbergtask.osexp","/Users/keelihatcher/Desktop/Tarleton M.D./Advanced Quantitative Methods & Experimental Design","False","mono","False","18","no","white","no","yes","768","legacy","61","11","/Users/keelihatcher/Desktop/Tarleton M.D./Advanced Quantitative Methods & Experimental Design/subject-2.csv","legacy","4 3 2 5 8","Melodramatic Milgram","4.0.5","2","y","0","left","left","right","left","NA","406.0","419949","289478","406","NA","2","legacy","5","1024","2","48000","-16","experiment","2","even","3","1134880","1137088","1133836","1134878","2829","783496","1104980","2948","494000","1139091","1139498","1135883","423164","1139091","NA","Sternberg task","61","37344.0","74","1024"
"82","82","508","508","#3d3846","experiment","legacy","legacy","legacy","1","undefined","1","right","74","74","74","74","0","0","74","0","0","74","74","74","0","74","0","Sun Oct 22 14:20:05 2023","The main experiment item","False","Sternbergtask.osexp","/Users/keelihatcher/Desktop/Tarleton M.D./Advanced Quantitative Methods & Experimental Design","False","mono","False","18","no","white","no","yes","768","legacy","62","11","/Users/keelihatcher/Desktop/Tarleton M.D./Advanced Quantitative Methods & Experimental Design/subject-2.csv","legacy","7 6 4 8 1 2","Melodramatic Milgram","4.0.5","0","n","0","right","left","right","right","NA","786.0","419949","289478","786","NA","2","legacy","6","1024","2","48000","-16","experiment","2","even","9","1140548","1142756","1139500","1140546","2829","783496","1104980","2948","494000","1144759","1145546","1141551","423164","1144759","NA","Sternberg task","62","38130.0","75","1024"
"82","82","507","507","#3d3846","experiment","legacy","legacy","legacy","1","undefined","1","left","75","75","75","75","0","0","75","0","0","75","75","75","0","75","0","Sun Oct 22 14:20:05 2023","The main experiment item","False","Sternbergtask.osexp","/Users/keelihatcher/Desktop/Tarleton M.D./Advanced Quantitative Methods & Experimental Design","False","mono","False","18","no","white","no","yes","768","legacy","63","11","/Users/keelihatcher/Desktop/Tarleton M.D./Advanced Quantitative Methods & Experimental Design/subject-2.csv","legacy","3 9 7 6 4","Melodramatic Milgram","4.0.5","3","y","0","left","left","right","left","NA","427.0","419949","289478","427","NA","2","legacy","5","1024","2","48000","-16","experiment","2","even","7","1146601","1148811","1145549","1146599","2829","783496","1104980","2948","494000","1150814","1151242","1147604","423164","1150814","NA","Sternberg task","63","38557.0","76","1024"
"83","83","507","507","#3d3846","experiment","legacy","legacy","legacy","1","undefined","1","left","76","76","76","76","0","0","76","0","0","76","76","76","0","76","0","Sun Oct 22 14:20:05 2023","The main experiment item","False","Sternbergtask.osexp","/Users/keelihatcher/Desktop/Tarleton M.D./Advanced Quantitative Methods & Experimental Design","False","mono","False","18","no","white","no","yes","768","legacy","64","11","/Users/keelihatcher/Desktop/Tarleton M.D./Advanced Quantitative Methods & Experimental Design/subject-2.csv","legacy","9 1 6 7 8","Melodramatic Milgram","4.0.5","1","y","0","left","left","right","left","NA","558.0","419949","289478","558","NA","2","legacy","5","1024","2","48000","-16","experiment","2","even","9","1152294","1154503","1151244","1152292","2829","783496","1104980","2948","494000","1156507","1157066","1153298","423164","1156506","NA","Sternberg task","64","39115.0","77","1024"
"83","83","507","507","#3d3846","experiment","legacy","legacy","legacy","1","undefined","1","right","77","77","77","77","0","0","77","0","0","77","77","77","0","77","0","Sun Oct 22 14:20:05 2023","The main experiment item","False","Sternbergtask.osexp","/Users/keelihatcher/Desktop/Tarleton M.D./Advanced Quantitative Methods & Experimental Design","False","mono","False","18","no","white","no","yes","768","legacy","65","11","/Users/keelihatcher/Desktop/Tarleton M.D./Advanced Quantitative Methods & Experimental Design/subject-2.csv","legacy","1 8 7","Melodramatic Milgram","4.0.5","0","n","0","right","left","right","right","NA","506.0","419949","289478","506","NA","2","legacy","3","1024","2","48000","-16","experiment","2","even","4","1158115","1160323","1157068","1158113","2829","783496","1104980","2948","494000","1162327","1162834","1159118","423164","1162327","NA","Sternberg task","65","39621.0","78","1024"
"83","83","508","508","#3d3846","experiment","legacy","legacy","legacy","1","undefined","1","right","78","78","78","78","0","0","78","0","0","78","78","78","0","78","0","Sun Oct 22 14:20:05 2023","The main experiment item","False","Sternbergtask.osexp","/Users/keelihatcher/Desktop/Tarleton M.D./Advanced Quantitative Methods & Experimental Design","False","mono","False","18","no","white","no","yes","768","legacy","66","11","/Users/keelihatcher/Desktop/Tarleton M.D./Advanced Quantitative Methods & Experimental Design/subject-2.csv","legacy","7 4 2 8 1 9","Melodramatic Milgram","4.0.5","0","n","0","right","left","right","right","NA","561.0","419949","289478","561","NA","2","legacy","6","1024","2","48000","-16","experiment","2","even","5","1163889","1166098","1162837","1163887","2829","783496","1104980","2948","494000","1168104","1168666","1164893","423164","1168103","NA","Sternberg task","66","40182.0","79","1024"
"83","83","509","509","#3d3846","experiment","legacy","legacy","legacy","1","undefined","1","left","79","79","79","79","0","0","79","0","0","79","79","79","0","79","0","Sun Oct 22 14:20:05 2023","The main experiment item","False","Sternbergtask.osexp","/Users/keelihatcher/Desktop/Tarleton M.D./Advanced Quantitative Methods & Experimental Design","False","mono","False","18","no","white","no","yes","768","legacy","67","11","/Users/keelihatcher/Desktop/Tarleton M.D./Advanced Quantitative Methods & Experimental Design/subject-2.csv","legacy","8 5 3 7 4 6","Melodramatic Milgram","4.0.5","6","y","0","left","left","right","left","NA","588.0","419949","289478","588","NA","2","legacy","6","1024","2","48000","-16","experiment","2","even","6","1169707","1171914","1168668","1169705","2829","783496","1104980","2948","494000","1173917","1174506","1170710","423164","1173917","NA","Sternberg task","67","40770.0","80","1024"
"83","83","509","509","#3d3846","experiment","legacy","legacy","legacy","1","undefined","1","right","80","80","80","80","0","0","80","0","0","80","80","80","0","80","0","Sun Oct 22 14:20:05 2023","The main experiment item","False","Sternbergtask.osexp","/Users/keelihatcher/Desktop/Tarleton M.D./Advanced Quantitative Methods & Experimental Design","False","mono","False","18","no","white","no","yes","768","legacy","68","11","/Users/keelihatcher/Desktop/Tarleton M.D./Advanced Quantitative Methods & Experimental Design/subject-2.csv","legacy","8 5 7 3 6","Melodramatic Milgram","4.0.5","0","n","0","right","left","right","right","NA","528.0","419949","289478","528","NA","2","legacy","5","1024","2","48000","-16","experiment","2","even","9","1175558","1177765","1174509","1175555","2829","783496","1104980","2948","494000","1179768","1180297","1176561","423164","1179768","NA","Sternberg task","68","41298.0","81","1024"
"84","84","509","509","#3d3846","experiment","legacy","legacy","legacy","1","undefined","1","right","81","81","81","81","0","0","81","0","0","81","81","81","0","81","0","Sun Oct 22 14:20:05 2023","The main experiment item","False","Sternbergtask.osexp","/Users/keelihatcher/Desktop/Tarleton M.D./Advanced Quantitative Methods & Experimental Design","False","mono","False","18","no","white","no","yes","768","legacy","69","11","/Users/keelihatcher/Desktop/Tarleton M.D./Advanced Quantitative Methods & Experimental Design/subject-2.csv","legacy","1 6 4 3 9 7","Melodramatic Milgram","4.0.5","0","n","0","right","left","right","right","NA","501.0","419949","289478","501","NA","2","legacy","6","1024","2","48000","-16","experiment","2","even","8","1181351","1183561","1180299","1181349","2829","783496","1104980","2948","494000","1185564","1186066","1182355","423164","1185564","NA","Sternberg task","69","41799.0","82","1024"
"84","84","509","509","#3d3846","experiment","legacy","legacy","legacy","1","undefined","1","right","82","82","82","82","0","0","82","0","0","82","82","82","0","82","0","Sun Oct 22 14:20:05 2023","The main experiment item","False","Sternbergtask.osexp","/Users/keelihatcher/Desktop/Tarleton M.D./Advanced Quantitative Methods & Experimental Design","False","mono","False","18","no","white","no","yes","768","legacy","70","11","/Users/keelihatcher/Desktop/Tarleton M.D./Advanced Quantitative Methods & Experimental Design/subject-2.csv","legacy","3 4 9 6 7 8","Melodramatic Milgram","4.0.5","0","n","0","right","left","right","right","NA","485.0","419949","289478","485","NA","2","legacy","6","1024","2","48000","-16","experiment","2","even","2","1187114","1189322","1186068","1187112","2829","783496","1104980","2948","494000","1191325","1191810","1188118","423164","1191325","NA","Sternberg task","70","42284.0","83","1024"
"84","84","509","509","#3d3846","experiment","legacy","legacy","legacy","1","undefined","1","left","83","83","83","83","0","0","83","0","0","83","83","83","0","83","0","Sun Oct 22 14:20:05 2023","The main experiment item","False","Sternbergtask.osexp","/Users/keelihatcher/Desktop/Tarleton M.D./Advanced Quantitative Methods & Experimental Design","False","mono","False","18","no","white","no","yes","768","legacy","71","11","/Users/keelihatcher/Desktop/Tarleton M.D./Advanced Quantitative Methods & Experimental Design/subject-2.csv","legacy","9 3 8 2 1 4","Melodramatic Milgram","4.0.5","3","y","0","left","left","right","left","NA","519.0","419949","289478","519","NA","2","legacy","6","1024","2","48000","-16","experiment","2","even","8","1192877","1195087","1191813","1192859","2829","783496","1104980","2948","494000","1197090","1197610","1193883","423164","1197090","NA","Sternberg task","71","42803.0","84","1024"
"84","84","508","508","#3d3846","experiment","legacy","legacy","legacy","1","undefined","1","left","84","84","84","84","0","0","84","0","0","84","84","84","0","84","0","Sun Oct 22 14:20:05 2023","The main experiment item","False","Sternbergtask.osexp","/Users/keelihatcher/Desktop/Tarleton M.D./Advanced Quantitative Methods & Experimental Design","False","mono","False","18","no","white","no","yes","768","legacy","72","11","/Users/keelihatcher/Desktop/Tarleton M.D./Advanced Quantitative Methods & Experimental Design/subject-2.csv","legacy","8 9 6 1","Melodramatic Milgram","4.0.5","2","y","0","left","left","right","left","NA","453.0","419949","289478","453","NA","2","legacy","4","1024","2","48000","-16","experiment","2","even","9","1198666","1200873","1197613","1198663","2829","783496","1104980","2948","494000","1202884","1203338","1199670","423164","1202883","NA","Sternberg task","72","43256.0","85","1024"
"84","84","510","510","#3d3846","experiment","legacy","legacy","legacy","1","undefined","1","right","85","85","85","85","0","0","85","0","0","85","85","85","0","85","0","Sun Oct 22 14:20:05 2023","The main experiment item","False","Sternbergtask.osexp","/Users/keelihatcher/Desktop/Tarleton M.D./Advanced Quantitative Methods & Experimental Design","False","mono","False","18","no","white","no","yes","768","legacy","73","11","/Users/keelihatcher/Desktop/Tarleton M.D./Advanced Quantitative Methods & Experimental Design/subject-2.csv","legacy","7 8 6 1","Melodramatic Milgram","4.0.5","0","n","0","right","left","right","right","NA","668.0","419949","289478","668","NA","2","legacy","4","1024","2","48000","-16","experiment","2","even","3","1204393","1206602","1203340","1204391","2829","783496","1104980","2948","494000","1208605","1209274","1205398","423164","1208605","NA","Sternberg task","73","43924.0","86","1024"
"85","85","510","510","#3d3846","experiment","legacy","legacy","legacy","1","undefined","1","right","86","86","86","86","0","0","86","0","0","86","86","86","0","86","0","Sun Oct 22 14:20:05 2023","The main experiment item","False","Sternbergtask.osexp","/Users/keelihatcher/Desktop/Tarleton M.D./Advanced Quantitative Methods & Experimental Design","False","mono","False","18","no","white","no","yes","768","legacy","74","11","/Users/keelihatcher/Desktop/Tarleton M.D./Advanced Quantitative Methods & Experimental Design/subject-2.csv","legacy","8 4 3 9","Melodramatic Milgram","4.0.5","0","n","0","right","left","right","right","NA","448.0","419949","289478","448","NA","2","legacy","4","1024","2","48000","-16","experiment","2","even","5","1210324","1212533","1209276","1210322","2829","783496","1104980","2948","494000","1214537","1214986","1211328","423164","1214536","NA","Sternberg task","74","44372.0","87","1024"
"85","85","510","510","#3d3846","experiment","legacy","legacy","legacy","1","undefined","1","right","87","87","87","87","0","0","87","0","0","87","87","87","0","87","0","Sun Oct 22 14:20:05 2023","The main experiment item","False","Sternbergtask.osexp","/Users/keelihatcher/Desktop/Tarleton M.D./Advanced Quantitative Methods & Experimental Design","False","mono","False","18","no","white","no","yes","768","legacy","75","11","/Users/keelihatcher/Desktop/Tarleton M.D./Advanced Quantitative Methods & Experimental Design/subject-2.csv","legacy","7 1 8 4 9 3","Melodramatic Milgram","4.0.5","0","n","0","right","left","right","right","NA","550.0","419949","289478","550","NA","2","legacy","6","1024","2","48000","-16","experiment","2","even","6","1216038","1218248","1214988","1216036","2829","783496","1104980","2948","494000","1220251","1220802","1217042","423164","1220251","NA","Sternberg task","75","44922.0","88","1024"
"84","84","510","510","#3d3846","experiment","legacy","legacy","legacy","0","undefined","0","left","88","88","88","88","0","0","88","0","0","88","88","88","0","88","0","Sun Oct 22 14:20:05 2023","The main experiment item","False","Sternbergtask.osexp","/Users/keelihatcher/Desktop/Tarleton M.D./Advanced Quantitative Methods & Experimental Design","False","mono","False","18","no","white","no","yes","768","legacy","76","11","/Users/keelihatcher/Desktop/Tarleton M.D./Advanced Quantitative Methods & Experimental Design/subject-2.csv","legacy","9 5 3 8 4","Melodramatic Milgram","4.0.5","1","y","0","right","left","right","right","NA","478.0","419949","289478","478","NA","2","legacy","5","1024","2","48000","-16","experiment","2","even","9","1221856","1224063","1220805","1221853","2829","783496","1104980","2948","494000","1226067","1226546","1222859","423164","1226067","NA","Sternberg task","75","45400.0","89","1024"
"84","84","509","509","#3d3846","experiment","legacy","legacy","legacy","1","undefined","1","left","89","89","89","89","0","0","89","0","0","89","89","89","0","89","0","Sun Oct 22 14:20:05 2023","The main experiment item","False","Sternbergtask.osexp","/Users/keelihatcher/Desktop/Tarleton M.D./Advanced Quantitative Methods & Experimental Design","False","mono","False","18","no","white","no","yes","768","legacy","77","11","/Users/keelihatcher/Desktop/Tarleton M.D./Advanced Quantitative Methods & Experimental Design/subject-2.csv","legacy","2 3","Melodramatic Milgram","4.0.5","1","y","0","left","left","right","left","NA","487.0","419949","289478","487","NA","2","legacy","2","1024","2","48000","-16","experiment","2","even","2","1227597","1229806","1220805","1227594","2829","783496","1226548","2948","494000","1231811","1232299","1228602","423164","1231811","NA","Sternberg task","76","45887.0","90","1024"
"83","83","509","509","#3d3846","experiment","legacy","legacy","legacy","0","undefined","0","right","90","90","90","90","0","0","90","0","0","90","90","90","0","90","0","Sun Oct 22 14:20:05 2023","The main experiment item","False","Sternbergtask.osexp","/Users/keelihatcher/Desktop/Tarleton M.D./Advanced Quantitative Methods & Experimental Design","False","mono","False","18","no","white","no","yes","768","legacy","78","11","/Users/keelihatcher/Desktop/Tarleton M.D./Advanced Quantitative Methods & Experimental Design/subject-2.csv","legacy","6 7 5 9","Melodramatic Milgram","4.0.5","0","n","0","left","left","right","left","NA","476.0","419949","289478","476","NA","2","legacy","4","1024","2","48000","-16","experiment","2","even","2","1233346","1235554","1232300","1233344","2829","783496","1226548","2948","494000","1237557","1238034","1234349","423164","1237557","NA","Sternberg task","76","46363.0","91","1024"
"83","83","508","508","#3d3846","experiment","legacy","legacy","legacy","1","undefined","1","left","91","91","91","91","0","0","91","0","0","91","91","91","0","91","0","Sun Oct 22 14:20:05 2023","The main experiment item","False","Sternbergtask.osexp","/Users/keelihatcher/Desktop/Tarleton M.D./Advanced Quantitative Methods & Experimental Design","False","mono","False","18","no","white","no","yes","768","legacy","79","11","/Users/keelihatcher/Desktop/Tarleton M.D./Advanced Quantitative Methods & Experimental Design/subject-2.csv","legacy","7 1 3","Melodramatic Milgram","4.0.5","2","y","0","left","left","right","left","NA","442.0","419949","289478","442","NA","2","legacy","3","1024","2","48000","-16","experiment","2","even","1","1239085","1241293","1232300","1239082","2829","783496","1238036","2948","494000","1243296","1243738","1240088","423164","1243296","NA","Sternberg task","77","46805.0","92","1024"
"83","83","510","510","#3d3846","experiment","legacy","legacy","legacy","1","undefined","1","left","92","92","92","92","0","0","92","0","0","92","92","92","0","92","0","Sun Oct 22 14:20:05 2023","The main experiment item","False","Sternbergtask.osexp","/Users/keelihatcher/Desktop/Tarleton M.D./Advanced Quantitative Methods & Experimental Design","False","mono","False","18","no","white","no","yes","768","legacy","80","11","/Users/keelihatcher/Desktop/Tarleton M.D./Advanced Quantitative Methods & Experimental Design/subject-2.csv","legacy","8 7 3","Melodramatic Milgram","4.0.5","1","y","0","left","left","right","left","NA","633.0","419949","289478","633","NA","2","legacy","3","1024","2","48000","-16","experiment","2","even","8","1244789","1246997","1243740","1244787","2829","783496","1238036","2948","494000","1249000","1249634","1245791","423164","1249000","NA","Sternberg task","78","47438.0","93","1024"
"84","84","510","510","#3d3846","experiment","legacy","legacy","legacy","1","undefined","1","left","93","93","93","93","0","0","93","0","0","93","93","93","0","93","0","Sun Oct 22 14:20:05 2023","The main experiment item","False","Sternbergtask.osexp","/Users/keelihatcher/Desktop/Tarleton M.D./Advanced Quantitative Methods & Experimental Design","False","mono","False","18","no","white","no","yes","768","legacy","81","11","/Users/keelihatcher/Desktop/Tarleton M.D./Advanced Quantitative Methods & Experimental Design/subject-2.csv","legacy","6 7 8 5","Melodramatic Milgram","4.0.5","3","y","0","left","left","right","left","NA","564.0","419949","289478","564","NA","2","legacy","4","1024","2","48000","-16","experiment","2","even","8","1250690","1252899","1249636","1250686","2829","783496","1238036","2948","494000","1254902","1255467","1251694","423164","1254902","NA","Sternberg task","79","48002.0","94","1024"
"84","84","509","509","#3d3846","experiment","legacy","legacy","legacy","1","undefined","1","left","94","94","94","94","0","0","94","0","0","94","94","94","0","94","0","Sun Oct 22 14:20:05 2023","The main experiment item","False","Sternbergtask.osexp","/Users/keelihatcher/Desktop/Tarleton M.D./Advanced Quantitative Methods & Experimental Design","False","mono","False","18","no","white","no","yes","768","legacy","82","11","/Users/keelihatcher/Desktop/Tarleton M.D./Advanced Quantitative Methods & Experimental Design/subject-2.csv","legacy","2 3 7 4","Melodramatic Milgram","4.0.5","1","y","0","left","left","right","left","NA","440.0","419949","289478","440","NA","2","legacy","4","1024","2","48000","-16","experiment","2","even","2","1256519","1258726","1255469","1256516","2829","783496","1238036","2948","494000","1260730","1261171","1257522","423164","1260730","NA","Sternberg task","80","48442.0","95","1024"
"84","84","509","509","#3d3846","experiment","legacy","legacy","legacy","1","undefined","1","right","95","95","95","95","0","0","95","0","0","95","95","95","0","95","0","Sun Oct 22 14:20:05 2023","The main experiment item","False","Sternbergtask.osexp","/Users/keelihatcher/Desktop/Tarleton M.D./Advanced Quantitative Methods & Experimental Design","False","mono","False","18","no","white","no","yes","768","legacy","83","11","/Users/keelihatcher/Desktop/Tarleton M.D./Advanced Quantitative Methods & Experimental Design/subject-2.csv","legacy","5 7 3","Melodramatic Milgram","4.0.5","0","n","0","right","left","right","right","NA","425.0","419949","289478","425","NA","2","legacy","3","1024","2","48000","-16","experiment","2","even","9","1262222","1264429","1261172","1262219","2829","783496","1238036","2948","494000","1266433","1266859","1263225","423164","1266433","NA","Sternberg task","81","48867.0","96","1024"
"84","84","510","510","#3d3846","experiment","legacy","legacy","legacy","1","undefined","1","left","96","96","96","96","0","0","96","0","0","96","96","96","0","96","0","Sun Oct 22 14:20:05 2023","The main experiment item","False","Sternbergtask.osexp","/Users/keelihatcher/Desktop/Tarleton M.D./Advanced Quantitative Methods & Experimental Design","False","mono","False","18","no","white","no","yes","768","legacy","84","11","/Users/keelihatcher/Desktop/Tarleton M.D./Advanced Quantitative Methods & Experimental Design/subject-2.csv","legacy","5 2 9 6 1 7","Melodramatic Milgram","4.0.5","3","y","0","left","left","right","left","NA","671.0","419949","289478","671","NA","2","legacy","6","1024","2","48000","-16","experiment","2","even","9","1267903","1270112","1266860","1267901","2829","783496","1238036","2948","494000","1272115","1272786","1268907","423164","1272115","NA","Sternberg task","82","49538.0","97","1024"
"84","84","509","509","#3d3846","experiment","legacy","legacy","legacy","1","undefined","1","left","97","97","97","97","0","0","97","0","0","97","97","97","0","97","0","Sun Oct 22 14:20:05 2023","The main experiment item","False","Sternbergtask.osexp","/Users/keelihatcher/Desktop/Tarleton M.D./Advanced Quantitative Methods & Experimental Design","False","mono","False","18","no","white","no","yes","768","legacy","85","11","/Users/keelihatcher/Desktop/Tarleton M.D./Advanced Quantitative Methods & Experimental Design/subject-2.csv","legacy","8","Melodramatic Milgram","4.0.5","1","y","0","left","left","right","left","NA","410.0","419949","289478","410","NA","2","legacy","1","1024","2","48000","-16","experiment","2","even","8","1273837","1276044","1272788","1273835","2829","783496","1238036","2948","494000","1278047","1278458","1274840","423164","1278046","NA","Sternberg task","83","49948.0","98","1024"
"84","84","509","509","#3d3846","experiment","legacy","legacy","legacy","1","undefined","1","right","98","98","98","98","0","0","98","0","0","98","98","98","0","98","0","Sun Oct 22 14:20:05 2023","The main experiment item","False","Sternbergtask.osexp","/Users/keelihatcher/Desktop/Tarleton M.D./Advanced Quantitative Methods & Experimental Design","False","mono","False","18","no","white","no","yes","768","legacy","86","11","/Users/keelihatcher/Desktop/Tarleton M.D./Advanced Quantitative Methods & Experimental Design/subject-2.csv","legacy","6 8","Melodramatic Milgram","4.0.5","0","n","0","right","left","right","right","NA","538.0","419949","289478","538","NA","2","legacy","2","1024","2","48000","-16","experiment","2","even","9","1279500","1281709","1278460","1279498","2829","783496","1238036","2948","494000","1283712","1284251","1280503","423164","1283712","NA","Sternberg task","84","50486.0","99","1024"
"85","85","511","511","#3d3846","experiment","legacy","legacy","legacy","1","undefined","1","right","99","99","99","99","0","0","99","0","0","99","99","99","0","99","0","Sun Oct 22 14:20:05 2023","The main experiment item","False","Sternbergtask.osexp","/Users/keelihatcher/Desktop/Tarleton M.D./Advanced Quantitative Methods & Experimental Design","False","mono","False","18","no","white","no","yes","768","legacy","87","11","/Users/keelihatcher/Desktop/Tarleton M.D./Advanced Quantitative Methods & Experimental Design/subject-2.csv","legacy","2 3 8 5 6 7","Melodramatic Milgram","4.0.5","0","n","0","right","left","right","right","NA","622.0","419949","289478","622","NA","2","legacy","6","1024","2","48000","-16","experiment","2","even","1","1285309","1287518","1284253","1285306","2829","783496","1238036","2948","494000","1289522","1290145","1286312","423164","1289521","NA","Sternberg task","85","51108.0","100","1024"
"85","85","512","512","#3d3846","experiment","legacy","legacy","legacy","1","undefined","1","left","100","100","100","100","0","0","100","0","0","100","100","100","0","100","0","Sun Oct 22 14:20:05 2023","The main experiment item","False","Sternbergtask.osexp","/Users/keelihatcher/Desktop/Tarleton M.D./Advanced Quantitative Methods & Experimental Design","False","mono","False","18","no","white","no","yes","768","legacy","88","11","/Users/keelihatcher/Desktop/Tarleton M.D./Advanced Quantitative Methods & Experimental Design/subject-2.csv","legacy","7 4 2 6 3 5","Melodramatic Milgram","4.0.5","6","y","0","left","left","right","left","NA","614.0","419949","289478","614","NA","2","legacy","6","1024","2","48000","-16","experiment","2","even","5","1291192","1293399","1290147","1291190","2829","783496","1238036","2948","494000","1295402","1296017","1292196","423164","1295402","NA","Sternberg task","86","51722.0","101","1024"
"85","85","511","511","#3d3846","experiment","legacy","legacy","legacy","1","undefined","1","left","101","101","101","101","0","0","101","0","0","101","101","101","0","101","0","Sun Oct 22 14:20:05 2023","The main experiment item","False","Sternbergtask.osexp","/Users/keelihatcher/Desktop/Tarleton M.D./Advanced Quantitative Methods & Experimental Design","False","mono","False","18","no","white","no","yes","768","legacy","89","11","/Users/keelihatcher/Desktop/Tarleton M.D./Advanced Quantitative Methods & Experimental Design/subject-2.csv","legacy","4 9 7 8 5 3","Melodramatic Milgram","4.0.5","4","y","0","left","left","right","left","NA","436.0","419949","289478","436","NA","2","legacy","6","1024","2","48000","-16","experiment","2","even","8","1297082","1299291","1296020","1297074","2829","783496","1238036","2948","494000","1301294","1301731","1298086","423164","1301294","NA","Sternberg task","87","52158.0","102","1024"
"85","85","513","513","#3d3846","experiment","legacy","legacy","legacy","1","undefined","1","left","102","102","102","102","0","0","102","0","0","102","102","102","0","102","0","Sun Oct 22 14:20:05 2023","The main experiment item","False","Sternbergtask.osexp","/Users/keelihatcher/Desktop/Tarleton M.D./Advanced Quantitative Methods & Experimental Design","False","mono","False","18","no","white","no","yes","768","legacy","90","11","/Users/keelihatcher/Desktop/Tarleton M.D./Advanced Quantitative Methods & Experimental Design/subject-2.csv","legacy","3 5 9 6 2 4","Melodramatic Milgram","4.0.5","1","y","0","left","left","right","left","NA","716.0","419949","289478","716","NA","2","legacy","6","1024","2","48000","-16","experiment","2","even","3","1302786","1304993","1301733","1302784","2829","783496","1238036","2948","494000","1306998","1307715","1303789","423164","1306997","NA","Sternberg task","88","52874.0","103","1024"
"85","85","512","512","#3d3846","experiment","legacy","legacy","legacy","1","undefined","1","right","103","103","103","103","0","0","103","0","0","103","103","103","0","103","0","Sun Oct 22 14:20:05 2023","The main experiment item","False","Sternbergtask.osexp","/Users/keelihatcher/Desktop/Tarleton M.D./Advanced Quantitative Methods & Experimental Design","False","mono","False","18","no","white","no","yes","768","legacy","91","11","/Users/keelihatcher/Desktop/Tarleton M.D./Advanced Quantitative Methods & Experimental Design/subject-2.csv","legacy","5 2","Melodramatic Milgram","4.0.5","0","n","0","right","left","right","right","NA","398.0","419949","289478","398","NA","2","legacy","2","1024","2","48000","-16","experiment","2","even","7","1308768","1310976","1307717","1308767","2829","783496","1238036","2948","494000","1312979","1313378","1309772","423164","1312979","NA","Sternberg task","89","53272.0","104","1024"
"85","85","511","511","#3d3846","experiment","legacy","legacy","legacy","1","undefined","1","left","104","104","104","104","0","0","104","0","0","104","104","104","0","104","0","Sun Oct 22 14:20:05 2023","The main experiment item","False","Sternbergtask.osexp","/Users/keelihatcher/Desktop/Tarleton M.D./Advanced Quantitative Methods & Experimental Design","False","mono","False","18","no","white","no","yes","768","legacy","92","11","/Users/keelihatcher/Desktop/Tarleton M.D./Advanced Quantitative Methods & Experimental Design/subject-2.csv","legacy","6 2","Melodramatic Milgram","4.0.5","1","y","0","left","left","right","left","NA","402.0","419949","289478","402","NA","2","legacy","2","1024","2","48000","-16","experiment","2","even","6","1314435","1316645","1313380","1314433","2829","783496","1238036","2948","494000","1318648","1319051","1315440","423164","1318647","NA","Sternberg task","90","53674.0","105","1024"
"85","85","509","509","#3d3846","experiment","legacy","legacy","legacy","1","undefined","1","left","105","105","105","105","0","0","105","0","0","105","105","105","0","105","0","Sun Oct 22 14:20:05 2023","The main experiment item","False","Sternbergtask.osexp","/Users/keelihatcher/Desktop/Tarleton M.D./Advanced Quantitative Methods & Experimental Design","False","mono","False","18","no","white","no","yes","768","legacy","93","11","/Users/keelihatcher/Desktop/Tarleton M.D./Advanced Quantitative Methods & Experimental Design/subject-2.csv","legacy","3 9 6 2","Melodramatic Milgram","4.0.5","4","y","0","left","left","right","left","NA","384.0","419949","289478","384","NA","2","legacy","4","1024","2","48000","-16","experiment","2","even","2","1320105","1322312","1319052","1320103","2829","783496","1238036","2948","494000","1324322","1324707","1321108","423164","1324322","NA","Sternberg task","91","54058.0","106","1024"
"85","85","511","511","#3d3846","experiment","legacy","legacy","legacy","1","undefined","1","left","106","106","106","106","0","0","106","0","0","106","106","106","0","106","0","Sun Oct 22 14:20:05 2023","The main experiment item","False","Sternbergtask.osexp","/Users/keelihatcher/Desktop/Tarleton M.D./Advanced Quantitative Methods & Experimental Design","False","mono","False","18","no","white","no","yes","768","legacy","94","11","/Users/keelihatcher/Desktop/Tarleton M.D./Advanced Quantitative Methods & Experimental Design/subject-2.csv","legacy","3 2 1 4 7","Melodramatic Milgram","4.0.5","2","y","0","left","left","right","left","NA","643.0","419949","289478","643","NA","2","legacy","5","1024","2","48000","-16","experiment","2","even","2","1325763","1327971","1324709","1325761","2829","783496","1238036","2948","494000","1329975","1330619","1326767","423164","1329975","NA","Sternberg task","92","54701.0","107","1024"
