acc,accuracy,average_response_time,avg_rt,background,block,canvas_backend,clock_backend,color_backend,compensation,coordinates,correct,correct_Keyboard_response,correct_instruction1,correct_response,count_ISI,count_Keyboard_response,count_PracticeLoop,count_correctFeedback,count_exp_sequence,count_experiment,count_experimentLoop,count_fixation,count_incorrectFeedback,count_instruction1,count_instructions2,count_logger,count_memorySet,count_probe,count_thankYou,datetime,description,disable_garbage_collection,experiment_file,experiment_path,font_bold,font_family,font_italic,font_size,font_underline,foreground,form_clicks,fullscreen,height,keyboard_backend,live_row,live_row_PracticeLoop,logfile,mouse_backend,numberSet,opensesame_codename,opensesame_version,posInSet,present,repeat_cycle,response,response_Keyboard_response,response_instruction1,response_instructions2,response_thankYou,response_time,response_time_Keyboard_response,response_time_instruction1,response_time_instructions2,response_time_thankYou,round_decimals,sampler_backend,setSize,sound_buf_size,sound_channels,sound_freq,sound_sample_size,start,subject_nr,subject_parity,target,time_ISI,time_Keyboard_response,time_PracticeLoop,time_correctFeedback,time_exp_sequence,time_experiment,time_experimentLoop,time_fixation,time_incorrectFeedback,time_instruction1,time_instructions2,time_logger,time_memorySet,time_probe,time_thankYou,title,total_correct,total_response_time,total_responses,uniform_coordinates,width
100,100,977,977,black,practice,legacy,legacy,legacy,0,uniform,1,1,undefined,left,0,0,0,0,0,0,0,0,0,0,0,0,0,0,0,10/27/19 16:04,The main experiment item,yes,SternbergTask.osexp,C:\Users\hosan\Desktop,no,mono,no,18,no,white,no,yes,768,legacy,0,0,C:/Users/hosan/Desktop/TB-subject-4.csv,legacy,4 8,Kafkaesque Koffka,3.2.8,1,y,0,left,left,left,NA,NA,977,977,194239,NA,NA,2,legacy,2,1024,2,48000,-16,experiment,4,even,4,204130,206136,198226,NA,201923,3979,NA,201926,NA,3985,NA,207114,202928,206135,NA,Sternberg Task,1,977,1,yes,1024
100,100,944.5,944.5,black,practice,legacy,legacy,legacy,0,uniform,1,1,undefined,right,1,1,0,1,1,0,0,1,1,0,0,1,1,1,0,10/27/19 16:04,The main experiment item,yes,SternbergTask.osexp,C:\Users\hosan\Desktop,no,mono,no,18,no,white,no,yes,768,legacy,1,1,C:/Users/hosan/Desktop/TB-subject-4.csv,legacy,9 6 7 4 5,Kafkaesque Koffka,3.2.8,0,n,0,right,right,left,NA,NA,912,912,194239,NA,NA,2,legacy,5,1024,2,48000,-16,experiment,4,even,3,210724,212730,198226,207334,208511,3979,NA,208513,NA,3985,NA,213642,209517,212729,NA,Sternberg Task,2,1889,2,yes,1024
100,100,946,946,black,practice,legacy,legacy,legacy,0,uniform,1,1,undefined,left,2,2,0,2,2,0,0,2,2,0,0,2,2,2,0,10/27/19 16:04,The main experiment item,yes,SternbergTask.osexp,C:\Users\hosan\Desktop,no,mono,no,18,no,white,no,yes,768,legacy,2,2,C:/Users/hosan/Desktop/TB-subject-4.csv,legacy,4 3 1 7 9 8,Kafkaesque Koffka,3.2.8,1,y,0,left,left,left,NA,NA,949,949,194239,NA,NA,2,legacy,6,1024,2,48000,-16,experiment,4,even,4,217163,219169,198226,213795,214952,3979,NA,214955,NA,3985,NA,220119,215961,219168,NA,Sternberg Task,3,2838,3,yes,1024
100,100,895,895,black,practice,legacy,legacy,legacy,0,uniform,1,1,undefined,right,3,3,0,3,3,0,0,3,3,0,0,3,3,3,0,10/27/19 16:04,The main experiment item,yes,SternbergTask.osexp,C:\Users\hosan\Desktop,no,mono,no,18,no,white,no,yes,768,legacy,3,3,C:/Users/hosan/Desktop/TB-subject-4.csv,legacy,5 7 8 4 1 2,Kafkaesque Koffka,3.2.8,0,n,0,right,right,left,NA,NA,742,742,194239,NA,NA,2,legacy,6,1024,2,48000,-16,experiment,4,even,6,223556,225563,198226,220219,221342,3979,NA,221345,NA,3985,NA,226305,222351,225562,NA,Sternberg Task,4,3580,4,yes,1024
100,100,864.2,864.2,black,practice,legacy,legacy,legacy,0,uniform,1,1,undefined,left,4,4,0,4,4,0,0,4,4,0,0,4,4,4,0,10/27/19 16:04,The main experiment item,yes,SternbergTask.osexp,C:\Users\hosan\Desktop,no,mono,no,18,no,white,no,yes,768,legacy,4,4,C:/Users/hosan/Desktop/TB-subject-4.csv,legacy,2 9 4,Kafkaesque Koffka,3.2.8,3,y,0,left,left,left,NA,NA,741,741,194239,NA,NA,2,legacy,3,1024,2,48000,-16,experiment,4,even,4,229722,231728,198226,226363,227510,3979,NA,227513,NA,3985,NA,232469,228518,231728,NA,Sternberg Task,5,4321,5,yes,1024
100,100,821.1666667,821.1666667,black,practice,legacy,legacy,legacy,0,uniform,1,1,undefined,right,5,5,0,5,5,0,0,5,5,0,0,5,5,5,0,10/27/19 16:04,The main experiment item,yes,SternbergTask.osexp,C:\Users\hosan\Desktop,no,mono,no,18,no,white,no,yes,768,legacy,5,5,C:/Users/hosan/Desktop/TB-subject-4.csv,legacy,2 1,Kafkaesque Koffka,3.2.8,0,n,0,right,right,left,NA,NA,606,606,194239,NA,NA,2,legacy,2,1024,2,48000,-16,experiment,4,even,5,235909,237913,198226,232531,233698,3979,NA,233700,NA,3985,NA,238520,234703,237913,NA,Sternberg Task,6,4927,6,yes,1024
100,100,818.5714286,818.5714286,black,practice,legacy,legacy,legacy,0,uniform,1,1,undefined,right,6,6,0,6,6,0,0,6,6,0,0,6,6,6,0,10/27/19 16:04,The main experiment item,yes,SternbergTask.osexp,C:\Users\hosan\Desktop,no,mono,no,18,no,white,no,yes,768,legacy,6,6,C:/Users/hosan/Desktop/TB-subject-4.csv,legacy,5,Kafkaesque Koffka,3.2.8,0,n,0,right,right,left,NA,NA,803,803,194239,NA,NA,2,legacy,1,1024,2,48000,-16,experiment,4,even,3,241975,243981,198226,238598,239768,3979,NA,239771,NA,3985,NA,244785,240773,243981,NA,Sternberg Task,7,5730,7,yes,1024
100,100,812.625,812.625,black,practice,legacy,legacy,legacy,0,uniform,1,1,undefined,left,7,7,0,7,7,0,0,7,7,0,0,7,7,7,0,10/27/19 16:04,The main experiment item,yes,SternbergTask.osexp,C:\Users\hosan\Desktop,no,mono,no,18,no,white,no,yes,768,legacy,7,7,C:/Users/hosan/Desktop/TB-subject-4.csv,legacy,1 5 2 9,Kafkaesque Koffka,3.2.8,2,y,0,left,left,left,NA,NA,771,771,194239,NA,NA,2,legacy,4,1024,2,48000,-16,experiment,4,even,5,248243,250249,198226,244882,246031,3979,NA,246034,NA,3985,NA,251021,247037,250249,NA,Sternberg Task,8,6501,8,yes,1024
100,100,780.1111111,780.1111111,black,practice,legacy,legacy,legacy,0,uniform,1,1,undefined,right,8,8,0,8,8,0,0,8,8,0,0,8,8,8,0,10/27/19 16:04,The main experiment item,yes,SternbergTask.osexp,C:\Users\hosan\Desktop,no,mono,no,18,no,white,no,yes,768,legacy,8,8,C:/Users/hosan/Desktop/TB-subject-4.csv,legacy,3 1 9 4,Kafkaesque Koffka,3.2.8,0,n,0,right,right,left,NA,NA,520,520,194239,NA,NA,2,legacy,4,1024,2,48000,-16,experiment,4,even,6,254462,256467,198226,251091,252243,3979,NA,252246,NA,3985,NA,256987,253255,256467,NA,Sternberg Task,9,7021,9,yes,1024
100,100,758.2,758.2,black,practice,legacy,legacy,legacy,0,uniform,1,1,undefined,right,9,9,0,9,9,0,0,9,9,0,0,9,9,9,0,10/27/19 16:04,The main experiment item,yes,SternbergTask.osexp,C:\Users\hosan\Desktop,no,mono,no,18,no,white,no,yes,768,legacy,9,9,C:/Users/hosan/Desktop/TB-subject-4.csv,legacy,4 1 5,Kafkaesque Koffka,3.2.8,0,n,0,right,right,left,NA,NA,561,561,194239,NA,NA,2,legacy,3,1024,2,48000,-16,experiment,4,even,2,260387,262392,198226,257047,258171,3979,NA,258174,NA,3985,NA,262954,259181,262392,NA,Sternberg Task,10,7582,10,yes,1024
100,100,730.0909091,730.0909091,black,practice,legacy,legacy,legacy,0,uniform,1,1,undefined,left,10,10,0,10,10,0,0,10,10,0,0,10,10,10,0,10/27/19 16:04,The main experiment item,yes,SternbergTask.osexp,C:\Users\hosan\Desktop,no,mono,no,18,no,white,no,yes,768,legacy,10,10,C:/Users/hosan/Desktop/TB-subject-4.csv,legacy,6,Kafkaesque Koffka,3.2.8,1,y,0,left,left,left,NA,NA,449,449,194239,NA,NA,2,legacy,1,1024,2,48000,-16,experiment,4,even,6,266451,268457,198226,263106,264234,3979,NA,264237,NA,3985,NA,268907,265245,268456,NA,Sternberg Task,11,8031,11,yes,1024
100,100,711.25,711.25,black,practice,legacy,legacy,legacy,0,uniform,1,1,undefined,left,11,11,0,11,11,0,0,11,11,0,0,11,11,11,0,10/27/19 16:04,The main experiment item,yes,SternbergTask.osexp,C:\Users\hosan\Desktop,no,mono,no,18,no,white,no,yes,768,legacy,11,11,C:/Users/hosan/Desktop/TB-subject-4.csv,legacy,1 7 9 8 5,Kafkaesque Koffka,3.2.8,4,y,0,left,left,left,NA,NA,504,504,194239,NA,NA,2,legacy,5,1024,2,48000,-16,experiment,4,even,8,272405,274408,198226,269032,270192,3979,NA,270195,NA,3985,NA,274913,271199,274407,NA,Sternberg Task,12,8535,12,yes,1024
100,100,773,773,black,experiment,legacy,legacy,legacy,0,uniform,1,1,undefined,right,12,12,0,12,12,0,0,12,12,0,0,12,12,12,0,10/27/19 16:04,The main experiment item,yes,SternbergTask.osexp,C:\Users\hosan\Desktop,no,mono,no,18,no,white,no,yes,768,legacy,0,11,C:/Users/hosan/Desktop/TB-subject-4.csv,legacy,5 3 2 6 9 8,Kafkaesque Koffka,3.2.8,0,n,0,right,right,left,right,NA,1514,1514,194239,13627,NA,2,legacy,6,1024,2,48000,-16,experiment,4,even,4,292363,294365,198226,275269,290154,3979,289935,290157,NA,3985,276307,295880,291161,294365,NA,Sternberg Task,13,10049,13,yes,1024
100,100,775.8571429,775.8571429,black,experiment,legacy,legacy,legacy,0,uniform,1,1,undefined,right,13,13,0,13,13,0,0,13,13,0,0,13,13,13,0,10/27/19 16:04,The main experiment item,yes,SternbergTask.osexp,C:\Users\hosan\Desktop,no,mono,no,18,no,white,no,yes,768,legacy,1,11,C:/Users/hosan/Desktop/TB-subject-4.csv,legacy,3 9 8 1 6 4,Kafkaesque Koffka,3.2.8,0,n,0,right,right,left,right,NA,813,813,194239,13627,NA,2,legacy,6,1024,2,48000,-16,experiment,4,even,7,299574,301576,198226,296203,297363,3979,289935,297365,NA,3985,276307,302390,298367,301576,NA,Sternberg Task,14,10862,14,yes,1024
100,100,753.1333333,753.1333333,black,experiment,legacy,legacy,legacy,0,uniform,1,1,undefined,left,14,14,0,14,14,0,0,14,14,0,0,14,14,14,0,10/27/19 16:04,The main experiment item,yes,SternbergTask.osexp,C:\Users\hosan\Desktop,no,mono,no,18,no,white,no,yes,768,legacy,2,11,C:/Users/hosan/Desktop/TB-subject-4.csv,legacy,2 4 8 5 1 3,Kafkaesque Koffka,3.2.8,1,y,0,left,left,left,right,NA,435,435,194239,13627,NA,2,legacy,6,1024,2,48000,-16,experiment,4,even,2,305878,307881,198226,302543,303664,3979,289935,303667,NA,3985,276307,308317,304672,307881,NA,Sternberg Task,15,11297,15,yes,1024
100,100,737,737,black,experiment,legacy,legacy,legacy,0,uniform,1,1,undefined,right,15,15,0,15,15,0,0,15,15,0,0,15,15,15,0,10/27/19 16:04,The main experiment item,yes,SternbergTask.osexp,C:\Users\hosan\Desktop,no,mono,no,18,no,white,no,yes,768,legacy,3,11,C:/Users/hosan/Desktop/TB-subject-4.csv,legacy,7 1,Kafkaesque Koffka,3.2.8,0,n,0,right,right,left,right,NA,495,495,194239,13627,NA,2,legacy,2,1024,2,48000,-16,experiment,4,even,8,311807,313814,198226,308467,309594,3979,289935,309597,NA,3985,276307,314310,310602,313813,NA,Sternberg Task,16,11792,16,yes,1024
100,100,727,727,black,experiment,legacy,legacy,legacy,0,uniform,1,1,undefined,left,16,16,0,16,16,0,0,16,16,0,0,16,16,16,0,10/27/19 16:04,The main experiment item,yes,SternbergTask.osexp,C:\Users\hosan\Desktop,no,mono,no,18,no,white,no,yes,768,legacy,4,11,C:/Users/hosan/Desktop/TB-subject-4.csv,legacy,7 4 2 6 3 5,Kafkaesque Koffka,3.2.8,6,y,0,left,left,left,right,NA,567,567,194239,13627,NA,2,legacy,6,1024,2,48000,-16,experiment,4,even,5,317873,319877,198226,314504,315657,3979,289935,315659,NA,3985,276307,320444,316666,319876,NA,Sternberg Task,17,12359,17,yes,1024
100,100,733.2222222,733.2222222,black,experiment,legacy,legacy,legacy,0,uniform,1,1,undefined,right,17,17,0,17,17,0,0,17,17,0,0,17,17,17,0,10/27/19 16:04,The main experiment item,yes,SternbergTask.osexp,C:\Users\hosan\Desktop,no,mono,no,18,no,white,no,yes,768,legacy,5,11,C:/Users/hosan/Desktop/TB-subject-4.csv,legacy,3 4 9 6 7 8,Kafkaesque Koffka,3.2.8,0,n,0,right,right,left,right,NA,839,839,194239,13627,NA,2,legacy,6,1024,2,48000,-16,experiment,4,even,2,323921,325928,198226,320504,321706,3979,289935,321709,NA,3985,276307,326767,322715,325927,NA,Sternberg Task,18,13198,18,yes,1024
100,100,749,749,black,experiment,legacy,legacy,legacy,0,uniform,1,1,undefined,left,18,18,0,18,18,0,0,18,18,0,0,18,18,18,0,10/27/19 16:04,The main experiment item,yes,SternbergTask.osexp,C:\Users\hosan\Desktop,no,mono,no,18,no,white,no,yes,768,legacy,6,11,C:/Users/hosan/Desktop/TB-subject-4.csv,legacy,8,Kafkaesque Koffka,3.2.8,1,y,0,left,left,left,right,NA,1033,1033,194239,13627,NA,2,legacy,1,1024,2,48000,-16,experiment,4,even,8,330133,332140,198226,326794,327921,3979,289935,327924,NA,3985,276307,333173,328927,332139,NA,Sternberg Task,19,14231,19,yes,1024
100,100,737.7,737.7,black,experiment,legacy,legacy,legacy,0,uniform,1,1,undefined,right,19,19,0,19,19,0,0,19,19,0,0,19,19,19,0,10/27/19 16:04,The main experiment item,yes,SternbergTask.osexp,C:\Users\hosan\Desktop,no,mono,no,18,no,white,no,yes,768,legacy,7,11,C:/Users/hosan/Desktop/TB-subject-4.csv,legacy,1 8 7,Kafkaesque Koffka,3.2.8,0,n,0,right,right,left,right,NA,523,523,194239,13627,NA,2,legacy,3,1024,2,48000,-16,experiment,4,even,4,336556,338560,198226,333209,334344,3979,289935,334347,NA,3985,276307,339084,335353,338559,NA,Sternberg Task,20,14754,20,yes,1024
100,100,726.1904762,726.1904762,black,experiment,legacy,legacy,legacy,0,uniform,1,1,undefined,left,20,20,0,20,20,0,0,20,20,0,0,20,20,20,0,10/27/19 16:04,The main experiment item,yes,SternbergTask.osexp,C:\Users\hosan\Desktop,no,mono,no,18,no,white,no,yes,768,legacy,8,11,C:/Users/hosan/Desktop/TB-subject-4.csv,legacy,5 2 6,Kafkaesque Koffka,3.2.8,2,y,0,left,left,left,right,NA,496,496,194239,13627,NA,2,legacy,3,1024,2,48000,-16,experiment,4,even,2,342471,344478,198226,339120,340259,3979,289935,340262,NA,3985,276307,344974,341264,344477,NA,Sternberg Task,21,15250,21,yes,1024
100,100,721.2727273,721.2727273,black,experiment,legacy,legacy,legacy,0,uniform,1,1,undefined,left,21,21,0,21,21,0,0,21,21,0,0,21,21,21,0,10/27/19 16:04,The main experiment item,yes,SternbergTask.osexp,C:\Users\hosan\Desktop,no,mono,no,18,no,white,no,yes,768,legacy,9,11,C:/Users/hosan/Desktop/TB-subject-4.csv,legacy,8 5 1 3 9,Kafkaesque Koffka,3.2.8,4,y,0,left,left,left,right,NA,618,618,194239,13627,NA,2,legacy,5,1024,2,48000,-16,experiment,4,even,3,348375,350377,198226,345039,346164,3979,289935,346167,NA,3985,276307,350996,347170,350377,NA,Sternberg Task,22,15868,22,yes,1024
100,100,715.6956522,715.6956522,black,experiment,legacy,legacy,legacy,0,uniform,1,1,undefined,left,22,22,0,22,22,0,0,22,22,0,0,22,22,22,0,10/27/19 16:04,The main experiment item,yes,SternbergTask.osexp,C:\Users\hosan\Desktop,no,mono,no,18,no,white,no,yes,768,legacy,10,11,C:/Users/hosan/Desktop/TB-subject-4.csv,legacy,9 5 3 8 4,Kafkaesque Koffka,3.2.8,1,y,0,left,left,left,right,NA,593,593,194239,13627,NA,2,legacy,5,1024,2,48000,-16,experiment,4,even,9,354505,356507,198226,351135,352297,3979,289935,352300,NA,3985,276307,357101,353302,356507,NA,Sternberg Task,23,16461,23,yes,1024
100,100,712.7916667,712.7916667,black,experiment,legacy,legacy,legacy,0,uniform,1,1,undefined,left,23,23,0,23,23,0,0,23,23,0,0,23,23,23,0,10/27/19 16:04,The main experiment item,yes,SternbergTask.osexp,C:\Users\hosan\Desktop,no,mono,no,18,no,white,no,yes,768,legacy,11,11,C:/Users/hosan/Desktop/TB-subject-4.csv,legacy,7 2 3,Kafkaesque Koffka,3.2.8,3,y,0,left,left,left,right,NA,646,646,194239,13627,NA,2,legacy,3,1024,2,48000,-16,experiment,4,even,3,360632,362636,198226,357273,358420,3979,289935,358422,NA,3985,276307,363283,359427,362635,NA,Sternberg Task,24,17107,24,yes,1024
100,100,711.4,711.4,black,experiment,legacy,legacy,legacy,0,uniform,1,1,undefined,right,24,24,0,24,24,0,0,24,24,0,0,24,24,24,0,10/27/19 16:04,The main experiment item,yes,SternbergTask.osexp,C:\Users\hosan\Desktop,no,mono,no,18,no,white,no,yes,768,legacy,12,11,C:/Users/hosan/Desktop/TB-subject-4.csv,legacy,4 2 7 6 1 3,Kafkaesque Koffka,3.2.8,0,n,0,right,right,left,right,NA,678,678,194239,13627,NA,2,legacy,6,1024,2,48000,-16,experiment,4,even,8,366694,368696,198226,363342,364488,3979,289935,364490,NA,3985,276307,369375,365492,368696,NA,Sternberg Task,25,17785,25,yes,1024
100,100,710.4615385,710.4615385,black,experiment,legacy,legacy,legacy,0,uniform,1,1,undefined,left,25,25,0,25,25,0,0,25,25,0,0,25,25,25,0,10/27/19 16:04,The main experiment item,yes,SternbergTask.osexp,C:\Users\hosan\Desktop,no,mono,no,18,no,white,no,yes,768,legacy,13,11,C:/Users/hosan/Desktop/TB-subject-4.csv,legacy,4 6 2 5 1,Kafkaesque Koffka,3.2.8,5,y,0,left,left,left,right,NA,687,687,194239,13627,NA,2,legacy,5,1024,2,48000,-16,experiment,4,even,1,372751,374754,198226,369407,370544,3979,289935,370547,NA,3985,276307,375442,371549,374753,NA,Sternberg Task,26,18472,26,yes,1024
100,100,708.7407407,708.7407407,black,experiment,legacy,legacy,legacy,0,uniform,1,1,undefined,right,26,26,0,26,26,0,0,26,26,0,0,26,26,26,0,10/27/19 16:04,The main experiment item,yes,SternbergTask.osexp,C:\Users\hosan\Desktop,no,mono,no,18,no,white,no,yes,768,legacy,14,11,C:/Users/hosan/Desktop/TB-subject-4.csv,legacy,7 1 8 4 9 3,Kafkaesque Koffka,3.2.8,0,n,0,right,right,left,right,NA,664,664,194239,13627,NA,2,legacy,6,1024,2,48000,-16,experiment,4,even,6,378928,380930,198226,375584,376721,3979,289935,376724,NA,3985,276307,381594,377726,380930,NA,Sternberg Task,27,19136,27,yes,1024
100,100,720.2142857,720.2142857,black,experiment,legacy,legacy,legacy,0,uniform,1,1,undefined,right,27,27,0,27,27,0,0,27,27,0,0,27,27,27,0,10/27/19 16:04,The main experiment item,yes,SternbergTask.osexp,C:\Users\hosan\Desktop,no,mono,no,18,no,white,no,yes,768,legacy,15,11,C:/Users/hosan/Desktop/TB-subject-4.csv,legacy,8 5 4 2 9 6,Kafkaesque Koffka,3.2.8,0,n,0,right,right,left,right,NA,1030,1030,194239,13627,NA,2,legacy,6,1024,2,48000,-16,experiment,4,even,3,385033,387035,198226,381687,382826,3979,289935,382829,NA,3985,276307,388067,383831,387035,NA,Sternberg Task,28,20166,28,yes,1024
100,100,717.8965517,717.8965517,black,experiment,legacy,legacy,legacy,0,uniform,1,1,undefined,left,28,28,0,28,28,0,0,28,28,0,0,28,28,28,0,10/27/19 16:04,The main experiment item,yes,SternbergTask.osexp,C:\Users\hosan\Desktop,no,mono,no,18,no,white,no,yes,768,legacy,16,11,C:/Users/hosan/Desktop/TB-subject-4.csv,legacy,9 6 2 4 1,Kafkaesque Koffka,3.2.8,4,y,0,left,left,left,right,NA,653,653,194239,13627,NA,2,legacy,5,1024,2,48000,-16,experiment,4,even,4,391478,393480,198226,388126,389271,3979,289935,389274,NA,3985,276307,394134,390276,393480,NA,Sternberg Task,29,20819,29,yes,1024
100,100,709.6333333,709.6333333,black,experiment,legacy,legacy,legacy,0,uniform,1,1,undefined,left,29,29,0,29,29,0,0,29,29,0,0,29,29,29,0,10/27/19 16:04,The main experiment item,yes,SternbergTask.osexp,C:\Users\hosan\Desktop,no,mono,no,18,no,white,no,yes,768,legacy,17,11,C:/Users/hosan/Desktop/TB-subject-4.csv,legacy,2 3,Kafkaesque Koffka,3.2.8,1,y,0,left,left,left,right,NA,470,470,194239,13627,NA,2,legacy,2,1024,2,48000,-16,experiment,4,even,2,397504,399506,198226,394161,395294,3979,289935,395297,NA,3985,276307,399977,396299,399506,NA,Sternberg Task,30,21289,30,yes,1024
100,100,702.1612903,702.1612903,black,experiment,legacy,legacy,legacy,0,uniform,1,1,undefined,right,30,30,0,30,30,0,0,30,30,0,0,30,30,30,0,10/27/19 16:04,The main experiment item,yes,SternbergTask.osexp,C:\Users\hosan\Desktop,no,mono,no,18,no,white,no,yes,768,legacy,18,11,C:/Users/hosan/Desktop/TB-subject-4.csv,legacy,7 9,Kafkaesque Koffka,3.2.8,0,n,0,right,right,left,right,NA,478,478,194239,13627,NA,2,legacy,2,1024,2,48000,-16,experiment,4,even,1,403675,405677,198226,400295,401468,3979,289935,401471,NA,3985,276307,406155,402473,405677,NA,Sternberg Task,31,21767,31,yes,1024
100,100,700.75,700.75,black,experiment,legacy,legacy,legacy,0,uniform,1,1,undefined,right,31,31,0,31,31,0,0,31,31,0,0,31,31,31,0,10/27/19 16:04,The main experiment item,yes,SternbergTask.osexp,C:\Users\hosan\Desktop,no,mono,no,18,no,white,no,yes,768,legacy,19,11,C:/Users/hosan/Desktop/TB-subject-4.csv,legacy,7 3 2 8,Kafkaesque Koffka,3.2.8,0,n,0,right,right,left,right,NA,657,657,194239,13627,NA,2,legacy,4,1024,2,48000,-16,experiment,4,even,4,409680,411682,198226,406332,407469,3979,289935,407471,NA,3985,276307,412340,408477,411682,NA,Sternberg Task,32,22424,32,yes,1024
100,100,695.3939394,695.3939394,black,experiment,legacy,legacy,legacy,0,uniform,1,1,undefined,right,32,32,0,32,32,0,0,32,32,0,0,32,32,32,0,10/27/19 16:04,The main experiment item,yes,SternbergTask.osexp,C:\Users\hosan\Desktop,no,mono,no,18,no,white,no,yes,768,legacy,20,11,C:/Users/hosan/Desktop/TB-subject-4.csv,legacy,2 5 1 4,Kafkaesque Koffka,3.2.8,0,n,0,right,right,left,right,NA,524,524,194239,13627,NA,2,legacy,4,1024,2,48000,-16,experiment,4,even,6,415805,417811,198226,412383,413597,3979,289935,413600,NA,3985,276307,418336,414603,417810,NA,Sternberg Task,33,22948,33,yes,1024
100,100,691.4411765,691.4411765,black,experiment,legacy,legacy,legacy,0,uniform,1,1,undefined,right,33,33,0,33,33,0,0,33,33,0,0,33,33,33,0,10/27/19 16:04,The main experiment item,yes,SternbergTask.osexp,C:\Users\hosan\Desktop,no,mono,no,18,no,white,no,yes,768,legacy,21,11,C:/Users/hosan/Desktop/TB-subject-4.csv,legacy,1 6 4 3 9 7,Kafkaesque Koffka,3.2.8,0,n,0,right,right,left,right,NA,561,561,194239,13627,NA,2,legacy,6,1024,2,48000,-16,experiment,4,even,8,421790,423792,198226,418394,419571,3979,289935,419574,NA,3985,276307,424354,420584,423792,NA,Sternberg Task,34,23509,34,yes,1024
100,100,686.7142857,686.7142857,black,experiment,legacy,legacy,legacy,0,uniform,1,1,undefined,right,34,34,0,34,34,0,0,34,34,0,0,34,34,34,0,10/27/19 16:04,The main experiment item,yes,SternbergTask.osexp,C:\Users\hosan\Desktop,no,mono,no,18,no,white,no,yes,768,legacy,22,11,C:/Users/hosan/Desktop/TB-subject-4.csv,legacy,1 7 5 2,Kafkaesque Koffka,3.2.8,0,n,0,right,right,left,right,NA,526,526,194239,13627,NA,2,legacy,4,1024,2,48000,-16,experiment,4,even,3,427873,429878,198226,424483,425661,3979,289935,425663,NA,3985,276307,430405,426666,429878,NA,Sternberg Task,35,24035,35,yes,1024
100,100,685.4444444,685.4444444,black,experiment,legacy,legacy,legacy,0,uniform,1,1,undefined,left,35,35,0,35,35,0,0,35,35,0,0,35,35,35,0,10/27/19 16:04,The main experiment item,yes,SternbergTask.osexp,C:\Users\hosan\Desktop,no,mono,no,18,no,white,no,yes,768,legacy,23,11,C:/Users/hosan/Desktop/TB-subject-4.csv,legacy,9 5 8 1,Kafkaesque Koffka,3.2.8,2,y,0,left,left,left,right,NA,641,641,194239,13627,NA,2,legacy,4,1024,2,48000,-16,experiment,4,even,5,433832,435837,198226,430483,431624,3979,289935,431627,NA,3985,276307,436480,432629,435837,NA,Sternberg Task,36,24676,36,yes,1024
100,100,682.7297297,682.7297297,black,experiment,legacy,legacy,legacy,0,uniform,1,1,undefined,right,36,36,0,36,36,0,0,36,36,0,0,36,36,36,0,10/27/19 16:04,The main experiment item,yes,SternbergTask.osexp,C:\Users\hosan\Desktop,no,mono,no,18,no,white,no,yes,768,legacy,24,11,C:/Users/hosan/Desktop/TB-subject-4.csv,legacy,5 3 8 7 2 4,Kafkaesque Koffka,3.2.8,0,n,0,right,right,left,right,NA,585,585,194239,13627,NA,2,legacy,6,1024,2,48000,-16,experiment,4,even,9,439932,441939,198226,436576,437717,3979,289935,437720,NA,3985,276307,442525,438726,441938,NA,Sternberg Task,37,25261,37,yes,1024
100,100,678.5789474,678.5789474,black,experiment,legacy,legacy,legacy,0,uniform,1,1,undefined,right,37,37,0,37,37,0,0,37,37,0,0,37,37,37,0,10/27/19 16:04,The main experiment item,yes,SternbergTask.osexp,C:\Users\hosan\Desktop,no,mono,no,18,no,white,no,yes,768,legacy,25,11,C:/Users/hosan/Desktop/TB-subject-4.csv,legacy,1 6 4,Kafkaesque Koffka,3.2.8,0,n,0,right,right,left,right,NA,525,525,194239,13627,NA,2,legacy,3,1024,2,48000,-16,experiment,4,even,7,445914,447920,198226,442570,443696,3979,289935,443699,NA,3985,276307,448446,444706,447920,NA,Sternberg Task,38,25786,38,yes,1024
100,100,677.7179487,677.7179487,black,experiment,legacy,legacy,legacy,0,uniform,1,1,undefined,right,38,38,0,38,38,0,0,38,38,0,0,38,38,38,0,10/27/19 16:04,The main experiment item,yes,SternbergTask.osexp,C:\Users\hosan\Desktop,no,mono,no,18,no,white,no,yes,768,legacy,26,11,C:/Users/hosan/Desktop/TB-subject-4.csv,legacy,6 9 4 5 3 2,Kafkaesque Koffka,3.2.8,0,n,0,right,right,left,right,NA,645,645,194239,13627,NA,2,legacy,6,1024,2,48000,-16,experiment,4,even,8,451837,453844,198226,448505,449628,3979,289935,449630,NA,3985,276307,454489,450633,453844,NA,Sternberg Task,39,26431,39,yes,1024
100,100,679.15,679.15,black,experiment,legacy,legacy,legacy,0,uniform,1,1,undefined,left,39,39,0,39,39,0,0,39,39,0,0,39,39,39,0,10/27/19 16:04,The main experiment item,yes,SternbergTask.osexp,C:\Users\hosan\Desktop,no,mono,no,18,no,white,no,yes,768,legacy,27,11,C:/Users/hosan/Desktop/TB-subject-4.csv,legacy,9 4 2,Kafkaesque Koffka,3.2.8,1,y,0,left,left,left,right,NA,735,735,194239,13627,NA,2,legacy,3,1024,2,48000,-16,experiment,4,even,9,458209,460213,198226,454842,455996,3979,289935,455999,NA,3985,276307,460949,457003,460213,NA,Sternberg Task,40,27166,40,yes,1024
100,100,677.8780488,677.8780488,black,experiment,legacy,legacy,legacy,0,uniform,1,1,undefined,right,40,40,0,40,40,0,0,40,40,0,0,40,40,40,0,10/27/19 16:04,The main experiment item,yes,SternbergTask.osexp,C:\Users\hosan\Desktop,no,mono,no,18,no,white,no,yes,768,legacy,28,11,C:/Users/hosan/Desktop/TB-subject-4.csv,legacy,2 3 8 5 6 7,Kafkaesque Koffka,3.2.8,0,n,0,right,right,left,right,NA,627,627,194239,13627,NA,2,legacy,6,1024,2,48000,-16,experiment,4,even,1,464424,466429,198226,461067,462216,3979,289935,462219,NA,3985,276307,467057,463221,466429,NA,Sternberg Task,41,27793,41,yes,1024
100,100,683.1190476,683.1190476,black,experiment,legacy,legacy,legacy,0,uniform,1,1,undefined,right,41,41,0,41,41,0,0,41,41,0,0,41,41,41,0,10/27/19 16:04,The main experiment item,yes,SternbergTask.osexp,C:\Users\hosan\Desktop,no,mono,no,18,no,white,no,yes,768,legacy,29,11,C:/Users/hosan/Desktop/TB-subject-4.csv,legacy,7 1 5 6 3,Kafkaesque Koffka,3.2.8,0,n,0,right,right,left,right,NA,898,898,194239,13627,NA,2,legacy,5,1024,2,48000,-16,experiment,4,even,8,470470,472477,198226,467114,468259,3979,289935,468262,NA,3985,276307,473376,469264,472476,NA,Sternberg Task,42,28691,42,yes,1024
100,100,677.9302326,677.9302326,black,experiment,legacy,legacy,legacy,0,uniform,1,1,undefined,left,42,42,0,42,42,0,0,42,42,0,0,42,42,42,0,10/27/19 16:04,The main experiment item,yes,SternbergTask.osexp,C:\Users\hosan\Desktop,no,mono,no,18,no,white,no,yes,768,legacy,30,11,C:/Users/hosan/Desktop/TB-subject-4.csv,legacy,1 4 9 3 2 5,Kafkaesque Koffka,3.2.8,3,y,0,left,left,left,right,NA,460,460,194239,13627,NA,2,legacy,6,1024,2,48000,-16,experiment,4,even,9,476748,478752,198226,473412,474539,3979,289935,474541,NA,3985,276307,479213,475546,478751,NA,Sternberg Task,43,29151,43,yes,1024
100,100,678.0909091,678.0909091,black,experiment,legacy,legacy,legacy,0,uniform,1,1,undefined,left,43,43,0,43,43,0,0,43,43,0,0,43,43,43,0,10/27/19 16:04,The main experiment item,yes,SternbergTask.osexp,C:\Users\hosan\Desktop,no,mono,no,18,no,white,no,yes,768,legacy,31,11,C:/Users/hosan/Desktop/TB-subject-4.csv,legacy,3 5 7 1,Kafkaesque Koffka,3.2.8,3,y,0,left,left,left,right,NA,685,685,194239,13627,NA,2,legacy,4,1024,2,48000,-16,experiment,4,even,7,482692,484694,198226,479341,480479,3979,289935,480482,NA,3985,276307,485380,481488,484694,NA,Sternberg Task,44,29836,44,yes,1024
100,100,675.4,675.4,black,experiment,legacy,legacy,legacy,0,uniform,1,1,undefined,left,44,44,0,44,44,0,0,44,44,0,0,44,44,44,0,10/27/19 16:04,The main experiment item,yes,SternbergTask.osexp,C:\Users\hosan\Desktop,no,mono,no,18,no,white,no,yes,768,legacy,32,11,C:/Users/hosan/Desktop/TB-subject-4.csv,legacy,4 3 2 5 8,Kafkaesque Koffka,3.2.8,2,y,0,left,left,left,right,NA,557,557,194239,13627,NA,2,legacy,5,1024,2,48000,-16,experiment,4,even,3,488817,490820,198226,485474,486604,3979,289935,486606,NA,3985,276307,491378,487614,490820,NA,Sternberg Task,45,30393,45,yes,1024
100,100,676.2391304,676.2391304,black,experiment,legacy,legacy,legacy,0,uniform,1,1,undefined,left,45,45,0,45,45,0,0,45,45,0,0,45,45,45,0,10/27/19 16:04,The main experiment item,yes,SternbergTask.osexp,C:\Users\hosan\Desktop,no,mono,no,18,no,white,no,yes,768,legacy,33,11,C:/Users/hosan/Desktop/TB-subject-4.csv,legacy,7 6,Kafkaesque Koffka,3.2.8,2,y,0,left,left,left,right,NA,714,714,194239,13627,NA,2,legacy,2,1024,2,48000,-16,experiment,4,even,6,494769,496775,198226,491412,492562,3979,289935,492565,NA,3985,276307,497490,493567,496775,NA,Sternberg Task,46,31107,46,yes,1024
100,100,682.2340426,682.2340426,black,experiment,legacy,legacy,legacy,0,uniform,1,1,undefined,right,46,46,0,46,46,0,0,46,46,0,0,46,46,46,0,10/27/19 16:04,The main experiment item,yes,SternbergTask.osexp,C:\Users\hosan\Desktop,no,mono,no,18,no,white,no,yes,768,legacy,34,11,C:/Users/hosan/Desktop/TB-subject-4.csv,legacy,7 4 2 8 1 9,Kafkaesque Koffka,3.2.8,0,n,0,right,right,left,right,NA,958,958,194239,13627,NA,2,legacy,6,1024,2,48000,-16,experiment,4,even,5,501010,503018,198226,497647,498794,3979,289935,498797,NA,3985,276307,503977,499803,503017,NA,Sternberg Task,47,32065,47,yes,1024
100,100,685.25,685.25,black,experiment,legacy,legacy,legacy,0,uniform,1,1,undefined,left,47,47,0,47,47,0,0,47,47,0,0,47,47,47,0,10/27/19 16:04,The main experiment item,yes,SternbergTask.osexp,C:\Users\hosan\Desktop,no,mono,no,18,no,white,no,yes,768,legacy,35,11,C:/Users/hosan/Desktop/TB-subject-4.csv,legacy,6 2,Kafkaesque Koffka,3.2.8,1,y,0,left,left,left,right,NA,827,827,194239,13627,NA,2,legacy,2,1024,2,48000,-16,experiment,4,even,6,507350,509357,198226,504010,505135,3979,289935,505137,NA,3985,276307,510185,506143,509356,NA,Sternberg Task,48,32892,48,yes,1024
100,100,681.9591837,681.9591837,black,experiment,legacy,legacy,legacy,0,uniform,1,1,undefined,left,48,48,0,48,48,0,0,48,48,0,0,48,48,48,0,10/27/19 16:04,The main experiment item,yes,SternbergTask.osexp,C:\Users\hosan\Desktop,no,mono,no,18,no,white,no,yes,768,legacy,36,11,C:/Users/hosan/Desktop/TB-subject-4.csv,legacy,7 1 3,Kafkaesque Koffka,3.2.8,2,y,0,left,left,left,right,NA,524,524,194239,13627,NA,2,legacy,3,1024,2,48000,-16,experiment,4,even,1,513692,515697,198226,510300,511484,3979,289935,511487,NA,3985,276307,516222,512490,515697,NA,Sternberg Task,49,33416,49,yes,1024
100,100,681.14,681.14,black,experiment,legacy,legacy,legacy,0,uniform,1,1,undefined,right,49,49,0,49,49,0,0,49,49,0,0,49,49,49,0,10/27/19 16:04,The main experiment item,yes,SternbergTask.osexp,C:\Users\hosan\Desktop,no,mono,no,18,no,white,no,yes,768,legacy,37,11,C:/Users/hosan/Desktop/TB-subject-4.csv,legacy,2 8 6 3 1,Kafkaesque Koffka,3.2.8,0,n,0,right,right,left,right,NA,641,641,194239,13627,NA,2,legacy,5,1024,2,48000,-16,experiment,4,even,7,519577,521583,198226,516242,517369,3979,289935,517372,NA,3985,276307,522225,518375,521582,NA,Sternberg Task,50,34057,50,yes,1024
100,100,678.0784314,678.0784314,black,experiment,legacy,legacy,legacy,0,uniform,1,1,undefined,left,50,50,0,50,50,0,0,50,50,0,0,50,50,50,0,10/27/19 16:04,The main experiment item,yes,SternbergTask.osexp,C:\Users\hosan\Desktop,no,mono,no,18,no,white,no,yes,768,legacy,38,11,C:/Users/hosan/Desktop/TB-subject-4.csv,legacy,8 1 6,Kafkaesque Koffka,3.2.8,3,y,0,left,left,left,right,NA,525,525,194239,13627,NA,2,legacy,3,1024,2,48000,-16,experiment,4,even,6,525613,527615,198226,522263,523405,3979,289935,523407,NA,3985,276307,528141,524410,527615,NA,Sternberg Task,51,34582,51,yes,1024
100,100,675.5576923,675.5576923,black,experiment,legacy,legacy,legacy,0,uniform,1,1,undefined,right,51,51,0,51,51,0,0,51,51,0,0,51,51,51,0,10/27/19 16:04,The main experiment item,yes,SternbergTask.osexp,C:\Users\hosan\Desktop,no,mono,no,18,no,white,no,yes,768,legacy,39,11,C:/Users/hosan/Desktop/TB-subject-4.csv,legacy,2 7 5,Kafkaesque Koffka,3.2.8,0,n,0,right,right,left,right,NA,547,547,194239,13627,NA,2,legacy,3,1024,2,48000,-16,experiment,4,even,8,531607,533612,198226,528262,529397,3979,289935,529400,NA,3985,276307,534160,530405,533612,NA,Sternberg Task,52,35129,52,yes,1024
100,100,676.9811321,676.9811321,black,experiment,legacy,legacy,legacy,0,uniform,1,1,undefined,right,52,52,0,52,52,0,0,52,52,0,0,52,52,52,0,10/27/19 16:04,The main experiment item,yes,SternbergTask.osexp,C:\Users\hosan\Desktop,no,mono,no,18,no,white,no,yes,768,legacy,40,11,C:/Users/hosan/Desktop/TB-subject-4.csv,legacy,5 9 2 3,Kafkaesque Koffka,3.2.8,0,n,0,right,right,left,right,NA,751,751,194239,13627,NA,2,legacy,4,1024,2,48000,-16,experiment,4,even,8,537535,539537,198226,534186,535327,3979,289935,535329,NA,3985,276307,540289,536333,539537,NA,Sternberg Task,53,35880,53,yes,1024
98.14814815,98.14814815,678.6666667,678.6666667,black,experiment,legacy,legacy,legacy,0,uniform,0,0,undefined,left,53,53,0,53,53,0,0,53,53,0,0,53,53,53,0,10/27/19 16:04,The main experiment item,yes,SternbergTask.osexp,C:\Users\hosan\Desktop,no,mono,no,18,no,white,no,yes,768,legacy,41,11,C:/Users/hosan/Desktop/TB-subject-4.csv,legacy,4 1 5,Kafkaesque Koffka,3.2.8,2,y,0,right,right,left,right,NA,768,768,194239,13627,NA,2,legacy,3,1024,2,48000,-16,experiment,4,even,1,543714,545721,198226,540340,541500,3979,289935,541503,NA,3985,276307,546490,542509,545720,NA,Sternberg Task,53,36648,54,yes,1024
98.18181818,98.18181818,682.1454545,682.1454545,black,experiment,legacy,legacy,legacy,0,uniform,1,1,undefined,left,54,54,0,54,54,0,0,54,54,0,0,54,54,54,0,10/27/19 16:04,The main experiment item,yes,SternbergTask.osexp,C:\Users\hosan\Desktop,no,mono,no,18,no,white,no,yes,768,legacy,42,11,C:/Users/hosan/Desktop/TB-subject-4.csv,legacy,7 1 8 5 6 2,Kafkaesque Koffka,3.2.8,2,y,0,left,left,left,right,NA,870,870,194239,13627,NA,2,legacy,6,1024,2,48000,-16,experiment,4,even,1,549873,551880,198226,540340,547662,3979,289935,547664,546518,3985,276307,552751,548667,551880,NA,Sternberg Task,54,37518,55,yes,1024
98.21428571,98.21428571,689.6071429,689.6071429,black,experiment,legacy,legacy,legacy,0,uniform,1,1,undefined,left,55,55,0,55,55,0,0,55,55,0,0,55,55,55,0,10/27/19 16:04,The main experiment item,yes,SternbergTask.osexp,C:\Users\hosan\Desktop,no,mono,no,18,no,white,no,yes,768,legacy,43,11,C:/Users/hosan/Desktop/TB-subject-4.csv,legacy,7 8 6 3 1,Kafkaesque Koffka,3.2.8,5,y,0,left,left,left,right,NA,1100,1100,194239,13627,NA,2,legacy,5,1024,2,48000,-16,experiment,4,even,1,556160,558163,198226,552784,553945,3979,289935,553948,546518,3985,276307,559264,554955,558163,NA,Sternberg Task,55,38618,56,yes,1024
98.24561404,98.24561404,687.3508772,687.3508772,black,experiment,legacy,legacy,legacy,0,uniform,1,1,undefined,left,56,56,0,56,56,0,0,56,56,0,0,56,56,56,0,10/27/19 16:04,The main experiment item,yes,SternbergTask.osexp,C:\Users\hosan\Desktop,no,mono,no,18,no,white,no,yes,768,legacy,44,11,C:/Users/hosan/Desktop/TB-subject-4.csv,legacy,3 2 1 4 7,Kafkaesque Koffka,3.2.8,2,y,0,left,left,left,right,NA,561,561,194239,13627,NA,2,legacy,5,1024,2,48000,-16,experiment,4,even,2,562663,564670,198226,559327,560451,3979,289935,560453,546518,3985,276307,565232,561459,564670,NA,Sternberg Task,56,39179,57,yes,1024
98.27586207,98.27586207,690.862069,690.862069,black,experiment,legacy,legacy,legacy,0,uniform,1,1,undefined,right,57,57,0,57,57,0,0,57,57,0,0,57,57,57,0,10/27/19 16:04,The main experiment item,yes,SternbergTask.osexp,C:\Users\hosan\Desktop,no,mono,no,18,no,white,no,yes,768,legacy,45,11,C:/Users/hosan/Desktop/TB-subject-4.csv,legacy,8 4 3 5,Kafkaesque Koffka,3.2.8,0,n,0,right,right,left,right,NA,891,891,194239,13627,NA,2,legacy,4,1024,2,48000,-16,experiment,4,even,6,568647,570655,198226,565293,566432,3979,289935,566435,546518,3985,276307,571547,567441,570654,NA,Sternberg Task,57,40070,58,yes,1024
98.30508475,98.30508475,696.440678,696.440678,black,experiment,legacy,legacy,legacy,0,uniform,1,1,undefined,right,58,58,0,58,58,0,0,58,58,0,0,58,58,58,0,10/27/19 16:04,The main experiment item,yes,SternbergTask.osexp,C:\Users\hosan\Desktop,no,mono,no,18,no,white,no,yes,768,legacy,46,11,C:/Users/hosan/Desktop/TB-subject-4.csv,legacy,8 6 3 4 7,Kafkaesque Koffka,3.2.8,0,n,0,right,right,left,right,NA,1020,1020,194239,13627,NA,2,legacy,5,1024,2,48000,-16,experiment,4,even,1,574960,576968,198226,571616,572745,3979,289935,572748,546518,3985,276307,577989,573754,576967,NA,Sternberg Task,58,41090,59,yes,1024
98.33333333,98.33333333,692.4666667,692.4666667,black,experiment,legacy,legacy,legacy,0,uniform,1,1,undefined,left,59,59,0,59,59,0,0,59,59,0,0,59,59,59,0,10/27/19 16:04,The main experiment item,yes,SternbergTask.osexp,C:\Users\hosan\Desktop,no,mono,no,18,no,white,no,yes,768,legacy,47,11,C:/Users/hosan/Desktop/TB-subject-4.csv,legacy,8 9 5 6 7,Kafkaesque Koffka,3.2.8,1,y,0,left,left,left,right,NA,458,458,194239,13627,NA,2,legacy,5,1024,2,48000,-16,experiment,4,even,8,581411,583417,198226,578046,579198,3979,289935,579201,546518,3985,276307,583876,580206,583417,NA,Sternberg Task,59,41548,60,yes,1024
98.36065574,98.36065574,691.2295082,691.2295082,black,experiment,legacy,legacy,legacy,0,uniform,1,1,undefined,right,60,60,0,60,60,0,0,60,60,0,0,60,60,60,0,10/27/19 16:04,The main experiment item,yes,SternbergTask.osexp,C:\Users\hosan\Desktop,no,mono,no,18,no,white,no,yes,768,legacy,48,11,C:/Users/hosan/Desktop/TB-subject-4.csv,legacy,1 4 9 2 5,Kafkaesque Koffka,3.2.8,0,n,0,right,right,left,right,NA,617,617,194239,13627,NA,2,legacy,5,1024,2,48000,-16,experiment,4,even,7,587326,589333,198226,583945,585112,3979,289935,585115,546518,3985,276307,589951,586121,589333,NA,Sternberg Task,60,42165,61,yes,1024
98.38709677,98.38709677,687.1612903,687.1612903,black,experiment,legacy,legacy,legacy,0,uniform,1,1,undefined,left,61,61,0,61,61,0,0,61,61,0,0,61,61,61,0,10/27/19 16:04,The main experiment item,yes,SternbergTask.osexp,C:\Users\hosan\Desktop,no,mono,no,18,no,white,no,yes,768,legacy,49,11,C:/Users/hosan/Desktop/TB-subject-4.csv,legacy,3 4,Kafkaesque Koffka,3.2.8,1,y,0,left,left,left,right,NA,439,439,194239,13627,NA,2,legacy,2,1024,2,48000,-16,experiment,4,even,3,593386,595392,198226,590008,591173,3979,289935,591175,546518,3985,276307,595832,592181,595392,NA,Sternberg Task,61,42604,62,yes,1024
98.41269841,98.41269841,687.5238095,687.5238095,black,experiment,legacy,legacy,legacy,0,uniform,1,1,undefined,right,62,62,0,62,62,0,0,62,62,0,0,62,62,62,0,10/27/19 16:04,The main experiment item,yes,SternbergTask.osexp,C:\Users\hosan\Desktop,no,mono,no,18,no,white,no,yes,768,legacy,50,11,C:/Users/hosan/Desktop/TB-subject-4.csv,legacy,1 3 2 6 9,Kafkaesque Koffka,3.2.8,0,n,0,right,right,left,right,NA,710,710,194239,13627,NA,2,legacy,5,1024,2,48000,-16,experiment,4,even,5,599228,601235,198226,595892,597014,3979,289935,597017,546518,3985,276307,601946,598023,601234,NA,Sternberg Task,62,43314,63,yes,1024
98.4375,98.4375,686.171875,686.171875,black,experiment,legacy,legacy,legacy,0,uniform,1,1,undefined,right,63,63,0,63,63,0,0,63,63,0,0,63,63,63,0,10/27/19 16:04,The main experiment item,yes,SternbergTask.osexp,C:\Users\hosan\Desktop,no,mono,no,18,no,white,no,yes,768,legacy,51,11,C:/Users/hosan/Desktop/TB-subject-4.csv,legacy,8 4 3 9,Kafkaesque Koffka,3.2.8,0,n,0,right,right,left,right,NA,601,601,194239,13627,NA,2,legacy,4,1024,2,48000,-16,experiment,4,even,5,605367,607373,198226,602016,603154,3979,289935,603157,546518,3985,276307,607975,604163,607372,NA,Sternberg Task,63,43915,64,yes,1024
98.46153846,98.46153846,683.1230769,683.1230769,black,experiment,legacy,legacy,legacy,0,uniform,1,1,undefined,right,64,64,0,64,64,0,0,64,64,0,0,64,64,64,0,10/27/19 16:04,The main experiment item,yes,SternbergTask.osexp,C:\Users\hosan\Desktop,no,mono,no,18,no,white,no,yes,768,legacy,52,11,C:/Users/hosan/Desktop/TB-subject-4.csv,legacy,5 2,Kafkaesque Koffka,3.2.8,0,n,0,right,right,left,right,NA,488,488,194239,13627,NA,2,legacy,2,1024,2,48000,-16,experiment,4,even,7,611403,613409,198226,608034,609189,3979,289935,609191,546518,3985,276307,613898,610197,613409,NA,Sternberg Task,64,44403,65,yes,1024
98.48484848,98.48484848,684.9848485,684.9848485,black,experiment,legacy,legacy,legacy,0,uniform,1,1,undefined,right,65,65,0,65,65,0,0,65,65,0,0,65,65,65,0,10/27/19 16:04,The main experiment item,yes,SternbergTask.osexp,C:\Users\hosan\Desktop,no,mono,no,18,no,white,no,yes,768,legacy,53,11,C:/Users/hosan/Desktop/TB-subject-4.csv,legacy,6 8 4,Kafkaesque Koffka,3.2.8,0,n,0,right,right,left,right,NA,806,806,194239,13627,NA,2,legacy,3,1024,2,48000,-16,experiment,4,even,1,617307,619314,198226,613957,615093,3979,289935,615096,546518,3985,276307,620121,616102,619314,NA,Sternberg Task,65,45209,66,yes,1024
98.50746269,98.50746269,683.0149254,683.0149254,black,experiment,legacy,legacy,legacy,0,uniform,1,1,undefined,right,66,66,0,66,66,0,0,66,66,0,0,66,66,66,0,10/27/19 16:04,The main experiment item,yes,SternbergTask.osexp,C:\Users\hosan\Desktop,no,mono,no,18,no,white,no,yes,768,legacy,54,11,C:/Users/hosan/Desktop/TB-subject-4.csv,legacy,2 8 7 9 5 3,Kafkaesque Koffka,3.2.8,0,n,0,right,right,left,right,NA,553,553,194239,13627,NA,2,legacy,6,1024,2,48000,-16,experiment,4,even,6,623549,625555,198226,620182,621337,3979,289935,621339,546518,3985,276307,626109,622344,625555,NA,Sternberg Task,66,45762,67,yes,1024
98.52941176,98.52941176,681.5882353,681.5882353,black,experiment,legacy,legacy,legacy,0,uniform,1,1,undefined,right,67,67,0,67,67,0,0,67,67,0,0,67,67,67,0,10/27/19 16:04,The main experiment item,yes,SternbergTask.osexp,C:\Users\hosan\Desktop,no,mono,no,18,no,white,no,yes,768,legacy,55,11,C:/Users/hosan/Desktop/TB-subject-4.csv,legacy,4 1,Kafkaesque Koffka,3.2.8,0,n,0,right,right,left,right,NA,586,586,194239,13627,NA,2,legacy,2,1024,2,48000,-16,experiment,4,even,6,629552,631558,198226,626183,627338,3979,289935,627340,546518,3985,276307,632146,628346,631558,NA,Sternberg Task,67,46348,68,yes,1024
97.10144928,97.10144928,681.6956522,681.6956522,black,experiment,legacy,legacy,legacy,0,uniform,0,0,undefined,left,68,68,0,68,68,0,0,68,68,0,0,68,68,68,0,10/27/19 16:04,The main experiment item,yes,SternbergTask.osexp,C:\Users\hosan\Desktop,no,mono,no,18,no,white,no,yes,768,legacy,56,11,C:/Users/hosan/Desktop/TB-subject-4.csv,legacy,4 7 6 8 2 3,Kafkaesque Koffka,3.2.8,6,y,0,right,right,left,right,NA,689,689,194239,13627,NA,2,legacy,6,1024,2,48000,-16,experiment,4,even,3,635566,637573,198226,632231,633352,3979,289935,633355,546518,3985,276307,638263,634360,637572,NA,Sternberg Task,67,47037,69,yes,1024
97.14285714,97.14285714,682.4285714,682.4285714,black,experiment,legacy,legacy,legacy,0,uniform,1,1,undefined,left,69,69,0,69,69,0,0,69,69,0,0,69,69,69,0,10/27/19 16:04,The main experiment item,yes,SternbergTask.osexp,C:\Users\hosan\Desktop,no,mono,no,18,no,white,no,yes,768,legacy,57,11,C:/Users/hosan/Desktop/TB-subject-4.csv,legacy,4 1 8 7 5,Kafkaesque Koffka,3.2.8,3,y,0,left,left,left,right,NA,733,733,194239,13627,NA,2,legacy,5,1024,2,48000,-16,experiment,4,even,8,641665,643670,198226,632231,639454,3979,289935,639456,638318,3985,276307,644404,640458,643670,NA,Sternberg Task,68,47770,70,yes,1024
97.18309859,97.18309859,689.8028169,689.8028169,black,experiment,legacy,legacy,legacy,0,uniform,1,1,undefined,left,70,70,0,70,70,0,0,70,70,0,0,70,70,70,0,10/27/19 16:04,The main experiment item,yes,SternbergTask.osexp,C:\Users\hosan\Desktop,no,mono,no,18,no,white,no,yes,768,legacy,58,11,C:/Users/hosan/Desktop/TB-subject-4.csv,legacy,2 8 5 1,Kafkaesque Koffka,3.2.8,4,y,0,left,left,left,right,NA,1206,1206,194239,13627,NA,2,legacy,4,1024,2,48000,-16,experiment,4,even,1,647820,649823,198226,644453,645606,3979,289935,645608,638318,3985,276307,651031,646614,649823,NA,Sternberg Task,69,48976,71,yes,1024
97.22222222,97.22222222,689.375,689.375,black,experiment,legacy,legacy,legacy,0,uniform,1,1,undefined,right,71,71,0,71,71,0,0,71,71,0,0,71,71,71,0,10/27/19 16:04,The main experiment item,yes,SternbergTask.osexp,C:\Users\hosan\Desktop,no,mono,no,18,no,white,no,yes,768,legacy,59,11,C:/Users/hosan/Desktop/TB-subject-4.csv,legacy,1,Kafkaesque Koffka,3.2.8,0,n,0,right,right,left,right,NA,659,659,194239,13627,NA,2,legacy,1,1024,2,48000,-16,experiment,4,even,7,654495,656501,198226,651084,652279,3979,289935,652282,638318,3985,276307,657161,653288,656501,NA,Sternberg Task,70,49635,72,yes,1024
97.26027397,97.26027397,693.7808219,693.7808219,black,experiment,legacy,legacy,legacy,0,uniform,1,1,undefined,right,72,72,0,72,72,0,0,72,72,0,0,72,72,72,0,10/27/19 16:04,The main experiment item,yes,SternbergTask.osexp,C:\Users\hosan\Desktop,no,mono,no,18,no,white,no,yes,768,legacy,60,11,C:/Users/hosan/Desktop/TB-subject-4.csv,legacy,6 3 1 7 9 8,Kafkaesque Koffka,3.2.8,0,n,0,right,right,left,right,NA,1011,1011,194239,13627,NA,2,legacy,6,1024,2,48000,-16,experiment,4,even,4,660542,662548,198226,657183,658327,3979,289935,658330,638318,3985,276307,663561,659336,662548,NA,Sternberg Task,71,50646,73,yes,1024
95.94594595,95.94594595,697.2162162,697.2162162,black,experiment,legacy,legacy,legacy,0,uniform,0,0,undefined,left,73,73,0,73,73,0,0,73,73,0,0,73,73,73,0,10/27/19 16:04,The main experiment item,yes,SternbergTask.osexp,C:\Users\hosan\Desktop,no,mono,no,18,no,white,no,yes,768,legacy,61,11,C:/Users/hosan/Desktop/TB-subject-4.csv,legacy,8 5 4 7 3 1,Kafkaesque Koffka,3.2.8,2,y,0,right,right,left,right,NA,948,948,194239,13627,NA,2,legacy,6,1024,2,48000,-16,experiment,4,even,5,666986,668993,198226,663629,664772,3979,289935,664775,638318,3985,276307,669943,665781,668993,NA,Sternberg Task,71,51594,74,yes,1024
96,96,699.28,699.28,black,experiment,legacy,legacy,legacy,0,uniform,1,1,undefined,right,74,74,0,74,74,0,0,74,74,0,0,74,74,74,0,10/27/19 16:04,The main experiment item,yes,SternbergTask.osexp,C:\Users\hosan\Desktop,no,mono,no,18,no,white,no,yes,768,legacy,62,11,C:/Users/hosan/Desktop/TB-subject-4.csv,legacy,3 4 2,Kafkaesque Koffka,3.2.8,0,n,0,right,right,left,right,NA,852,852,194239,13627,NA,2,legacy,3,1024,2,48000,-16,experiment,4,even,5,673352,675358,198226,663629,671136,3979,289935,671139,670008,3985,276307,676211,672146,675358,NA,Sternberg Task,72,52446,75,yes,1024
96.05263158,96.05263158,703.9210526,703.9210526,black,experiment,legacy,legacy,legacy,0,uniform,1,1,undefined,left,75,75,0,75,75,0,0,75,75,0,0,75,75,75,0,10/27/19 16:04,The main experiment item,yes,SternbergTask.osexp,C:\Users\hosan\Desktop,no,mono,no,18,no,white,no,yes,768,legacy,63,11,C:/Users/hosan/Desktop/TB-subject-4.csv,legacy,3 9 6 2,Kafkaesque Koffka,3.2.8,4,y,0,left,left,left,right,NA,1052,1052,194239,13627,NA,2,legacy,4,1024,2,48000,-16,experiment,4,even,2,679706,681712,198226,676282,677494,3979,289935,677496,670008,3985,276307,682765,678503,681711,NA,Sternberg Task,73,53498,76,yes,1024
94.80519481,94.80519481,720.7532468,720.7532468,black,experiment,legacy,legacy,legacy,0,uniform,0,0,undefined,right,76,76,0,76,76,0,0,76,76,0,0,76,76,76,0,10/27/19 16:04,The main experiment item,yes,SternbergTask.osexp,C:\Users\hosan\Desktop,no,mono,no,18,no,white,no,yes,768,legacy,64,11,C:/Users/hosan/Desktop/TB-subject-4.csv,legacy,4 8 1 2,Kafkaesque Koffka,3.2.8,0,n,0,None,None,left,right,NA,2000,2000,194239,13627,NA,2,legacy,4,1024,2,48000,-16,experiment,4,even,7,686170,688176,198226,682821,683955,3979,289935,683958,670008,3985,276307,690177,684964,688176,NA,Sternberg Task,73,55498,77,yes,1024
94.87179487,94.87179487,730.2820513,730.2820513,black,experiment,legacy,legacy,legacy,0,uniform,1,1,undefined,right,77,77,0,77,77,0,0,77,77,0,0,77,77,77,0,10/27/19 16:04,The main experiment item,yes,SternbergTask.osexp,C:\Users\hosan\Desktop,no,mono,no,18,no,white,no,yes,768,legacy,65,11,C:/Users/hosan/Desktop/TB-subject-4.csv,legacy,2 8 9,Kafkaesque Koffka,3.2.8,0,n,0,right,right,left,right,NA,1464,1464,194239,13627,NA,2,legacy,3,1024,2,48000,-16,experiment,4,even,6,693651,695666,198226,682821,691441,3979,289935,691443,690241,3985,276307,697132,692446,695665,NA,Sternberg Task,74,56962,78,yes,1024
94.93670886,94.93670886,732.5949367,732.5949367,black,experiment,legacy,legacy,legacy,0,uniform,1,1,undefined,left,78,78,0,78,78,0,0,78,78,0,0,78,78,78,0,10/27/19 16:04,The main experiment item,yes,SternbergTask.osexp,C:\Users\hosan\Desktop,no,mono,no,18,no,white,no,yes,768,legacy,66,11,C:/Users/hosan/Desktop/TB-subject-4.csv,legacy,2 3 7 4,Kafkaesque Koffka,3.2.8,1,y,0,left,left,left,right,NA,913,913,194239,13627,NA,2,legacy,4,1024,2,48000,-16,experiment,4,even,2,700597,702604,198226,697191,698385,3979,289935,698387,690241,3985,276307,703518,699392,702603,NA,Sternberg Task,75,57875,79,yes,1024
95,95,734.25,734.25,black,experiment,legacy,legacy,legacy,0,uniform,1,1,undefined,left,79,79,0,79,79,0,0,79,79,0,0,79,79,79,0,10/27/19 16:04,The main experiment item,yes,SternbergTask.osexp,C:\Users\hosan\Desktop,no,mono,no,18,no,white,no,yes,768,legacy,67,11,C:/Users/hosan/Desktop/TB-subject-4.csv,legacy,2 5 4 8 7,Kafkaesque Koffka,3.2.8,3,y,0,left,left,left,right,NA,865,865,194239,13627,NA,2,legacy,5,1024,2,48000,-16,experiment,4,even,4,706901,708908,198226,703550,704687,3979,289935,704689,690241,3985,276307,709774,705695,708907,NA,Sternberg Task,76,58740,80,yes,1024
95.0617284,95.0617284,734.4074074,734.4074074,black,experiment,legacy,legacy,legacy,0,uniform,1,1,undefined,right,80,80,0,80,80,0,0,80,80,0,0,80,80,80,0,10/27/19 16:04,The main experiment item,yes,SternbergTask.osexp,C:\Users\hosan\Desktop,no,mono,no,18,no,white,no,yes,768,legacy,68,11,C:/Users/hosan/Desktop/TB-subject-4.csv,legacy,6 9 4 5 2,Kafkaesque Koffka,3.2.8,0,n,0,right,right,left,right,NA,747,747,194239,13627,NA,2,legacy,5,1024,2,48000,-16,experiment,4,even,1,713173,715179,198226,709834,710958,3979,289935,710961,690241,3985,276307,715927,711966,715179,NA,Sternberg Task,77,59487,81,yes,1024
95.12195122,95.12195122,735.9268293,735.9268293,black,experiment,legacy,legacy,legacy,0,uniform,1,1,undefined,right,81,81,0,81,81,0,0,81,81,0,0,81,81,81,0,10/27/19 16:04,The main experiment item,yes,SternbergTask.osexp,C:\Users\hosan\Desktop,no,mono,no,18,no,white,no,yes,768,legacy,69,11,C:/Users/hosan/Desktop/TB-subject-4.csv,legacy,5 7 3,Kafkaesque Koffka,3.2.8,0,n,0,right,right,left,right,NA,859,859,194239,13627,NA,2,legacy,3,1024,2,48000,-16,experiment,4,even,9,719300,721306,198226,715942,717087,3979,289935,717089,690241,3985,276307,722166,718094,721305,NA,Sternberg Task,78,60346,82,yes,1024
95.18072289,95.18072289,743.3253012,743.3253012,black,experiment,legacy,legacy,legacy,0,uniform,1,1,undefined,right,82,82,0,82,82,0,0,82,82,0,0,82,82,82,0,10/27/19 16:04,The main experiment item,yes,SternbergTask.osexp,C:\Users\hosan\Desktop,no,mono,no,18,no,white,no,yes,768,legacy,70,11,C:/Users/hosan/Desktop/TB-subject-4.csv,legacy,2 8 9 4 1,Kafkaesque Koffka,3.2.8,0,n,0,right,right,left,right,NA,1350,1350,194239,13627,NA,2,legacy,5,1024,2,48000,-16,experiment,4,even,5,725583,727590,198226,722234,723370,3979,289935,723372,690241,3985,276307,728941,724378,727589,NA,Sternberg Task,79,61696,83,yes,1024
95.23809524,95.23809524,744.3333333,744.3333333,black,experiment,legacy,legacy,legacy,0,uniform,1,1,undefined,right,83,83,0,83,83,0,0,83,83,0,0,83,83,83,0,10/27/19 16:04,The main experiment item,yes,SternbergTask.osexp,C:\Users\hosan\Desktop,no,mono,no,18,no,white,no,yes,768,legacy,71,11,C:/Users/hosan/Desktop/TB-subject-4.csv,legacy,8 5 7 3 6,Kafkaesque Koffka,3.2.8,0,n,0,right,right,left,right,NA,828,828,194239,13627,NA,2,legacy,5,1024,2,48000,-16,experiment,4,even,9,732346,734352,198226,728996,730133,3979,289935,730135,690241,3985,276307,735181,731141,734352,NA,Sternberg Task,80,62524,84,yes,1024
95.29411765,95.29411765,754.0235294,754.0235294,black,experiment,legacy,legacy,legacy,0,uniform,1,1,undefined,right,84,84,0,84,84,0,0,84,84,0,0,84,84,84,0,10/27/19 16:04,The main experiment item,yes,SternbergTask.osexp,C:\Users\hosan\Desktop,no,mono,no,18,no,white,no,yes,768,legacy,72,11,C:/Users/hosan/Desktop/TB-subject-4.csv,legacy,6 7 5 9,Kafkaesque Koffka,3.2.8,0,n,0,right,right,left,right,NA,1568,1568,194239,13627,NA,2,legacy,4,1024,2,48000,-16,experiment,4,even,2,738636,740642,198226,735240,736423,3979,289935,736425,690241,3985,276307,742212,737431,740642,NA,Sternberg Task,81,64092,85,yes,1024
95.34883721,95.34883721,758.0116279,758.0116279,black,experiment,legacy,legacy,legacy,0,uniform,1,1,undefined,left,85,85,0,85,85,0,0,85,85,0,0,85,85,85,0,10/27/19 16:04,The main experiment item,yes,SternbergTask.osexp,C:\Users\hosan\Desktop,no,mono,no,18,no,white,no,yes,768,legacy,73,11,C:/Users/hosan/Desktop/TB-subject-4.csv,legacy,3 4 9 6 2 9,Kafkaesque Koffka,3.2.8,5,y,0,left,left,left,right,NA,1097,1097,194239,13627,NA,2,legacy,6,1024,2,48000,-16,experiment,4,even,2,745709,747715,198226,742272,743495,3979,289935,743498,690241,3985,276307,748813,744504,747715,NA,Sternberg Task,82,65189,86,yes,1024
95.40229885,95.40229885,761.9655172,761.9655172,black,experiment,legacy,legacy,legacy,0,uniform,1,1,undefined,left,86,86,0,86,86,0,0,86,86,0,0,86,86,86,0,10/27/19 16:04,The main experiment item,yes,SternbergTask.osexp,C:\Users\hosan\Desktop,no,mono,no,18,no,white,no,yes,768,legacy,74,11,C:/Users/hosan/Desktop/TB-subject-4.csv,legacy,8 9 6 1,Kafkaesque Koffka,3.2.8,2,y,0,left,left,left,right,NA,1102,1102,194239,13627,NA,2,legacy,4,1024,2,48000,-16,experiment,4,even,9,752226,754230,198226,748864,750013,3979,289935,750015,690241,3985,276307,755333,751021,754229,NA,Sternberg Task,83,66291,87,yes,1024
95.45454545,95.45454545,764.5,764.5,black,experiment,legacy,legacy,legacy,0,uniform,1,1,undefined,right,87,87,0,87,87,0,0,87,87,0,0,87,87,87,0,10/27/19 16:04,The main experiment item,yes,SternbergTask.osexp,C:\Users\hosan\Desktop,no,mono,no,18,no,white,no,yes,768,legacy,75,11,C:/Users/hosan/Desktop/TB-subject-4.csv,legacy,1 7 8 3 9,Kafkaesque Koffka,3.2.8,0,n,0,right,right,left,right,NA,985,985,194239,13627,NA,2,legacy,5,1024,2,48000,-16,experiment,4,even,2,758770,760776,198226,755405,756558,3979,289935,756560,690241,3985,276307,761762,757565,760776,NA,Sternberg Task,84,67276,88,yes,1024
95.50561798,95.50561798,765.247191,765.247191,black,experiment,legacy,legacy,legacy,0,uniform,1,1,undefined,left,88,88,0,88,88,0,0,88,88,0,0,88,88,88,0,10/27/19 16:04,The main experiment item,yes,SternbergTask.osexp,C:\Users\hosan\Desktop,no,mono,no,18,no,white,no,yes,768,legacy,76,11,C:/Users/hosan/Desktop/TB-subject-4.csv,legacy,5 2 9 6 1 7,Kafkaesque Koffka,3.2.8,3,y,0,left,left,left,right,NA,831,831,194239,13627,NA,2,legacy,6,1024,2,48000,-16,experiment,4,even,9,765204,767211,198226,761819,762990,3979,289935,762993,690241,3985,276307,768044,763998,767210,NA,Sternberg Task,85,68107,89,yes,1024
95.55555556,95.55555556,765.8555556,765.8555556,black,experiment,legacy,legacy,legacy,0,uniform,1,1,undefined,right,89,89,0,89,89,0,0,89,89,0,0,89,89,89,0,10/27/19 16:04,The main experiment item,yes,SternbergTask.osexp,C:\Users\hosan\Desktop,no,mono,no,18,no,white,no,yes,768,legacy,77,11,C:/Users/hosan/Desktop/TB-subject-4.csv,legacy,8 2 1 4 5 9,Kafkaesque Koffka,3.2.8,0,n,0,right,right,left,right,NA,820,820,194239,13627,NA,2,legacy,6,1024,2,48000,-16,experiment,4,even,7,771454,773461,198226,768109,769240,3979,289935,769243,690241,3985,276307,774282,770248,773461,NA,Sternberg Task,86,68927,90,yes,1024
95.6043956,95.6043956,765.032967,765.032967,black,experiment,legacy,legacy,legacy,0,uniform,1,1,undefined,left,90,90,0,90,90,0,0,90,90,0,0,90,90,90,0,10/27/19 16:04,The main experiment item,yes,SternbergTask.osexp,C:\Users\hosan\Desktop,no,mono,no,18,no,white,no,yes,768,legacy,78,11,C:/Users/hosan/Desktop/TB-subject-4.csv,legacy,6 1 2,Kafkaesque Koffka,3.2.8,3,y,0,left,left,left,right,NA,691,691,194239,13627,NA,2,legacy,3,1024,2,48000,-16,experiment,4,even,2,777716,779723,198226,774345,775502,3979,289935,775504,690241,3985,276307,780416,776510,779722,NA,Sternberg Task,87,69618,91,yes,1024
95.65217391,95.65217391,768.3586957,768.3586957,black,experiment,legacy,legacy,legacy,0,uniform,1,1,undefined,left,91,91,0,91,91,0,0,91,91,0,0,91,91,91,0,10/27/19 16:04,The main experiment item,yes,SternbergTask.osexp,C:\Users\hosan\Desktop,no,mono,no,18,no,white,no,yes,768,legacy,79,11,C:/Users/hosan/Desktop/TB-subject-4.csv,legacy,9 1 6 7 8,Kafkaesque Koffka,3.2.8,1,y,0,left,left,left,right,NA,1071,1071,194239,13627,NA,2,legacy,5,1024,2,48000,-16,experiment,4,even,9,783885,785891,198226,780475,781671,3979,289935,781673,690241,3985,276307,786964,782678,785891,NA,Sternberg Task,88,70689,92,yes,1024
95.69892473,95.69892473,775.9032258,775.9032258,black,experiment,legacy,legacy,legacy,0,uniform,1,1,undefined,left,92,92,0,92,92,0,0,92,92,0,0,92,92,92,0,10/27/19 16:04,The main experiment item,yes,SternbergTask.osexp,C:\Users\hosan\Desktop,no,mono,no,18,no,white,no,yes,768,legacy,80,11,C:/Users/hosan/Desktop/TB-subject-4.csv,legacy,9 8 4,Kafkaesque Koffka,3.2.8,1,y,0,left,left,left,right,NA,1470,1470,194239,13627,NA,2,legacy,3,1024,2,48000,-16,experiment,4,even,9,790365,792372,198226,787024,788150,3979,289935,788153,690241,3985,276307,793843,789158,792372,NA,Sternberg Task,89,72159,93,yes,1024
95.74468085,95.74468085,777.3191489,777.3191489,black,experiment,legacy,legacy,legacy,0,uniform,1,1,undefined,right,93,93,0,93,93,0,0,93,93,0,0,93,93,93,0,10/27/19 16:04,The main experiment item,yes,SternbergTask.osexp,C:\Users\hosan\Desktop,no,mono,no,18,no,white,no,yes,768,legacy,81,11,C:/Users/hosan/Desktop/TB-subject-4.csv,legacy,2 6 4 3 9,Kafkaesque Koffka,3.2.8,0,n,0,right,right,left,right,NA,909,909,194239,13627,NA,2,legacy,5,1024,2,48000,-16,experiment,4,even,1,797250,799256,198226,793902,795036,3979,289935,795038,690241,3985,276307,800166,796045,799255,NA,Sternberg Task,90,73068,94,yes,1024
94.73684211,94.73684211,788.7473684,788.7473684,black,experiment,legacy,legacy,legacy,0,uniform,0,0,undefined,right,94,94,0,94,94,0,0,94,94,0,0,94,94,94,0,10/27/19 16:04,The main experiment item,yes,SternbergTask.osexp,C:\Users\hosan\Desktop,no,mono,no,18,no,white,no,yes,768,legacy,82,11,C:/Users/hosan/Desktop/TB-subject-4.csv,legacy,9 5 3 2 8 6,Kafkaesque Koffka,3.2.8,0,n,0,left,left,left,right,NA,1863,1863,194239,13627,NA,2,legacy,6,1024,2,48000,-16,experiment,4,even,7,803598,805604,198226,800201,801385,3979,289935,801387,690241,3985,276307,807469,802393,805604,NA,Sternberg Task,90,74931,95,yes,1024
94.79166667,94.79166667,788.1354167,788.1354167,black,experiment,legacy,legacy,legacy,0,uniform,1,1,undefined,right,95,95,0,95,95,0,0,95,95,0,0,95,95,95,0,10/27/19 16:04,The main experiment item,yes,SternbergTask.osexp,C:\Users\hosan\Desktop,no,mono,no,18,no,white,no,yes,768,legacy,83,11,C:/Users/hosan/Desktop/TB-subject-4.csv,legacy,1 4 9 3,Kafkaesque Koffka,3.2.8,0,n,0,right,right,left,right,NA,730,730,194239,13627,NA,2,legacy,4,1024,2,48000,-16,experiment,4,even,5,810899,812906,198226,800201,808685,3979,289935,808688,807530,3985,276307,813638,809693,812905,NA,Sternberg Task,91,75661,96,yes,1024
94.84536082,94.84536082,788.6082474,788.6082474,black,experiment,legacy,legacy,legacy,0,uniform,1,1,undefined,left,96,96,0,96,96,0,0,96,96,0,0,96,96,96,0,10/27/19 16:04,The main experiment item,yes,SternbergTask.osexp,C:\Users\hosan\Desktop,no,mono,no,18,no,white,no,yes,768,legacy,84,11,C:/Users/hosan/Desktop/TB-subject-4.csv,legacy,2 4 6 9,Kafkaesque Koffka,3.2.8,3,y,0,left,left,left,right,NA,834,834,194239,13627,NA,2,legacy,4,1024,2,48000,-16,experiment,4,even,6,817084,819092,198226,813696,814871,3979,289935,814873,807530,3985,276307,819928,815878,819092,NA,Sternberg Task,92,76495,97,yes,1024
94.89795918,94.89795918,787.6836735,787.6836735,black,experiment,legacy,legacy,legacy,0,uniform,1,1,undefined,left,97,97,0,97,97,0,0,97,97,0,0,97,97,97,0,10/27/19 16:04,The main experiment item,yes,SternbergTask.osexp,C:\Users\hosan\Desktop,no,mono,no,18,no,white,no,yes,768,legacy,85,11,C:/Users/hosan/Desktop/TB-subject-4.csv,legacy,7 8 4 6 9 5,Kafkaesque Koffka,3.2.8,4,y,0,left,left,left,right,NA,698,698,194239,13627,NA,2,legacy,6,1024,2,48000,-16,experiment,4,even,6,823377,825385,198226,819979,821162,3979,289935,821166,807530,3985,276307,826085,822172,825384,NA,Sternberg Task,93,77193,98,yes,1024
94.94949495,94.94949495,788.5656566,788.5656566,black,experiment,legacy,legacy,legacy,0,uniform,1,1,undefined,right,98,98,0,98,98,0,0,98,98,0,0,98,98,98,0,10/27/19 16:04,The main experiment item,yes,SternbergTask.osexp,C:\Users\hosan\Desktop,no,mono,no,18,no,white,no,yes,768,legacy,86,11,C:/Users/hosan/Desktop/TB-subject-4.csv,legacy,7 9 1 6,Kafkaesque Koffka,3.2.8,0,n,0,right,right,left,right,NA,875,875,194239,13627,NA,2,legacy,4,1024,2,48000,-16,experiment,4,even,4,829450,831456,198226,826117,827237,3979,289935,827239,807530,3985,276307,832333,828245,831456,NA,Sternberg Task,94,78068,99,yes,1024
95,95,788.96,788.96,black,experiment,legacy,legacy,legacy,0,uniform,1,1,undefined,left,99,99,0,99,99,0,0,99,99,0,0,99,99,99,0,10/27/19 16:04,The main experiment item,yes,SternbergTask.osexp,C:\Users\hosan\Desktop,no,mono,no,18,no,white,no,yes,768,legacy,87,11,C:/Users/hosan/Desktop/TB-subject-4.csv,legacy,6 5,Kafkaesque Koffka,3.2.8,2,y,0,left,left,left,right,NA,828,828,194239,13627,NA,2,legacy,2,1024,2,48000,-16,experiment,4,even,5,835734,837739,198226,832393,833519,3979,289935,833522,807530,3985,276307,838568,834527,837739,NA,Sternberg Task,95,78896,100,yes,1024
95.04950495,95.04950495,787.8514851,787.8514851,black,experiment,legacy,legacy,legacy,0,uniform,1,1,undefined,left,100,100,0,100,100,0,0,100,100,0,0,100,100,100,0,10/27/19 16:04,The main experiment item,yes,SternbergTask.osexp,C:\Users\hosan\Desktop,no,mono,no,18,no,white,no,yes,768,legacy,88,11,C:/Users/hosan/Desktop/TB-subject-4.csv,legacy,3 5 9 6 2 4,Kafkaesque Koffka,3.2.8,1,y,0,left,left,left,right,NA,677,677,194239,13627,NA,2,legacy,6,1024,2,48000,-16,experiment,4,even,3,841965,843971,198226,838626,839752,3979,289935,839754,807530,3985,276307,844649,840760,843971,NA,Sternberg Task,96,79573,101,yes,1024
95.09803922,95.09803922,789.0980392,789.0980392,black,experiment,legacy,legacy,legacy,0,uniform,1,1,undefined,right,101,101,0,101,101,0,0,101,101,0,0,101,101,101,0,10/27/19 16:04,The main experiment item,yes,SternbergTask.osexp,C:\Users\hosan\Desktop,no,mono,no,18,no,white,no,yes,768,legacy,89,11,C:/Users/hosan/Desktop/TB-subject-4.csv,legacy,4 2 6 9,Kafkaesque Koffka,3.2.8,0,n,0,right,right,left,right,NA,915,915,194239,13627,NA,2,legacy,4,1024,2,48000,-16,experiment,4,even,7,848057,850063,198226,844681,845844,3979,289935,845846,807530,3985,276307,850980,846852,850063,NA,Sternberg Task,97,80488,102,yes,1024
95.14563107,95.14563107,789.7669903,789.7669903,black,experiment,legacy,legacy,legacy,0,uniform,1,1,undefined,right,102,102,0,102,102,0,0,102,102,0,0,102,102,102,0,10/27/19 16:04,The main experiment item,yes,SternbergTask.osexp,C:\Users\hosan\Desktop,no,mono,no,18,no,white,no,yes,768,legacy,90,11,C:/Users/hosan/Desktop/TB-subject-4.csv,legacy,6 9 7 3 8 2,Kafkaesque Koffka,3.2.8,0,n,0,right,right,left,right,NA,858,858,194239,13627,NA,2,legacy,6,1024,2,48000,-16,experiment,4,even,5,854462,856469,198226,851032,852250,3979,289935,852252,807530,3985,276307,857330,853257,856468,NA,Sternberg Task,98,81346,103,yes,1024
95.19230769,95.19230769,791.3269231,791.3269231,black,experiment,legacy,legacy,legacy,0,uniform,1,1,undefined,right,103,103,0,103,103,0,0,103,103,0,0,103,103,103,0,10/27/19 16:04,The main experiment item,yes,SternbergTask.osexp,C:\Users\hosan\Desktop,no,mono,no,18,no,white,no,yes,768,legacy,91,11,C:/Users/hosan/Desktop/TB-subject-4.csv,legacy,1 4 3 6 5,Kafkaesque Koffka,3.2.8,0,n,0,right,right,left,right,NA,952,952,194239,13627,NA,2,legacy,5,1024,2,48000,-16,experiment,4,even,8,860737,862744,198226,857389,858524,3979,289935,858526,807530,3985,276307,863697,859532,862743,NA,Sternberg Task,99,82298,104,yes,1024
95.23809524,95.23809524,793.9904762,793.9904762,black,experiment,legacy,legacy,legacy,0,uniform,1,1,undefined,left,104,104,0,104,104,0,0,104,104,0,0,104,104,104,0,10/27/19 16:04,The main experiment item,yes,SternbergTask.osexp,C:\Users\hosan\Desktop,no,mono,no,18,no,white,no,yes,768,legacy,92,11,C:/Users/hosan/Desktop/TB-subject-4.csv,legacy,8 9 5 7 1 6,Kafkaesque Koffka,3.2.8,4,y,0,left,left,left,right,NA,1071,1071,194239,13627,NA,2,legacy,6,1024,2,48000,-16,experiment,4,even,7,867144,869148,198226,863764,864931,3979,289935,864934,807530,3985,276307,870221,865939,869148,NA,Sternberg Task,100,83369,105,yes,1024
95.28301887,95.28301887,791.3867925,791.3867925,black,experiment,legacy,legacy,legacy,0,uniform,1,1,undefined,left,105,105,0,105,105,0,0,105,105,0,0,105,105,105,0,10/27/19 16:04,The main experiment item,yes,SternbergTask.osexp,C:\Users\hosan\Desktop,no,mono,no,18,no,white,no,yes,768,legacy,93,11,C:/Users/hosan/Desktop/TB-subject-4.csv,legacy,4,Kafkaesque Koffka,3.2.8,1,y,0,left,left,left,right,NA,518,518,194239,13627,NA,2,legacy,1,1024,2,48000,-16,experiment,4,even,4,873615,875622,198226,870271,871399,3979,289935,871401,807530,3985,276307,876141,872408,875622,NA,Sternberg Task,101,83887,106,yes,1024
95.3271028,95.3271028,791.4299065,791.4299065,black,experiment,legacy,legacy,legacy,0,uniform,1,1,undefined,right,106,106,0,106,106,0,0,106,106,0,0,106,106,106,0,10/27/19 16:04,The main experiment item,yes,SternbergTask.osexp,C:\Users\hosan\Desktop,no,mono,no,18,no,white,no,yes,768,legacy,94,11,C:/Users/hosan/Desktop/TB-subject-4.csv,legacy,8 9,Kafkaesque Koffka,3.2.8,0,n,0,right,right,left,right,NA,796,796,194239,13627,NA,2,legacy,2,1024,2,48000,-16,experiment,4,even,5,879552,881558,198226,876212,877338,3979,289935,877340,807530,3985,276307,882356,878345,881557,NA,Sternberg Task,102,84683,107,yes,1024
95.37037037,95.37037037,791.1296296,791.1296296,black,experiment,legacy,legacy,legacy,0,uniform,1,1,undefined,right,107,107,0,107,107,0,0,107,107,0,0,107,107,107,0,10/27/19 16:04,The main experiment item,yes,SternbergTask.osexp,C:\Users\hosan\Desktop,no,mono,no,18,no,white,no,yes,768,legacy,95,11,C:/Users/hosan/Desktop/TB-subject-4.csv,legacy,1 5 3 2 8,Kafkaesque Koffka,3.2.8,0,n,0,right,right,left,right,NA,759,759,194239,13627,NA,2,legacy,5,1024,2,48000,-16,experiment,4,even,4,885763,887771,198226,882424,883549,3979,289935,883552,807530,3985,276307,888532,884558,887771,NA,Sternberg Task,103,85442,108,yes,1024
95.41284404,95.41284404,790.6697248,790.6697248,black,experiment,legacy,legacy,legacy,0,uniform,1,1,undefined,right,108,108,0,108,108,0,0,108,108,0,0,108,108,108,0,10/27/19 16:04,The main experiment item,yes,SternbergTask.osexp,C:\Users\hosan\Desktop,no,mono,no,18,no,white,no,yes,768,legacy,96,11,C:/Users/hosan/Desktop/TB-subject-4.csv,legacy,1 7 5 2 9,Kafkaesque Koffka,3.2.8,0,n,0,right,right,left,right,NA,741,741,194239,13627,NA,2,legacy,5,1024,2,48000,-16,experiment,4,even,3,891949,893955,198226,888600,889733,3979,289935,889736,807530,3985,276307,894698,890742,893955,NA,Sternberg Task,104,86183,109,yes,1024
95.45454545,95.45454545,791.6909091,791.6909091,black,experiment,legacy,legacy,legacy,0,uniform,1,1,undefined,left,109,109,0,109,109,0,0,109,109,0,0,109,109,109,0,10/27/19 16:04,The main experiment item,yes,SternbergTask.osexp,C:\Users\hosan\Desktop,no,mono,no,18,no,white,no,yes,768,legacy,97,11,C:/Users/hosan/Desktop/TB-subject-4.csv,legacy,6 7 8 5,Kafkaesque Koffka,3.2.8,3,y,0,left,left,left,right,NA,903,903,194239,13627,NA,2,legacy,4,1024,2,48000,-16,experiment,4,even,8,898156,900163,198226,894776,895945,3979,289935,895948,807530,3985,276307,901067,896951,900163,NA,Sternberg Task,105,87086,110,yes,1024
95.4954955,95.4954955,791.4774775,791.4774775,black,experiment,legacy,legacy,legacy,0,uniform,1,1,undefined,right,110,110,0,110,110,0,0,110,110,0,0,110,110,110,0,10/27/19 16:04,The main experiment item,yes,SternbergTask.osexp,C:\Users\hosan\Desktop,no,mono,no,18,no,white,no,yes,768,legacy,98,11,C:/Users/hosan/Desktop/TB-subject-4.csv,legacy,9 8 2 7 4,Kafkaesque Koffka,3.2.8,0,n,0,right,right,left,right,NA,768,768,194239,13627,NA,2,legacy,5,1024,2,48000,-16,experiment,4,even,5,904478,906480,198226,901127,902262,3979,289935,902265,807530,3985,276307,907249,903271,906480,NA,Sternberg Task,106,87854,111,yes,1024
95.53571429,95.53571429,790.4285714,790.4285714,black,experiment,legacy,legacy,legacy,0,uniform,1,1,undefined,left,111,111,0,111,111,0,0,111,111,0,0,111,111,111,0,10/27/19 16:04,The main experiment item,yes,SternbergTask.osexp,C:\Users\hosan\Desktop,no,mono,no,18,no,white,no,yes,768,legacy,99,11,C:/Users/hosan/Desktop/TB-subject-4.csv,legacy,4 9 7 8 5 3,Kafkaesque Koffka,3.2.8,4,y,0,left,left,left,right,NA,674,674,194239,13627,NA,2,legacy,6,1024,2,48000,-16,experiment,4,even,8,910631,912637,198226,907301,908419,3979,289935,908421,807530,3985,276307,913313,909426,912637,NA,Sternberg Task,107,88528,112,yes,1024
95.57522124,95.57522124,789.5840708,789.5840708,black,experiment,legacy,legacy,legacy,0,uniform,1,1,undefined,right,112,112,0,112,112,0,0,112,112,0,0,112,112,112,0,10/27/19 16:04,The main experiment item,yes,SternbergTask.osexp,C:\Users\hosan\Desktop,no,mono,no,18,no,white,no,yes,768,legacy,100,11,C:/Users/hosan/Desktop/TB-subject-4.csv,legacy,7 8 6 1,Kafkaesque Koffka,3.2.8,0,n,0,right,right,left,right,NA,695,695,194239,13627,NA,2,legacy,4,1024,2,48000,-16,experiment,4,even,3,916728,918735,198226,913379,914514,3979,289935,914516,807530,3985,276307,919431,915523,918735,NA,Sternberg Task,108,89223,113,yes,1024
95.61403509,95.61403509,794.377193,794.377193,black,experiment,legacy,legacy,legacy,0,uniform,1,1,undefined,left,113,113,0,113,113,0,0,113,113,0,0,113,113,113,0,10/27/19 16:04,The main experiment item,yes,SternbergTask.osexp,C:\Users\hosan\Desktop,no,mono,no,18,no,white,no,yes,768,legacy,101,11,C:/Users/hosan/Desktop/TB-subject-4.csv,legacy,9 3 1 2 5,Kafkaesque Koffka,3.2.8,4,y,0,left,left,left,right,NA,1336,1336,194239,13627,NA,2,legacy,5,1024,2,48000,-16,experiment,4,even,2,922898,924905,198226,919493,920686,3979,289935,920688,807530,3985,276307,926244,921693,924904,NA,Sternberg Task,109,90559,114,yes,1024
95.65217391,95.65217391,795.7826087,795.7826087,black,experiment,legacy,legacy,legacy,0,uniform,1,1,undefined,left,114,114,0,114,114,0,0,114,114,0,0,114,114,114,0,10/27/19 16:04,The main experiment item,yes,SternbergTask.osexp,C:\Users\hosan\Desktop,no,mono,no,18,no,white,no,yes,768,legacy,102,11,C:/Users/hosan/Desktop/TB-subject-4.csv,legacy,8 3,Kafkaesque Koffka,3.2.8,2,y,0,left,left,left,right,NA,956,956,194239,13627,NA,2,legacy,2,1024,2,48000,-16,experiment,4,even,3,929647,931654,198226,926298,927433,3979,289935,927436,807530,3985,276307,932612,928441,931653,NA,Sternberg Task,110,91515,115,yes,1024
95.68965517,95.68965517,795,795,black,experiment,legacy,legacy,legacy,0,uniform,1,1,undefined,left,115,115,0,115,115,0,0,115,115,0,0,115,115,115,0,10/27/19 16:04,The main experiment item,yes,SternbergTask.osexp,C:\Users\hosan\Desktop,no,mono,no,18,no,white,no,yes,768,legacy,103,11,C:/Users/hosan/Desktop/TB-subject-4.csv,legacy,6 8 9 3 4 9,Kafkaesque Koffka,3.2.8,5,y,0,left,left,left,right,NA,705,705,194239,13627,NA,2,legacy,6,1024,2,48000,-16,experiment,4,even,4,935983,937989,198226,932630,933769,3979,289935,933771,807530,3985,276307,938696,934776,937989,NA,Sternberg Task,111,92220,116,yes,1024
95.72649573,95.72649573,794.5641026,794.5641026,black,experiment,legacy,legacy,legacy,0,uniform,1,1,undefined,left,116,116,0,116,116,0,0,116,116,0,0,116,116,116,0,10/27/19 16:04,The main experiment item,yes,SternbergTask.osexp,C:\Users\hosan\Desktop,no,mono,no,18,no,white,no,yes,768,legacy,104,11,C:/Users/hosan/Desktop/TB-subject-4.csv,legacy,6 7 9 3 1 2,Kafkaesque Koffka,3.2.8,1,y,0,left,left,left,right,NA,744,744,194239,13627,NA,2,legacy,6,1024,2,48000,-16,experiment,4,even,6,942180,944187,198226,938754,939968,3979,289935,939970,807530,3985,276307,944933,940975,944187,NA,Sternberg Task,112,92964,117,yes,1024
95.76271186,95.76271186,793.9237288,793.9237288,black,experiment,legacy,legacy,legacy,0,uniform,1,1,undefined,left,117,117,0,117,117,0,0,117,117,0,0,117,117,117,0,10/27/19 16:04,The main experiment item,yes,SternbergTask.osexp,C:\Users\hosan\Desktop,no,mono,no,18,no,white,no,yes,768,legacy,105,11,C:/Users/hosan/Desktop/TB-subject-4.csv,legacy,5 7 8 2 3 8,Kafkaesque Koffka,3.2.8,5,y,0,left,left,left,right,NA,719,719,194239,13627,NA,2,legacy,6,1024,2,48000,-16,experiment,4,even,3,948386,950393,198226,944984,946175,3979,289935,946176,807530,3985,276307,951113,947181,950392,NA,Sternberg Task,113,93683,118,yes,1024
95.79831933,95.79831933,794.4957983,794.4957983,black,experiment,legacy,legacy,legacy,0,uniform,1,1,undefined,left,118,118,0,118,118,0,0,118,118,0,0,118,118,118,0,10/27/19 16:04,The main experiment item,yes,SternbergTask.osexp,C:\Users\hosan\Desktop,no,mono,no,18,no,white,no,yes,768,legacy,106,11,C:/Users/hosan/Desktop/TB-subject-4.csv,legacy,9 1 7 2,Kafkaesque Koffka,3.2.8,2,y,0,left,left,left,right,NA,862,862,194239,13627,NA,2,legacy,4,1024,2,48000,-16,experiment,4,even,1,954540,956546,198226,951175,952325,3979,289935,952328,807530,3985,276307,957409,953335,956546,NA,Sternberg Task,114,94545,119,yes,1024
95.83333333,95.83333333,797.4416667,797.4416667,black,experiment,legacy,legacy,legacy,0,uniform,1,1,undefined,right,119,119,0,119,119,0,0,119,119,0,0,119,119,119,0,10/27/19 16:04,The main experiment item,yes,SternbergTask.osexp,C:\Users\hosan\Desktop,no,mono,no,18,no,white,no,yes,768,legacy,107,11,C:/Users/hosan/Desktop/TB-subject-4.csv,legacy,7 6 4 8 1 2,Kafkaesque Koffka,3.2.8,0,n,0,right,right,left,right,NA,1148,1148,194239,13627,NA,2,legacy,6,1024,2,48000,-16,experiment,4,even,9,960796,962800,198226,957460,958583,3979,289935,958585,807530,3985,276307,963949,959590,962799,NA,Sternberg Task,115,95693,120,yes,1024
95.8677686,95.8677686,796.3966942,796.3966942,black,experiment,legacy,legacy,legacy,0,uniform,1,1,undefined,left,120,120,0,120,120,0,0,120,120,0,0,120,120,120,0,10/27/19 16:04,The main experiment item,yes,SternbergTask.osexp,C:\Users\hosan\Desktop,no,mono,no,18,no,white,no,yes,768,legacy,108,11,C:/Users/hosan/Desktop/TB-subject-4.csv,legacy,3 5 4 7,Kafkaesque Koffka,3.2.8,1,y,0,left,left,left,right,NA,671,671,194239,13627,NA,2,legacy,4,1024,2,48000,-16,experiment,4,even,3,967316,969322,198226,963969,965102,3979,289935,965104,807530,3985,276307,969995,966110,969322,NA,Sternberg Task,116,96364,121,yes,1024
95.90163934,95.90163934,794.9016393,794.9016393,black,experiment,legacy,legacy,legacy,0,uniform,1,1,undefined,left,121,121,0,121,121,0,0,121,121,0,0,121,121,121,0,10/27/19 16:04,The main experiment item,yes,SternbergTask.osexp,C:\Users\hosan\Desktop,no,mono,no,18,no,white,no,yes,768,legacy,109,11,C:/Users/hosan/Desktop/TB-subject-4.csv,legacy,9 3 8 2 1 4,Kafkaesque Koffka,3.2.8,3,y,0,left,left,left,right,NA,614,614,194239,13627,NA,2,legacy,6,1024,2,48000,-16,experiment,4,even,8,973394,975402,198226,970050,971179,3979,289935,971182,807530,3985,276307,976018,972188,975402,NA,Sternberg Task,117,96978,122,yes,1024
95.93495935,95.93495935,795.3658537,795.3658537,black,experiment,legacy,legacy,legacy,0,uniform,1,1,undefined,right,122,122,0,122,122,0,0,122,122,0,0,122,122,122,0,10/27/19 16:04,The main experiment item,yes,SternbergTask.osexp,C:\Users\hosan\Desktop,no,mono,no,18,no,white,no,yes,768,legacy,110,11,C:/Users/hosan/Desktop/TB-subject-4.csv,legacy,6 9 5,Kafkaesque Koffka,3.2.8,0,n,0,right,right,left,right,NA,852,852,194239,13627,NA,2,legacy,3,1024,2,48000,-16,experiment,4,even,8,979432,981438,198226,976080,977218,3979,289935,977220,807530,3985,276307,982292,978226,981438,NA,Sternberg Task,118,97830,123,yes,1024
95.96774194,95.96774194,795.6129032,795.6129032,black,experiment,legacy,legacy,legacy,0,uniform,1,1,undefined,right,123,123,0,123,123,0,0,123,123,0,0,123,123,123,0,10/27/19 16:04,The main experiment item,yes,SternbergTask.osexp,C:\Users\hosan\Desktop,no,mono,no,18,no,white,no,yes,768,legacy,111,11,C:/Users/hosan/Desktop/TB-subject-4.csv,legacy,6 8,Kafkaesque Koffka,3.2.8,0,n,0,right,right,left,right,NA,826,826,194239,13627,NA,2,legacy,2,1024,2,48000,-16,experiment,4,even,9,985663,987669,198226,982315,983448,3979,289935,983451,807530,3985,276307,988496,984457,987668,NA,Sternberg Task,119,98656,124,yes,1024
96,96,795.376,795.376,black,experiment,legacy,legacy,legacy,0,uniform,1,1,undefined,left,124,124,0,124,124,0,0,124,124,0,0,124,124,124,0,10/27/19 16:04,The main experiment item,yes,SternbergTask.osexp,C:\Users\hosan\Desktop,no,mono,no,18,no,white,no,yes,768,legacy,112,11,C:/Users/hosan/Desktop/TB-subject-4.csv,legacy,8 7 3,Kafkaesque Koffka,3.2.8,1,y,0,left,left,left,right,NA,766,766,194239,13627,NA,2,legacy,3,1024,2,48000,-16,experiment,4,even,8,991913,993919,198226,988561,989698,3979,289935,989701,807530,3985,276307,994687,990707,993919,NA,Sternberg Task,120,99422,125,yes,1024
96.03174603,96.03174603,795.7857143,795.7857143,black,experiment,legacy,legacy,legacy,0,uniform,1,1,undefined,right,125,125,0,125,125,0,0,125,125,0,0,125,125,125,0,10/27/19 16:04,The main experiment item,yes,SternbergTask.osexp,C:\Users\hosan\Desktop,no,mono,no,18,no,white,no,yes,768,legacy,113,11,C:/Users/hosan/Desktop/TB-subject-4.csv,legacy,6 2 9 3 8 4,Kafkaesque Koffka,3.2.8,0,n,0,right,right,left,right,NA,847,847,194239,13627,NA,2,legacy,6,1024,2,48000,-16,experiment,4,even,1,998157,1000163,198226,994747,995942,3979,289935,995944,807530,3985,276307,1001012,996950,1000163,NA,Sternberg Task,121,100269,126,yes,1024
96.06299213,96.06299213,795.8503937,795.8503937,black,experiment,legacy,legacy,legacy,0,uniform,1,1,undefined,left,126,126,0,126,126,0,0,126,126,0,0,126,126,126,0,10/27/19 16:04,The main experiment item,yes,SternbergTask.osexp,C:\Users\hosan\Desktop,no,mono,no,18,no,white,no,yes,768,legacy,114,11,C:/Users/hosan/Desktop/TB-subject-4.csv,legacy,6 9 3 1,Kafkaesque Koffka,3.2.8,4,y,0,left,left,left,right,NA,804,804,194239,13627,NA,2,legacy,4,1024,2,48000,-16,experiment,4,even,1,1004425,1006430,198226,1001070,1002212,3979,289935,1002214,807530,3985,276307,1007236,1003219,1006430,NA,Sternberg Task,122,101073,127,yes,1024
96.09375,96.09375,799.5703125,799.5703125,black,experiment,legacy,legacy,legacy,0,uniform,1,1,undefined,right,127,127,0,127,127,0,0,127,127,0,0,127,127,127,0,10/27/19 16:04,The main experiment item,yes,SternbergTask.osexp,C:\Users\hosan\Desktop,no,mono,no,18,no,white,no,yes,768,legacy,115,11,C:/Users/hosan/Desktop/TB-subject-4.csv,legacy,9,Kafkaesque Koffka,3.2.8,0,n,0,right,right,left,right,NA,1272,1272,194239,13627,NA,2,legacy,1,1024,2,48000,-16,experiment,4,even,6,1010689,1012696,198226,1007303,1008475,3979,289935,1008478,807530,3985,276307,1013970,1009484,1012695,NA,Sternberg Task,123,102345,128,yes,1024
96.12403101,96.12403101,800.2170543,800.2170543,black,experiment,legacy,legacy,legacy,0,uniform,1,1,undefined,left,128,128,0,128,128,0,0,128,128,0,0,128,128,128,0,10/27/19 16:04,The main experiment item,yes,SternbergTask.osexp,C:\Users\hosan\Desktop,no,mono,no,18,no,white,no,yes,768,legacy,116,11,C:/Users/hosan/Desktop/TB-subject-4.csv,legacy,4 6 5 8,Kafkaesque Koffka,3.2.8,1,y,0,left,left,left,right,NA,883,883,194239,13627,NA,2,legacy,4,1024,2,48000,-16,experiment,4,even,4,1017377,1019383,198226,1014032,1015164,3979,289935,1015167,807530,3985,276307,1020268,1016172,1019383,NA,Sternberg Task,124,103228,129,yes,1024
96.15384615,96.15384615,799.4692308,799.4692308,black,experiment,legacy,legacy,legacy,0,uniform,1,1,undefined,left,129,129,0,129,129,0,0,129,129,0,0,129,129,129,0,10/27/19 16:04,The main experiment item,yes,SternbergTask.osexp,C:\Users\hosan\Desktop,no,mono,no,18,no,white,no,yes,768,legacy,117,11,C:/Users/hosan/Desktop/TB-subject-4.csv,legacy,5 7 3 6 2,Kafkaesque Koffka,3.2.8,5,y,0,left,left,left,right,NA,703,703,194239,13627,NA,2,legacy,5,1024,2,48000,-16,experiment,4,even,2,1023696,1025704,198226,1020332,1021482,3979,289935,1021485,807530,3985,276307,1026410,1022491,1025703,NA,Sternberg Task,125,103931,130,yes,1024
96.18320611,96.18320611,798.7862595,798.7862595,black,experiment,legacy,legacy,legacy,0,uniform,1,1,undefined,left,130,130,0,130,130,0,0,130,130,0,0,130,130,130,0,10/27/19 16:04,The main experiment item,yes,SternbergTask.osexp,C:\Users\hosan\Desktop,no,mono,no,18,no,white,no,yes,768,legacy,118,11,C:/Users/hosan/Desktop/TB-subject-4.csv,legacy,2 6 1 7 4,Kafkaesque Koffka,3.2.8,2,y,0,left,left,left,right,NA,710,710,194239,13627,NA,2,legacy,5,1024,2,48000,-16,experiment,4,even,6,1029871,1031878,198226,1026496,1027655,3979,289935,1027658,807530,3985,276307,1032591,1028664,1031877,NA,Sternberg Task,126,104641,131,yes,1024
96.21212121,96.21212121,801.25,801.25,black,experiment,legacy,legacy,legacy,0,uniform,1,1,undefined,right,131,131,0,131,131,0,0,131,131,0,0,131,131,131,0,10/27/19 16:04,The main experiment item,yes,SternbergTask.osexp,C:\Users\hosan\Desktop,no,mono,no,18,no,white,no,yes,768,legacy,119,11,C:/Users/hosan/Desktop/TB-subject-4.csv,legacy,9 7 4 5 8,Kafkaesque Koffka,3.2.8,0,n,0,right,right,left,right,NA,1124,1124,194239,13627,NA,2,legacy,5,1024,2,48000,-16,experiment,4,even,6,1035997,1038005,198226,1032652,1033783,3979,289935,1033785,807530,3985,276307,1039131,1034791,1038004,NA,Sternberg Task,127,105765,132,yes,1024
96.2406015,96.2406015,802.2706767,802.2706767,black,experiment,legacy,legacy,legacy,0,uniform,1,1,undefined,left,132,132,0,132,132,0,0,132,132,0,0,132,132,132,0,10/27/19 16:04,The main experiment item,yes,SternbergTask.osexp,C:\Users\hosan\Desktop,no,mono,no,18,no,white,no,yes,768,legacy,120,11,C:/Users/hosan/Desktop/TB-subject-4.csv,legacy,8 5 3 7 4 6,Kafkaesque Koffka,3.2.8,6,y,0,left,left,left,right,NA,937,937,194239,13627,NA,2,legacy,6,1024,2,48000,-16,experiment,4,even,6,1042554,1044560,198226,1039184,1040339,3979,289935,1040341,807530,3985,276307,1045499,1041347,1044559,NA,Sternberg Task,128,106702,133,yes,1024
96.26865672,96.26865672,803.3507463,803.3507463,black,experiment,legacy,legacy,legacy,0,uniform,1,1,undefined,right,133,133,0,133,133,0,0,133,133,0,0,133,133,133,0,10/27/19 16:04,The main experiment item,yes,SternbergTask.osexp,C:\Users\hosan\Desktop,no,mono,no,18,no,white,no,yes,768,legacy,121,11,C:/Users/hosan/Desktop/TB-subject-4.csv,legacy,3 9 1,Kafkaesque Koffka,3.2.8,0,n,0,right,right,left,right,NA,947,947,194239,13627,NA,2,legacy,3,1024,2,48000,-16,experiment,4,even,7,1048860,1050866,198226,1045528,1046647,3979,289935,1046649,807530,3985,276307,1051814,1047654,1050865,NA,Sternberg Task,129,107649,134,yes,1024
96.2962963,96.2962963,805.0296296,805.0296296,black,experiment,legacy,legacy,legacy,0,uniform,1,1,undefined,left,134,134,0,134,134,0,0,134,134,0,0,134,134,134,0,10/27/19 16:04,The main experiment item,yes,SternbergTask.osexp,C:\Users\hosan\Desktop,no,mono,no,18,no,white,no,yes,768,legacy,122,11,C:/Users/hosan/Desktop/TB-subject-4.csv,legacy,6 9 7 4 5 1,Kafkaesque Koffka,3.2.8,2,y,0,left,left,left,right,NA,1030,1030,194239,13627,NA,2,legacy,6,1024,2,48000,-16,experiment,4,even,9,1055247,1057254,198226,1051867,1053031,3979,289935,1053034,807530,3985,276307,1058286,1054041,1057253,NA,Sternberg Task,130,108679,135,yes,1024
96.32352941,96.32352941,803.5367647,803.5367647,black,experiment,legacy,legacy,legacy,0,uniform,1,1,undefined,left,135,135,0,135,135,0,0,135,135,0,0,135,135,135,0,10/27/19 16:04,The main experiment item,yes,SternbergTask.osexp,C:\Users\hosan\Desktop,no,mono,no,18,no,white,no,yes,768,legacy,123,11,C:/Users/hosan/Desktop/TB-subject-4.csv,legacy,7,Kafkaesque Koffka,3.2.8,1,y,0,left,left,left,right,NA,602,602,194239,13627,NA,2,legacy,1,1024,2,48000,-16,experiment,4,even,7,1061680,1063687,198226,1058346,1059468,3979,289935,1059470,807530,3985,276307,1064291,1060475,1063687,NA,Sternberg Task,131,109281,136,yes,1024
96.35036496,96.35036496,801.4087591,801.4087591,black,experiment,legacy,legacy,legacy,0,uniform,1,1,undefined,right,136,136,0,136,136,0,0,136,136,0,0,136,136,136,0,10/27/19 16:04,The main experiment item,yes,SternbergTask.osexp,C:\Users\hosan\Desktop,no,mono,no,18,no,white,no,yes,768,legacy,124,11,C:/Users/hosan/Desktop/TB-subject-4.csv,legacy,5,Kafkaesque Koffka,3.2.8,0,n,0,right,right,left,right,NA,512,512,194239,13627,NA,2,legacy,1,1024,2,48000,-16,experiment,4,even,8,1067703,1069709,198226,1064358,1065491,3979,289935,1065494,807530,3985,276307,1070223,1066500,1069708,NA,Sternberg Task,132,109793,137,yes,1024
96.37681159,96.37681159,800.3115942,800.3115942,black,experiment,legacy,legacy,legacy,0,uniform,1,1,undefined,left,137,137,0,137,137,0,0,137,137,0,0,137,137,137,0,10/27/19 16:04,The main experiment item,yes,SternbergTask.osexp,C:\Users\hosan\Desktop,no,mono,no,18,no,white,no,yes,768,legacy,125,11,C:/Users/hosan/Desktop/TB-subject-4.csv,legacy,3 9 7 6 4,Kafkaesque Koffka,3.2.8,3,y,0,left,left,left,right,NA,650,650,194239,13627,NA,2,legacy,5,1024,2,48000,-16,experiment,4,even,7,1073675,1075682,198226,1070288,1071460,3979,289935,1071463,807530,3985,276307,1076333,1072469,1075681,NA,Sternberg Task,133,110443,138,yes,1024