"acc","accuracy","average_response_time","avg_rt","background","block","canvas_backend","clock_backend","color_backend","correct","correct_instruction1_sketchpad","correct_keyboard_keyboard_response","correct_response","count__logger","count_correctfeeback_sketchpad","count_exp_sequence","count_experiment","count_experimentloop","count_fixation_sketchpad","count_incorrectfeedback_sketchpad","count_instruction1_sketchpad","count_instruction2_sketchpad","count_isi_sketchpad","count_keyboard_keyboard_response","count_memoryset_sketchpad","count_practice_loop","count_probe_sketchpad","count_thankyou_sketchpad","datetime","description","disable_garbage_collection","experiment_file","experiment_path","font_bold","font_family","font_italic","font_size","font_underline","foreground","form_clicks","fullscreen","height","keyboard_backend","live_row","live_row_practice_loop","logfile","mouse_backend","numberSet","opensesame_codename","opensesame_version","posInSet","present","repeat_cycle","response","response_instruction1_sketchpad","response_instruction2_sketchpad","response_keyboard_keyboard_response","response_thankyou_sketchpad","response_time","response_time_instruction1_sketchpad","response_time_instruction2_sketchpad","response_time_keyboard_keyboard_response","response_time_thankyou_sketchpad","round_decimals","sampler_backend","setSize","sound_buf_size","sound_channels","sound_freq","sound_sample_size","start","subject_nr","subject_parity","target","time__logger","time_correctfeeback_sketchpad","time_exp_sequence","time_experiment","time_experimentloop","time_fixation_sketchpad","time_incorrectfeedback_sketchpad","time_instruction1_sketchpad","time_instruction2_sketchpad","time_isi_sketchpad","time_keyboard_keyboard_response","time_memoryset_sketchpad","time_practice_loop","time_probe_sketchpad","time_thankyou_sketchpad","title","total_correct","total_response_time","total_responses","width"
"100","100","924","924","#3d3846","practice","legacy","legacy","legacy","1","undefined","1","right","0","0","0","0","0","0","0","0","0","0","0","0","0","0","0","Sun Oct 22 13:42:56 2023","The main experiment item","False","Sternbergtask.osexp","C:\Users\User\Desktop","False","mono","False","18","no","white","no","yes","768","legacy","0","0","C:/Users/User/Desktop/subject-2.csv","legacy","9 6 7 4 5","Melodramatic Milgram","4.0.5","0","n","0","right","space","NA","right","NA","924.0","54491","NA","924","NA","2","legacy","5","1024","2","48000","-16","experiment","2","even","3","65192","NA","60063","2680","NA","60065","NA","2687","NA","62266","64267","61065","57180","64266","NA","Sternberg task","1","924.0","1","1024"
"100","100","664","664","#3d3846","practice","legacy","legacy","legacy","1","undefined","1","left","1","1","1","0","0","1","1","0","0","1","1","1","0","1","0","Sun Oct 22 13:42:56 2023","The main experiment item","False","Sternbergtask.osexp","C:\Users\User\Desktop","False","mono","False","18","no","white","no","yes","768","legacy","1","1","C:/Users/User/Desktop/subject-2.csv","legacy","4 3 1 7 9 8","Melodramatic Milgram","4.0.5","1","y","0","left","space","NA","left","NA","405.0","54491","NA","405","NA","2","legacy","6","1024","2","48000","-16","experiment","2","even","4","70886","65232","66274","2680","NA","66275","NA","2687","NA","68475","70476","67275","57180","70475","NA","Sternberg task","2","1329.0","2","1024"
"100","100","590","590","#3d3846","practice","legacy","legacy","legacy","1","undefined","1","right","2","2","2","0","0","2","2","0","0","2","2","2","0","2","0","Sun Oct 22 13:42:56 2023","The main experiment item","False","Sternbergtask.osexp","C:\Users\User\Desktop","False","mono","False","18","no","white","no","yes","768","legacy","2","2","C:/Users/User/Desktop/subject-2.csv","legacy","5 7 8 4 1 2","Melodramatic Milgram","4.0.5","0","n","0","right","space","NA","right","NA","442.0","54491","NA","442","NA","2","legacy","6","1024","2","48000","-16","experiment","2","even","6","76595","70894","71950","2680","NA","71951","NA","2687","NA","74151","76152","72951","57180","76152","NA","Sternberg task","3","1771.0","3","1024"
"100","100","617","617","#3d3846","practice","legacy","legacy","legacy","1","undefined","1","left","3","3","3","0","0","3","3","0","0","3","3","3","0","3","0","Sun Oct 22 13:42:56 2023","The main experiment item","False","Sternbergtask.osexp","C:\Users\User\Desktop","False","mono","False","18","no","white","no","yes","768","legacy","3","3","C:/Users/User/Desktop/subject-2.csv","legacy","1 5 2 9","Melodramatic Milgram","4.0.5","2","y","0","left","space","NA","left","NA","699.0","54491","NA","699","NA","2","legacy","4","1024","2","48000","-16","experiment","2","even","5","82562","76600","77659","2680","NA","77660","NA","2687","NA","79861","81863","78661","57180","81862","NA","Sternberg task","4","2470.0","4","1024"
"80","80","682","682","#3d3846","practice","legacy","legacy","legacy","0","undefined","0","left","4","4","4","0","0","4","4","0","0","4","4","4","0","4","0","Sun Oct 22 13:42:56 2023","The main experiment item","False","Sternbergtask.osexp","C:\Users\User\Desktop","False","mono","False","18","no","white","no","yes","768","legacy","4","4","C:/Users/User/Desktop/subject-2.csv","legacy","4 8","Melodramatic Milgram","4.0.5","1","y","0","right","space","NA","right","NA","943.0","54491","NA","943","NA","2","legacy","2","1024","2","48000","-16","experiment","2","even","4","88763","82569","83615","2680","NA","83616","NA","2687","NA","85818","87819","84617","57180","87818","NA","Sternberg task","4","3413.0","5","1024"
"66","66","648","648","#3d3846","practice","legacy","legacy","legacy","0","undefined","0","right","5","5","5","0","0","5","5","0","0","5","5","5","0","5","0","Sun Oct 22 13:42:56 2023","The main experiment item","False","Sternbergtask.osexp","C:\Users\User\Desktop","False","mono","False","18","no","white","no","yes","768","legacy","5","5","C:/Users/User/Desktop/subject-2.csv","legacy","5","Melodramatic Milgram","4.0.5","0","n","0","left","space","NA","left","NA","476.0","54491","NA","476","NA","2","legacy","1","1024","2","48000","-16","experiment","2","even","3","94500","82569","89821","2680","NA","89822","88769","2687","NA","92022","94023","90822","57180","94023","NA","Sternberg task","4","3889.0","6","1024"
"71","71","748","748","#3d3846","practice","legacy","legacy","legacy","1","undefined","1","right","6","6","6","0","0","6","6","0","0","6","6","6","0","6","0","Sun Oct 22 13:42:56 2023","The main experiment item","False","Sternbergtask.osexp","C:\Users\User\Desktop","False","mono","False","18","no","white","no","yes","768","legacy","6","6","C:/Users/User/Desktop/subject-2.csv","legacy","3 1 9 4","Melodramatic Milgram","4.0.5","0","n","0","right","space","NA","right","NA","1353.0","54491","NA","1353","NA","2","legacy","4","1024","2","48000","-16","experiment","2","even","6","101108","82569","95551","2680","NA","95552","94506","2687","NA","97753","99754","96552","57180","99753","NA","Sternberg task","5","5242.0","7","1024"
"62","62","816","816","#3d3846","practice","legacy","legacy","legacy","0","undefined","0","right","7","7","7","0","0","7","7","0","0","7","7","7","0","7","0","Sun Oct 22 13:42:56 2023","The main experiment item","False","Sternbergtask.osexp","C:\Users\User\Desktop","False","mono","False","18","no","white","no","yes","768","legacy","7","7","C:/Users/User/Desktop/subject-2.csv","legacy","4 1 5","Melodramatic Milgram","4.0.5","0","n","0","left","space","NA","left","NA","1287.0","54491","NA","1287","NA","2","legacy","3","1024","2","48000","-16","experiment","2","even","2","107661","101114","102170","2680","NA","102171","94506","2687","NA","104373","106374","103172","57180","106374","NA","Sternberg task","5","6529.0","8","1024"
"55","55","904","904","#3d3846","practice","legacy","legacy","legacy","0","undefined","0","left","8","8","8","0","0","8","8","0","0","8","8","8","0","8","0","Sun Oct 22 13:42:56 2023","The main experiment item","False","Sternbergtask.osexp","C:\Users\User\Desktop","False","mono","False","18","no","white","no","yes","768","legacy","8","8","C:/Users/User/Desktop/subject-2.csv","legacy","1 7 9 8 5","Melodramatic Milgram","4.0.5","4","y","0","right","space","NA","right","NA","1612.0","54491","NA","1612","NA","2","legacy","5","1024","2","48000","-16","experiment","2","even","8","114530","101114","108715","2680","NA","108716","107664","2687","NA","110917","112918","109716","57180","112918","NA","Sternberg task","5","8141.0","9","1024"
"50","50","886","886","#3d3846","practice","legacy","legacy","legacy","0","undefined","0","right","9","9","9","0","0","9","9","0","0","9","9","9","0","9","0","Sun Oct 22 13:42:56 2023","The main experiment item","False","Sternbergtask.osexp","C:\Users\User\Desktop","False","mono","False","18","no","white","no","yes","768","legacy","9","9","C:/Users/User/Desktop/subject-2.csv","legacy","2 1","Melodramatic Milgram","4.0.5","0","n","0","left","space","NA","left","NA","728.0","54491","NA","728","NA","2","legacy","2","1024","2","48000","-16","experiment","2","even","5","120518","101114","115587","2680","NA","115588","114536","2687","NA","117788","119789","116588","57180","119788","NA","Sternberg task","5","8869.0","10","1024"
"45","45","879","879","#3d3846","practice","legacy","legacy","legacy","0","undefined","0","left","10","10","10","0","0","10","10","0","0","10","10","10","0","10","0","Sun Oct 22 13:42:56 2023","The main experiment item","False","Sternbergtask.osexp","C:\Users\User\Desktop","False","mono","False","18","no","white","no","yes","768","legacy","10","10","C:/Users/User/Desktop/subject-2.csv","legacy","2 9 4","Melodramatic Milgram","4.0.5","3","y","0","right","space","NA","right","NA","808.0","54491","NA","808","NA","2","legacy","3","1024","2","48000","-16","experiment","2","even","4","126578","101114","121565","2680","NA","121566","120523","2687","NA","123768","125769","122567","57180","125768","NA","Sternberg task","5","9677.0","11","1024"
"50","50","904","904","#3d3846","practice","legacy","legacy","legacy","1","undefined","1","left","11","11","11","0","0","11","11","0","0","11","11","11","0","11","0","Sun Oct 22 13:42:56 2023","The main experiment item","False","Sternbergtask.osexp","C:\Users\User\Desktop","False","mono","False","18","no","white","no","yes","768","legacy","11","11","C:/Users/User/Desktop/subject-2.csv","legacy","6","Melodramatic Milgram","4.0.5","1","y","0","left","space","NA","left","NA","1182.0","54491","NA","1182","NA","2","legacy","1","1024","2","48000","-16","experiment","2","even","6","133022","101114","127635","2680","NA","127637","126584","2687","NA","129839","131840","128638","57180","131839","NA","Sternberg task","6","10859.0","12","1024"
"53","53","901","901","#3d3846","experiment","legacy","legacy","legacy","1","undefined","1","right","12","12","12","0","0","12","12","0","0","12","12","12","0","12","0","Sun Oct 22 13:42:56 2023","The main experiment item","False","Sternbergtask.osexp","C:\Users\User\Desktop","False","mono","False","18","no","white","no","yes","768","legacy","0","11","C:/Users/User/Desktop/subject-2.csv","legacy","9 7 4 5 8","Melodramatic Milgram","4.0.5","0","n","0","right","space","left","right","NA","859.0","54491","4039","859","NA","2","legacy","5","1024","2","48000","-16","experiment","2","even","6","143242","133028","138179","2680","138068","138180","126584","2687","134029","140382","142383","139181","57180","142382","NA","Sternberg task","7","11718.0","13","1024"
"57","57","887","887","#3d3846","experiment","legacy","legacy","legacy","1","undefined","1","left","13","13","13","0","0","13","13","0","0","13","13","13","0","13","0","Sun Oct 22 13:42:56 2023","The main experiment item","False","Sternbergtask.osexp","C:\Users\User\Desktop","False","mono","False","18","no","white","no","yes","768","legacy","1","11","C:/Users/User/Desktop/subject-2.csv","legacy","9 8 4","Melodramatic Milgram","4.0.5","1","y","0","left","space","left","left","NA","713.0","54491","4039","713","NA","2","legacy","3","1024","2","48000","-16","experiment","2","even","9","149219","143250","144302","2680","138068","144303","126584","2687","134029","146504","148505","145304","57180","148504","NA","Sternberg task","8","12431.0","14","1024"
"60","60","900","900","#3d3846","experiment","legacy","legacy","legacy","1","undefined","1","left","14","14","14","0","0","14","14","0","0","14","14","14","0","14","0","Sun Oct 22 13:42:56 2023","The main experiment item","False","Sternbergtask.osexp","C:\Users\User\Desktop","False","mono","False","18","no","white","no","yes","768","legacy","2","11","C:/Users/User/Desktop/subject-2.csv","legacy","4 1 5","Melodramatic Milgram","4.0.5","2","y","0","left","space","left","left","NA","1076.0","54491","4039","1076","NA","2","legacy","3","1024","2","48000","-16","experiment","2","even","1","155559","149225","150278","2680","138068","150279","126584","2687","134029","152481","154482","151280","57180","154482","NA","Sternberg task","9","13507.0","15","1024"
"56","56","875","875","#3d3846","experiment","legacy","legacy","legacy","0","undefined","0","left","15","15","15","0","0","15","15","0","0","15","15","15","0","15","0","Sun Oct 22 13:42:56 2023","The main experiment item","False","Sternbergtask.osexp","C:\Users\User\Desktop","False","mono","False","18","no","white","no","yes","768","legacy","3","11","C:/Users/User/Desktop/subject-2.csv","legacy","2 6 1 7 4","Melodramatic Milgram","4.0.5","2","y","0","right","space","left","right","NA","498.0","54491","4039","498","NA","2","legacy","5","1024","2","48000","-16","experiment","2","even","6","161319","155565","156618","2680","138068","156619","126584","2687","134029","158820","160821","157619","57180","160820","NA","Sternberg task","9","14005.0","16","1024"
"58","58","868","868","#3d3846","experiment","legacy","legacy","legacy","1","undefined","1","left","16","16","16","0","0","16","16","0","0","16","16","16","0","16","0","Sun Oct 22 13:42:56 2023","The main experiment item","False","Sternbergtask.osexp","C:\Users\User\Desktop","False","mono","False","18","no","white","no","yes","768","legacy","4","11","C:/Users/User/Desktop/subject-2.csv","legacy","8 5 1 3 9","Melodramatic Milgram","4.0.5","4","y","0","left","space","left","left","NA","766.0","54491","4039","766","NA","2","legacy","5","1024","2","48000","-16","experiment","2","even","3","167354","155565","162383","2680","138068","162384","161322","2687","134029","164586","166587","163385","57180","166586","NA","Sternberg task","10","14771.0","17","1024"
"61","61","854","854","#3d3846","experiment","legacy","legacy","legacy","1","undefined","1","right","17","17","17","0","0","17","17","0","0","17","17","17","0","17","0","Sun Oct 22 13:42:56 2023","The main experiment item","False","Sternbergtask.osexp","C:\Users\User\Desktop","False","mono","False","18","no","white","no","yes","768","legacy","5","11","C:/Users/User/Desktop/subject-2.csv","legacy","9 8 2 7 4","Melodramatic Milgram","4.0.5","0","n","0","right","space","left","right","NA","607.0","54491","4039","607","NA","2","legacy","5","1024","2","48000","-16","experiment","2","even","5","173204","167360","168393","2680","138068","168394","161322","2687","134029","170596","172597","169395","57180","172596","NA","Sternberg task","11","15378.0","18","1024"
"63","63","847","847","#3d3846","experiment","legacy","legacy","legacy","1","undefined","1","left","18","18","18","0","0","18","18","0","0","18","18","18","0","18","0","Sun Oct 22 13:42:56 2023","The main experiment item","False","Sternbergtask.osexp","C:\Users\User\Desktop","False","mono","False","18","no","white","no","yes","768","legacy","6","11","C:/Users/User/Desktop/subject-2.csv","legacy","3 5 4 7","Melodramatic Milgram","4.0.5","1","y","0","left","space","left","left","NA","717.0","54491","4039","717","NA","2","legacy","4","1024","2","48000","-16","experiment","2","even","3","179173","173210","174250","2680","138068","174252","161322","2687","134029","176453","178455","175253","57180","178454","NA","Sternberg task","12","16095.0","19","1024"
"65","65","839","839","#3d3846","experiment","legacy","legacy","legacy","1","undefined","1","right","19","19","19","0","0","19","19","0","0","19","19","19","0","19","0","Sun Oct 22 13:42:56 2023","The main experiment item","False","Sternbergtask.osexp","C:\Users\User\Desktop","False","mono","False","18","no","white","no","yes","768","legacy","7","11","C:/Users/User/Desktop/subject-2.csv","legacy","8 4 3 5","Melodramatic Milgram","4.0.5","0","n","0","right","space","left","right","NA","689.0","54491","4039","689","NA","2","legacy","4","1024","2","48000","-16","experiment","2","even","6","185118","179179","180224","2680","138068","180226","161322","2687","134029","182428","184428","181227","57180","184428","NA","Sternberg task","13","16784.0","20","1024"
"66","66","835","835","#3d3846","experiment","legacy","legacy","legacy","1","undefined","1","right","20","20","20","0","0","20","20","0","0","20","20","20","0","20","0","Sun Oct 22 13:42:56 2023","The main experiment item","False","Sternbergtask.osexp","C:\Users\User\Desktop","False","mono","False","18","no","white","no","yes","768","legacy","8","11","C:/Users/User/Desktop/subject-2.csv","legacy","7 9","Melodramatic Milgram","4.0.5","0","n","0","right","space","left","right","NA","762.0","54491","4039","762","NA","2","legacy","2","1024","2","48000","-16","experiment","2","even","1","191144","185123","186176","2680","138068","186177","161322","2687","134029","188380","190381","187179","57180","190380","NA","Sternberg task","14","17546.0","21","1024"
"68","68","835","835","#3d3846","experiment","legacy","legacy","legacy","1","undefined","1","left","21","21","21","0","0","21","21","0","0","21","21","21","0","21","0","Sun Oct 22 13:42:56 2023","The main experiment item","False","Sternbergtask.osexp","C:\Users\User\Desktop","False","mono","False","18","no","white","no","yes","768","legacy","9","11","C:/Users/User/Desktop/subject-2.csv","legacy","6 5","Melodramatic Milgram","4.0.5","2","y","0","left","space","left","left","NA","841.0","54491","4039","841","NA","2","legacy","2","1024","2","48000","-16","experiment","2","even","5","197241","191150","192197","2680","138068","192198","161322","2687","134029","194399","196400","193198","57180","196399","NA","Sternberg task","15","18387.0","22","1024"
"65","65","865","865","#3d3846","experiment","legacy","legacy","legacy","0","undefined","0","right","22","22","22","0","0","22","22","0","0","22","22","22","0","22","0","Sun Oct 22 13:42:56 2023","The main experiment item","False","Sternbergtask.osexp","C:\Users\User\Desktop","False","mono","False","18","no","white","no","yes","768","legacy","10","11","C:/Users/User/Desktop/subject-2.csv","legacy","4 2 7 6 1 3","Melodramatic Milgram","4.0.5","0","n","0","left","space","left","left","NA","1519.0","54491","4039","1519","NA","2","legacy","6","1024","2","48000","-16","experiment","2","even","8","204005","197247","198284","2680","138068","198285","161322","2687","134029","200486","202486","199285","57180","202486","NA","Sternberg task","15","19906.0","23","1024"
"62","62","862","862","#3d3846","experiment","legacy","legacy","legacy","0","undefined","0","left","23","23","23","0","0","23","23","0","0","23","23","23","0","23","0","Sun Oct 22 13:42:56 2023","The main experiment item","False","Sternbergtask.osexp","C:\Users\User\Desktop","False","mono","False","18","no","white","no","yes","768","legacy","11","11","C:/Users/User/Desktop/subject-2.csv","legacy","4 1 8 7 5","Melodramatic Milgram","4.0.5","3","y","0","right","space","left","right","NA","790.0","54491","4039","790","NA","2","legacy","5","1024","2","48000","-16","experiment","2","even","8","210052","197247","205057","2680","138068","205058","204010","2687","134029","207259","209261","206059","57180","209260","NA","Sternberg task","15","20696.0","24","1024"
"60","60","865","865","#3d3846","experiment","legacy","legacy","legacy","0","undefined","0","left","24","24","24","0","0","24","24","0","0","24","24","24","0","24","0","Sun Oct 22 13:42:56 2023","The main experiment item","False","Sternbergtask.osexp","C:\Users\User\Desktop","False","mono","False","18","no","white","no","yes","768","legacy","12","11","C:/Users/User/Desktop/subject-2.csv","legacy","2 4 6 9","Melodramatic Milgram","4.0.5","3","y","0","right","space","left","right","NA","935.0","54491","4039","935","NA","2","legacy","4","1024","2","48000","-16","experiment","2","even","6","216251","197247","211113","2680","138068","211114","210058","2687","134029","213315","215316","212115","57180","215315","NA","Sternberg task","15","21631.0","25","1024"
"61","61","860","860","#3d3846","experiment","legacy","legacy","legacy","1","undefined","1","right","25","25","25","0","0","25","25","0","0","25","25","25","0","25","0","Sun Oct 22 13:42:56 2023","The main experiment item","False","Sternbergtask.osexp","C:\Users\User\Desktop","False","mono","False","18","no","white","no","yes","768","legacy","13","11","C:/Users/User/Desktop/subject-2.csv","legacy","8 9","Melodramatic Milgram","4.0.5","0","n","0","right","space","left","right","NA","748.0","54491","4039","748","NA","2","legacy","2","1024","2","48000","-16","experiment","2","even","5","222256","197247","217303","2680","138068","217304","216254","2687","134029","219506","221507","218305","57180","221507","NA","Sternberg task","16","22379.0","26","1024"
"62","62","869","869","#3d3846","experiment","legacy","legacy","legacy","1","undefined","1","right","26","26","26","0","0","26","26","0","0","26","26","26","0","26","0","Sun Oct 22 13:42:56 2023","The main experiment item","False","Sternbergtask.osexp","C:\Users\User\Desktop","False","mono","False","18","no","white","no","yes","768","legacy","14","11","C:/Users/User/Desktop/subject-2.csv","legacy","1 4 9 2 5","Melodramatic Milgram","4.0.5","0","n","0","right","space","left","right","NA","1091.0","54491","4039","1091","NA","2","legacy","5","1024","2","48000","-16","experiment","2","even","7","228610","222262","223317","2680","138068","223318","216254","2687","134029","225518","227519","224318","57180","227519","NA","Sternberg task","17","23470.0","27","1024"
"64","64","865","865","#3d3846","experiment","legacy","legacy","legacy","1","undefined","1","right","27","27","27","0","0","27","27","0","0","27","27","27","0","27","0","Sun Oct 22 13:42:56 2023","The main experiment item","False","Sternbergtask.osexp","C:\Users\User\Desktop","False","mono","False","18","no","white","no","yes","768","legacy","15","11","C:/Users/User/Desktop/subject-2.csv","legacy","7 1 8 4 9 3","Melodramatic Milgram","4.0.5","0","n","0","right","space","left","right","NA","761.0","54491","4039","761","NA","2","legacy","6","1024","2","48000","-16","experiment","2","even","6","234627","228617","229663","2680","138068","229664","216254","2687","134029","231865","233865","230664","57180","233865","NA","Sternberg task","18","24231.0","28","1024"
"65","65","854","854","#3d3846","experiment","legacy","legacy","legacy","1","undefined","1","right","28","28","28","0","0","28","28","0","0","28","28","28","0","28","0","Sun Oct 22 13:42:56 2023","The main experiment item","False","Sternbergtask.osexp","C:\Users\User\Desktop","False","mono","False","18","no","white","no","yes","768","legacy","16","11","C:/Users/User/Desktop/subject-2.csv","legacy","7 1","Melodramatic Milgram","4.0.5","0","n","0","right","space","left","right","NA","561.0","54491","4039","561","NA","2","legacy","2","1024","2","48000","-16","experiment","2","even","8","240485","234666","235719","2680","138068","235720","216254","2687","134029","237923","239924","236721","57180","239924","NA","Sternberg task","19","24792.0","29","1024"
"66","66","859","859","#3d3846","experiment","legacy","legacy","legacy","1","undefined","1","right","29","29","29","0","0","29","29","0","0","29","29","29","0","29","0","Sun Oct 22 13:42:56 2023","The main experiment item","False","Sternbergtask.osexp","C:\Users\User\Desktop","False","mono","False","18","no","white","no","yes","768","legacy","17","11","C:/Users/User/Desktop/subject-2.csv","legacy","7 6 4 8 1 2","Melodramatic Milgram","4.0.5","0","n","0","right","space","left","right","NA","987.0","54491","4039","987","NA","2","legacy","6","1024","2","48000","-16","experiment","2","even","9","246731","240491","241540","2680","138068","241541","216254","2687","134029","243743","245743","242542","57180","245743","NA","Sternberg task","20","25779.0","30","1024"
"67","67","866","866","#3d3846","experiment","legacy","legacy","legacy","1","undefined","1","left","30","30","30","0","0","30","30","0","0","30","30","30","0","30","0","Sun Oct 22 13:42:56 2023","The main experiment item","False","Sternbergtask.osexp","C:\Users\User\Desktop","False","mono","False","18","no","white","no","yes","768","legacy","18","11","C:/Users/User/Desktop/subject-2.csv","legacy","9 3 8 2 1 4","Melodramatic Milgram","4.0.5","3","y","0","left","space","left","left","NA","1095.0","54491","4039","1095","NA","2","legacy","6","1024","2","48000","-16","experiment","2","even","8","253085","246737","247787","2680","138068","247788","216254","2687","134029","249989","251990","248788","57180","251989","NA","Sternberg task","21","26874.0","31","1024"
"65","65","864","864","#3d3846","experiment","legacy","legacy","legacy","0","undefined","0","right","31","31","31","0","0","31","31","0","0","31","31","31","0","31","0","Sun Oct 22 13:42:56 2023","The main experiment item","False","Sternbergtask.osexp","C:\Users\User\Desktop","False","mono","False","18","no","white","no","yes","768","legacy","19","11","C:/Users/User/Desktop/subject-2.csv","legacy","6 3 1 7 9 8","Melodramatic Milgram","4.0.5","0","n","0","left","space","left","left","NA","804.0","54491","4039","804","NA","2","legacy","6","1024","2","48000","-16","experiment","2","even","4","259153","253091","254146","2680","138068","254147","216254","2687","134029","256348","258348","255148","57180","258348","NA","Sternberg task","21","27678.0","32","1024"
"66","66","863","863","#3d3846","experiment","legacy","legacy","legacy","1","undefined","1","right","32","32","32","0","0","32","32","0","0","32","32","32","0","32","0","Sun Oct 22 13:42:56 2023","The main experiment item","False","Sternbergtask.osexp","C:\Users\User\Desktop","False","mono","False","18","no","white","no","yes","768","legacy","20","11","C:/Users/User/Desktop/subject-2.csv","legacy","8 5 7 3 6","Melodramatic Milgram","4.0.5","0","n","0","right","space","left","right","NA","817.0","54491","4039","817","NA","2","legacy","5","1024","2","48000","-16","experiment","2","even","9","265230","253091","260208","2680","138068","260209","259159","2687","134029","262410","264412","261210","57180","264411","NA","Sternberg task","22","28495.0","33","1024"
"64","64","862","862","#3d3846","experiment","legacy","legacy","legacy","0","undefined","0","right","33","33","33","0","0","33","33","0","0","33","33","33","0","33","0","Sun Oct 22 13:42:56 2023","The main experiment item","False","Sternbergtask.osexp","C:\Users\User\Desktop","False","mono","False","18","no","white","no","yes","768","legacy","21","11","C:/Users/User/Desktop/subject-2.csv","legacy","5 3 8 7 2 4","Melodramatic Milgram","4.0.5","0","n","0","left","space","left","left","NA","818.0","54491","4039","818","NA","2","legacy","6","1024","2","48000","-16","experiment","2","even","9","271310","265236","266290","2680","138068","266291","259159","2687","134029","268491","270492","267291","57180","270492","NA","Sternberg task","22","29313.0","34","1024"
"65","65","861","861","#3d3846","experiment","legacy","legacy","legacy","1","undefined","1","right","34","34","34","0","0","34","34","0","0","34","34","34","0","34","0","Sun Oct 22 13:42:56 2023","The main experiment item","False","Sternbergtask.osexp","C:\Users\User\Desktop","False","mono","False","18","no","white","no","yes","768","legacy","22","11","C:/Users/User/Desktop/subject-2.csv","legacy","6 9 4 5 3 2","Melodramatic Milgram","4.0.5","0","n","0","right","space","left","right","NA","846.0","54491","4039","846","NA","2","legacy","6","1024","2","48000","-16","experiment","2","even","8","277417","265236","272369","2680","138068","272370","271317","2687","134029","274571","276571","273371","57180","276571","NA","Sternberg task","23","30159.0","35","1024"
"63","63","863","863","#3d3846","experiment","legacy","legacy","legacy","0","undefined","0","right","35","35","35","0","0","35","35","0","0","35","35","35","0","35","0","Sun Oct 22 13:42:56 2023","The main experiment item","False","Sternbergtask.osexp","C:\Users\User\Desktop","False","mono","False","18","no","white","no","yes","768","legacy","23","11","C:/Users/User/Desktop/subject-2.csv","legacy","8 5 4 2 9 6","Melodramatic Milgram","4.0.5","0","n","0","left","space","left","left","NA","910.0","54491","4039","910","NA","2","legacy","6","1024","2","48000","-16","experiment","2","even","3","283590","277420","278477","2680","138068","278478","271317","2687","134029","280678","282679","279478","57180","282679","NA","Sternberg task","23","31069.0","36","1024"
"62","62","866","866","#3d3846","experiment","legacy","legacy","legacy","0","undefined","0","right","36","36","36","0","0","36","36","0","0","36","36","36","0","36","0","Sun Oct 22 13:42:56 2023","The main experiment item","False","Sternbergtask.osexp","C:\Users\User\Desktop","False","mono","False","18","no","white","no","yes","768","legacy","24","11","C:/Users/User/Desktop/subject-2.csv","legacy","2 8 6 3 1","Melodramatic Milgram","4.0.5","0","n","0","left","space","left","left","NA","1004.0","54491","4039","1004","NA","2","legacy","5","1024","2","48000","-16","experiment","2","even","7","289840","277420","284633","2680","138068","284634","283592","2687","134029","286835","288836","285634","57180","288835","NA","Sternberg task","23","32073.0","37","1024"
"63","63","869","869","#3d3846","experiment","legacy","legacy","legacy","1","undefined","1","left","37","37","37","0","0","37","37","0","0","37","37","37","0","37","0","Sun Oct 22 13:42:56 2023","The main experiment item","False","Sternbergtask.osexp","C:\Users\User\Desktop","False","mono","False","18","no","white","no","yes","768","legacy","25","11","C:/Users/User/Desktop/subject-2.csv","legacy","3 4","Melodramatic Milgram","4.0.5","1","y","0","left","space","left","left","NA","969.0","54491","4039","969","NA","2","legacy","2","1024","2","48000","-16","experiment","2","even","3","296070","277420","290897","2680","138068","290898","289846","2687","134029","293100","295101","291899","57180","295101","NA","Sternberg task","24","33042.0","38","1024"
"64","64","866","866","#3d3846","experiment","legacy","legacy","legacy","1","undefined","1","left","38","38","38","0","0","38","38","0","0","38","38","38","0","38","0","Sun Oct 22 13:42:56 2023","The main experiment item","False","Sternbergtask.osexp","C:\Users\User\Desktop","False","mono","False","18","no","white","no","yes","768","legacy","26","11","C:/Users/User/Desktop/subject-2.csv","legacy","8 3","Melodramatic Milgram","4.0.5","2","y","0","left","space","left","left","NA","750.0","54491","4039","750","NA","2","legacy","2","1024","2","48000","-16","experiment","2","even","3","302081","296077","297126","2680","138068","297127","289846","2687","134029","299328","301330","298128","57180","301329","NA","Sternberg task","25","33792.0","39","1024"
"65","65","861","861","#3d3846","experiment","legacy","legacy","legacy","1","undefined","1","left","39","39","39","0","0","39","39","0","0","39","39","39","0","39","0","Sun Oct 22 13:42:56 2023","The main experiment item","False","Sternbergtask.osexp","C:\Users\User\Desktop","False","mono","False","18","no","white","no","yes","768","legacy","27","11","C:/Users/User/Desktop/subject-2.csv","legacy","9 1 7 2","Melodramatic Milgram","4.0.5","2","y","0","left","space","left","left","NA","667.0","54491","4039","667","NA","2","legacy","4","1024","2","48000","-16","experiment","2","even","1","308011","302087","303141","2680","138068","303142","289846","2687","134029","305344","307344","304143","57180","307344","NA","Sternberg task","26","34459.0","40","1024"
"65","65","862","862","#3d3846","experiment","legacy","legacy","legacy","1","undefined","1","right","40","40","40","0","0","40","40","0","0","40","40","40","0","40","0","Sun Oct 22 13:42:56 2023","The main experiment item","False","Sternbergtask.osexp","C:\Users\User\Desktop","False","mono","False","18","no","white","no","yes","768","legacy","28","11","C:/Users/User/Desktop/subject-2.csv","legacy","5 9 2 3","Melodramatic Milgram","4.0.5","0","n","0","right","space","left","right","NA","905.0","54491","4039","905","NA","2","legacy","4","1024","2","48000","-16","experiment","2","even","8","314170","308017","309062","2680","138068","309063","289846","2687","134029","311264","313264","310063","57180","313264","NA","Sternberg task","27","35364.0","41","1024"
"66","66","861","861","#3d3846","experiment","legacy","legacy","legacy","1","undefined","1","right","41","41","41","0","0","41","41","0","0","41","41","41","0","41","0","Sun Oct 22 13:42:56 2023","The main experiment item","False","Sternbergtask.osexp","C:\Users\User\Desktop","False","mono","False","18","no","white","no","yes","768","legacy","29","11","C:/Users/User/Desktop/subject-2.csv","legacy","6 7 5 9","Melodramatic Milgram","4.0.5","0","n","0","right","space","left","right","NA","818.0","54491","4039","818","NA","2","legacy","4","1024","2","48000","-16","experiment","2","even","2","320244","314176","315222","2680","138068","315223","289846","2687","134029","317425","319426","316224","57180","319425","NA","Sternberg task","28","36182.0","42","1024"
"65","65","855","855","#3d3846","experiment","legacy","legacy","legacy","0","undefined","0","left","42","42","42","0","0","42","42","0","0","42","42","42","0","42","0","Sun Oct 22 13:42:56 2023","The main experiment item","False","Sternbergtask.osexp","C:\Users\User\Desktop","False","mono","False","18","no","white","no","yes","768","legacy","30","11","C:/Users/User/Desktop/subject-2.csv","legacy","8 1 6","Melodramatic Milgram","4.0.5","3","y","0","right","space","left","right","NA","613.0","54491","4039","613","NA","2","legacy","3","1024","2","48000","-16","experiment","2","even","6","326120","320250","321302","2680","138068","321303","289846","2687","134029","323505","325506","322304","57180","325505","NA","Sternberg task","28","36795.0","43","1024"
"65","65","850","850","#3d3846","experiment","legacy","legacy","legacy","1","undefined","1","right","43","43","43","0","0","43","43","0","0","43","43","43","0","43","0","Sun Oct 22 13:42:56 2023","The main experiment item","False","Sternbergtask.osexp","C:\Users\User\Desktop","False","mono","False","18","no","white","no","yes","768","legacy","31","11","C:/Users/User/Desktop/subject-2.csv","legacy","5 2","Melodramatic Milgram","4.0.5","0","n","0","right","space","left","right","NA","617.0","54491","4039","617","NA","2","legacy","2","1024","2","48000","-16","experiment","2","even","7","332001","320250","327178","2680","138068","327179","326126","2687","134029","329382","331383","328181","57180","331382","NA","Sternberg task","29","37412.0","44","1024"
"66","66","850","850","#3d3846","experiment","legacy","legacy","legacy","1","undefined","1","left","44","44","44","0","0","44","44","0","0","44","44","44","0","44","0","Sun Oct 22 13:42:56 2023","The main experiment item","False","Sternbergtask.osexp","C:\Users\User\Desktop","False","mono","False","18","no","white","no","yes","768","legacy","32","11","C:/Users/User/Desktop/subject-2.csv","legacy","6 7 9 3 1 2","Melodramatic Milgram","4.0.5","1","y","0","left","space","left","left","NA","839.0","54491","4039","839","NA","2","legacy","6","1024","2","48000","-16","experiment","2","even","6","338096","332006","333054","2680","138068","333055","326126","2687","134029","335256","337256","334056","57180","337256","NA","Sternberg task","30","38251.0","45","1024"
"67","67","845","845","#3d3846","experiment","legacy","legacy","legacy","1","undefined","1","left","45","45","45","0","0","45","45","0","0","45","45","45","0","45","0","Sun Oct 22 13:42:56 2023","The main experiment item","False","Sternbergtask.osexp","C:\Users\User\Desktop","False","mono","False","18","no","white","no","yes","768","legacy","33","11","C:/Users/User/Desktop/subject-2.csv","legacy","4 6 5 8","Melodramatic Milgram","4.0.5","1","y","0","left","space","left","left","NA","646.0","54491","4039","646","NA","2","legacy","4","1024","2","48000","-16","experiment","2","even","4","343999","338098","339148","2680","138068","339150","326126","2687","134029","341350","343352","340150","57180","343352","NA","Sternberg task","31","38897.0","46","1024"
"65","65","854","854","#3d3846","experiment","legacy","legacy","legacy","0","undefined","0","left","46","46","46","0","0","46","46","0","0","46","46","46","0","46","0","Sun Oct 22 13:42:56 2023","The main experiment item","False","Sternbergtask.osexp","C:\Users\User\Desktop","False","mono","False","18","no","white","no","yes","768","legacy","34","11","C:/Users/User/Desktop/subject-2.csv","legacy","9 3 1 2 5","Melodramatic Milgram","4.0.5","4","y","0","right","space","left","right","NA","1273.0","54491","4039","1273","NA","2","legacy","5","1024","2","48000","-16","experiment","2","even","2","350538","344002","345060","2680","138068","345062","326126","2687","134029","347262","349264","346062","57180","349263","NA","Sternberg task","31","40170.0","47","1024"
"66","66","853","853","#3d3846","experiment","legacy","legacy","legacy","1","undefined","1","left","47","47","47","0","0","47","47","0","0","47","47","47","0","47","0","Sun Oct 22 13:42:56 2023","The main experiment item","False","Sternbergtask.osexp","C:\Users\User\Desktop","False","mono","False","18","no","white","no","yes","768","legacy","35","11","C:/Users/User/Desktop/subject-2.csv","legacy","2 3 7 4","Melodramatic Milgram","4.0.5","1","y","0","left","space","left","left","NA","819.0","54491","4039","819","NA","2","legacy","4","1024","2","48000","-16","experiment","2","even","2","356619","344002","351595","2680","138068","351596","350541","2687","134029","353797","355799","352596","57180","355799","NA","Sternberg task","32","40989.0","48","1024"
"65","65","848","848","#3d3846","experiment","legacy","legacy","legacy","0","undefined","0","left","48","48","48","0","0","48","48","0","0","48","48","48","0","48","0","Sun Oct 22 13:42:56 2023","The main experiment item","False","Sternbergtask.osexp","C:\Users\User\Desktop","False","mono","False","18","no","white","no","yes","768","legacy","36","11","C:/Users/User/Desktop/subject-2.csv","legacy","9 5 8 1","Melodramatic Milgram","4.0.5","2","y","0","right","space","left","right","NA","583.0","54491","4039","583","NA","2","legacy","4","1024","2","48000","-16","experiment","2","even","5","362464","356626","357677","2680","138068","357678","350541","2687","134029","359879","361880","358678","57180","361879","NA","Sternberg task","32","41572.0","49","1024"
"66","66","842","842","#3d3846","experiment","legacy","legacy","legacy","1","undefined","1","left","49","49","49","0","0","49","49","0","0","49","49","49","0","49","0","Sun Oct 22 13:42:56 2023","The main experiment item","False","Sternbergtask.osexp","C:\Users\User\Desktop","False","mono","False","18","no","white","no","yes","768","legacy","37","11","C:/Users/User/Desktop/subject-2.csv","legacy","6 8 9 3 4 9","Melodramatic Milgram","4.0.5","5","y","0","left","space","left","left","NA","543.0","54491","4039","543","NA","2","legacy","6","1024","2","48000","-16","experiment","2","even","4","368259","356626","363511","2680","138068","363512","362470","2687","134029","365714","367715","364513","57180","367715","NA","Sternberg task","33","42115.0","50","1024"
"66","66","836","836","#3d3846","experiment","legacy","legacy","legacy","1","undefined","1","left","50","50","50","0","0","50","50","0","0","50","50","50","0","50","0","Sun Oct 22 13:42:56 2023","The main experiment item","False","Sternbergtask.osexp","C:\Users\User\Desktop","False","mono","False","18","no","white","no","yes","768","legacy","38","11","C:/Users/User/Desktop/subject-2.csv","legacy","8 9 5 7 1 6","Melodramatic Milgram","4.0.5","4","y","0","left","space","left","left","NA","542.0","54491","4039","542","NA","2","legacy","6","1024","2","48000","-16","experiment","2","even","7","374067","368265","369322","2680","138068","369323","362470","2687","134029","371525","373525","370324","57180","373525","NA","Sternberg task","34","42657.0","51","1024"
"67","67","835","835","#3d3846","experiment","legacy","legacy","legacy","1","undefined","1","right","51","51","51","0","0","51","51","0","0","51","51","51","0","51","0","Sun Oct 22 13:42:56 2023","The main experiment item","False","Sternbergtask.osexp","C:\Users\User\Desktop","False","mono","False","18","no","white","no","yes","768","legacy","39","11","C:/Users/User/Desktop/subject-2.csv","legacy","2 8 9","Melodramatic Milgram","4.0.5","0","n","0","right","space","left","right","NA","796.0","54491","4039","796","NA","2","legacy","3","1024","2","48000","-16","experiment","2","even","6","380116","374073","375116","2680","138068","375118","362470","2687","134029","377319","379319","376119","57180","379319","NA","Sternberg task","35","43453.0","52","1024"
"66","66","836","836","#3d3846","experiment","legacy","legacy","legacy","0","undefined","0","left","52","52","52","0","0","52","52","0","0","52","52","52","0","52","0","Sun Oct 22 13:42:56 2023","The main experiment item","False","Sternbergtask.osexp","C:\Users\User\Desktop","False","mono","False","18","no","white","no","yes","768","legacy","40","11","C:/Users/User/Desktop/subject-2.csv","legacy","5 2 9 6 1 7","Melodramatic Milgram","4.0.5","3","y","0","right","space","left","right","NA","893.0","54491","4039","893","NA","2","legacy","6","1024","2","48000","-16","experiment","2","even","9","386276","380121","381178","2680","138068","381180","362470","2687","134029","383381","385382","382181","57180","385382","NA","Sternberg task","35","44346.0","53","1024"
"66","66","832","832","#3d3846","experiment","legacy","legacy","legacy","1","undefined","1","right","53","53","53","0","0","53","53","0","0","53","53","53","0","53","0","Sun Oct 22 13:42:56 2023","The main experiment item","False","Sternbergtask.osexp","C:\Users\User\Desktop","False","mono","False","18","no","white","no","yes","768","legacy","41","11","C:/Users/User/Desktop/subject-2.csv","legacy","6 9 5","Melodramatic Milgram","4.0.5","0","n","0","right","space","left","right","NA","617.0","54491","4039","617","NA","2","legacy","3","1024","2","48000","-16","experiment","2","even","8","392143","380121","387322","2680","138068","387323","386282","2687","134029","389524","391525","388323","57180","391525","NA","Sternberg task","36","44963.0","54","1024"
"67","67","830","830","#3d3846","experiment","legacy","legacy","legacy","1","undefined","1","right","54","54","54","0","0","54","54","0","0","54","54","54","0","54","0","Sun Oct 22 13:42:56 2023","The main experiment item","False","Sternbergtask.osexp","C:\Users\User\Desktop","False","mono","False","18","no","white","no","yes","768","legacy","42","11","C:/Users/User/Desktop/subject-2.csv","legacy","1 6 4","Melodramatic Milgram","4.0.5","0","n","0","right","space","left","right","NA","735.0","54491","4039","735","NA","2","legacy","3","1024","2","48000","-16","experiment","2","even","7","398147","392150","393209","2680","138068","393210","386282","2687","134029","395411","397411","394211","57180","397411","NA","Sternberg task","37","45698.0","55","1024"
"67","67","830","830","#3d3846","experiment","legacy","legacy","legacy","1","undefined","1","left","55","55","55","0","0","55","55","0","0","55","55","55","0","55","0","Sun Oct 22 13:42:56 2023","The main experiment item","False","Sternbergtask.osexp","C:\Users\User\Desktop","False","mono","False","18","no","white","no","yes","768","legacy","43","11","C:/Users/User/Desktop/subject-2.csv","legacy","2 4 8 5 1 3","Melodramatic Milgram","4.0.5","1","y","0","left","space","left","left","NA","818.0","54491","4039","818","NA","2","legacy","6","1024","2","48000","-16","experiment","2","even","2","404236","398153","399215","2680","138068","399216","386282","2687","134029","401418","403418","400217","57180","403418","NA","Sternberg task","38","46516.0","56","1024"
"68","68","826","826","#3d3846","experiment","legacy","legacy","legacy","1","undefined","1","right","56","56","56","0","0","56","56","0","0","56","56","56","0","56","0","Sun Oct 22 13:42:56 2023","The main experiment item","False","Sternbergtask.osexp","C:\Users\User\Desktop","False","mono","False","18","no","white","no","yes","768","legacy","44","11","C:/Users/User/Desktop/subject-2.csv","legacy","1 4 3 6 5","Melodramatic Milgram","4.0.5","0","n","0","right","space","left","right","NA","585.0","54491","4039","585","NA","2","legacy","5","1024","2","48000","-16","experiment","2","even","8","410065","404239","405275","2680","138068","405276","386282","2687","134029","407478","409479","406277","57180","409479","NA","Sternberg task","39","47101.0","57","1024"
"68","68","823","823","#3d3846","experiment","legacy","legacy","legacy","1","undefined","1","right","57","57","57","0","0","57","57","0","0","57","57","57","0","57","0","Sun Oct 22 13:42:56 2023","The main experiment item","False","Sternbergtask.osexp","C:\Users\User\Desktop","False","mono","False","18","no","white","no","yes","768","legacy","45","11","C:/Users/User/Desktop/subject-2.csv","legacy","2 8 9 4 1","Melodramatic Milgram","4.0.5","0","n","0","right","space","left","right","NA","645.0","54491","4039","645","NA","2","legacy","5","1024","2","48000","-16","experiment","2","even","5","415985","410072","411135","2680","138068","411136","386282","2687","134029","413338","415339","412137","57180","415339","NA","Sternberg task","40","47746.0","58","1024"
"69","69","817","817","#3d3846","experiment","legacy","legacy","legacy","1","undefined","1","left","58","58","58","0","0","58","58","0","0","58","58","58","0","58","0","Sun Oct 22 13:42:56 2023","The main experiment item","False","Sternbergtask.osexp","C:\Users\User\Desktop","False","mono","False","18","no","white","no","yes","768","legacy","46","11","C:/Users/User/Desktop/subject-2.csv","legacy","4 3 2 5 8","Melodramatic Milgram","4.0.5","2","y","0","left","space","left","left","NA","475.0","54491","4039","475","NA","2","legacy","5","1024","2","48000","-16","experiment","2","even","3","421734","415991","417055","2680","138068","417056","386282","2687","134029","419258","421259","418057","57180","421259","NA","Sternberg task","41","48221.0","59","1024"
"70","70","816","816","#3d3846","experiment","legacy","legacy","legacy","1","undefined","1","left","59","59","59","0","0","59","59","0","0","59","59","59","0","59","0","Sun Oct 22 13:42:56 2023","The main experiment item","False","Sternbergtask.osexp","C:\Users\User\Desktop","False","mono","False","18","no","white","no","yes","768","legacy","47","11","C:/Users/User/Desktop/subject-2.csv","legacy","3 5 7 1","Melodramatic Milgram","4.0.5","3","y","0","left","space","left","left","NA","745.0","54491","4039","745","NA","2","legacy","4","1024","2","48000","-16","experiment","2","even","7","427752","421741","422803","2680","138068","422804","386282","2687","134029","425006","427007","423805","57180","427007","NA","Sternberg task","42","48966.0","60","1024"
"70","70","814","814","#3d3846","experiment","legacy","legacy","legacy","1","undefined","1","right","60","60","60","0","0","60","60","0","0","60","60","60","0","60","0","Sun Oct 22 13:42:56 2023","The main experiment item","False","Sternbergtask.osexp","C:\Users\User\Desktop","False","mono","False","18","no","white","no","yes","768","legacy","48","11","C:/Users/User/Desktop/subject-2.csv","legacy","4 2 6 9","Melodramatic Milgram","4.0.5","0","n","0","right","space","left","right","NA","729.0","54491","4039","729","NA","2","legacy","4","1024","2","48000","-16","experiment","2","even","7","433752","427759","428819","2680","138068","428820","386282","2687","134029","431021","433022","429820","57180","433022","NA","Sternberg task","43","49695.0","61","1024"
"70","70","811","811","#3d3846","experiment","legacy","legacy","legacy","1","undefined","1","right","61","61","61","0","0","61","61","0","0","61","61","61","0","61","0","Sun Oct 22 13:42:56 2023","The main experiment item","False","Sternbergtask.osexp","C:\Users\User\Desktop","False","mono","False","18","no","white","no","yes","768","legacy","49","11","C:/Users/User/Desktop/subject-2.csv","legacy","1 7 8 3 9","Melodramatic Milgram","4.0.5","0","n","0","right","space","left","right","NA","592.0","54491","4039","592","NA","2","legacy","5","1024","2","48000","-16","experiment","2","even","2","439619","433758","434822","2680","138068","434823","386282","2687","134029","437025","439026","435824","57180","439026","NA","Sternberg task","44","50287.0","62","1024"
"71","71","819","819","#3d3846","experiment","legacy","legacy","legacy","1","undefined","1","right","62","62","62","0","0","62","62","0","0","62","62","62","0","62","0","Sun Oct 22 13:42:56 2023","The main experiment item","False","Sternbergtask.osexp","C:\Users\User\Desktop","False","mono","False","18","no","white","no","yes","768","legacy","50","11","C:/Users/User/Desktop/subject-2.csv","legacy","1 8 7","Melodramatic Milgram","4.0.5","0","n","0","right","space","left","right","NA","1341.0","54491","4039","1341","NA","2","legacy","3","1024","2","48000","-16","experiment","2","even","4","446204","439625","440657","2680","138068","440658","386282","2687","134029","442860","444862","441659","57180","444862","NA","Sternberg task","45","51628.0","63","1024"
"71","71","816","816","#3d3846","experiment","legacy","legacy","legacy","1","undefined","1","right","63","63","63","0","0","63","63","0","0","63","63","63","0","63","0","Sun Oct 22 13:42:56 2023","The main experiment item","False","Sternbergtask.osexp","C:\Users\User\Desktop","False","mono","False","18","no","white","no","yes","768","legacy","51","11","C:/Users/User/Desktop/subject-2.csv","legacy","3 9 8 1 6 4","Melodramatic Milgram","4.0.5","0","n","0","right","space","left","right","NA","601.0","54491","4039","601","NA","2","legacy","6","1024","2","48000","-16","experiment","2","even","7","452061","446210","447255","2680","138068","447256","386282","2687","134029","449458","451459","448257","57180","451459","NA","Sternberg task","46","52229.0","64","1024"
"70","70","816","816","#3d3846","experiment","legacy","legacy","legacy","0","undefined","0","left","64","64","64","0","0","64","64","0","0","64","64","64","0","64","0","Sun Oct 22 13:42:56 2023","The main experiment item","False","Sternbergtask.osexp","C:\Users\User\Desktop","False","mono","False","18","no","white","no","yes","768","legacy","52","11","C:/Users/User/Desktop/subject-2.csv","legacy","6 1 2","Melodramatic Milgram","4.0.5","3","y","0","right","space","left","right","NA","851.0","54491","4039","851","NA","2","legacy","3","1024","2","48000","-16","experiment","2","even","2","458180","452067","453124","2680","138068","453125","386282","2687","134029","455327","457328","454126","57180","457328","NA","Sternberg task","46","53080.0","65","1024"
"71","71","813","813","#3d3846","experiment","legacy","legacy","legacy","1","undefined","1","left","65","65","65","0","0","65","65","0","0","65","65","65","0","65","0","Sun Oct 22 13:42:56 2023","The main experiment item","False","Sternbergtask.osexp","C:\Users\User\Desktop","False","mono","False","18","no","white","no","yes","768","legacy","53","11","C:/Users/User/Desktop/subject-2.csv","legacy","7 2 3","Melodramatic Milgram","4.0.5","3","y","0","left","space","left","left","NA","592.0","54491","4039","592","NA","2","legacy","3","1024","2","48000","-16","experiment","2","even","3","464041","452067","459245","2680","138068","459246","458182","2687","134029","461448","463449","460247","57180","463449","NA","Sternberg task","47","53672.0","66","1024"
"71","71","810","810","#3d3846","experiment","legacy","legacy","legacy","1","undefined","1","right","66","66","66","0","0","66","66","0","0","66","66","66","0","66","0","Sun Oct 22 13:42:56 2023","The main experiment item","False","Sternbergtask.osexp","C:\Users\User\Desktop","False","mono","False","18","no","white","no","yes","768","legacy","54","11","C:/Users/User/Desktop/subject-2.csv","legacy","1 6 4 3 9 7","Melodramatic Milgram","4.0.5","0","n","0","right","space","left","right","NA","659.0","54491","4039","659","NA","2","legacy","6","1024","2","48000","-16","experiment","2","even","8","469968","464047","465105","2680","138068","465106","458182","2687","134029","467307","469308","466106","57180","469308","NA","Sternberg task","48","54331.0","67","1024"
"70","70","810","810","#3d3846","experiment","legacy","legacy","legacy","0","undefined","0","left","67","67","67","0","0","67","67","0","0","67","67","67","0","67","0","Sun Oct 22 13:42:56 2023","The main experiment item","False","Sternbergtask.osexp","C:\Users\User\Desktop","False","mono","False","18","no","white","no","yes","768","legacy","55","11","C:/Users/User/Desktop/subject-2.csv","legacy","5 2 6","Melodramatic Milgram","4.0.5","2","y","0","right","space","left","right","NA","772.0","54491","4039","772","NA","2","legacy","3","1024","2","48000","-16","experiment","2","even","2","476012","469974","471035","2680","138068","471036","458182","2687","134029","473238","475239","472037","57180","475239","NA","Sternberg task","48","55103.0","68","1024"
"69","69","810","810","#3d3846","experiment","legacy","legacy","legacy","0","undefined","0","left","68","68","68","0","0","68","68","0","0","68","68","68","0","68","0","Sun Oct 22 13:42:56 2023","The main experiment item","False","Sternbergtask.osexp","C:\Users\User\Desktop","False","mono","False","18","no","white","no","yes","768","legacy","56","11","C:/Users/User/Desktop/subject-2.csv","legacy","3 4 9 6 2 9","Melodramatic Milgram","4.0.5","5","y","0","right","space","left","right","NA","830.0","54491","4039","830","NA","2","legacy","6","1024","2","48000","-16","experiment","2","even","2","482113","469974","477078","2680","138068","477079","476019","2687","134029","479281","481282","478080","57180","481282","NA","Sternberg task","48","55933.0","69","1024"
"70","70","806","806","#3d3846","experiment","legacy","legacy","legacy","1","undefined","1","right","69","69","69","0","0","69","69","0","0","69","69","69","0","69","0","Sun Oct 22 13:42:56 2023","The main experiment item","False","Sternbergtask.osexp","C:\Users\User\Desktop","False","mono","False","18","no","white","no","yes","768","legacy","57","11","C:/Users/User/Desktop/subject-2.csv","legacy","4 1","Melodramatic Milgram","4.0.5","0","n","0","right","space","left","right","NA","500.0","54491","4039","500","NA","2","legacy","2","1024","2","48000","-16","experiment","2","even","6","487885","469974","483179","2680","138068","483180","482115","2687","134029","485383","487384","484182","57180","487384","NA","Sternberg task","49","56433.0","70","1024"
"70","70","809","809","#3d3846","experiment","legacy","legacy","legacy","1","undefined","1","left","70","70","70","0","0","70","70","0","0","70","70","70","0","70","0","Sun Oct 22 13:42:56 2023","The main experiment item","False","Sternbergtask.osexp","C:\Users\User\Desktop","False","mono","False","18","no","white","no","yes","768","legacy","58","11","C:/Users/User/Desktop/subject-2.csv","legacy","7 8 4 6 9 5","Melodramatic Milgram","4.0.5","4","y","0","left","space","left","left","NA","1024.0","54491","4039","1024","NA","2","legacy","6","1024","2","48000","-16","experiment","2","even","6","494185","487891","488957","2680","138068","488958","482115","2687","134029","491160","493161","489959","57180","493161","NA","Sternberg task","50","57457.0","71","1024"
"70","70","807","807","#3d3846","experiment","legacy","legacy","legacy","1","undefined","1","right","71","71","71","0","0","71","71","0","0","71","71","71","0","71","0","Sun Oct 22 13:42:56 2023","The main experiment item","False","Sternbergtask.osexp","C:\Users\User\Desktop","False","mono","False","18","no","white","no","yes","768","legacy","59","11","C:/Users/User/Desktop/subject-2.csv","legacy","1 7 5 2","Melodramatic Milgram","4.0.5","0","n","0","right","space","left","right","NA","662.0","54491","4039","662","NA","2","legacy","4","1024","2","48000","-16","experiment","2","even","3","500124","494192","495257","2680","138068","495258","482115","2687","134029","497460","499461","496259","57180","499461","NA","Sternberg task","51","58119.0","72","1024"
"69","69","813","813","#3d3846","experiment","legacy","legacy","legacy","0","undefined","0","left","72","72","72","0","0","72","72","0","0","72","72","72","0","72","0","Sun Oct 22 13:42:56 2023","The main experiment item","False","Sternbergtask.osexp","C:\Users\User\Desktop","False","mono","False","18","no","white","no","yes","768","legacy","60","11","C:/Users/User/Desktop/subject-2.csv","legacy","6 7 8 5","Melodramatic Milgram","4.0.5","3","y","0","right","space","left","right","NA","1294.0","54491","4039","1294","NA","2","legacy","4","1024","2","48000","-16","experiment","2","even","8","506677","500130","501178","2680","138068","501179","482115","2687","134029","503381","505382","502180","57180","505382","NA","Sternberg task","51","59413.0","73","1024"
"68","68","814","814","#3d3846","experiment","legacy","legacy","legacy","0","undefined","0","right","73","73","73","0","0","73","73","0","0","73","73","73","0","73","0","Sun Oct 22 13:42:56 2023","The main experiment item","False","Sternbergtask.osexp","C:\Users\User\Desktop","False","mono","False","18","no","white","no","yes","768","legacy","61","11","C:/Users/User/Desktop/subject-2.csv","legacy","7 4 2 8 1 9","Melodramatic Milgram","4.0.5","0","n","0","left","space","left","left","NA","858.0","54491","4039","858","NA","2","legacy","6","1024","2","48000","-16","experiment","2","even","5","512807","500130","507745","2680","138068","507745","506683","2687","134029","509947","511948","508746","57180","511948","NA","Sternberg task","51","60271.0","74","1024"
"68","68","811","811","#3d3846","experiment","legacy","legacy","legacy","0","undefined","0","left","74","74","74","0","0","74","74","0","0","74","74","74","0","74","0","Sun Oct 22 13:42:56 2023","The main experiment item","False","Sternbergtask.osexp","C:\Users\User\Desktop","False","mono","False","18","no","white","no","yes","768","legacy","62","11","C:/Users/User/Desktop/subject-2.csv","legacy","5 7 8 2 3 8","Melodramatic Milgram","4.0.5","5","y","0","right","space","left","right","NA","621.0","54491","4039","621","NA","2","legacy","6","1024","2","48000","-16","experiment","2","even","3","518671","500130","513845","2680","138068","513846","512813","2687","134029","516048","518049","514847","57180","518049","NA","Sternberg task","51","60892.0","75","1024"
"67","67","824","824","#3d3846","experiment","legacy","legacy","legacy","0","undefined","0","right","75","75","75","0","0","75","75","0","0","75","75","75","0","75","0","Sun Oct 22 13:42:56 2023","The main experiment item","False","Sternbergtask.osexp","C:\Users\User\Desktop","False","mono","False","18","no","white","no","yes","768","legacy","63","11","C:/Users/User/Desktop/subject-2.csv","legacy","7 8 6 1","Melodramatic Milgram","4.0.5","0","n","0","left","space","left","left","NA","1765.0","54491","4039","1765","NA","2","legacy","4","1024","2","48000","-16","experiment","2","even","3","525715","500130","519745","2680","138068","519746","518677","2687","134029","521948","523949","520747","57180","523949","NA","Sternberg task","51","62657.0","76","1024"
"66","66","829","829","#3d3846","experiment","legacy","legacy","legacy","0","undefined","0","right","76","76","76","0","0","76","76","0","0","76","76","76","0","76","0","Sun Oct 22 13:42:56 2023","The main experiment item","False","Sternbergtask.osexp","C:\Users\User\Desktop","False","mono","False","18","no","white","no","yes","768","legacy","64","11","C:/Users/User/Desktop/subject-2.csv","legacy","9","Melodramatic Milgram","4.0.5","0","n","0","left","space","left","left","NA","1236.0","54491","4039","1236","NA","2","legacy","1","1024","2","48000","-16","experiment","2","even","6","532229","500130","526787","2680","138068","526788","525721","2687","134029","528990","530992","527789","57180","530992","NA","Sternberg task","51","63893.0","77","1024"
"65","65","827","827","#3d3846","experiment","legacy","legacy","legacy","0","undefined","0","left","77","77","77","0","0","77","77","0","0","77","77","77","0","77","0","Sun Oct 22 13:42:56 2023","The main experiment item","False","Sternbergtask.osexp","C:\Users\User\Desktop","False","mono","False","18","no","white","no","yes","768","legacy","65","11","C:/Users/User/Desktop/subject-2.csv","legacy","6 9 3 1","Melodramatic Milgram","4.0.5","4","y","0","right","space","left","right","NA","648.0","54491","4039","648","NA","2","legacy","4","1024","2","48000","-16","experiment","2","even","1","538126","500130","533273","2680","138068","533274","532235","2687","134029","535476","537477","534275","57180","537477","NA","Sternberg task","51","64541.0","78","1024"
"65","65","828","828","#3d3846","experiment","legacy","legacy","legacy","1","undefined","1","left","78","78","78","0","0","78","78","0","0","78","78","78","0","78","0","Sun Oct 22 13:42:56 2023","The main experiment item","False","Sternbergtask.osexp","C:\Users\User\Desktop","False","mono","False","18","no","white","no","yes","768","legacy","66","11","C:/Users/User/Desktop/subject-2.csv","legacy","4 7 6 8 2 3","Melodramatic Milgram","4.0.5","6","y","0","left","space","left","left","NA","884.0","54491","4039","884","NA","2","legacy","6","1024","2","48000","-16","experiment","2","even","3","544277","500130","539188","2680","138068","539189","538132","2687","134029","541391","543393","540190","57180","543392","NA","Sternberg task","52","65425.0","79","1024"
"66","66","826","826","#3d3846","experiment","legacy","legacy","legacy","1","undefined","1","right","79","79","79","0","0","79","79","0","0","79","79","79","0","79","0","Sun Oct 22 13:42:56 2023","The main experiment item","False","Sternbergtask.osexp","C:\Users\User\Desktop","False","mono","False","18","no","white","no","yes","768","legacy","67","11","C:/Users/User/Desktop/subject-2.csv","legacy","3 4 2","Melodramatic Milgram","4.0.5","0","n","0","right","space","left","right","NA","709.0","54491","4039","709","NA","2","legacy","3","1024","2","48000","-16","experiment","2","even","5","550267","544283","545354","2680","138068","545355","538132","2687","134029","547556","549557","546355","57180","549557","NA","Sternberg task","53","66134.0","80","1024"
"65","65","825","825","#3d3846","experiment","legacy","legacy","legacy","0","undefined","0","left","80","80","80","0","0","80","80","0","0","80","80","80","0","80","0","Sun Oct 22 13:42:56 2023","The main experiment item","False","Sternbergtask.osexp","C:\Users\User\Desktop","False","mono","False","18","no","white","no","yes","768","legacy","68","11","C:/Users/User/Desktop/subject-2.csv","legacy","4 6 2 5 1","Melodramatic Milgram","4.0.5","5","y","0","right","space","left","right","NA","735.0","54491","4039","735","NA","2","legacy","5","1024","2","48000","-16","experiment","2","even","1","556275","550273","551335","2680","138068","551336","538132","2687","134029","553538","555539","552337","57180","555539","NA","Sternberg task","53","66869.0","81","1024"
"65","65","827","827","#3d3846","experiment","legacy","legacy","legacy","1","undefined","1","right","81","81","81","0","0","81","81","0","0","81","81","81","0","81","0","Sun Oct 22 13:42:56 2023","The main experiment item","False","Sternbergtask.osexp","C:\Users\User\Desktop","False","mono","False","18","no","white","no","yes","768","legacy","69","11","C:/Users/User/Desktop/subject-2.csv","legacy","8 4 3 9","Melodramatic Milgram","4.0.5","0","n","0","right","space","left","right","NA","955.0","54491","4039","955","NA","2","legacy","4","1024","2","48000","-16","experiment","2","even","5","562498","550273","557337","2680","138068","557339","556281","2687","134029","559541","561542","558340","57180","561542","NA","Sternberg task","54","67824.0","82","1024"
"66","66","825","825","#3d3846","experiment","legacy","legacy","legacy","1","undefined","1","right","82","82","82","0","0","82","82","0","0","82","82","82","0","82","0","Sun Oct 22 13:42:56 2023","The main experiment item","False","Sternbergtask.osexp","C:\Users\User\Desktop","False","mono","False","18","no","white","no","yes","768","legacy","70","11","C:/Users/User/Desktop/subject-2.csv","legacy","6 8","Melodramatic Milgram","4.0.5","0","n","0","right","space","left","right","NA","709.0","54491","4039","709","NA","2","legacy","2","1024","2","48000","-16","experiment","2","even","9","568477","562504","563564","2680","138068","563565","556281","2687","134029","565766","567767","564565","57180","567767","NA","Sternberg task","55","68533.0","83","1024"
"65","65","823","823","#3d3846","experiment","legacy","legacy","legacy","0","undefined","0","left","83","83","83","0","0","83","83","0","0","83","83","83","0","83","0","Sun Oct 22 13:42:56 2023","The main experiment item","False","Sternbergtask.osexp","C:\Users\User\Desktop","False","mono","False","18","no","white","no","yes","768","legacy","71","11","C:/Users/User/Desktop/subject-2.csv","legacy","7 6","Melodramatic Milgram","4.0.5","2","y","0","right","space","left","right","NA","614.0","54491","4039","614","NA","2","legacy","2","1024","2","48000","-16","experiment","2","even","6","574362","568483","569544","2680","138068","569545","556281","2687","134029","571747","573748","570546","57180","573748","NA","Sternberg task","55","69147.0","84","1024"
"65","65","821","821","#3d3846","experiment","legacy","legacy","legacy","1","undefined","1","right","84","84","84","0","0","84","84","0","0","84","84","84","0","84","0","Sun Oct 22 13:42:56 2023","The main experiment item","False","Sternbergtask.osexp","C:\Users\User\Desktop","False","mono","False","18","no","white","no","yes","768","legacy","72","11","C:/Users/User/Desktop/subject-2.csv","legacy","2 7 5","Melodramatic Milgram","4.0.5","0","n","0","right","space","left","right","NA","692.0","54491","4039","692","NA","2","legacy","3","1024","2","48000","-16","experiment","2","even","8","580311","568483","575415","2680","138068","575416","574369","2687","134029","577618","579619","576417","57180","579619","NA","Sternberg task","56","69839.0","85","1024"
"66","66","825","825","#3d3846","experiment","legacy","legacy","legacy","1","undefined","1","left","85","85","85","0","0","85","85","0","0","85","85","85","0","85","0","Sun Oct 22 13:42:56 2023","The main experiment item","False","Sternbergtask.osexp","C:\Users\User\Desktop","False","mono","False","18","no","white","no","yes","768","legacy","73","11","C:/Users/User/Desktop/subject-2.csv","legacy","9 5 3 8 4","Melodramatic Milgram","4.0.5","1","y","0","left","space","left","left","NA","1196.0","54491","4039","1196","NA","2","legacy","5","1024","2","48000","-16","experiment","2","even","9","586755","580318","581354","2680","138068","581355","574369","2687","134029","583557","585558","582356","57180","585558","NA","Sternberg task","57","71035.0","86","1024"
"66","66","829","829","#3d3846","experiment","legacy","legacy","legacy","1","undefined","1","left","86","86","86","0","0","86","86","0","0","86","86","86","0","86","0","Sun Oct 22 13:42:56 2023","The main experiment item","False","Sternbergtask.osexp","C:\Users\User\Desktop","False","mono","False","18","no","white","no","yes","768","legacy","74","11","C:/Users/User/Desktop/subject-2.csv","legacy","7 1 8 5 6 2","Melodramatic Milgram","4.0.5","2","y","0","left","space","left","left","NA","1089.0","54491","4039","1089","NA","2","legacy","6","1024","2","48000","-16","experiment","2","even","1","593113","586761","587819","2680","138068","587820","574369","2687","134029","590022","592023","588821","57180","592023","NA","Sternberg task","58","72124.0","87","1024"
"65","65","833","833","#3d3846","experiment","legacy","legacy","legacy","0","undefined","0","left","87","87","87","0","0","87","87","0","0","87","87","87","0","87","0","Sun Oct 22 13:42:56 2023","The main experiment item","False","Sternbergtask.osexp","C:\Users\User\Desktop","False","mono","False","18","no","white","no","yes","768","legacy","75","11","C:/Users/User/Desktop/subject-2.csv","legacy","8","Melodramatic Milgram","4.0.5","1","y","0","right","space","left","right","NA","1218.0","54491","4039","1218","NA","2","legacy","1","1024","2","48000","-16","experiment","2","even","8","599600","593119","594176","2680","138068","594177","574369","2687","134029","596379","598381","595178","57180","598380","NA","Sternberg task","58","73342.0","88","1024"
"66","66","830","830","#3d3846","experiment","legacy","legacy","legacy","1","undefined","1","right","88","88","88","0","0","88","88","0","0","88","88","88","0","88","0","Sun Oct 22 13:42:56 2023","The main experiment item","False","Sternbergtask.osexp","C:\Users\User\Desktop","False","mono","False","18","no","white","no","yes","768","legacy","76","11","C:/Users/User/Desktop/subject-2.csv","legacy","8 6 3 4 7","Melodramatic Milgram","4.0.5","0","n","0","right","space","left","right","NA","577.0","54491","4039","577","NA","2","legacy","5","1024","2","48000","-16","experiment","2","even","1","605449","593119","600667","2680","138068","600668","599606","2687","134029","602870","604871","601669","57180","604871","NA","Sternberg task","59","73919.0","89","1024"
"66","66","838","838","#3d3846","experiment","legacy","legacy","legacy","1","undefined","1","right","89","89","89","0","0","89","89","0","0","89","89","89","0","89","0","Sun Oct 22 13:42:56 2023","The main experiment item","False","Sternbergtask.osexp","C:\Users\User\Desktop","False","mono","False","18","no","white","no","yes","768","legacy","77","11","C:/Users/User/Desktop/subject-2.csv","legacy","1 7 5 2 9","Melodramatic Milgram","4.0.5","0","n","0","right","space","left","right","NA","1514.0","54491","4039","1514","NA","2","legacy","5","1024","2","48000","-16","experiment","2","even","3","612236","605455","606518","2680","138068","606519","599606","2687","134029","608721","610722","607520","57180","610722","NA","Sternberg task","60","75433.0","90","1024"
"65","65","840","840","#3d3846","experiment","legacy","legacy","legacy","0","undefined","0","left","90","90","90","0","0","90","90","0","0","90","90","90","0","90","0","Sun Oct 22 13:42:56 2023","The main experiment item","False","Sternbergtask.osexp","C:\Users\User\Desktop","False","mono","False","18","no","white","no","yes","768","legacy","78","11","C:/Users/User/Desktop/subject-2.csv","legacy","7 1 3","Melodramatic Milgram","4.0.5","2","y","0","right","space","left","right","NA","1051.0","54491","4039","1051","NA","2","legacy","3","1024","2","48000","-16","experiment","2","even","1","618560","612243","613304","2680","138068","613305","599606","2687","134029","615507","617508","614306","57180","617508","NA","Sternberg task","60","76484.0","91","1024"
"65","65","836","836","#3d3846","experiment","legacy","legacy","legacy","0","undefined","0","right","91","91","91","0","0","91","91","0","0","91","91","91","0","91","0","Sun Oct 22 13:42:56 2023","The main experiment item","False","Sternbergtask.osexp","C:\Users\User\Desktop","False","mono","False","18","no","white","no","yes","768","legacy","79","11","C:/Users/User/Desktop/subject-2.csv","legacy","7 9 1 6","Melodramatic Milgram","4.0.5","0","n","0","left","space","left","left","NA","515.0","54491","4039","515","NA","2","legacy","4","1024","2","48000","-16","experiment","2","even","4","624338","612243","619617","2680","138068","619618","618567","2687","134029","621820","623822","620619","57180","623822","NA","Sternberg task","60","76999.0","92","1024"
"64","64","836","836","#3d3846","experiment","legacy","legacy","legacy","0","undefined","0","left","92","92","92","0","0","92","92","0","0","92","92","92","0","92","0","Sun Oct 22 13:42:56 2023","The main experiment item","False","Sternbergtask.osexp","C:\Users\User\Desktop","False","mono","False","18","no","white","no","yes","768","legacy","80","11","C:/Users/User/Desktop/subject-2.csv","legacy","8 9 6 1","Melodramatic Milgram","4.0.5","2","y","0","right","space","left","right","NA","770.0","54491","4039","770","NA","2","legacy","4","1024","2","48000","-16","experiment","2","even","9","630383","612243","625408","2680","138068","625409","624345","2687","134029","627611","629612","626410","57180","629612","NA","Sternberg task","60","77769.0","93","1024"
"63","63","832","832","#3d3846","experiment","legacy","legacy","legacy","0","undefined","0","right","93","93","93","0","0","93","93","0","0","93","93","93","0","93","0","Sun Oct 22 13:42:56 2023","The main experiment item","False","Sternbergtask.osexp","C:\Users\User\Desktop","False","mono","False","18","no","white","no","yes","768","legacy","81","11","C:/Users/User/Desktop/subject-2.csv","legacy","5","Melodramatic Milgram","4.0.5","0","n","0","left","space","left","left","NA","515.0","54491","4039","515","NA","2","legacy","1","1024","2","48000","-16","experiment","2","even","8","636152","612243","631430","2680","138068","631431","630389","2687","134029","633633","635637","632432","57180","635635","NA","Sternberg task","60","78284.0","94","1024"
"64","64","830","830","#3d3846","experiment","legacy","legacy","legacy","1","undefined","1","right","94","94","94","0","0","94","94","0","0","94","94","94","0","94","0","Sun Oct 22 13:42:56 2023","The main experiment item","False","Sternbergtask.osexp","C:\Users\User\Desktop","False","mono","False","18","no","white","no","yes","768","legacy","82","11","C:/Users/User/Desktop/subject-2.csv","legacy","1 3 2 6 9","Melodramatic Milgram","4.0.5","0","n","0","right","space","left","right","NA","600.0","54491","4039","600","NA","2","legacy","5","1024","2","48000","-16","experiment","2","even","5","642007","612243","637202","2680","138068","637203","636159","2687","134029","639405","641406","638204","57180","641406","NA","Sternberg task","61","78884.0","95","1024"
"64","64","830","830","#3d3846","experiment","legacy","legacy","legacy","1","undefined","1","right","95","95","95","0","0","95","95","0","0","95","95","95","0","95","0","Sun Oct 22 13:42:56 2023","The main experiment item","False","Sternbergtask.osexp","C:\Users\User\Desktop","False","mono","False","18","no","white","no","yes","768","legacy","83","11","C:/Users/User/Desktop/subject-2.csv","legacy","2 8 7 9 5 3","Melodramatic Milgram","4.0.5","0","n","0","right","space","left","right","NA","805.0","54491","4039","805","NA","2","legacy","6","1024","2","48000","-16","experiment","2","even","6","648087","642013","643077","2680","138068","643078","636159","2687","134029","645280","647281","644079","57180","647281","NA","Sternberg task","62","79689.0","96","1024"
"64","64","831","831","#3d3846","experiment","legacy","legacy","legacy","1","undefined","1","right","96","96","96","0","0","96","96","0","0","96","96","96","0","96","0","Sun Oct 22 13:42:56 2023","The main experiment item","False","Sternbergtask.osexp","C:\Users\User\Desktop","False","mono","False","18","no","white","no","yes","768","legacy","84","11","C:/Users/User/Desktop/subject-2.csv","legacy","3 9 1","Melodramatic Milgram","4.0.5","0","n","0","right","space","left","right","NA","971.0","54491","4039","971","NA","2","legacy","3","1024","2","48000","-16","experiment","2","even","7","654329","648093","649153","2680","138068","649154","636159","2687","134029","651356","653357","650155","57180","653357","NA","Sternberg task","63","80660.0","97","1024"
"65","65","834","834","#3d3846","experiment","legacy","legacy","legacy","1","undefined","1","left","97","97","97","0","0","97","97","0","0","97","97","97","0","97","0","Sun Oct 22 13:42:56 2023","The main experiment item","False","Sternbergtask.osexp","C:\Users\User\Desktop","False","mono","False","18","no","white","no","yes","768","legacy","85","11","C:/Users/User/Desktop/subject-2.csv","legacy","7","Melodramatic Milgram","4.0.5","1","y","0","left","space","left","left","NA","1143.0","54491","4039","1143","NA","2","legacy","1","1024","2","48000","-16","experiment","2","even","7","660725","654336","655377","2680","138068","655378","636159","2687","134029","657580","659581","656379","57180","659581","NA","Sternberg task","64","81803.0","98","1024"
"65","65","833","833","#3d3846","experiment","legacy","legacy","legacy","1","undefined","1","left","98","98","98","0","0","98","98","0","0","98","98","98","0","98","0","Sun Oct 22 13:42:56 2023","The main experiment item","False","Sternbergtask.osexp","C:\Users\User\Desktop","False","mono","False","18","no","white","no","yes","768","legacy","86","11","C:/Users/User/Desktop/subject-2.csv","legacy","6 2","Melodramatic Milgram","4.0.5","1","y","0","left","space","left","left","NA","715.0","54491","4039","715","NA","2","legacy","2","1024","2","48000","-16","experiment","2","even","6","666697","660731","661777","2680","138068","661779","636159","2687","134029","663981","665982","662780","57180","665982","NA","Sternberg task","65","82518.0","99","1024"
"66","66","832","832","#3d3846","experiment","legacy","legacy","legacy","1","undefined","1","right","99","99","99","0","0","99","99","0","0","99","99","99","0","99","0","Sun Oct 22 13:42:56 2023","The main experiment item","False","Sternbergtask.osexp","C:\Users\User\Desktop","False","mono","False","18","no","white","no","yes","768","legacy","87","11","C:/Users/User/Desktop/subject-2.csv","legacy","6 9 4 5 2","Melodramatic Milgram","4.0.5","0","n","0","right","space","left","right","NA","684.0","54491","4039","684","NA","2","legacy","5","1024","2","48000","-16","experiment","2","even","1","672654","666704","667767","2680","138068","667768","636159","2687","134029","669970","671970","668769","57180","671970","NA","Sternberg task","66","83202.0","100","1024"
"66","66","830","830","#3d3846","experiment","legacy","legacy","legacy","1","undefined","1","right","100","100","100","0","0","100","100","0","0","100","100","100","0","100","0","Sun Oct 22 13:42:56 2023","The main experiment item","False","Sternbergtask.osexp","C:\Users\User\Desktop","False","mono","False","18","no","white","no","yes","768","legacy","88","11","C:/Users/User/Desktop/subject-2.csv","legacy","9 5 3 2 8 6","Melodramatic Milgram","4.0.5","0","n","0","right","space","left","right","NA","673.0","54491","4039","673","NA","2","legacy","6","1024","2","48000","-16","experiment","2","even","7","678604","672660","673726","2680","138068","673727","636159","2687","134029","675929","677930","674728","57180","677930","NA","Sternberg task","67","83875.0","101","1024"
"66","66","832","832","#3d3846","experiment","legacy","legacy","legacy","1","undefined","1","left","101","101","101","0","0","101","101","0","0","101","101","101","0","101","0","Sun Oct 22 13:42:56 2023","The main experiment item","False","Sternbergtask.osexp","C:\Users\User\Desktop","False","mono","False","18","no","white","no","yes","768","legacy","89","11","C:/Users/User/Desktop/subject-2.csv","legacy","3 9 7 6 4","Melodramatic Milgram","4.0.5","3","y","0","left","space","left","left","NA","1041.0","54491","4039","1041","NA","2","legacy","5","1024","2","48000","-16","experiment","2","even","7","684905","678610","679659","2680","138068","679660","636159","2687","134029","681862","683863","680661","57180","683863","NA","Sternberg task","68","84916.0","102","1024"
"66","66","830","830","#3d3846","experiment","legacy","legacy","legacy","0","undefined","0","left","102","102","102","0","0","102","102","0","0","102","102","102","0","102","0","Sun Oct 22 13:42:56 2023","The main experiment item","False","Sternbergtask.osexp","C:\Users\User\Desktop","False","mono","False","18","no","white","no","yes","768","legacy","90","11","C:/Users/User/Desktop/subject-2.csv","legacy","8 5 4 7 3 1","Melodramatic Milgram","4.0.5","2","y","0","right","space","left","right","NA","676.0","54491","4039","676","NA","2","legacy","6","1024","2","48000","-16","experiment","2","even","5","690857","684912","685977","2680","138068","685977","636159","2687","134029","688180","690180","686979","57180","690180","NA","Sternberg task","68","85592.0","103","1024"
"65","65","830","830","#3d3846","experiment","legacy","legacy","legacy","0","undefined","0","left","103","103","103","0","0","103","103","0","0","103","103","103","0","103","0","Sun Oct 22 13:42:56 2023","The main experiment item","False","Sternbergtask.osexp","C:\Users\User\Desktop","False","mono","False","18","no","white","no","yes","768","legacy","91","11","C:/Users/User/Desktop/subject-2.csv","legacy","3 9 6 2","Melodramatic Milgram","4.0.5","4","y","0","right","space","left","right","NA","823.0","54491","4039","823","NA","2","legacy","4","1024","2","48000","-16","experiment","2","even","2","696944","684912","691916","2680","138068","691917","690863","2687","134029","694119","696121","692918","57180","696120","NA","Sternberg task","68","86415.0","104","1024"
"65","65","829","829","#3d3846","experiment","legacy","legacy","legacy","1","undefined","1","left","104","104","104","0","0","104","104","0","0","104","104","104","0","104","0","Sun Oct 22 13:42:56 2023","The main experiment item","False","Sternbergtask.osexp","C:\Users\User\Desktop","False","mono","False","18","no","white","no","yes","768","legacy","92","11","C:/Users/User/Desktop/subject-2.csv","legacy","9 4 2","Melodramatic Milgram","4.0.5","1","y","0","left","space","left","left","NA","653.0","54491","4039","653","NA","2","legacy","3","1024","2","48000","-16","experiment","2","even","9","702847","684912","697990","2680","138068","697991","696951","2687","134029","700193","702194","698992","57180","702194","NA","Sternberg task","69","87068.0","105","1024"
"66","66","827","827","#3d3846","experiment","legacy","legacy","legacy","1","undefined","1","right","105","105","105","0","0","105","105","0","0","105","105","105","0","105","0","Sun Oct 22 13:42:56 2023","The main experiment item","False","Sternbergtask.osexp","C:\Users\User\Desktop","False","mono","False","18","no","white","no","yes","768","legacy","93","11","C:/Users/User/Desktop/subject-2.csv","legacy","4 8 1 2","Melodramatic Milgram","4.0.5","0","n","0","right","space","left","right","NA","651.0","54491","4039","651","NA","2","legacy","4","1024","2","48000","-16","experiment","2","even","7","708765","702854","703910","2680","138068","703911","696951","2687","134029","706113","708114","704912","57180","708114","NA","Sternberg task","70","87719.0","106","1024"
"65","65","825","825","#3d3846","experiment","legacy","legacy","legacy","0","undefined","0","left","106","106","106","0","0","106","106","0","0","106","106","106","0","106","0","Sun Oct 22 13:42:56 2023","The main experiment item","False","Sternbergtask.osexp","C:\Users\User\Desktop","False","mono","False","18","no","white","no","yes","768","legacy","94","11","C:/Users/User/Desktop/subject-2.csv","legacy","7 8 6 3 1","Melodramatic Milgram","4.0.5","5","y","0","right","space","left","right","NA","601.0","54491","4039","601","NA","2","legacy","5","1024","2","48000","-16","experiment","2","even","1","714642","708771","709836","2680","138068","709837","696951","2687","134029","712039","714040","710838","57180","714040","NA","Sternberg task","70","88320.0","107","1024"
"65","65","825","825","#3d3846","experiment","legacy","legacy","legacy","1","undefined","1","right","107","107","107","0","0","107","107","0","0","107","107","107","0","107","0","Sun Oct 22 13:42:56 2023","The main experiment item","False","Sternbergtask.osexp","C:\Users\User\Desktop","False","mono","False","18","no","white","no","yes","768","legacy","95","11","C:/Users/User/Desktop/subject-2.csv","legacy","1 5 3 2 8","Melodramatic Milgram","4.0.5","0","n","0","right","space","left","right","NA","821.0","54491","4039","821","NA","2","legacy","5","1024","2","48000","-16","experiment","2","even","4","720729","708771","715703","2680","138068","715704","714648","2687","134029","717906","719907","716705","57180","719907","NA","Sternberg task","71","89141.0","108","1024"
"66","66","823","823","#3d3846","experiment","legacy","legacy","legacy","1","undefined","1","left","108","108","108","0","0","108","108","0","0","108","108","108","0","108","0","Sun Oct 22 13:42:56 2023","The main experiment item","False","Sternbergtask.osexp","C:\Users\User\Desktop","False","mono","False","18","no","white","no","yes","768","legacy","96","11","C:/Users/User/Desktop/subject-2.csv","legacy","2 3","Melodramatic Milgram","4.0.5","1","y","0","left","space","left","left","NA","572.0","54491","4039","572","NA","2","legacy","2","1024","2","48000","-16","experiment","2","even","2","726566","720735","721790","2680","138068","721791","714648","2687","134029","723993","725994","722792","57180","725994","NA","Sternberg task","72","89713.0","109","1024"
"66","66","821","821","#3d3846","experiment","legacy","legacy","legacy","1","undefined","1","right","109","109","109","0","0","109","109","0","0","109","109","109","0","109","0","Sun Oct 22 13:42:56 2023","The main experiment item","False","Sternbergtask.osexp","C:\Users\User\Desktop","False","mono","False","18","no","white","no","yes","768","legacy","97","11","C:/Users/User/Desktop/subject-2.csv","legacy","6 9 7 3 8 2","Melodramatic Milgram","4.0.5","0","n","0","right","space","left","right","NA","699.0","54491","4039","699","NA","2","legacy","6","1024","2","48000","-16","experiment","2","even","5","732538","726573","727634","2680","138068","727635","714648","2687","134029","729837","731838","728636","57180","731838","NA","Sternberg task","73","90412.0","110","1024"
"65","65","825","825","#3d3846","experiment","legacy","legacy","legacy","0","undefined","0","right","110","110","110","0","0","110","110","0","0","110","110","110","0","110","0","Sun Oct 22 13:42:56 2023","The main experiment item","False","Sternbergtask.osexp","C:\Users\User\Desktop","False","mono","False","18","no","white","no","yes","768","legacy","98","11","C:/Users/User/Desktop/subject-2.csv","legacy","7 3 2 8","Melodramatic Milgram","4.0.5","0","n","0","left","space","left","left","NA","1246.0","54491","4039","1246","NA","2","legacy","4","1024","2","48000","-16","experiment","2","even","4","739054","732544","733603","2680","138068","733604","714648","2687","134029","735806","737807","734605","57180","737807","NA","Sternberg task","73","91658.0","111","1024"
"66","66","822","822","#3d3846","experiment","legacy","legacy","legacy","1","undefined","1","left","111","111","111","0","0","111","111","0","0","111","111","111","0","111","0","Sun Oct 22 13:42:56 2023","The main experiment item","False","Sternbergtask.osexp","C:\Users\User\Desktop","False","mono","False","18","no","white","no","yes","768","legacy","99","11","C:/Users/User/Desktop/subject-2.csv","legacy","8 9 5 6 7","Melodramatic Milgram","4.0.5","1","y","0","left","space","left","left","NA","487.0","54491","4039","487","NA","2","legacy","5","1024","2","48000","-16","experiment","2","even","8","744811","732544","740119","2680","138068","740120","739060","2687","134029","742322","744323","741121","57180","744323","NA","Sternberg task","74","92145.0","112","1024"
"66","66","821","821","#3d3846","experiment","legacy","legacy","legacy","1","undefined","1","left","112","112","112","0","0","112","112","0","0","112","112","112","0","112","0","Sun Oct 22 13:42:56 2023","The main experiment item","False","Sternbergtask.osexp","C:\Users\User\Desktop","False","mono","False","18","no","white","no","yes","768","legacy","100","11","C:/Users/User/Desktop/subject-2.csv","legacy","3 5 9 6 2 4","Melodramatic Milgram","4.0.5","1","y","0","left","space","left","left","NA","654.0","54491","4039","654","NA","2","legacy","6","1024","2","48000","-16","experiment","2","even","3","750738","744817","745879","2680","138068","745880","739060","2687","134029","748082","750083","746881","57180","750083","NA","Sternberg task","75","92799.0","113","1024"
"66","66","820","820","#3d3846","experiment","legacy","legacy","legacy","1","undefined","1","right","113","113","113","0","0","113","113","0","0","113","113","113","0","113","0","Sun Oct 22 13:42:56 2023","The main experiment item","False","Sternbergtask.osexp","C:\Users\User\Desktop","False","mono","False","18","no","white","no","yes","768","legacy","101","11","C:/Users/User/Desktop/subject-2.csv","legacy","7 1 5 6 3","Melodramatic Milgram","4.0.5","0","n","0","right","space","left","right","NA","711.0","54491","4039","711","NA","2","legacy","5","1024","2","48000","-16","experiment","2","even","8","756718","750744","751803","2680","138068","751804","739060","2687","134029","754006","756007","752805","57180","756007","NA","Sternberg task","76","93510.0","114","1024"
"66","66","818","818","#3d3846","experiment","legacy","legacy","legacy","0","undefined","0","left","114","114","114","0","0","114","114","0","0","114","114","114","0","114","0","Sun Oct 22 13:42:56 2023","The main experiment item","False","Sternbergtask.osexp","C:\Users\User\Desktop","False","mono","False","18","no","white","no","yes","768","legacy","102","11","C:/Users/User/Desktop/subject-2.csv","legacy","7 4 2 6 3 5","Melodramatic Milgram","4.0.5","6","y","0","right","space","left","right","NA","662.0","54491","4039","662","NA","2","legacy","6","1024","2","48000","-16","experiment","2","even","5","762660","756725","757793","2680","138068","757794","739060","2687","134029","759996","761997","758795","57180","761997","NA","Sternberg task","76","94172.0","115","1024"
"66","66","817","817","#3d3846","experiment","legacy","legacy","legacy","1","undefined","1","left","115","115","115","0","0","115","115","0","0","115","115","115","0","115","0","Sun Oct 22 13:42:56 2023","The main experiment item","False","Sternbergtask.osexp","C:\Users\User\Desktop","False","mono","False","18","no","white","no","yes","768","legacy","103","11","C:/Users/User/Desktop/subject-2.csv","legacy","9 6 2 4 1","Melodramatic Milgram","4.0.5","4","y","0","left","space","left","left","NA","706.0","54491","4039","706","NA","2","legacy","5","1024","2","48000","-16","experiment","2","even","4","768611","756725","763700","2680","138068","763701","762666","2687","134029","765903","767904","764702","57180","767904","NA","Sternberg task","77","94878.0","116","1024"
"65","65","819","819","#3d3846","experiment","legacy","legacy","legacy","0","undefined","0","left","116","116","116","0","0","116","116","0","0","116","116","116","0","116","0","Sun Oct 22 13:42:56 2023","The main experiment item","False","Sternbergtask.osexp","C:\Users\User\Desktop","False","mono","False","18","no","white","no","yes","768","legacy","104","11","C:/Users/User/Desktop/subject-2.csv","legacy","2 8 5 1","Melodramatic Milgram","4.0.5","4","y","0","right","space","left","right","NA","1039.0","54491","4039","1039","NA","2","legacy","4","1024","2","48000","-16","experiment","2","even","1","774903","768618","769659","2680","138068","769660","762666","2687","134029","771863","773863","770661","57180","773863","NA","Sternberg task","77","95917.0","117","1024"
"66","66","819","819","#3d3846","experiment","legacy","legacy","legacy","1","undefined","1","left","117","117","117","0","0","117","117","0","0","117","117","117","0","117","0","Sun Oct 22 13:42:56 2023","The main experiment item","False","Sternbergtask.osexp","C:\Users\User\Desktop","False","mono","False","18","no","white","no","yes","768","legacy","105","11","C:/Users/User/Desktop/subject-2.csv","legacy","9 1 6 7 8","Melodramatic Milgram","4.0.5","1","y","0","left","space","left","left","NA","783.0","54491","4039","783","NA","2","legacy","5","1024","2","48000","-16","experiment","2","even","9","780939","768618","775951","2680","138068","775952","774909","2687","134029","778154","780155","776953","57180","780155","NA","Sternberg task","78","96700.0","118","1024"
"66","66","817","817","#3d3846","experiment","legacy","legacy","legacy","1","undefined","1","right","118","118","118","0","0","118","118","0","0","118","118","118","0","118","0","Sun Oct 22 13:42:56 2023","The main experiment item","False","Sternbergtask.osexp","C:\Users\User\Desktop","False","mono","False","18","no","white","no","yes","768","legacy","106","11","C:/Users/User/Desktop/subject-2.csv","legacy","2 5 1 4","Melodramatic Milgram","4.0.5","0","n","0","right","space","left","right","NA","615.0","54491","4039","615","NA","2","legacy","4","1024","2","48000","-16","experiment","2","even","6","786803","780946","781984","2680","138068","781985","774909","2687","134029","784187","786188","782986","57180","786188","NA","Sternberg task","79","97315.0","119","1024"
"66","66","817","817","#3d3846","experiment","legacy","legacy","legacy","1","undefined","1","left","119","119","119","0","0","119","119","0","0","119","119","119","0","119","0","Sun Oct 22 13:42:56 2023","The main experiment item","False","Sternbergtask.osexp","C:\Users\User\Desktop","False","mono","False","18","no","white","no","yes","768","legacy","107","11","C:/Users/User/Desktop/subject-2.csv","legacy","4","Melodramatic Milgram","4.0.5","1","y","0","left","space","left","left","NA","742.0","54491","4039","742","NA","2","legacy","1","1024","2","48000","-16","experiment","2","even","4","792810","786809","787864","2680","138068","787865","774909","2687","134029","790066","792067","788865","57180","792067","NA","Sternberg task","80","98057.0","120","1024"
"66","66","818","818","#3d3846","experiment","legacy","legacy","legacy","1","undefined","1","right","120","120","120","0","0","120","120","0","0","120","120","120","0","120","0","Sun Oct 22 13:42:56 2023","The main experiment item","False","Sternbergtask.osexp","C:\Users\User\Desktop","False","mono","False","18","no","white","no","yes","768","legacy","108","11","C:/Users/User/Desktop/subject-2.csv","legacy","3 4 9 6 7 8","Melodramatic Milgram","4.0.5","0","n","0","right","space","left","right","NA","957.0","54491","4039","957","NA","2","legacy","6","1024","2","48000","-16","experiment","2","even","2","799020","792816","793858","2680","138068","793859","774909","2687","134029","796061","798062","794860","57180","798062","NA","Sternberg task","81","99014.0","121","1024"
"67","67","827","827","#3d3846","experiment","legacy","legacy","legacy","1","undefined","1","right","121","121","121","0","0","121","121","0","0","121","121","121","0","121","0","Sun Oct 22 13:42:56 2023","The main experiment item","False","Sternbergtask.osexp","C:\Users\User\Desktop","False","mono","False","18","no","white","no","yes","768","legacy","109","11","C:/Users/User/Desktop/subject-2.csv","legacy","5 7 3","Melodramatic Milgram","4.0.5","0","n","0","right","space","left","right","NA","1963.0","54491","4039","1963","NA","2","legacy","3","1024","2","48000","-16","experiment","2","even","9","806260","799027","800091","2680","138068","800092","774909","2687","134029","802294","804296","801093","57180","804296","NA","Sternberg task","82","100977.0","122","1024"
"66","66","827","827","#3d3846","experiment","legacy","legacy","legacy","0","undefined","0","left","122","122","122","0","0","122","122","0","0","122","122","122","0","122","0","Sun Oct 22 13:42:56 2023","The main experiment item","False","Sternbergtask.osexp","C:\Users\User\Desktop","False","mono","False","18","no","white","no","yes","768","legacy","110","11","C:/Users/User/Desktop/subject-2.csv","legacy","8 5 3 7 4 6","Melodramatic Milgram","4.0.5","6","y","0","right","space","left","right","NA","849.0","54491","4039","849","NA","2","legacy","6","1024","2","48000","-16","experiment","2","even","6","812361","806266","807307","2680","138068","807308","774909","2687","134029","809510","811511","808309","57180","811511","NA","Sternberg task","82","101826.0","123","1024"
"66","66","827","827","#3d3846","experiment","legacy","legacy","legacy","1","undefined","1","right","123","123","123","0","0","123","123","0","0","123","123","123","0","123","0","Sun Oct 22 13:42:56 2023","The main experiment item","False","Sternbergtask.osexp","C:\Users\User\Desktop","False","mono","False","18","no","white","no","yes","768","legacy","111","11","C:/Users/User/Desktop/subject-2.csv","legacy","1 4 9 3","Melodramatic Milgram","4.0.5","0","n","0","right","space","left","right","NA","811.0","54491","4039","811","NA","2","legacy","4","1024","2","48000","-16","experiment","2","even","5","818444","806266","813427","2680","138068","813428","812367","2687","134029","815630","817632","814429","57180","817632","NA","Sternberg task","83","102637.0","124","1024"
"66","66","827","827","#3d3846","experiment","legacy","legacy","legacy","0","undefined","0","left","124","124","124","0","0","124","124","0","0","124","124","124","0","124","0","Sun Oct 22 13:42:56 2023","The main experiment item","False","Sternbergtask.osexp","C:\Users\User\Desktop","False","mono","False","18","no","white","no","yes","768","legacy","112","11","C:/Users/User/Desktop/subject-2.csv","legacy","5 7 3 6 2","Melodramatic Milgram","4.0.5","5","y","0","right","space","left","right","NA","827.0","54491","4039","827","NA","2","legacy","5","1024","2","48000","-16","experiment","2","even","2","824534","818451","819501","2680","138068","819503","812367","2687","134029","821705","823706","820504","57180","823706","NA","Sternberg task","83","103464.0","125","1024"
"65","65","828","828","#3d3846","experiment","legacy","legacy","legacy","0","undefined","0","left","125","125","125","0","0","125","125","0","0","125","125","125","0","125","0","Sun Oct 22 13:42:56 2023","The main experiment item","False","Sternbergtask.osexp","C:\Users\User\Desktop","False","mono","False","18","no","white","no","yes","768","legacy","113","11","C:/Users/User/Desktop/subject-2.csv","legacy","2 5 4 8 7","Melodramatic Milgram","4.0.5","3","y","0","right","space","left","right","NA","878.0","54491","4039","878","NA","2","legacy","5","1024","2","48000","-16","experiment","2","even","4","830681","818451","825597","2680","138068","825598","824540","2687","134029","827800","829802","826599","57180","829802","NA","Sternberg task","83","104342.0","126","1024"
"65","65","826","826","#3d3846","experiment","legacy","legacy","legacy","0","undefined","0","left","126","126","126","0","0","126","126","0","0","126","126","126","0","126","0","Sun Oct 22 13:42:56 2023","The main experiment item","False","Sternbergtask.osexp","C:\Users\User\Desktop","False","mono","False","18","no","white","no","yes","768","legacy","114","11","C:/Users/User/Desktop/subject-2.csv","legacy","3 2 1 4 7","Melodramatic Milgram","4.0.5","2","y","0","right","space","left","right","NA","631.0","54491","4039","631","NA","2","legacy","5","1024","2","48000","-16","experiment","2","even","2","836585","818451","831749","2680","138068","831750","830687","2687","134029","833953","835954","832752","57180","835954","NA","Sternberg task","83","104973.0","127","1024"
"65","65","824","824","#3d3846","experiment","legacy","legacy","legacy","1","undefined","1","left","127","127","127","0","0","127","127","0","0","127","127","127","0","127","0","Sun Oct 22 13:42:56 2023","The main experiment item","False","Sternbergtask.osexp","C:\Users\User\Desktop","False","mono","False","18","no","white","no","yes","768","legacy","115","11","C:/Users/User/Desktop/subject-2.csv","legacy","8 7 3","Melodramatic Milgram","4.0.5","1","y","0","left","space","left","left","NA","598.0","54491","4039","598","NA","2","legacy","3","1024","2","48000","-16","experiment","2","even","8","842456","818451","837654","2680","138068","837655","836592","2687","134029","839856","841857","838655","57180","841857","NA","Sternberg task","84","105571.0","128","1024"
