"acc","accuracy","average_response_time","avg_rt","background","block","canvas_backend","clock_backend","color_backend","compensation","coordinates","correct","correct_instruction1","correct_keyboard_response","correct_response","count_ISI","count_Instructions2","count_correctFeedback","count_expSequence","count_experiment","count_experimentLoop","count_fixation","count_incorrectFeedback","count_instruction1","count_keyboard_response","count_logger","count_memorySet","count_practiceLoop","count_probe","count_thankYou","datetime","description","disable_garbage_collection","experiment_file","experiment_path","font_bold","font_family","font_italic","font_size","font_underline","foreground","form_clicks","fullscreen","height","keyboard_backend","live_row","live_row_practiceLoop","logfile","mouse_backend","numberSet","opensesame_codename","opensesame_version","posInSet","present","repeat_cycle","response","response_Instructions2","response_instruction1","response_keyboard_response","response_thankYou","response_time","response_time_Instructions2","response_time_instruction1","response_time_keyboard_response","response_time_thankYou","round_decimals","sampler_backend","setSize","sound_buf_size","sound_channels","sound_freq","sound_sample_size","start","subject_nr","subject_parity","target","time_ISI","time_Instructions2","time_correctFeedback","time_expSequence","time_experiment","time_experimentLoop","time_fixation","time_incorrectFeedback","time_instruction1","time_keyboard_response","time_logger","time_memorySet","time_practiceLoop","time_probe","time_thankYou","title","total_correct","total_response_time","total_responses","uniform_coordinates","width"
"0","0","2000","2000","black","practice","legacy","legacy","legacy","0","uniform","0","undefined","0","left","0","0","0","0","0","0","0","0","0","0","0","0","0","0","0","10/24/20 21:03:33","The main experiment item","yes","Sternbergtask.osexp","C:\Users\solom\Desktop","no","mono","no","18","no","white","no","yes","768","legacy","0","0","C:/Users/solom/Desktop/MW-subject-2(s).csv","legacy","4 8","Lentiform Loewenfeld","3.3.3","1","y","0","None","NA","right","None","NA","2000","NA","30922","2000","NA","2","legacy","2","1024","2","48000","-16","experiment","2","even","4","40050","NA","NA","37837","4238","NA","37842","NA","4247","42054","44054","38846","35171","42054","NA","Sternberg task","0","2000","1","yes","1024"
"0","0","1848.5","1848.5","black","practice","legacy","legacy","legacy","0","uniform","0","undefined","0","left","1","0","1","1","0","0","1","1","0","1","1","1","0","1","0","10/24/20 21:03:33","The main experiment item","yes","Sternbergtask.osexp","C:\Users\solom\Desktop","no","mono","no","18","no","white","no","yes","768","legacy","1","1","C:/Users/solom/Desktop/MW-subject-2(s).csv","legacy","6","Lentiform Loewenfeld","3.3.3","1","y","0","right","NA","right","right","NA","1697","NA","30922","1697","NA","2","legacy","1","1024","2","48000","-16","experiment","2","even","6","47754","NA","NA","45541","4238","NA","45546","44305","4247","49759","51457","46549","35171","49758","NA","Sternberg task","0","3697","2","yes","1024"
"0","0","1899.33333333","1899.33333333","black","practice","legacy","legacy","legacy","0","uniform","0","undefined","0","left","2","0","2","2","0","0","2","2","0","2","2","2","0","2","0","10/24/20 21:03:33","The main experiment item","yes","Sternbergtask.osexp","C:\Users\solom\Desktop","no","mono","no","18","no","white","no","yes","768","legacy","2","2","C:/Users/solom/Desktop/MW-subject-2(s).csv","legacy","4 3 1 7 9 8","Lentiform Loewenfeld","3.3.3","1","y","0","None","NA","right","None","NA","2001","NA","30922","2001","NA","2","legacy","6","1024","2","48000","-16","experiment","2","even","4","54954","NA","NA","52742","4238","NA","52747","51542","4247","56959","58960","53751","35171","56959","NA","Sternberg task","0","5698","3","yes","1024"
"25","25","1625.75","1625.75","black","practice","legacy","legacy","legacy","0","uniform","1","undefined","1","right","3","0","3","3","0","0","3","3","0","3","3","3","0","3","0","10/24/20 21:03:33","The main experiment item","yes","Sternbergtask.osexp","C:\Users\solom\Desktop","no","mono","no","18","no","white","no","yes","768","legacy","3","3","C:/Users/solom/Desktop/MW-subject-2(s).csv","legacy","2 1","Lentiform Loewenfeld","3.3.3","0","n","0","right","NA","right","right","NA","805","NA","30922","805","NA","2","legacy","2","1024","2","48000","-16","experiment","2","even","5","62814","NA","NA","60601","4238","NA","60605","59382","4247","64819","65625","61609","35171","64818","NA","Sternberg task","1","6503","4","yes","1024"
"20","20","1386.2","1386.2","black","practice","legacy","legacy","legacy","0","uniform","0","undefined","0","right","4","0","4","4","0","0","4","4","0","4","4","4","0","4","0","10/24/20 21:03:33","The main experiment item","yes","Sternbergtask.osexp","C:\Users\solom\Desktop","no","mono","no","18","no","white","no","yes","768","legacy","4","4","C:/Users/solom/Desktop/MW-subject-2(s).csv","legacy","5 7 8 4 1 2","Lentiform Loewenfeld","3.3.3","0","n","0","left","NA","right","left","NA","428","NA","30922","428","NA","2","legacy","6","1024","2","48000","-16","experiment","2","even","6","69079","NA","65653","66866","4238","NA","66871","59382","4247","71085","71514","67876","35171","71085","NA","Sternberg task","1","6931","5","yes","1024"
"33.3333333333","33.3333333333","1233","1233","black","practice","legacy","legacy","legacy","0","uniform","1","undefined","1","left","5","0","5","5","0","0","5","5","0","5","5","5","0","5","0","10/24/20 21:03:33","The main experiment item","yes","Sternbergtask.osexp","C:\Users\solom\Desktop","no","mono","no","18","no","white","no","yes","768","legacy","5","5","C:/Users/solom/Desktop/MW-subject-2(s).csv","legacy","1 5 2 9","Lentiform Loewenfeld","3.3.3","2","y","0","left","NA","right","left","NA","467","NA","30922","467","NA","2","legacy","4","1024","2","48000","-16","experiment","2","even","5","74952","NA","65653","72739","4238","NA","72743","71538","4247","76957","77426","73746","35171","76957","NA","Sternberg task","2","7398","6","yes","1024"
"42.8571428571","42.8571428571","1173.28571429","1173.28571429","black","practice","legacy","legacy","legacy","0","uniform","1","undefined","1","left","6","0","6","6","0","0","6","6","0","6","6","6","0","6","0","10/24/20 21:03:33","The main experiment item","yes","Sternbergtask.osexp","C:\Users\solom\Desktop","no","mono","no","18","no","white","no","yes","768","legacy","6","6","C:/Users/solom/Desktop/MW-subject-2(s).csv","legacy","1 7 9 8 5","Lentiform Loewenfeld","3.3.3","4","y","0","left","NA","right","left","NA","815","NA","30922","815","NA","2","legacy","5","1024","2","48000","-16","experiment","2","even","8","80861","NA","77447","78645","4238","NA","78650","71538","4247","82866","83682","79655","35171","82866","NA","Sternberg task","3","8213","7","yes","1024"
"50","50","1250.875","1250.875","black","practice","legacy","legacy","legacy","0","uniform","1","undefined","1","right","7","0","7","7","0","0","7","7","0","7","7","7","0","7","0","10/24/20 21:03:33","The main experiment item","yes","Sternbergtask.osexp","C:\Users\solom\Desktop","no","mono","no","18","no","white","no","yes","768","legacy","7","7","C:/Users/solom/Desktop/MW-subject-2(s).csv","legacy","3 1 9 4","Lentiform Loewenfeld","3.3.3","0","n","0","right","NA","right","right","NA","1794","NA","30922","1794","NA","2","legacy","4","1024","2","48000","-16","experiment","2","even","6","87121","NA","83704","84906","4238","NA","84910","71538","4247","89126","90921","85914","35171","89126","NA","Sternberg task","4","10007","8","yes","1024"
"55.5555555556","55.5555555556","1213.88888889","1213.88888889","black","practice","legacy","legacy","legacy","0","uniform","1","undefined","1","right","8","0","8","8","0","0","8","8","0","8","8","8","0","8","0","10/24/20 21:03:33","The main experiment item","yes","Sternbergtask.osexp","C:\Users\solom\Desktop","no","mono","no","18","no","white","no","yes","768","legacy","8","8","C:/Users/solom/Desktop/MW-subject-2(s).csv","legacy","9 6 7 4 5","Lentiform Loewenfeld","3.3.3","0","n","0","right","NA","right","right","NA","918","NA","30922","918","NA","2","legacy","5","1024","2","48000","-16","experiment","2","even","3","94356","NA","90943","92143","4238","NA","92147","71538","4247","96362","97282","93152","35171","96361","NA","Sternberg task","5","10925","9","yes","1024"
"60","60","1259.3","1259.3","black","practice","legacy","legacy","legacy","0","uniform","1","undefined","1","right","9","0","9","9","0","0","9","9","0","9","9","9","0","9","0","10/24/20 21:03:33","The main experiment item","yes","Sternbergtask.osexp","C:\Users\solom\Desktop","no","mono","no","18","no","white","no","yes","768","legacy","9","9","C:/Users/solom/Desktop/MW-subject-2(s).csv","legacy","5","Lentiform Loewenfeld","3.3.3","0","n","0","right","NA","right","right","NA","1668","NA","30922","1668","NA","2","legacy","1","1024","2","48000","-16","experiment","2","even","3","100726","NA","97311","98511","4238","NA","98515","71538","4247","102733","104402","99521","35171","102732","NA","Sternberg task","6","12593","10","yes","1024"
"63.6363636364","63.6363636364","1246.09090909","1246.09090909","black","practice","legacy","legacy","legacy","0","uniform","1","undefined","1","right","10","0","10","10","0","0","10","10","0","10","10","10","0","10","0","10/24/20 21:03:33","The main experiment item","yes","Sternbergtask.osexp","C:\Users\solom\Desktop","no","mono","no","18","no","white","no","yes","768","legacy","10","10","C:/Users/solom/Desktop/MW-subject-2(s).csv","legacy","4 1 5","Lentiform Loewenfeld","3.3.3","0","n","0","right","NA","right","right","NA","1114","NA","30922","1114","NA","2","legacy","3","1024","2","48000","-16","experiment","2","even","2","107840","NA","104427","105626","4238","NA","105630","71538","4247","109846","110961","106635","35171","109846","NA","Sternberg task","7","13707","11","yes","1024"
"66.6666666667","66.6666666667","1256.41666667","1256.41666667","black","practice","legacy","legacy","legacy","0","uniform","1","undefined","1","left","11","0","11","11","0","0","11","11","0","11","11","11","0","11","0","10/24/20 21:03:33","The main experiment item","yes","Sternbergtask.osexp","C:\Users\solom\Desktop","no","mono","no","18","no","white","no","yes","768","legacy","11","11","C:/Users/solom/Desktop/MW-subject-2(s).csv","legacy","2 9 4","Lentiform Loewenfeld","3.3.3","3","y","0","left","NA","right","left","NA","1370","NA","30922","1370","NA","2","legacy","3","1024","2","48000","-16","experiment","2","even","4","114400","NA","110986","112185","4238","NA","112189","71538","4247","116406","117777","113194","35171","116406","NA","Sternberg task","8","15077","12","yes","1024"
"69.2307692308","69.2307692308","1220.46153846","1220.46153846","black","experiment","legacy","legacy","legacy","0","uniform","1","undefined","1","left","12","0","12","12","0","0","12","12","0","12","12","12","0","12","0","10/24/20 21:03:33","The main experiment item","yes","Sternbergtask.osexp","C:\Users\solom\Desktop","no","mono","no","18","no","white","no","yes","768","legacy","0","11","C:/Users/solom/Desktop/MW-subject-2(s).csv","legacy","6 9 7 4 5 1","Lentiform Loewenfeld","3.3.3","2","y","0","left","right","right","left","NA","789","10972","30922","789","NA","2","legacy","6","1024","2","48000","-16","experiment","2","even","9","132316","118845","117797","130100","4238","129818","130104","71538","4247","134323","135113","131110","35171","134322","NA","Sternberg task","9","15866","13","yes","1024"
"71.4285714286","71.4285714286","1175.21428571","1175.21428571","black","experiment","legacy","legacy","legacy","0","uniform","1","undefined","1","left","13","0","13","13","0","0","13","13","0","13","13","13","0","13","0","10/24/20 21:03:33","The main experiment item","yes","Sternbergtask.osexp","C:\Users\solom\Desktop","no","mono","no","18","no","white","no","yes","768","legacy","1","11","C:/Users/solom/Desktop/MW-subject-2(s).csv","legacy","6 5","Lentiform Loewenfeld","3.3.3","2","y","0","left","right","right","left","NA","587","10972","30922","587","NA","2","legacy","2","1024","2","48000","-16","experiment","2","even","5","138553","118845","135136","136338","4238","129818","136342","71538","4247","140558","141146","137347","35171","140558","NA","Sternberg task","10","16453","14","yes","1024"
"73.3333333333","73.3333333333","1141.26666667","1141.26666667","black","experiment","legacy","legacy","legacy","0","uniform","1","undefined","1","left","14","0","14","14","0","0","14","14","0","14","14","14","0","14","0","10/24/20 21:03:33","The main experiment item","yes","Sternbergtask.osexp","C:\Users\solom\Desktop","no","mono","no","18","no","white","no","yes","768","legacy","2","11","C:/Users/solom/Desktop/MW-subject-2(s).csv","legacy","7 8 6 3 1","Lentiform Loewenfeld","3.3.3","5","y","0","left","right","right","left","NA","666","10972","30922","666","NA","2","legacy","5","1024","2","48000","-16","experiment","2","even","1","144585","118845","141171","142369","4238","129818","142373","71538","4247","146590","147258","143379","35171","146590","NA","Sternberg task","11","17119","15","yes","1024"
"75","75","1105.9375","1105.9375","black","experiment","legacy","legacy","legacy","0","uniform","1","undefined","1","right","15","0","15","15","0","0","15","15","0","15","15","15","0","15","0","10/24/20 21:03:33","The main experiment item","yes","Sternbergtask.osexp","C:\Users\solom\Desktop","no","mono","no","18","no","white","no","yes","768","legacy","3","11","C:/Users/solom/Desktop/MW-subject-2(s).csv","legacy","9","Lentiform Loewenfeld","3.3.3","0","n","0","right","right","right","right","NA","576","10972","30922","576","NA","2","legacy","1","1024","2","48000","-16","experiment","2","even","6","150691","118845","147281","148476","4238","129818","148481","71538","4247","152696","153274","149486","35171","152695","NA","Sternberg task","12","17695","16","yes","1024"
"76.4705882353","76.4705882353","1099.41176471","1099.41176471","black","experiment","legacy","legacy","legacy","0","uniform","1","undefined","1","left","16","0","16","16","0","0","16","16","0","16","16","16","0","16","0","10/24/20 21:03:33","The main experiment item","yes","Sternbergtask.osexp","C:\Users\solom\Desktop","no","mono","no","18","no","white","no","yes","768","legacy","4","11","C:/Users/solom/Desktop/MW-subject-2(s).csv","legacy","9 5 8 1","Lentiform Loewenfeld","3.3.3","2","y","0","left","right","right","left","NA","995","10972","30922","995","NA","2","legacy","4","1024","2","48000","-16","experiment","2","even","5","156703","118845","153295","154490","4238","129818","154494","71538","4247","158710","159706","155498","35171","158710","NA","Sternberg task","13","18690","17","yes","1024"
"77.7777777778","77.7777777778","1061.22222222","1061.22222222","black","experiment","legacy","legacy","legacy","0","uniform","1","undefined","1","left","17","0","17","17","0","0","17","17","0","17","17","17","0","17","0","10/24/20 21:03:33","The main experiment item","yes","Sternbergtask.osexp","C:\Users\solom\Desktop","no","mono","no","18","no","white","no","yes","768","legacy","5","11","C:/Users/solom/Desktop/MW-subject-2(s).csv","legacy","3 5 9 6 2 4","Lentiform Loewenfeld","3.3.3","1","y","0","left","right","right","left","NA","412","10972","30922","412","NA","2","legacy","6","1024","2","48000","-16","experiment","2","even","3","163150","118845","159735","160935","4238","129818","160939","71538","4247","165156","165569","161944","35171","165156","NA","Sternberg task","14","19102","18","yes","1024"
"78.9473684211","78.9473684211","1035.36842105","1035.36842105","black","experiment","legacy","legacy","legacy","0","uniform","1","undefined","1","left","18","0","18","18","0","0","18","18","0","18","18","18","0","18","0","10/24/20 21:03:33","The main experiment item","yes","Sternbergtask.osexp","C:\Users\solom\Desktop","no","mono","no","18","no","white","no","yes","768","legacy","6","11","C:/Users/solom/Desktop/MW-subject-2(s).csv","legacy","2 8 5 1","Lentiform Loewenfeld","3.3.3","4","y","0","left","right","right","left","NA","570","10972","30922","570","NA","2","legacy","4","1024","2","48000","-16","experiment","2","even","1","169002","118845","165587","166787","4238","129818","166791","71538","4247","171007","171578","167796","35171","171006","NA","Sternberg task","15","19672","19","yes","1024"
"75","75","1083.6","1083.6","black","experiment","legacy","legacy","legacy","0","uniform","0","undefined","0","left","19","0","19","19","0","0","19","19","0","19","19","19","0","19","0","10/24/20 21:03:33","The main experiment item","yes","Sternbergtask.osexp","C:\Users\solom\Desktop","no","mono","no","18","no","white","no","yes","768","legacy","7","11","C:/Users/solom/Desktop/MW-subject-2(s).csv","legacy","6 9 3 1","Lentiform Loewenfeld","3.3.3","4","y","0","None","right","right","None","NA","2000","10972","30922","2000","NA","2","legacy","4","1024","2","48000","-16","experiment","2","even","1","175017","118845","171605","172801","4238","129818","172805","71538","4247","177025","179026","173811","35171","177023","NA","Sternberg task","15","21672","20","yes","1024"
"76.1904761905","76.1904761905","1060.76190476","1060.76190476","black","experiment","legacy","legacy","legacy","0","uniform","1","undefined","1","left","20","0","20","20","0","0","20","20","0","20","20","20","0","20","0","10/24/20 21:03:33","The main experiment item","yes","Sternbergtask.osexp","C:\Users\solom\Desktop","no","mono","no","18","no","white","no","yes","768","legacy","8","11","C:/Users/solom/Desktop/MW-subject-2(s).csv","legacy","8 5 3 7 4 6","Lentiform Loewenfeld","3.3.3","6","y","0","left","right","right","left","NA","604","10972","30922","604","NA","2","legacy","6","1024","2","48000","-16","experiment","2","even","6","182461","118845","171605","180246","4238","129818","180250","179048","4247","184468","185074","181255","35171","184467","NA","Sternberg task","16","22276","21","yes","1024"
"77.2727272727","77.2727272727","1052.40909091","1052.40909091","black","experiment","legacy","legacy","legacy","0","uniform","1","undefined","1","right","21","0","21","21","0","0","21","21","0","21","21","21","0","21","0","10/24/20 21:03:33","The main experiment item","yes","Sternbergtask.osexp","C:\Users\solom\Desktop","no","mono","no","18","no","white","no","yes","768","legacy","9","11","C:/Users/solom/Desktop/MW-subject-2(s).csv","legacy","6 2 9 3 8 4","Lentiform Loewenfeld","3.3.3","0","n","0","right","right","right","right","NA","877","10972","30922","877","NA","2","legacy","6","1024","2","48000","-16","experiment","2","even","1","188509","118845","185096","186294","4238","129818","186298","179048","4247","190515","191394","187303","35171","190515","NA","Sternberg task","17","23153","22","yes","1024"
"78.2608695652","78.2608695652","1028.82608696","1028.82608696","black","experiment","legacy","legacy","legacy","0","uniform","1","undefined","1","left","22","0","22","22","0","0","22","22","0","22","22","22","0","22","0","10/24/20 21:03:33","The main experiment item","yes","Sternbergtask.osexp","C:\Users\solom\Desktop","no","mono","no","18","no","white","no","yes","768","legacy","10","11","C:/Users/solom/Desktop/MW-subject-2(s).csv","legacy","7 4 2 6 3 5","Lentiform Loewenfeld","3.3.3","6","y","0","left","right","right","left","NA","510","10972","30922","510","NA","2","legacy","6","1024","2","48000","-16","experiment","2","even","5","194829","118845","191415","192613","4238","129818","192617","179048","4247","196834","197345","193623","35171","196834","NA","Sternberg task","18","23663","23","yes","1024"
"75","75","1069.29166667","1069.29166667","black","experiment","legacy","legacy","legacy","0","uniform","0","undefined","0","right","23","0","23","23","0","0","23","23","0","23","23","23","0","23","0","10/24/20 21:03:33","The main experiment item","yes","Sternbergtask.osexp","C:\Users\solom\Desktop","no","mono","no","18","no","white","no","yes","768","legacy","11","11","C:/Users/solom/Desktop/MW-subject-2(s).csv","legacy","4 2 6 9","Lentiform Loewenfeld","3.3.3","0","n","0","None","right","right","None","NA","2000","10972","30922","2000","NA","2","legacy","4","1024","2","48000","-16","experiment","2","even","7","200784","118845","197371","198567","4238","129818","198571","179048","4247","202790","204791","199577","35171","202790","NA","Sternberg task","18","25663","24","yes","1024"
"72","72","1046","1046","black","experiment","legacy","legacy","legacy","0","uniform","0","undefined","0","right","24","0","24","24","0","0","24","24","0","24","24","24","0","24","0","10/24/20 21:03:33","The main experiment item","yes","Sternbergtask.osexp","C:\Users\solom\Desktop","no","mono","no","18","no","white","no","yes","768","legacy","12","11","C:/Users/solom/Desktop/MW-subject-2(s).csv","legacy","7 3 2 8","Lentiform Loewenfeld","3.3.3","0","n","0","left","right","right","left","NA","487","10972","30922","487","NA","2","legacy","4","1024","2","48000","-16","experiment","2","even","4","208218","118845","197371","206004","4238","129818","206009","204806","4247","210225","210714","207012","35171","210224","NA","Sternberg task","18","26150","25","yes","1024"
"73.0769230769","73.0769230769","1032.69230769","1032.69230769","black","experiment","legacy","legacy","legacy","0","uniform","1","undefined","1","right","25","0","25","25","0","0","25","25","0","25","25","25","0","25","0","10/24/20 21:03:33","The main experiment item","yes","Sternbergtask.osexp","C:\Users\solom\Desktop","no","mono","no","18","no","white","no","yes","768","legacy","13","11","C:/Users/solom/Desktop/MW-subject-2(s).csv","legacy","2 8 6 3 1","Lentiform Loewenfeld","3.3.3","0","n","0","right","right","right","right","NA","700","10972","30922","700","NA","2","legacy","5","1024","2","48000","-16","experiment","2","even","7","214149","118845","197371","211933","4238","129818","211937","210732","4247","216156","216858","212944","35171","216154","NA","Sternberg task","19","26850","26","yes","1024"
"74.0740740741","74.0740740741","1016.96296296","1016.96296296","black","experiment","legacy","legacy","legacy","0","uniform","1","undefined","1","left","26","0","26","26","0","0","26","26","0","26","26","26","0","26","0","10/24/20 21:03:33","The main experiment item","yes","Sternbergtask.osexp","C:\Users\solom\Desktop","no","mono","no","18","no","white","no","yes","768","legacy","14","11","C:/Users/solom/Desktop/MW-subject-2(s).csv","legacy","9 5 3 8 4","Lentiform Loewenfeld","3.3.3","1","y","0","left","right","right","left","NA","608","10972","30922","608","NA","2","legacy","5","1024","2","48000","-16","experiment","2","even","9","220297","118845","216884","218081","4238","129818","218085","210732","4247","222304","222914","219091","35171","222303","NA","Sternberg task","20","27458","27","yes","1024"
"75","75","996.928571429","996.928571429","black","experiment","legacy","legacy","legacy","0","uniform","1","undefined","1","left","27","0","27","27","0","0","27","27","0","27","27","27","0","27","0","10/24/20 21:03:33","The main experiment item","yes","Sternbergtask.osexp","C:\Users\solom\Desktop","no","mono","no","18","no","white","no","yes","768","legacy","15","11","C:/Users/solom/Desktop/MW-subject-2(s).csv","legacy","5 2 6","Lentiform Loewenfeld","3.3.3","2","y","0","left","right","right","left","NA","456","10972","30922","456","NA","2","legacy","3","1024","2","48000","-16","experiment","2","even","2","226346","118845","222933","224130","4238","129818","224135","210732","4247","228353","228811","225140","35171","228352","NA","Sternberg task","21","27914","28","yes","1024"
"75.8620689655","75.8620689655","978.75862069","978.75862069","black","experiment","legacy","legacy","legacy","0","uniform","1","undefined","1","left","28","0","28","28","0","0","28","28","0","28","28","28","0","28","0","10/24/20 21:03:33","The main experiment item","yes","Sternbergtask.osexp","C:\Users\solom\Desktop","no","mono","no","18","no","white","no","yes","768","legacy","16","11","C:/Users/solom/Desktop/MW-subject-2(s).csv","legacy","6 2","Lentiform Loewenfeld","3.3.3","1","y","0","left","right","right","left","NA","470","10972","30922","470","NA","2","legacy","2","1024","2","48000","-16","experiment","2","even","6","232255","118845","228835","230038","4238","129818","230043","210732","4247","234258","234730","231048","35171","234258","NA","Sternberg task","22","28384","29","yes","1024"
"76.6666666667","76.6666666667","963.8","963.8","black","experiment","legacy","legacy","legacy","0","uniform","1","undefined","1","left","29","0","29","29","0","0","29","29","0","29","29","29","0","29","0","10/24/20 21:03:33","The main experiment item","yes","Sternbergtask.osexp","C:\Users\solom\Desktop","no","mono","no","18","no","white","no","yes","768","legacy","17","11","C:/Users/solom/Desktop/MW-subject-2(s).csv","legacy","8 5 4 7 3 1","Lentiform Loewenfeld","3.3.3","2","y","0","left","right","right","left","NA","530","10972","30922","530","NA","2","legacy","6","1024","2","48000","-16","experiment","2","even","5","238162","118845","234748","235948","4238","129818","235952","210732","4247","240167","240698","236957","35171","240167","NA","Sternberg task","23","28914","30","yes","1024"
"77.4193548387","77.4193548387","947.129032258","947.129032258","black","experiment","legacy","legacy","legacy","0","uniform","1","undefined","1","left","30","0","30","30","0","0","30","30","0","30","30","30","0","30","0","10/24/20 21:03:33","The main experiment item","yes","Sternbergtask.osexp","C:\Users\solom\Desktop","no","mono","no","18","no","white","no","yes","768","legacy","18","11","C:/Users/solom/Desktop/MW-subject-2(s).csv","legacy","6 7 8 5","Lentiform Loewenfeld","3.3.3","3","y","0","left","right","right","left","NA","447","10972","30922","447","NA","2","legacy","4","1024","2","48000","-16","experiment","2","even","8","244130","118845","240717","241915","4238","129818","241919","210732","4247","246137","246586","242925","35171","246136","NA","Sternberg task","24","29361","31","yes","1024"
"78.125","78.125","940.1875","940.1875","black","experiment","legacy","legacy","legacy","0","uniform","1","undefined","1","right","31","0","31","31","0","0","31","31","0","31","31","31","0","31","0","10/24/20 21:03:33","The main experiment item","yes","Sternbergtask.osexp","C:\Users\solom\Desktop","no","mono","no","18","no","white","no","yes","768","legacy","19","11","C:/Users/solom/Desktop/MW-subject-2(s).csv","legacy","9 8 2 7 4","Lentiform Loewenfeld","3.3.3","0","n","0","right","right","right","right","NA","725","10972","30922","725","NA","2","legacy","5","1024","2","48000","-16","experiment","2","even","5","250015","118845","246602","247800","4238","129818","247804","210732","4247","252019","252746","248809","35171","252019","NA","Sternberg task","25","30086","32","yes","1024"
"78.7878787879","78.7878787879","930.212121212","930.212121212","black","experiment","legacy","legacy","legacy","0","uniform","1","undefined","1","right","32","0","32","32","0","0","32","32","0","32","32","32","0","32","0","10/24/20 21:03:33","The main experiment item","yes","Sternbergtask.osexp","C:\Users\solom\Desktop","no","mono","no","18","no","white","no","yes","768","legacy","20","11","C:/Users/solom/Desktop/MW-subject-2(s).csv","legacy","2 3 8 5 6 7","Lentiform Loewenfeld","3.3.3","0","n","0","right","right","right","right","NA","611","10972","30922","611","NA","2","legacy","6","1024","2","48000","-16","experiment","2","even","1","256185","118845","252773","253970","4238","129818","253974","210732","4247","258189","258802","254979","35171","258189","NA","Sternberg task","26","30697","33","yes","1024"
"79.4117647059","79.4117647059","951.147058824","951.147058824","black","experiment","legacy","legacy","legacy","0","uniform","1","undefined","1","left","33","0","33","33","0","0","33","33","0","33","33","33","0","33","0","10/24/20 21:03:33","The main experiment item","yes","Sternbergtask.osexp","C:\Users\solom\Desktop","no","mono","no","18","no","white","no","yes","768","legacy","21","11","C:/Users/solom/Desktop/MW-subject-2(s).csv","legacy","5 7 8 2 3 8","Lentiform Loewenfeld","3.3.3","5","y","0","left","right","right","left","NA","1642","10972","30922","1642","NA","2","legacy","6","1024","2","48000","-16","experiment","2","even","3","262240","118845","258822","260025","4238","129818","260029","210732","4247","264246","265890","261034","35171","264246","NA","Sternberg task","27","32339","34","yes","1024"
"80","80","945.828571429","945.828571429","black","experiment","legacy","legacy","legacy","0","uniform","1","undefined","1","right","34","0","34","34","0","0","34","34","0","34","34","34","0","34","0","10/24/20 21:03:33","The main experiment item","yes","Sternbergtask.osexp","C:\Users\solom\Desktop","no","mono","no","18","no","white","no","yes","768","legacy","22","11","C:/Users/solom/Desktop/MW-subject-2(s).csv","legacy","1 4 3 6 5","Lentiform Loewenfeld","3.3.3","0","n","0","right","right","right","right","NA","765","10972","30922","765","NA","2","legacy","5","1024","2","48000","-16","experiment","2","even","8","269332","118845","265921","267117","4238","129818","267121","210732","4247","271339","272106","268126","35171","271339","NA","Sternberg task","28","33104","35","yes","1024"
"80.5555555556","80.5555555556","959","959","black","experiment","legacy","legacy","legacy","0","uniform","1","undefined","1","left","35","0","35","35","0","0","35","35","0","35","35","35","0","35","0","10/24/20 21:03:33","The main experiment item","yes","Sternbergtask.osexp","C:\Users\solom\Desktop","no","mono","no","18","no","white","no","yes","768","legacy","23","11","C:/Users/solom/Desktop/MW-subject-2(s).csv","legacy","4 1 8 7 5","Lentiform Loewenfeld","3.3.3","3","y","0","left","right","right","left","NA","1420","10972","30922","1420","NA","2","legacy","5","1024","2","48000","-16","experiment","2","even","8","275550","118845","272135","273335","4238","129818","273339","210732","4247","277556","278978","274345","35171","277556","NA","Sternberg task","29","34524","36","yes","1024"
"78.3783783784","78.3783783784","949.378378378","949.378378378","black","experiment","legacy","legacy","legacy","0","uniform","0","undefined","0","left","36","0","36","36","0","0","36","36","0","36","36","36","0","36","0","10/24/20 21:03:33","The main experiment item","yes","Sternbergtask.osexp","C:\Users\solom\Desktop","no","mono","no","18","no","white","no","yes","768","legacy","24","11","C:/Users/solom/Desktop/MW-subject-2(s).csv","legacy","5 7 3 6 2","Lentiform Loewenfeld","3.3.3","5","y","0","right","right","right","right","NA","603","10972","30922","603","NA","2","legacy","5","1024","2","48000","-16","experiment","2","even","2","282408","118845","278995","280195","4238","129818","280199","210732","4247","284414","285019","281204","35171","284413","NA","Sternberg task","29","35127","37","yes","1024"
"78.9473684211","78.9473684211","938.447368421","938.447368421","black","experiment","legacy","legacy","legacy","0","uniform","1","undefined","1","left","37","0","37","37","0","0","37","37","0","37","37","37","0","37","0","10/24/20 21:03:33","The main experiment item","yes","Sternbergtask.osexp","C:\Users\solom\Desktop","no","mono","no","18","no","white","no","yes","768","legacy","25","11","C:/Users/solom/Desktop/MW-subject-2(s).csv","legacy","9 6 2 4 1","Lentiform Loewenfeld","3.3.3","4","y","0","left","right","right","left","NA","534","10972","30922","534","NA","2","legacy","5","1024","2","48000","-16","experiment","2","even","4","288451","118845","278995","286236","4238","129818","286240","285039","4247","290458","290995","287246","35171","290457","NA","Sternberg task","30","35661","38","yes","1024"
"79.4871794872","79.4871794872","934.333333333","934.333333333","black","experiment","legacy","legacy","legacy","0","uniform","1","undefined","1","right","38","0","38","38","0","0","38","38","0","38","38","38","0","38","0","10/24/20 21:03:33","The main experiment item","yes","Sternbergtask.osexp","C:\Users\solom\Desktop","no","mono","no","18","no","white","no","yes","768","legacy","26","11","C:/Users/solom/Desktop/MW-subject-2(s).csv","legacy","8 5 7 3 6","Lentiform Loewenfeld","3.3.3","0","n","0","right","right","right","right","NA","778","10972","30922","778","NA","2","legacy","5","1024","2","48000","-16","experiment","2","even","9","294433","118845","291020","292218","4238","129818","292222","285039","4247","296438","297218","293227","35171","296438","NA","Sternberg task","31","36439","39","yes","1024"
"80","80","930.125","930.125","black","experiment","legacy","legacy","legacy","0","uniform","1","undefined","1","left","39","0","39","39","0","0","39","39","0","39","39","39","0","39","0","10/24/20 21:03:33","The main experiment item","yes","Sternbergtask.osexp","C:\Users\solom\Desktop","no","mono","no","18","no","white","no","yes","768","legacy","27","11","C:/Users/solom/Desktop/MW-subject-2(s).csv","legacy","4 3 2 5 8","Lentiform Loewenfeld","3.3.3","2","y","0","left","right","right","left","NA","766","10972","30922","766","NA","2","legacy","5","1024","2","48000","-16","experiment","2","even","3","300667","118845","297258","298455","4238","129818","298459","285039","4247","302674","303442","299462","35171","302674","NA","Sternberg task","32","37205","40","yes","1024"
"80.487804878","80.487804878","923.682926829","923.682926829","black","experiment","legacy","legacy","legacy","0","uniform","1","undefined","1","right","40","0","40","40","0","0","40","40","0","40","40","40","0","40","0","10/24/20 21:03:33","The main experiment item","yes","Sternbergtask.osexp","C:\Users\solom\Desktop","no","mono","no","18","no","white","no","yes","768","legacy","28","11","C:/Users/solom/Desktop/MW-subject-2(s).csv","legacy","2 6 4 3 9","Lentiform Loewenfeld","3.3.3","0","n","0","right","right","right","right","NA","666","10972","30922","666","NA","2","legacy","5","1024","2","48000","-16","experiment","2","even","1","306881","118845","303466","304667","4238","129818","304671","285039","4247","308887","309555","305676","35171","308887","NA","Sternberg task","33","37871","41","yes","1024"
"80.9523809524","80.9523809524","909.047619048","909.047619048","black","experiment","legacy","legacy","legacy","0","uniform","1","undefined","1","left","41","0","41","41","0","0","41","41","0","41","41","41","0","41","0","10/24/20 21:03:33","The main experiment item","yes","Sternbergtask.osexp","C:\Users\solom\Desktop","no","mono","no","18","no","white","no","yes","768","legacy","29","11","C:/Users/solom/Desktop/MW-subject-2(s).csv","legacy","4 9 7 8 5 3","Lentiform Loewenfeld","3.3.3","4","y","0","left","right","right","left","NA","309","10972","30922","309","NA","2","legacy","6","1024","2","48000","-16","experiment","2","even","8","312998","118845","309585","310782","4238","129818","310786","285039","4247","315004","315315","311792","35171","315003","NA","Sternberg task","34","38180","42","yes","1024"
"81.3953488372","81.3953488372","903.674418605","903.674418605","black","experiment","legacy","legacy","legacy","0","uniform","1","undefined","1","left","42","0","42","42","0","0","42","42","0","42","42","42","0","42","0","10/24/20 21:03:33","The main experiment item","yes","Sternbergtask.osexp","C:\Users\solom\Desktop","no","mono","no","18","no","white","no","yes","768","legacy","30","11","C:/Users/solom/Desktop/MW-subject-2(s).csv","legacy","8 9 5 7 1 6","Lentiform Loewenfeld","3.3.3","4","y","0","left","right","right","left","NA","678","10972","30922","678","NA","2","legacy","6","1024","2","48000","-16","experiment","2","even","7","318748","118845","315336","316533","4238","129818","316537","285039","4247","320754","321434","317542","35171","320753","NA","Sternberg task","35","38858","43","yes","1024"
"81.8181818182","81.8181818182","903.977272727","903.977272727","black","experiment","legacy","legacy","legacy","0","uniform","1","undefined","1","left","43","0","43","43","0","0","43","43","0","43","43","43","0","43","0","10/24/20 21:03:33","The main experiment item","yes","Sternbergtask.osexp","C:\Users\solom\Desktop","no","mono","no","18","no","white","no","yes","768","legacy","31","11","C:/Users/solom/Desktop/MW-subject-2(s).csv","legacy","3 2 1 4 7","Lentiform Loewenfeld","3.3.3","2","y","0","left","right","right","left","NA","917","10972","30922","917","NA","2","legacy","5","1024","2","48000","-16","experiment","2","even","2","324871","118845","321458","322658","4238","129818","322662","285039","4247","326876","327795","323667","35171","326875","NA","Sternberg task","36","39775","44","yes","1024"
"82.2222222222","82.2222222222","897.488888889","897.488888889","black","experiment","legacy","legacy","legacy","0","uniform","1","undefined","1","left","44","0","44","44","0","0","44","44","0","44","44","44","0","44","0","10/24/20 21:03:33","The main experiment item","yes","Sternbergtask.osexp","C:\Users\solom\Desktop","no","mono","no","18","no","white","no","yes","768","legacy","32","11","C:/Users/solom/Desktop/MW-subject-2(s).csv","legacy","9 4 2","Lentiform Loewenfeld","3.3.3","1","y","0","left","right","right","left","NA","612","10972","30922","612","NA","2","legacy","3","1024","2","48000","-16","experiment","2","even","9","331226","118845","327815","329013","4238","129818","329017","285039","4247","333229","333843","330020","35171","333229","NA","Sternberg task","37","40387","45","yes","1024"
"82.6086956522","82.6086956522","891.934782609","891.934782609","black","experiment","legacy","legacy","legacy","0","uniform","1","undefined","1","right","45","0","45","45","0","0","45","45","0","45","45","45","0","45","0","10/24/20 21:03:33","The main experiment item","yes","Sternbergtask.osexp","C:\Users\solom\Desktop","no","mono","no","18","no","white","no","yes","768","legacy","33","11","C:/Users/solom/Desktop/MW-subject-2(s).csv","legacy","1 5 3 2 8","Lentiform Loewenfeld","3.3.3","0","n","0","right","right","right","right","NA","642","10972","30922","642","NA","2","legacy","5","1024","2","48000","-16","experiment","2","even","4","337289","118845","333877","335074","4238","129818","335078","285039","4247","339295","339939","336083","35171","339295","NA","Sternberg task","38","41029","46","yes","1024"
"82.9787234043","82.9787234043","894.489361702","894.489361702","black","experiment","legacy","legacy","legacy","0","uniform","1","undefined","1","left","46","0","46","46","0","0","46","46","0","46","46","46","0","46","0","10/24/20 21:03:33","The main experiment item","yes","Sternbergtask.osexp","C:\Users\solom\Desktop","no","mono","no","18","no","white","no","yes","768","legacy","34","11","C:/Users/solom/Desktop/MW-subject-2(s).csv","legacy","3 4 9 6 2 9","Lentiform Loewenfeld","3.3.3","5","y","0","left","right","right","left","NA","1012","10972","30922","1012","NA","2","legacy","6","1024","2","48000","-16","experiment","2","even","2","343384","118845","339971","341169","4238","129818","341173","285039","4247","345389","346403","342178","35171","345388","NA","Sternberg task","39","42041","47","yes","1024"
"83.3333333333","83.3333333333","894.166666667","894.166666667","black","experiment","legacy","legacy","legacy","0","uniform","1","undefined","1","left","47","0","47","47","0","0","47","47","0","47","47","47","0","47","0","10/24/20 21:03:33","The main experiment item","yes","Sternbergtask.osexp","C:\Users\solom\Desktop","no","mono","no","18","no","white","no","yes","768","legacy","35","11","C:/Users/solom/Desktop/MW-subject-2(s).csv","legacy","6 7 9 3 1 2","Lentiform Loewenfeld","3.3.3","1","y","0","left","right","right","left","NA","879","10972","30922","879","NA","2","legacy","6","1024","2","48000","-16","experiment","2","even","6","349845","118845","346430","347630","4238","129818","347634","285039","4247","351850","352731","348639","35171","351849","NA","Sternberg task","40","42920","48","yes","1024"
"81.6326530612","81.6326530612","900.102040816","900.102040816","black","experiment","legacy","legacy","legacy","0","uniform","0","undefined","0","right","48","0","48","48","0","0","48","48","0","48","48","48","0","48","0","10/24/20 21:03:33","The main experiment item","yes","Sternbergtask.osexp","C:\Users\solom\Desktop","no","mono","no","18","no","white","no","yes","768","legacy","36","11","C:/Users/solom/Desktop/MW-subject-2(s).csv","legacy","5 9 2 3","Lentiform Loewenfeld","3.3.3","0","n","0","left","right","right","left","NA","1185","10972","30922","1185","NA","2","legacy","4","1024","2","48000","-16","experiment","2","even","8","356169","118845","352756","353954","4238","129818","353958","285039","4247","358176","359363","354963","35171","358175","NA","Sternberg task","40","44105","49","yes","1024"
"80","80","902.16","902.16","black","experiment","legacy","legacy","legacy","0","uniform","0","undefined","0","right","49","0","49","49","0","0","49","49","0","49","49","49","0","49","0","10/24/20 21:03:33","The main experiment item","yes","Sternbergtask.osexp","C:\Users\solom\Desktop","no","mono","no","18","no","white","no","yes","768","legacy","37","11","C:/Users/solom/Desktop/MW-subject-2(s).csv","legacy","1 6 4 3 9 7","Lentiform Loewenfeld","3.3.3","0","n","0","left","right","right","left","NA","1003","10972","30922","1003","NA","2","legacy","6","1024","2","48000","-16","experiment","2","even","8","362798","118845","352756","360582","4238","129818","360586","359385","4247","364805","365811","361592","35171","364804","NA","Sternberg task","40","45108","50","yes","1024"
"78.431372549","78.431372549","896.470588235","896.470588235","black","experiment","legacy","legacy","legacy","0","uniform","0","undefined","0","right","50","0","50","50","0","0","50","50","0","50","50","50","0","50","0","10/24/20 21:03:33","The main experiment item","yes","Sternbergtask.osexp","C:\Users\solom\Desktop","no","mono","no","18","no","white","no","yes","768","legacy","38","11","C:/Users/solom/Desktop/MW-subject-2(s).csv","legacy","7 6 4 8 1 2","Lentiform Loewenfeld","3.3.3","0","n","0","left","right","right","left","NA","612","10972","30922","612","NA","2","legacy","6","1024","2","48000","-16","experiment","2","even","9","369249","118845","352756","367034","4238","129818","367038","365836","4247","371253","371867","368043","35171","371252","NA","Sternberg task","40","45720","51","yes","1024"
"78.8461538462","78.8461538462","890.096153846","890.096153846","black","experiment","legacy","legacy","legacy","0","uniform","1","undefined","1","right","51","0","51","51","0","0","51","51","0","51","51","51","0","51","0","10/24/20 21:03:33","The main experiment item","yes","Sternbergtask.osexp","C:\Users\solom\Desktop","no","mono","no","18","no","white","no","yes","768","legacy","39","11","C:/Users/solom/Desktop/MW-subject-2(s).csv","legacy","4 8 1 2","Lentiform Loewenfeld","3.3.3","0","n","0","right","right","right","right","NA","565","10972","30922","565","NA","2","legacy","4","1024","2","48000","-16","experiment","2","even","7","375309","118845","352756","373094","4238","129818","373098","371897","4247","377315","377883","374103","35171","377315","NA","Sternberg task","41","46285","52","yes","1024"
"79.2452830189","79.2452830189","884.283018868","884.283018868","black","experiment","legacy","legacy","legacy","0","uniform","1","undefined","1","right","52","0","52","52","0","0","52","52","0","52","52","52","0","52","0","10/24/20 21:03:33","The main experiment item","yes","Sternbergtask.osexp","C:\Users\solom\Desktop","no","mono","no","18","no","white","no","yes","768","legacy","40","11","C:/Users/solom/Desktop/MW-subject-2(s).csv","legacy","5","Lentiform Loewenfeld","3.3.3","0","n","0","right","right","right","right","NA","582","10972","30922","582","NA","2","legacy","1","1024","2","48000","-16","experiment","2","even","8","381318","118845","377907","379105","4238","129818","379109","371897","4247","383323","383907","380114","35171","383322","NA","Sternberg task","42","46867","53","yes","1024"
"79.6296296296","79.6296296296","879.592592593","879.592592593","black","experiment","legacy","legacy","legacy","0","uniform","1","undefined","1","left","53","0","53","53","0","0","53","53","0","53","53","53","0","53","0","10/24/20 21:03:33","The main experiment item","yes","Sternbergtask.osexp","C:\Users\solom\Desktop","no","mono","no","18","no","white","no","yes","768","legacy","41","11","C:/Users/solom/Desktop/MW-subject-2(s).csv","legacy","1 4 9 3 2 5","Lentiform Loewenfeld","3.3.3","3","y","0","left","right","right","left","NA","631","10972","30922","631","NA","2","legacy","6","1024","2","48000","-16","experiment","2","even","9","387347","118845","383934","385131","4238","129818","385135","371897","4247","389354","389988","386141","35171","389353","NA","Sternberg task","43","47498","54","yes","1024"
"78.1818181818","78.1818181818","880.036363636","880.036363636","black","experiment","legacy","legacy","legacy","0","uniform","0","undefined","0","right","54","0","54","54","0","0","54","54","0","54","54","54","0","54","0","10/24/20 21:03:33","The main experiment item","yes","Sternbergtask.osexp","C:\Users\solom\Desktop","no","mono","no","18","no","white","no","yes","768","legacy","42","11","C:/Users/solom/Desktop/MW-subject-2(s).csv","legacy","1 3 2 6 9","Lentiform Loewenfeld","3.3.3","0","n","0","left","right","right","left","NA","904","10972","30922","904","NA","2","legacy","5","1024","2","48000","-16","experiment","2","even","5","393426","118845","390012","391210","4238","129818","391214","371897","4247","395432","396339","392219","35171","395431","NA","Sternberg task","43","48402","55","yes","1024"
"78.5714285714","78.5714285714","877.107142857","877.107142857","black","experiment","legacy","legacy","legacy","0","uniform","1","undefined","1","left","55","0","55","55","0","0","55","55","0","55","55","55","0","55","0","10/24/20 21:03:33","The main experiment item","yes","Sternbergtask.osexp","C:\Users\solom\Desktop","no","mono","no","18","no","white","no","yes","768","legacy","43","11","C:/Users/solom/Desktop/MW-subject-2(s).csv","legacy","2 4 8 5 1 3","Lentiform Loewenfeld","3.3.3","1","y","0","left","right","right","left","NA","716","10972","30922","716","NA","2","legacy","6","1024","2","48000","-16","experiment","2","even","2","399776","118845","390012","397560","4238","129818","397564","396362","4247","401781","402499","398570","35171","401780","NA","Sternberg task","44","49118","56","yes","1024"
"78.9473684211","78.9473684211","871.245614035","871.245614035","black","experiment","legacy","legacy","legacy","0","uniform","1","undefined","1","right","56","0","56","56","0","0","56","56","0","56","56","56","0","56","0","10/24/20 21:03:33","The main experiment item","yes","Sternbergtask.osexp","C:\Users\solom\Desktop","no","mono","no","18","no","white","no","yes","768","legacy","44","11","C:/Users/solom/Desktop/MW-subject-2(s).csv","legacy","1 4 9 3","Lentiform Loewenfeld","3.3.3","0","n","0","right","right","right","right","NA","543","10972","30922","543","NA","2","legacy","4","1024","2","48000","-16","experiment","2","even","5","405940","118845","402523","403726","4238","129818","403730","396362","4247","407946","408491","404735","35171","407946","NA","Sternberg task","45","49661","57","yes","1024"
"79.3103448276","79.3103448276","868.672413793","868.672413793","black","experiment","legacy","legacy","legacy","0","uniform","1","undefined","1","left","57","0","57","57","0","0","57","57","0","57","57","57","0","57","0","10/24/20 21:03:33","The main experiment item","yes","Sternbergtask.osexp","C:\Users\solom\Desktop","no","mono","no","18","no","white","no","yes","768","legacy","45","11","C:/Users/solom/Desktop/MW-subject-2(s).csv","legacy","2 3 7 4","Lentiform Loewenfeld","3.3.3","1","y","0","left","right","right","left","NA","722","10972","30922","722","NA","2","legacy","4","1024","2","48000","-16","experiment","2","even","2","411928","118845","408516","409713","4238","129818","409717","396362","4247","413935","414659","410722","35171","413934","NA","Sternberg task","46","50383","58","yes","1024"
"79.6610169492","79.6610169492","872.728813559","872.728813559","black","experiment","legacy","legacy","legacy","0","uniform","1","undefined","1","left","58","0","58","58","0","0","58","58","0","58","58","58","0","58","0","10/24/20 21:03:33","The main experiment item","yes","Sternbergtask.osexp","C:\Users\solom\Desktop","no","mono","no","18","no","white","no","yes","768","legacy","46","11","C:/Users/solom/Desktop/MW-subject-2(s).csv","legacy","9 3 1 2 5","Lentiform Loewenfeld","3.3.3","4","y","0","left","right","right","left","NA","1108","10972","30922","1108","NA","2","legacy","5","1024","2","48000","-16","experiment","2","even","2","418097","118845","414685","415881","4238","129818","415885","396362","4247","420101","421211","416890","35171","420101","NA","Sternberg task","47","51491","59","yes","1024"
"80","80","871.583333333","871.583333333","black","experiment","legacy","legacy","legacy","0","uniform","1","undefined","1","left","59","0","59","59","0","0","59","59","0","59","59","59","0","59","0","10/24/20 21:03:33","The main experiment item","yes","Sternbergtask.osexp","C:\Users\solom\Desktop","no","mono","no","18","no","white","no","yes","768","legacy","47","11","C:/Users/solom/Desktop/MW-subject-2(s).csv","legacy","3 5 7 1","Lentiform Loewenfeld","3.3.3","3","y","0","left","right","right","left","NA","804","10972","30922","804","NA","2","legacy","4","1024","2","48000","-16","experiment","2","even","7","424656","118845","421236","422441","4238","129818","422445","396362","4247","426661","427467","423450","35171","426661","NA","Sternberg task","48","52295","60","yes","1024"
"78.6885245902","78.6885245902","867.475409836","867.475409836","black","experiment","legacy","legacy","legacy","0","uniform","0","undefined","0","right","60","0","60","60","0","0","60","60","0","60","60","60","0","60","0","10/24/20 21:03:33","The main experiment item","yes","Sternbergtask.osexp","C:\Users\solom\Desktop","no","mono","no","18","no","white","no","yes","768","legacy","48","11","C:/Users/solom/Desktop/MW-subject-2(s).csv","legacy","8 5 4 2 9 6","Lentiform Loewenfeld","3.3.3","0","n","0","left","right","right","left","NA","621","10972","30922","621","NA","2","legacy","6","1024","2","48000","-16","experiment","2","even","3","430908","118845","427497","428694","4238","129818","428698","396362","4247","432915","433539","429703","35171","432914","NA","Sternberg task","48","52916","61","yes","1024"
"79.0322580645","79.0322580645","861.338709677","861.338709677","black","experiment","legacy","legacy","legacy","0","uniform","1","undefined","1","right","61","0","61","61","0","0","61","61","0","61","61","61","0","61","0","10/24/20 21:03:33","The main experiment item","yes","Sternbergtask.osexp","C:\Users\solom\Desktop","no","mono","no","18","no","white","no","yes","768","legacy","49","11","C:/Users/solom/Desktop/MW-subject-2(s).csv","legacy","8 4 3 5","Lentiform Loewenfeld","3.3.3","0","n","0","right","right","right","right","NA","487","10972","30922","487","NA","2","legacy","4","1024","2","48000","-16","experiment","2","even","6","436978","118845","427497","434762","4238","129818","434767","433565","4247","438985","439475","435773","35171","438984","NA","Sternberg task","49","53403","62","yes","1024"
"79.3650793651","79.3650793651","858.777777778","858.777777778","black","experiment","legacy","legacy","legacy","0","uniform","1","undefined","1","left","62","0","62","62","0","0","62","62","0","62","62","62","0","62","0","10/24/20 21:03:33","The main experiment item","yes","Sternbergtask.osexp","C:\Users\solom\Desktop","no","mono","no","18","no","white","no","yes","768","legacy","50","11","C:/Users/solom/Desktop/MW-subject-2(s).csv","legacy","7 8 4 6 9 5","Lentiform Loewenfeld","3.3.3","4","y","0","left","right","right","left","NA","700","10972","30922","700","NA","2","legacy","6","1024","2","48000","-16","experiment","2","even","6","442920","118845","439509","440708","4238","129818","440712","433565","4247","444925","445628","441717","35171","444925","NA","Sternberg task","50","54103","63","yes","1024"
"79.6875","79.6875","853.390625","853.390625","black","experiment","legacy","legacy","legacy","0","uniform","1","undefined","1","right","63","0","63","63","0","0","63","63","0","63","63","63","0","63","0","10/24/20 21:03:33","The main experiment item","yes","Sternbergtask.osexp","C:\Users\solom\Desktop","no","mono","no","18","no","white","no","yes","768","legacy","51","11","C:/Users/solom/Desktop/MW-subject-2(s).csv","legacy","4 1","Lentiform Loewenfeld","3.3.3","0","n","0","right","right","right","right","NA","514","10972","30922","514","NA","2","legacy","2","1024","2","48000","-16","experiment","2","even","6","449066","118845","445652","446850","4238","129818","446854","433565","4247","451071","451588","447860","35171","451071","NA","Sternberg task","51","54617","64","yes","1024"
"80","80","855.8","855.8","black","experiment","legacy","legacy","legacy","0","uniform","1","undefined","1","left","64","0","64","64","0","0","64","64","0","64","64","64","0","64","0","10/24/20 21:03:33","The main experiment item","yes","Sternbergtask.osexp","C:\Users\solom\Desktop","no","mono","no","18","no","white","no","yes","768","legacy","52","11","C:/Users/solom/Desktop/MW-subject-2(s).csv","legacy","8 5 1 3 9","Lentiform Loewenfeld","3.3.3","4","y","0","left","right","right","left","NA","1010","10972","30922","1010","NA","2","legacy","5","1024","2","48000","-16","experiment","2","even","3","455034","118845","451621","452819","4238","129818","452823","433565","4247","457039","458052","453828","35171","457038","NA","Sternberg task","52","55627","65","yes","1024"
"78.7878787879","78.7878787879","859.151515152","859.151515152","black","experiment","legacy","legacy","legacy","0","uniform","0","undefined","0","right","65","0","65","65","0","0","65","65","0","65","65","65","0","65","0","10/24/20 21:03:33","The main experiment item","yes","Sternbergtask.osexp","C:\Users\solom\Desktop","no","mono","no","18","no","white","no","yes","768","legacy","53","11","C:/Users/solom/Desktop/MW-subject-2(s).csv","legacy","3 9 8 1 6 4","Lentiform Loewenfeld","3.3.3","0","n","0","left","right","right","left","NA","1077","10972","30922","1077","NA","2","legacy","6","1024","2","48000","-16","experiment","2","even","7","461494","118845","458081","459279","4238","129818","459283","433565","4247","463499","464579","460289","35171","463498","NA","Sternberg task","52","56704","66","yes","1024"
"79.1044776119","79.1044776119","853.582089552","853.582089552","black","experiment","legacy","legacy","legacy","0","uniform","1","undefined","1","left","66","0","66","66","0","0","66","66","0","66","66","66","0","66","0","10/24/20 21:03:33","The main experiment item","yes","Sternbergtask.osexp","C:\Users\solom\Desktop","no","mono","no","18","no","white","no","yes","768","legacy","54","11","C:/Users/solom/Desktop/MW-subject-2(s).csv","legacy","4","Lentiform Loewenfeld","3.3.3","1","y","0","left","right","right","left","NA","486","10972","30922","486","NA","2","legacy","1","1024","2","48000","-16","experiment","2","even","4","468020","118845","458081","465804","4238","129818","465809","464609","4247","470027","470516","466814","35171","470027","NA","Sternberg task","53","57190","67","yes","1024"
"77.9411764706","77.9411764706","852.058823529","852.058823529","black","experiment","legacy","legacy","legacy","0","uniform","0","undefined","0","left","67","0","67","67","0","0","67","67","0","67","67","67","0","67","0","10/24/20 21:03:33","The main experiment item","yes","Sternbergtask.osexp","C:\Users\solom\Desktop","no","mono","no","18","no","white","no","yes","768","legacy","55","11","C:/Users/solom/Desktop/MW-subject-2(s).csv","legacy","8 7 3","Lentiform Loewenfeld","3.3.3","1","y","0","right","right","right","right","NA","750","10972","30922","750","NA","2","legacy","3","1024","2","48000","-16","experiment","2","even","8","473957","118845","470544","471741","4238","129818","471746","464609","4247","475963","476716","472751","35171","475963","NA","Sternberg task","53","57940","68","yes","1024"
"78.2608695652","78.2608695652","852.492753623","852.492753623","black","experiment","legacy","legacy","legacy","0","uniform","1","undefined","1","left","68","0","68","68","0","0","68","68","0","68","68","68","0","68","0","10/24/20 21:03:33","The main experiment item","yes","Sternbergtask.osexp","C:\Users\solom\Desktop","no","mono","no","18","no","white","no","yes","768","legacy","56","11","C:/Users/solom/Desktop/MW-subject-2(s).csv","legacy","6 8 9 3 4 9","Lentiform Loewenfeld","3.3.3","5","y","0","left","right","right","left","NA","882","10972","30922","882","NA","2","legacy","6","1024","2","48000","-16","experiment","2","even","4","480161","118845","470544","477945","4238","129818","477949","476745","4247","482167","483051","478955","35171","482166","NA","Sternberg task","54","58822","69","yes","1024"
"78.5714285714","78.5714285714","847.842857143","847.842857143","black","experiment","legacy","legacy","legacy","0","uniform","1","undefined","1","left","69","0","69","69","0","0","69","69","0","69","69","69","0","69","0","10/24/20 21:03:33","The main experiment item","yes","Sternbergtask.osexp","C:\Users\solom\Desktop","no","mono","no","18","no","white","no","yes","768","legacy","57","11","C:/Users/solom/Desktop/MW-subject-2(s).csv","legacy","9 1 7 2","Lentiform Loewenfeld","3.3.3","2","y","0","left","right","right","left","NA","527","10972","30922","527","NA","2","legacy","4","1024","2","48000","-16","experiment","2","even","1","486492","118845","483080","484277","4238","129818","484281","476745","4247","488498","489028","485287","35171","488497","NA","Sternberg task","55","59349","70","yes","1024"
"78.8732394366","78.8732394366","847.450704225","847.450704225","black","experiment","legacy","legacy","legacy","0","uniform","1","undefined","1","right","70","0","70","70","0","0","70","70","0","70","70","70","0","70","0","10/24/20 21:03:33","The main experiment item","yes","Sternbergtask.osexp","C:\Users\solom\Desktop","no","mono","no","18","no","white","no","yes","768","legacy","58","11","C:/Users/solom/Desktop/MW-subject-2(s).csv","legacy","3 4 9 6 7 8","Lentiform Loewenfeld","3.3.3","0","n","0","right","right","right","right","NA","820","10972","30922","820","NA","2","legacy","6","1024","2","48000","-16","experiment","2","even","2","492471","118845","489058","490256","4238","129818","490260","476745","4247","494477","495300","491266","35171","494477","NA","Sternberg task","56","60169","71","yes","1024"
"77.7777777778","77.7777777778","844.305555556","844.305555556","black","experiment","legacy","legacy","legacy","0","uniform","0","undefined","0","right","71","0","71","71","0","0","71","71","0","71","71","71","0","71","0","10/24/20 21:03:33","The main experiment item","yes","Sternbergtask.osexp","C:\Users\solom\Desktop","no","mono","no","18","no","white","no","yes","768","legacy","59","11","C:/Users/solom/Desktop/MW-subject-2(s).csv","legacy","1 4 9 2 5","Lentiform Loewenfeld","3.3.3","0","n","0","left","right","right","left","NA","621","10972","30922","621","NA","2","legacy","5","1024","2","48000","-16","experiment","2","even","7","498750","118845","495334","496534","4238","129818","496538","476745","4247","500756","501380","497544","35171","500756","NA","Sternberg task","56","60790","72","yes","1024"
"76.7123287671","76.7123287671","850.178082192","850.178082192","black","experiment","legacy","legacy","legacy","0","uniform","0","undefined","0","right","72","0","72","72","0","0","72","72","0","72","72","72","0","72","0","10/24/20 21:03:33","The main experiment item","yes","Sternbergtask.osexp","C:\Users\solom\Desktop","no","mono","no","18","no","white","no","yes","768","legacy","60","11","C:/Users/solom/Desktop/MW-subject-2(s).csv","legacy","6 9 7 3 8 2","Lentiform Loewenfeld","3.3.3","0","n","0","left","right","right","left","NA","1273","10972","30922","1273","NA","2","legacy","6","1024","2","48000","-16","experiment","2","even","5","504817","118845","495334","502602","4238","129818","502606","501403","4247","506824","508100","503611","35171","506823","NA","Sternberg task","56","62063","73","yes","1024"
"77.027027027","77.027027027","846.797297297","846.797297297","black","experiment","legacy","legacy","legacy","0","uniform","1","undefined","1","left","73","0","73","73","0","0","73","73","0","73","73","73","0","73","0","10/24/20 21:03:33","The main experiment item","yes","Sternbergtask.osexp","C:\Users\solom\Desktop","no","mono","no","18","no","white","no","yes","768","legacy","61","11","C:/Users/solom/Desktop/MW-subject-2(s).csv","legacy","8 3","Lentiform Loewenfeld","3.3.3","2","y","0","left","right","right","left","NA","600","10972","30922","600","NA","2","legacy","2","1024","2","48000","-16","experiment","2","even","3","511532","118845","495334","509318","4238","129818","509322","508121","4247","513537","514141","510327","35171","513537","NA","Sternberg task","57","62663","74","yes","1024"
"77.3333333333","77.3333333333","842.666666667","842.666666667","black","experiment","legacy","legacy","legacy","0","uniform","1","undefined","1","right","74","0","74","74","0","0","74","74","0","74","74","74","0","74","0","10/24/20 21:03:33","The main experiment item","yes","Sternbergtask.osexp","C:\Users\solom\Desktop","no","mono","no","18","no","white","no","yes","768","legacy","62","11","C:/Users/solom/Desktop/MW-subject-2(s).csv","legacy","7 9","Lentiform Loewenfeld","3.3.3","0","n","0","right","right","right","right","NA","537","10972","30922","537","NA","2","legacy","2","1024","2","48000","-16","experiment","2","even","1","517577","118845","514165","515362","4238","129818","515366","508121","4247","519584","520124","516371","35171","519583","NA","Sternberg task","58","63200","75","yes","1024"
"77.6315789474","77.6315789474","839.973684211","839.973684211","black","experiment","legacy","legacy","legacy","0","uniform","1","undefined","1","right","75","0","75","75","0","0","75","75","0","75","75","75","0","75","0","10/24/20 21:03:33","The main experiment item","yes","Sternbergtask.osexp","C:\Users\solom\Desktop","no","mono","no","18","no","white","no","yes","768","legacy","63","11","C:/Users/solom/Desktop/MW-subject-2(s).csv","legacy","8 2 1 4 5 9","Lentiform Loewenfeld","3.3.3","0","n","0","right","right","right","right","NA","638","10972","30922","638","NA","2","legacy","6","1024","2","48000","-16","experiment","2","even","7","523572","118845","520159","521357","4238","129818","521361","508121","4247","525579","526220","522367","35171","525578","NA","Sternberg task","59","63838","76","yes","1024"
"76.6233766234","76.6233766234","840.519480519","840.519480519","black","experiment","legacy","legacy","legacy","0","uniform","0","undefined","0","right","76","0","76","76","0","0","76","76","0","76","76","76","0","76","0","10/24/20 21:03:33","The main experiment item","yes","Sternbergtask.osexp","C:\Users\solom\Desktop","no","mono","no","18","no","white","no","yes","768","legacy","64","11","C:/Users/solom/Desktop/MW-subject-2(s).csv","legacy","1 7 8 3 9","Lentiform Loewenfeld","3.3.3","0","n","0","left","right","right","left","NA","882","10972","30922","882","NA","2","legacy","5","1024","2","48000","-16","experiment","2","even","2","529656","118845","526244","527441","4238","129818","527445","508121","4247","531663","532548","528451","35171","531662","NA","Sternberg task","59","64720","77","yes","1024"
"76.9230769231","76.9230769231","841.692307692","841.692307692","black","experiment","legacy","legacy","legacy","0","uniform","1","undefined","1","right","77","0","77","77","0","0","77","77","0","77","77","77","0","77","0","10/24/20 21:03:33","The main experiment item","yes","Sternbergtask.osexp","C:\Users\solom\Desktop","no","mono","no","18","no","white","no","yes","768","legacy","65","11","C:/Users/solom/Desktop/MW-subject-2(s).csv","legacy","6 7 5 9","Lentiform Loewenfeld","3.3.3","0","n","0","right","right","right","right","NA","932","10972","30922","932","NA","2","legacy","4","1024","2","48000","-16","experiment","2","even","2","535999","118845","526244","533784","4238","129818","533788","532579","4247","538005","538940","534793","35171","538004","NA","Sternberg task","60","65652","78","yes","1024"
"77.2151898734","77.2151898734","841.607594937","841.607594937","black","experiment","legacy","legacy","legacy","0","uniform","1","undefined","1","left","78","0","78","78","0","0","78","78","0","78","78","78","0","78","0","10/24/20 21:03:33","The main experiment item","yes","Sternbergtask.osexp","C:\Users\solom\Desktop","no","mono","no","18","no","white","no","yes","768","legacy","66","11","C:/Users/solom/Desktop/MW-subject-2(s).csv","legacy","2 3","Lentiform Loewenfeld","3.3.3","1","y","0","left","right","right","left","NA","835","10972","30922","835","NA","2","legacy","2","1024","2","48000","-16","experiment","2","even","2","542376","118845","538964","540160","4238","129818","540164","532579","4247","544382","545220","541169","35171","544381","NA","Sternberg task","61","66487","79","yes","1024"
"77.5","77.5","838.775","838.775","black","experiment","legacy","legacy","legacy","0","uniform","1","undefined","1","left","79","0","79","79","0","0","79","79","0","79","79","79","0","79","0","10/24/20 21:03:33","The main experiment item","yes","Sternbergtask.osexp","C:\Users\solom\Desktop","no","mono","no","18","no","white","no","yes","768","legacy","67","11","C:/Users/solom/Desktop/MW-subject-2(s).csv","legacy","7","Lentiform Loewenfeld","3.3.3","1","y","0","left","right","right","left","NA","615","10972","30922","615","NA","2","legacy","1","1024","2","48000","-16","experiment","2","even","7","548662","118845","545250","546447","4238","129818","546452","532579","4247","550667","551285","547456","35171","550667","NA","Sternberg task","62","67102","80","yes","1024"
"77.7777777778","77.7777777778","838.345679012","838.345679012","black","experiment","legacy","legacy","legacy","0","uniform","1","undefined","1","left","80","0","80","80","0","0","80","80","0","80","80","80","0","80","0","10/24/20 21:03:33","The main experiment item","yes","Sternbergtask.osexp","C:\Users\solom\Desktop","no","mono","no","18","no","white","no","yes","768","legacy","68","11","C:/Users/solom/Desktop/MW-subject-2(s).csv","legacy","3 9 6 2","Lentiform Loewenfeld","3.3.3","4","y","0","left","right","right","left","NA","804","10972","30922","804","NA","2","legacy","4","1024","2","48000","-16","experiment","2","even","2","554721","118845","551310","552507","4238","129818","552511","532579","4247","556725","557532","553516","35171","556725","NA","Sternberg task","63","67906","81","yes","1024"
"76.8292682927","76.8292682927","837.548780488","837.548780488","black","experiment","legacy","legacy","legacy","0","uniform","0","undefined","0","right","81","0","81","81","0","0","81","81","0","81","81","81","0","81","0","10/24/20 21:03:33","The main experiment item","yes","Sternbergtask.osexp","C:\Users\solom\Desktop","no","mono","no","18","no","white","no","yes","768","legacy","69","11","C:/Users/solom/Desktop/MW-subject-2(s).csv","legacy","6 9 4 5 3 2","Lentiform Loewenfeld","3.3.3","0","n","0","left","right","right","left","NA","773","10972","30922","773","NA","2","legacy","6","1024","2","48000","-16","experiment","2","even","8","560976","118845","557561","558760","4238","129818","558764","532579","4247","562980","563757","559769","35171","562980","NA","Sternberg task","63","68679","82","yes","1024"
"77.1084337349","77.1084337349","835.313253012","835.313253012","black","experiment","legacy","legacy","legacy","0","uniform","1","undefined","1","right","82","0","82","82","0","0","82","82","0","82","82","82","0","82","0","10/24/20 21:03:33","The main experiment item","yes","Sternbergtask.osexp","C:\Users\solom\Desktop","no","mono","no","18","no","white","no","yes","768","legacy","70","11","C:/Users/solom/Desktop/MW-subject-2(s).csv","legacy","5 3 8 7 2 4","Lentiform Loewenfeld","3.3.3","0","n","0","right","right","right","right","NA","652","10972","30922","652","NA","2","legacy","6","1024","2","48000","-16","experiment","2","even","9","567193","118845","557561","564979","4238","129818","564983","563780","4247","569197","569852","565987","35171","569197","NA","Sternberg task","64","69331","83","yes","1024"
"77.380952381","77.380952381","839","839","black","experiment","legacy","legacy","legacy","0","uniform","1","undefined","1","right","83","0","83","83","0","0","83","83","0","83","83","83","0","83","0","10/24/20 21:03:33","The main experiment item","yes","Sternbergtask.osexp","C:\Users\solom\Desktop","no","mono","no","18","no","white","no","yes","768","legacy","71","11","C:/Users/solom/Desktop/MW-subject-2(s).csv","legacy","7 4 2 8 1 9","Lentiform Loewenfeld","3.3.3","0","n","0","right","right","right","right","NA","1145","10972","30922","1145","NA","2","legacy","6","1024","2","48000","-16","experiment","2","even","5","573289","118845","569874","571074","4238","129818","571078","563780","4247","575296","576445","572083","35171","575296","NA","Sternberg task","65","70476","84","yes","1024"
"77.6470588235","77.6470588235","835.658823529","835.658823529","black","experiment","legacy","legacy","legacy","0","uniform","1","undefined","1","right","84","0","84","84","0","0","84","84","0","84","84","84","0","84","0","10/24/20 21:03:33","The main experiment item","yes","Sternbergtask.osexp","C:\Users\solom\Desktop","no","mono","no","18","no","white","no","yes","768","legacy","72","11","C:/Users/solom/Desktop/MW-subject-2(s).csv","legacy","4 2 7 6 1 3","Lentiform Loewenfeld","3.3.3","0","n","0","right","right","right","right","NA","555","10972","30922","555","NA","2","legacy","6","1024","2","48000","-16","experiment","2","even","8","579881","118845","576468","577667","4238","129818","577671","563780","4247","581886","582444","578676","35171","581886","NA","Sternberg task","66","71031","85","yes","1024"
"77.9069767442","77.9069767442","835.26744186","835.26744186","black","experiment","legacy","legacy","legacy","0","uniform","1","undefined","1","right","85","0","85","85","0","0","85","85","0","85","85","85","0","85","0","10/24/20 21:03:33","The main experiment item","yes","Sternbergtask.osexp","C:\Users\solom\Desktop","no","mono","no","18","no","white","no","yes","768","legacy","73","11","C:/Users/solom/Desktop/MW-subject-2(s).csv","legacy","9 7 4 5 8","Lentiform Loewenfeld","3.3.3","0","n","0","right","right","right","right","NA","802","10972","30922","802","NA","2","legacy","5","1024","2","48000","-16","experiment","2","even","6","585882","118845","582469","583668","4238","129818","583672","563780","4247","587887","588693","584677","35171","587887","NA","Sternberg task","67","71833","86","yes","1024"
"78.1609195402","78.1609195402","834.436781609","834.436781609","black","experiment","legacy","legacy","legacy","0","uniform","1","undefined","1","left","86","0","86","86","0","0","86","86","0","86","86","86","0","86","0","10/24/20 21:03:33","The main experiment item","yes","Sternbergtask.osexp","C:\Users\solom\Desktop","no","mono","no","18","no","white","no","yes","768","legacy","74","11","C:/Users/solom/Desktop/MW-subject-2(s).csv","legacy","7 1 3","Lentiform Loewenfeld","3.3.3","2","y","0","left","right","right","left","NA","763","10972","30922","763","NA","2","legacy","3","1024","2","48000","-16","experiment","2","even","1","592143","118845","588721","589928","4238","129818","589933","563780","4247","594150","594917","590938","35171","594149","NA","Sternberg task","68","72596","87","yes","1024"
"78.4090909091","78.4090909091","834.159090909","834.159090909","black","experiment","legacy","legacy","legacy","0","uniform","1","undefined","1","left","87","0","87","87","0","0","87","87","0","87","87","87","0","87","0","10/24/20 21:03:33","The main experiment item","yes","Sternbergtask.osexp","C:\Users\solom\Desktop","no","mono","no","18","no","white","no","yes","768","legacy","75","11","C:/Users/solom/Desktop/MW-subject-2(s).csv","legacy","4 7 6 8 2 3","Lentiform Loewenfeld","3.3.3","6","y","0","left","right","right","left","NA","810","10972","30922","810","NA","2","legacy","6","1024","2","48000","-16","experiment","2","even","3","598353","118845","594940","596138","4238","129818","596142","563780","4247","600360","601173","597147","35171","600359","NA","Sternberg task","69","73406","88","yes","1024"
"78.6516853933","78.6516853933","831.202247191","831.202247191","black","experiment","legacy","legacy","legacy","0","uniform","1","undefined","1","left","88","0","88","88","0","0","88","88","0","88","88","88","0","88","0","10/24/20 21:03:33","The main experiment item","yes","Sternbergtask.osexp","C:\Users\solom\Desktop","no","mono","no","18","no","white","no","yes","768","legacy","76","11","C:/Users/solom/Desktop/MW-subject-2(s).csv","legacy","7 2 3","Lentiform Loewenfeld","3.3.3","3","y","0","left","right","right","left","NA","571","10972","30922","571","NA","2","legacy","3","1024","2","48000","-16","experiment","2","even","3","604633","118845","601218","602417","4238","129818","602421","563780","4247","606638","607212","603427","35171","606638","NA","Sternberg task","70","73977","89","yes","1024"
"78.8888888889","78.8888888889","831.222222222","831.222222222","black","experiment","legacy","legacy","legacy","0","uniform","1","undefined","1","left","89","0","89","89","0","0","89","89","0","89","89","89","0","89","0","10/24/20 21:03:33","The main experiment item","yes","Sternbergtask.osexp","C:\Users\solom\Desktop","no","mono","no","18","no","white","no","yes","768","legacy","77","11","C:/Users/solom/Desktop/MW-subject-2(s).csv","legacy","7 6","Lentiform Loewenfeld","3.3.3","2","y","0","left","right","right","left","NA","833","10972","30922","833","NA","2","legacy","2","1024","2","48000","-16","experiment","2","even","6","610652","118845","607234","608438","4238","129818","608442","563780","4247","612656","613493","609447","35171","612656","NA","Sternberg task","71","74810","90","yes","1024"
"79.1208791209","79.1208791209","832.065934066","832.065934066","black","experiment","legacy","legacy","legacy","0","uniform","1","undefined","1","left","90","0","90","90","0","0","90","90","0","90","90","90","0","90","0","10/24/20 21:03:33","The main experiment item","yes","Sternbergtask.osexp","C:\Users\solom\Desktop","no","mono","no","18","no","white","no","yes","768","legacy","78","11","C:/Users/solom/Desktop/MW-subject-2(s).csv","legacy","3 9 7 6 4","Lentiform Loewenfeld","3.3.3","3","y","0","left","right","right","left","NA","908","10972","30922","908","NA","2","legacy","5","1024","2","48000","-16","experiment","2","even","7","616942","118845","613519","614727","4238","129818","614731","563780","4247","618949","619861","615736","35171","618949","NA","Sternberg task","72","75718","91","yes","1024"
"79.347826087","79.347826087","828.413043478","828.413043478","black","experiment","legacy","legacy","legacy","0","uniform","1","undefined","1","right","91","0","91","91","0","0","91","91","0","91","91","91","0","91","0","10/24/20 21:03:33","The main experiment item","yes","Sternbergtask.osexp","C:\Users\solom\Desktop","no","mono","no","18","no","white","no","yes","768","legacy","79","11","C:/Users/solom/Desktop/MW-subject-2(s).csv","legacy","1","Lentiform Loewenfeld","3.3.3","0","n","0","right","right","right","right","NA","496","10972","30922","496","NA","2","legacy","1","1024","2","48000","-16","experiment","2","even","7","623316","118845","619900","621103","4238","129818","621107","563780","4247","625321","625821","622113","35171","625320","NA","Sternberg task","73","76214","92","yes","1024"
"79.5698924731","79.5698924731","826.741935484","826.741935484","black","experiment","legacy","legacy","legacy","0","uniform","1","undefined","1","right","92","0","92","92","0","0","92","92","0","92","92","92","0","92","0","10/24/20 21:03:33","The main experiment item","yes","Sternbergtask.osexp","C:\Users\solom\Desktop","no","mono","no","18","no","white","no","yes","768","legacy","80","11","C:/Users/solom/Desktop/MW-subject-2(s).csv","legacy","5 7 3","Lentiform Loewenfeld","3.3.3","0","n","0","right","right","right","right","NA","673","10972","30922","673","NA","2","legacy","3","1024","2","48000","-16","experiment","2","even","9","629257","118845","625850","627044","4238","129818","627049","563780","4247","631264","631941","628052","35171","631263","NA","Sternberg task","74","76887","93","yes","1024"
"79.7872340426","79.7872340426","823.64893617","823.64893617","black","experiment","legacy","legacy","legacy","0","uniform","1","undefined","1","right","93","0","93","93","0","0","93","93","0","93","93","93","0","93","0","10/24/20 21:03:33","The main experiment item","yes","Sternbergtask.osexp","C:\Users\solom\Desktop","no","mono","no","18","no","white","no","yes","768","legacy","81","11","C:/Users/solom/Desktop/MW-subject-2(s).csv","legacy","7 1 5 6 3","Lentiform Loewenfeld","3.3.3","0","n","0","right","right","right","right","NA","536","10972","30922","536","NA","2","legacy","5","1024","2","48000","-16","experiment","2","even","8","635389","118845","631983","633176","4238","129818","633180","563780","4247","637393","637933","634185","35171","637392","NA","Sternberg task","75","77423","94","yes","1024"
"78.9473684211","78.9473684211","828.2","828.2","black","experiment","legacy","legacy","legacy","0","uniform","0","undefined","0","right","94","0","94","94","0","0","94","94","0","94","94","94","0","94","0","10/24/20 21:03:33","The main experiment item","yes","Sternbergtask.osexp","C:\Users\solom\Desktop","no","mono","no","18","no","white","no","yes","768","legacy","82","11","C:/Users/solom/Desktop/MW-subject-2(s).csv","legacy","3 4 2","Lentiform Loewenfeld","3.3.3","0","n","0","left","right","right","left","NA","1256","10972","30922","1256","NA","2","legacy","3","1024","2","48000","-16","experiment","2","even","5","641373","118845","637961","639158","4238","129818","639162","563780","4247","643377","644637","640167","35171","643377","NA","Sternberg task","75","78679","95","yes","1024"
"79.1666666667","79.1666666667","824.84375","824.84375","black","experiment","legacy","legacy","legacy","0","uniform","1","undefined","1","left","95","0","95","95","0","0","95","95","0","95","95","95","0","95","0","10/24/20 21:03:33","The main experiment item","yes","Sternbergtask.osexp","C:\Users\solom\Desktop","no","mono","no","18","no","white","no","yes","768","legacy","83","11","C:/Users/solom/Desktop/MW-subject-2(s).csv","legacy","3 4","Lentiform Loewenfeld","3.3.3","1","y","0","left","right","right","left","NA","506","10972","30922","506","NA","2","legacy","2","1024","2","48000","-16","experiment","2","even","3","648075","118845","637961","645861","4238","129818","645865","644664","4247","650079","650589","646870","35171","650078","NA","Sternberg task","76","79185","96","yes","1024"
"79.381443299","79.381443299","822.618556701","822.618556701","black","experiment","legacy","legacy","legacy","0","uniform","1","undefined","1","left","96","0","96","96","0","0","96","96","0","96","96","96","0","96","0","10/24/20 21:03:33","The main experiment item","yes","Sternbergtask.osexp","C:\Users\solom\Desktop","no","mono","no","18","no","white","no","yes","768","legacy","84","11","C:/Users/solom/Desktop/MW-subject-2(s).csv","legacy","8 1 6","Lentiform Loewenfeld","3.3.3","3","y","0","left","right","right","left","NA","609","10972","30922","609","NA","2","legacy","3","1024","2","48000","-16","experiment","2","even","6","654027","118845","650615","651814","4238","129818","651818","644664","4247","656033","656645","652823","35171","656032","NA","Sternberg task","77","79794","97","yes","1024"
"79.5918367347","79.5918367347","820.326530612","820.326530612","black","experiment","legacy","legacy","legacy","0","uniform","1","undefined","1","left","97","0","97","97","0","0","97","97","0","97","97","97","0","97","0","10/24/20 21:03:33","The main experiment item","yes","Sternbergtask.osexp","C:\Users\solom\Desktop","no","mono","no","18","no","white","no","yes","768","legacy","85","11","C:/Users/solom/Desktop/MW-subject-2(s).csv","legacy","4 6 5 8","Lentiform Loewenfeld","3.3.3","1","y","0","left","right","right","left","NA","598","10972","30922","598","NA","2","legacy","4","1024","2","48000","-16","experiment","2","even","4","660343","118845","656936","658127","4238","129818","658131","644664","4247","662347","662949","659136","35171","662347","NA","Sternberg task","78","80392","98","yes","1024"
"79.797979798","79.797979798","819.171717172","819.171717172","black","experiment","legacy","legacy","legacy","0","uniform","1","undefined","1","left","98","0","98","98","0","0","98","98","0","98","98","98","0","98","0","10/24/20 21:03:33","The main experiment item","yes","Sternbergtask.osexp","C:\Users\solom\Desktop","no","mono","no","18","no","white","no","yes","768","legacy","86","11","C:/Users/solom/Desktop/MW-subject-2(s).csv","legacy","2 6 1 7 4","Lentiform Loewenfeld","3.3.3","2","y","0","left","right","right","left","NA","706","10972","30922","706","NA","2","legacy","5","1024","2","48000","-16","experiment","2","even","6","666401","118845","662977","664185","4238","129818","664189","644664","4247","668407","669117","665195","35171","668407","NA","Sternberg task","79","81098","99","yes","1024"
"79","79","816.44","816.44","black","experiment","legacy","legacy","legacy","0","uniform","0","undefined","0","right","99","0","99","99","0","0","99","99","0","99","99","99","0","99","0","10/24/20 21:03:33","The main experiment item","yes","Sternbergtask.osexp","C:\Users\solom\Desktop","no","mono","no","18","no","white","no","yes","768","legacy","87","11","C:/Users/solom/Desktop/MW-subject-2(s).csv","legacy","9 5 3 2 8 6","Lentiform Loewenfeld","3.3.3","0","n","0","left","right","right","left","NA","546","10972","30922","546","NA","2","legacy","6","1024","2","48000","-16","experiment","2","even","7","672562","118845","669146","670347","4238","129818","670351","644664","4247","674568","675118","671356","35171","674568","NA","Sternberg task","79","81644","100","yes","1024"
"78.2178217822","78.2178217822","815.01980198","815.01980198","black","experiment","legacy","legacy","legacy","0","uniform","0","undefined","0","right","100","0","100","100","0","0","100","100","0","100","100","100","0","100","0","10/24/20 21:03:33","The main experiment item","yes","Sternbergtask.osexp","C:\Users\solom\Desktop","no","mono","no","18","no","white","no","yes","768","legacy","88","11","C:/Users/solom/Desktop/MW-subject-2(s).csv","legacy","6 8","Lentiform Loewenfeld","3.3.3","0","n","0","left","right","right","left","NA","673","10972","30922","673","NA","2","legacy","2","1024","2","48000","-16","experiment","2","even","9","678554","118845","669146","676339","4238","129818","676343","675140","4247","680561","681238","677348","35171","680560","NA","Sternberg task","79","82317","101","yes","1024"
"78.431372549","78.431372549","812.794117647","812.794117647","black","experiment","legacy","legacy","legacy","0","uniform","1","undefined","1","left","101","0","101","101","0","0","101","101","0","101","101","101","0","101","0","10/24/20 21:03:33","The main experiment item","yes","Sternbergtask.osexp","C:\Users\solom\Desktop","no","mono","no","18","no","white","no","yes","768","legacy","89","11","C:/Users/solom/Desktop/MW-subject-2(s).csv","legacy","4 1 5","Lentiform Loewenfeld","3.3.3","2","y","0","left","right","right","left","NA","588","10972","30922","588","NA","2","legacy","3","1024","2","48000","-16","experiment","2","even","1","684679","118845","669146","682464","4238","129818","682468","681267","4247","686686","687278","683474","35171","686685","NA","Sternberg task","80","82905","102","yes","1024"
"78.640776699","78.640776699","809.514563107","809.514563107","black","experiment","legacy","legacy","legacy","0","uniform","1","undefined","1","right","102","0","102","102","0","0","102","102","0","102","102","102","0","102","0","10/24/20 21:03:33","The main experiment item","yes","Sternbergtask.osexp","C:\Users\solom\Desktop","no","mono","no","18","no","white","no","yes","768","legacy","90","11","C:/Users/solom/Desktop/MW-subject-2(s).csv","legacy","7 1","Lentiform Loewenfeld","3.3.3","0","n","0","right","right","right","right","NA","475","10972","30922","475","NA","2","legacy","2","1024","2","48000","-16","experiment","2","even","8","690721","118845","687310","688505","4238","129818","688509","681267","4247","692726","693205","689514","35171","692726","NA","Sternberg task","81","83380","103","yes","1024"
"77.8846153846","77.8846153846","807.903846154","807.903846154","black","experiment","legacy","legacy","legacy","0","uniform","0","undefined","0","left","103","0","103","103","0","0","103","103","0","103","103","103","0","103","0","10/24/20 21:03:33","The main experiment item","yes","Sternbergtask.osexp","C:\Users\solom\Desktop","no","mono","no","18","no","white","no","yes","768","legacy","91","11","C:/Users/solom/Desktop/MW-subject-2(s).csv","legacy","6 1 2","Lentiform Loewenfeld","3.3.3","3","y","0","right","right","right","right","NA","642","10972","30922","642","NA","2","legacy","3","1024","2","48000","-16","experiment","2","even","2","696641","118845","693227","694426","4238","129818","694430","681267","4247","698647","699293","695435","35171","698647","NA","Sternberg task","81","84022","104","yes","1024"
"78.0952380952","78.0952380952","808.904761905","808.904761905","black","experiment","legacy","legacy","legacy","0","uniform","1","undefined","1","left","104","0","104","104","0","0","104","104","0","104","104","104","0","104","0","10/24/20 21:03:33","The main experiment item","yes","Sternbergtask.osexp","C:\Users\solom\Desktop","no","mono","no","18","no","white","no","yes","768","legacy","92","11","C:/Users/solom/Desktop/MW-subject-2(s).csv","legacy","4 6 2 5 1","Lentiform Loewenfeld","3.3.3","5","y","0","left","right","right","left","NA","913","10972","30922","913","NA","2","legacy","5","1024","2","48000","-16","experiment","2","even","1","702733","118845","693227","700519","4238","129818","700523","699322","4247","704737","705654","701528","35171","704737","NA","Sternberg task","82","84935","105","yes","1024"
"78.3018867925","78.3018867925","806.735849057","806.735849057","black","experiment","legacy","legacy","legacy","0","uniform","1","undefined","1","right","105","0","105","105","0","0","105","105","0","105","105","105","0","105","0","10/24/20 21:03:33","The main experiment item","yes","Sternbergtask.osexp","C:\Users\solom\Desktop","no","mono","no","18","no","white","no","yes","768","legacy","93","11","C:/Users/solom/Desktop/MW-subject-2(s).csv","legacy","5 2","Lentiform Loewenfeld","3.3.3","0","n","0","right","right","right","right","NA","579","10972","30922","579","NA","2","legacy","2","1024","2","48000","-16","experiment","2","even","7","709095","118845","705682","706880","4238","129818","706884","699322","4247","711102","711685","707889","35171","711101","NA","Sternberg task","83","85514","106","yes","1024"
"78.5046728972","78.5046728972","805.943925234","805.943925234","black","experiment","legacy","legacy","legacy","0","uniform","1","undefined","1","left","106","0","106","106","0","0","106","106","0","106","106","106","0","106","0","10/24/20 21:03:33","The main experiment item","yes","Sternbergtask.osexp","C:\Users\solom\Desktop","no","mono","no","18","no","white","no","yes","768","legacy","94","11","C:/Users/solom/Desktop/MW-subject-2(s).csv","legacy","8","Lentiform Loewenfeld","3.3.3","1","y","0","left","right","right","left","NA","722","10972","30922","722","NA","2","legacy","1","1024","2","48000","-16","experiment","2","even","8","715122","118845","711709","712906","4238","129818","712910","699322","4247","717127","717853","713916","35171","717126","NA","Sternberg task","84","86236","107","yes","1024"
"78.7037037037","78.7037037037","807.083333333","807.083333333","black","experiment","legacy","legacy","legacy","0","uniform","1","undefined","1","right","107","0","107","107","0","0","107","107","0","107","107","107","0","107","0","10/24/20 21:03:33","The main experiment item","yes","Sternbergtask.osexp","C:\Users\solom\Desktop","no","mono","no","18","no","white","no","yes","768","legacy","95","11","C:/Users/solom/Desktop/MW-subject-2(s).csv","legacy","8 9","Lentiform Loewenfeld","3.3.3","0","n","0","right","right","right","right","NA","929","10972","30922","929","NA","2","legacy","2","1024","2","48000","-16","experiment","2","even","5","721290","118845","717876","719075","4238","129818","719079","699322","4247","723296","724230","720084","35171","723296","NA","Sternberg task","85","87165","108","yes","1024"
"78.8990825688","78.8990825688","805.798165138","805.798165138","black","experiment","legacy","legacy","legacy","0","uniform","1","undefined","1","right","108","0","108","108","0","0","108","108","0","108","108","108","0","108","0","10/24/20 21:03:33","The main experiment item","yes","Sternbergtask.osexp","C:\Users\solom\Desktop","no","mono","no","18","no","white","no","yes","768","legacy","96","11","C:/Users/solom/Desktop/MW-subject-2(s).csv","legacy","2 7 5","Lentiform Loewenfeld","3.3.3","0","n","0","right","right","right","right","NA","667","10972","30922","667","NA","2","legacy","3","1024","2","48000","-16","experiment","2","even","8","727676","118845","724263","725459","4238","129818","725464","699322","4247","729679","730350","726469","35171","729679","NA","Sternberg task","86","87832","109","yes","1024"
"79.0909090909","79.0909090909","808.827272727","808.827272727","black","experiment","legacy","legacy","legacy","0","uniform","1","undefined","1","right","109","0","109","109","0","0","109","109","0","109","109","109","0","109","0","10/24/20 21:03:33","The main experiment item","yes","Sternbergtask.osexp","C:\Users\solom\Desktop","no","mono","no","18","no","white","no","yes","768","legacy","97","11","C:/Users/solom/Desktop/MW-subject-2(s).csv","legacy","1 8 7","Lentiform Loewenfeld","3.3.3","0","n","0","right","right","right","right","NA","1139","10972","30922","1139","NA","2","legacy","3","1024","2","48000","-16","experiment","2","even","4","733786","118845","730373","731570","4238","129818","731574","699322","4247","735790","736934","732580","35171","735790","NA","Sternberg task","87","88971","110","yes","1024"
"79.2792792793","79.2792792793","809.567567568","809.567567568","black","experiment","legacy","legacy","legacy","0","uniform","1","undefined","1","right","110","0","110","110","0","0","110","110","0","110","110","110","0","110","0","10/24/20 21:03:33","The main experiment item","yes","Sternbergtask.osexp","C:\Users\solom\Desktop","no","mono","no","18","no","white","no","yes","768","legacy","98","11","C:/Users/solom/Desktop/MW-subject-2(s).csv","legacy","6 9 4 5 2","Lentiform Loewenfeld","3.3.3","0","n","0","right","right","right","right","NA","891","10972","30922","891","NA","2","legacy","5","1024","2","48000","-16","experiment","2","even","1","740369","118845","736958","738156","4238","129818","738160","699322","4247","742375","743270","739165","35171","742374","NA","Sternberg task","88","89862","111","yes","1024"
"79.4642857143","79.4642857143","808.535714286","808.535714286","black","experiment","legacy","legacy","legacy","0","uniform","1","undefined","1","right","111","0","111","111","0","0","111","111","0","111","111","111","0","111","0","10/24/20 21:03:33","The main experiment item","yes","Sternbergtask.osexp","C:\Users\solom\Desktop","no","mono","no","18","no","white","no","yes","768","legacy","99","11","C:/Users/solom/Desktop/MW-subject-2(s).csv","legacy","1 7 5 2","Lentiform Loewenfeld","3.3.3","0","n","0","right","right","right","right","NA","694","10972","30922","694","NA","2","legacy","4","1024","2","48000","-16","experiment","2","even","3","746708","118845","743292","744493","4238","129818","744497","699322","4247","748715","749413","745502","35171","748714","NA","Sternberg task","89","90556","112","yes","1024"
"78.7610619469","78.7610619469","812.805309735","812.805309735","black","experiment","legacy","legacy","legacy","0","uniform","0","undefined","0","right","112","0","112","112","0","0","112","112","0","112","112","112","0","112","0","10/24/20 21:03:33","The main experiment item","yes","Sternbergtask.osexp","C:\Users\solom\Desktop","no","mono","no","18","no","white","no","yes","768","legacy","100","11","C:/Users/solom/Desktop/MW-subject-2(s).csv","legacy","6 3 1 7 9 8","Lentiform Loewenfeld","3.3.3","0","n","0","left","right","right","left","NA","1291","10972","30922","1291","NA","2","legacy","6","1024","2","48000","-16","experiment","2","even","4","752864","118845","749446","750648","4238","129818","750653","699322","4247","754871","756166","751658","35171","754870","NA","Sternberg task","89","91847","113","yes","1024"
"78.9473684211","78.9473684211","813.552631579","813.552631579","black","experiment","legacy","legacy","legacy","0","uniform","1","undefined","1","left","113","0","113","113","0","0","113","113","0","113","113","113","0","113","0","10/24/20 21:03:33","The main experiment item","yes","Sternbergtask.osexp","C:\Users\solom\Desktop","no","mono","no","18","no","white","no","yes","768","legacy","101","11","C:/Users/solom/Desktop/MW-subject-2(s).csv","legacy","2 4 6 9","Lentiform Loewenfeld","3.3.3","3","y","0","left","right","right","left","NA","898","10972","30922","898","NA","2","legacy","4","1024","2","48000","-16","experiment","2","even","6","759603","118845","749446","757388","4238","129818","757392","756188","4247","761608","762510","758397","35171","761607","NA","Sternberg task","90","92745","114","yes","1024"
"79.1304347826","79.1304347826","811.817391304","811.817391304","black","experiment","legacy","legacy","legacy","0","uniform","1","undefined","1","right","114","0","114","114","0","0","114","114","0","114","114","114","0","114","0","10/24/20 21:03:33","The main experiment item","yes","Sternbergtask.osexp","C:\Users\solom\Desktop","no","mono","no","18","no","white","no","yes","768","legacy","102","11","C:/Users/solom/Desktop/MW-subject-2(s).csv","legacy","1 7 5 2 9","Lentiform Loewenfeld","3.3.3","0","n","0","right","right","right","right","NA","614","10972","30922","614","NA","2","legacy","5","1024","2","48000","-16","experiment","2","even","3","765948","118845","762532","763733","4238","129818","763737","756188","4247","767955","768574","764743","35171","767954","NA","Sternberg task","91","93359","115","yes","1024"
"79.3103448276","79.3103448276","809.784482759","809.784482759","black","experiment","legacy","legacy","legacy","0","uniform","1","undefined","1","right","115","0","115","115","0","0","115","115","0","115","115","115","0","115","0","10/24/20 21:03:33","The main experiment item","yes","Sternbergtask.osexp","C:\Users\solom\Desktop","no","mono","no","18","no","white","no","yes","768","legacy","103","11","C:/Users/solom/Desktop/MW-subject-2(s).csv","legacy","3 9 1","Lentiform Loewenfeld","3.3.3","0","n","0","right","right","right","right","NA","576","10972","30922","576","NA","2","legacy","3","1024","2","48000","-16","experiment","2","even","7","772011","118845","768601","769797","4238","129818","769801","756188","4247","774018","774598","770806","35171","774017","NA","Sternberg task","92","93935","116","yes","1024"
"79.4871794872","79.4871794872","808.965811966","808.965811966","black","experiment","legacy","legacy","legacy","0","uniform","1","undefined","1","right","116","0","116","116","0","0","116","116","0","116","116","116","0","116","0","10/24/20 21:03:33","The main experiment item","yes","Sternbergtask.osexp","C:\Users\solom\Desktop","no","mono","no","18","no","white","no","yes","768","legacy","104","11","C:/Users/solom/Desktop/MW-subject-2(s).csv","legacy","8 4 3 9","Lentiform Loewenfeld","3.3.3","0","n","0","right","right","right","right","NA","714","10972","30922","714","NA","2","legacy","4","1024","2","48000","-16","experiment","2","even","5","778042","118845","774629","775828","4238","129818","775832","756188","4247","780047","780765","776836","35171","780047","NA","Sternberg task","93","94649","117","yes","1024"
"79.6610169492","79.6610169492","808.457627119","808.457627119","black","experiment","legacy","legacy","legacy","0","uniform","1","undefined","1","right","117","0","117","117","0","0","117","117","0","117","117","117","0","117","0","10/24/20 21:03:33","The main experiment item","yes","Sternbergtask.osexp","C:\Users\solom\Desktop","no","mono","no","18","no","white","no","yes","768","legacy","105","11","C:/Users/solom/Desktop/MW-subject-2(s).csv","legacy","2 5 1 4","Lentiform Loewenfeld","3.3.3","0","n","0","right","right","right","right","NA","749","10972","30922","749","NA","2","legacy","4","1024","2","48000","-16","experiment","2","even","6","784198","118845","780786","781983","4238","129818","781987","756188","4247","786205","786958","782993","35171","786205","NA","Sternberg task","94","95398","118","yes","1024"
"79.8319327731","79.8319327731","808.084033613","808.084033613","black","experiment","legacy","legacy","legacy","0","uniform","1","undefined","1","left","118","0","118","118","0","0","118","118","0","118","118","118","0","118","0","10/24/20 21:03:33","The main experiment item","yes","Sternbergtask.osexp","C:\Users\solom\Desktop","no","mono","no","18","no","white","no","yes","768","legacy","106","11","C:/Users/solom/Desktop/MW-subject-2(s).csv","legacy","8 9 5 6 7","Lentiform Loewenfeld","3.3.3","1","y","0","left","right","right","left","NA","764","10972","30922","764","NA","2","legacy","5","1024","2","48000","-16","experiment","2","even","8","790398","118845","786982","788182","4238","129818","788187","756188","4247","792405","793174","789192","35171","792405","NA","Sternberg task","95","96162","119","yes","1024"
"80","80","807.025","807.025","black","experiment","legacy","legacy","legacy","0","uniform","1","undefined","1","right","119","0","119","119","0","0","119","119","0","119","119","119","0","119","0","10/24/20 21:03:33","The main experiment item","yes","Sternbergtask.osexp","C:\Users\solom\Desktop","no","mono","no","18","no","white","no","yes","768","legacy","107","11","C:/Users/solom/Desktop/MW-subject-2(s).csv","legacy","2 8 9 4 1","Lentiform Loewenfeld","3.3.3","0","n","0","right","right","right","right","NA","681","10972","30922","681","NA","2","legacy","5","1024","2","48000","-16","experiment","2","even","5","796617","118845","793199","794402","4238","129818","794406","756188","4247","798624","799310","795411","35171","798623","NA","Sternberg task","96","96843","120","yes","1024"
"80.1652892562","80.1652892562","811.371900826","811.371900826","black","experiment","legacy","legacy","legacy","0","uniform","1","undefined","1","right","120","0","120","120","0","0","120","120","0","120","120","120","0","120","0","10/24/20 21:03:33","The main experiment item","yes","Sternbergtask.osexp","C:\Users\solom\Desktop","no","mono","no","18","no","white","no","yes","768","legacy","108","11","C:/Users/solom/Desktop/MW-subject-2(s).csv","legacy","7 9 1 6","Lentiform Loewenfeld","3.3.3","0","n","0","right","right","right","right","NA","1333","10972","30922","1333","NA","2","legacy","4","1024","2","48000","-16","experiment","2","even","4","802751","118845","799336","800535","4238","129818","800539","756188","4247","804756","806094","801544","35171","804756","NA","Sternberg task","97","98176","121","yes","1024"
