"acc","accuracy","average_response_time","avg_rt","background","block","canvas_backend","clock_backend","color_backend","compensation","coordinates","correct","correct_Instruction1","correct_keyboard_response","correct_response","count_CorrectFeedback","count_ISI","count_IncorrectFeedback","count_Instruction1","count_Instructions2","count_Practiceloop","count_Thanks","count_experiment","count_experimentloop","count_fixation","count_keyboard_response","count_logger","count_memoryset","count_probe","count_xsequence","datetime","description","disable_garbage_collection","experiment_file","experiment_path","font_bold","font_family","font_italic","font_size","font_underline","foreground","form_clicks","fullscreen","height","keyboard_backend","live_row","live_row_Practiceloop","logfile","mouse_backend","numberSet","opensesame_codename","opensesame_version","posInSet","present","repeat_cycle","response","response_Instruction1","response_Instructions2","response_Thanks","response_keyboard_response","response_time","response_time_Instruction1","response_time_Instructions2","response_time_Thanks","response_time_keyboard_response","round_decimals","sampler_backend","setSize","sound_buf_size","sound_channels","sound_freq","sound_sample_size","start","subject_nr","subject_parity","target","time_CorrectFeedback","time_ISI","time_IncorrectFeedback","time_Instruction1","time_Instructions2","time_Practiceloop","time_Thanks","time_experiment","time_experimentloop","time_fixation","time_keyboard_response","time_logger","time_memoryset","time_probe","time_xsequence","title","total_correct","total_response_time","total_responses","uniform_coordinates","width"
"0","0","1285","1285","black","practice","legacy","legacy","legacy","0","uniform","0","undefined","0","right","0","0","0","0","0","0","0","0","0","0","0","0","0","0","0","Sun Oct 24 12:01:00 2021","The main experiment item","yes","Sternbergtask.osexp","C:/Users/User/Desktop/School/Research Methods","no","mono","no","18","no","white","no","yes","768","legacy","0","0","C:/Users/User/Desktop/School/Research Methods/LW-subject-3-stern.csv","legacy","9 6 7 4 5","Lentiform Loewenfeld","3.3.9","0","n","0","left","right","NA","NA","left","1285","53691","NA","NA","1285","2","legacy","5","1024","2","48000","-16","experiment","3","odd","3","NA","61174","NA","2324","NA","56016","NA","2316","NA","58970","63176","64461","59972","63176","58967","Sternberg task","0","1285","1","yes","1024"
"50","50","991","991","black","practice","legacy","legacy","legacy","0","uniform","1","undefined","1","right","1","1","1","0","0","0","0","0","0","1","1","1","1","1","1","Sun Oct 24 12:01:00 2021","The main experiment item","yes","Sternbergtask.osexp","C:/Users/User/Desktop/School/Research Methods","no","mono","no","18","no","white","no","yes","768","legacy","1","1","C:/Users/User/Desktop/School/Research Methods/LW-subject-3-stern.csv","legacy","2 1","Lentiform Loewenfeld","3.3.9","0","n","0","right","right","NA","NA","right","697","53691","NA","NA","697","2","legacy","2","1024","2","48000","-16","experiment","3","odd","5","NA","67823","64525","2324","NA","56016","NA","2316","NA","65619","69825","70522","66621","69825","65616","Sternberg task","1","1982","2","yes","1024"
"66.66666666666667","66.66666666666667","1100.6666666666667","1100.6666666666667","black","practice","legacy","legacy","legacy","0","uniform","1","undefined","1","left","2","2","2","0","0","0","0","0","0","2","2","2","2","2","2","Sun Oct 24 12:01:00 2021","The main experiment item","yes","Sternbergtask.osexp","C:/Users/User/Desktop/School/Research Methods","no","mono","no","18","no","white","no","yes","768","legacy","2","2","C:/Users/User/Desktop/School/Research Methods/LW-subject-3-stern.csv","legacy","1 7 9 8 5","Lentiform Loewenfeld","3.3.9","4","y","0","left","right","NA","NA","left","1320","53691","NA","NA","1320","2","legacy","5","1024","2","48000","-16","experiment","3","odd","8","70526","73821","64525","2324","NA","56016","NA","2316","NA","71617","75823","77144","72619","75823","71615","Sternberg task","2","3302","3","yes","1024"
"75","75","1038","1038","black","practice","legacy","legacy","legacy","0","uniform","1","undefined","1","right","3","3","3","0","0","0","0","0","0","3","3","3","3","3","3","Sun Oct 24 12:01:00 2021","The main experiment item","yes","Sternbergtask.osexp","C:/Users/User/Desktop/School/Research Methods","no","mono","no","18","no","white","no","yes","768","legacy","3","3","C:/Users/User/Desktop/School/Research Methods/LW-subject-3-stern.csv","legacy","4 1 5","Lentiform Loewenfeld","3.3.9","0","n","0","right","right","NA","NA","right","850","53691","NA","NA","850","2","legacy","3","1024","2","48000","-16","experiment","3","odd","2","77148","80444","64525","2324","NA","56016","NA","2316","NA","78240","82446","83296","79242","82446","78238","Sternberg task","3","4152","4","yes","1024"
"60","60","1230.4","1230.4","black","practice","legacy","legacy","legacy","0","uniform","0","undefined","0","right","4","4","4","0","0","0","0","0","0","4","4","4","4","4","4","Sun Oct 24 12:01:00 2021","The main experiment item","yes","Sternbergtask.osexp","C:/Users/User/Desktop/School/Research Methods","no","mono","no","18","no","white","no","yes","768","legacy","4","4","C:/Users/User/Desktop/School/Research Methods/LW-subject-3-stern.csv","legacy","5","Lentiform Loewenfeld","3.3.9","0","n","0","None","right","NA","NA","None","2000","53691","NA","NA","2000","2","legacy","1","1024","2","48000","-16","experiment","3","odd","3","83300","86594","64525","2324","NA","56016","NA","2316","NA","84390","88596","90596","85392","88596","84388","Sternberg task","3","6152","5","yes","1024"
"66.66666666666667","66.66666666666667","1259","1259","black","practice","legacy","legacy","legacy","0","uniform","1","undefined","1","left","5","5","5","0","0","0","0","0","0","5","5","5","5","5","5","Sun Oct 24 12:01:00 2021","The main experiment item","yes","Sternbergtask.osexp","C:/Users/User/Desktop/School/Research Methods","no","mono","no","18","no","white","no","yes","768","legacy","5","5","C:/Users/User/Desktop/School/Research Methods/LW-subject-3-stern.csv","legacy","2 9 4","Lentiform Loewenfeld","3.3.9","3","y","0","left","right","NA","NA","left","1402","53691","NA","NA","1402","2","legacy","3","1024","2","48000","-16","experiment","3","odd","4","83300","93894","90600","2324","NA","56016","NA","2316","NA","91690","95896","97299","92692","95896","91688","Sternberg task","4","7554","6","yes","1024"
"71.42857142857143","71.42857142857143","1235","1235","black","practice","legacy","legacy","legacy","0","uniform","1","undefined","1","right","6","6","6","0","0","0","0","0","0","6","6","6","6","6","6","Sun Oct 24 12:01:00 2021","The main experiment item","yes","Sternbergtask.osexp","C:/Users/User/Desktop/School/Research Methods","no","mono","no","18","no","white","no","yes","768","legacy","6","6","C:/Users/User/Desktop/School/Research Methods/LW-subject-3-stern.csv","legacy","5 7 8 4 1 2","Lentiform Loewenfeld","3.3.9","0","n","0","right","right","NA","NA","right","1091","53691","NA","NA","1091","2","legacy","6","1024","2","48000","-16","experiment","3","odd","6","97303","100600","90600","2324","NA","56016","NA","2316","NA","98396","102602","103694","99398","102602","98394","Sternberg task","5","8645","7","yes","1024"
"75","75","1232.25","1232.25","black","practice","legacy","legacy","legacy","0","uniform","1","undefined","1","left","7","7","7","0","0","0","0","0","0","7","7","7","7","7","7","Sun Oct 24 12:01:00 2021","The main experiment item","yes","Sternbergtask.osexp","C:/Users/User/Desktop/School/Research Methods","no","mono","no","18","no","white","no","yes","768","legacy","7","7","C:/Users/User/Desktop/School/Research Methods/LW-subject-3-stern.csv","legacy","4 8","Lentiform Loewenfeld","3.3.9","1","y","0","left","right","NA","NA","left","1213","53691","NA","NA","1213","2","legacy","2","1024","2","48000","-16","experiment","3","odd","4","103698","106993","90600","2324","NA","56016","NA","2316","NA","104790","108996","110210","105792","108996","104788","Sternberg task","6","9858","8","yes","1024"
"77.77777777777777","77.77777777777777","1231.3333333333333","1231.3333333333333","black","practice","legacy","legacy","legacy","0","uniform","1","undefined","1","left","8","8","8","0","0","0","0","0","0","8","8","8","8","8","8","Sun Oct 24 12:01:00 2021","The main experiment item","yes","Sternbergtask.osexp","C:/Users/User/Desktop/School/Research Methods","no","mono","no","18","no","white","no","yes","768","legacy","8","8","C:/Users/User/Desktop/School/Research Methods/LW-subject-3-stern.csv","legacy","1 5 2 9","Lentiform Loewenfeld","3.3.9","2","y","0","left","right","NA","NA","left","1224","53691","NA","NA","1224","2","legacy","4","1024","2","48000","-16","experiment","3","odd","5","110214","113508","90600","2324","NA","56016","NA","2316","NA","111304","115510","116734","112306","115510","111301","Sternberg task","7","11082","9","yes","1024"
"80","80","1176","1176","black","practice","legacy","legacy","legacy","0","uniform","1","undefined","1","left","9","9","9","0","0","0","0","0","0","9","9","9","9","9","9","Sun Oct 24 12:01:00 2021","The main experiment item","yes","Sternbergtask.osexp","C:/Users/User/Desktop/School/Research Methods","no","mono","no","18","no","white","no","yes","768","legacy","9","9","C:/Users/User/Desktop/School/Research Methods/LW-subject-3-stern.csv","legacy","4 3 1 7 9 8","Lentiform Loewenfeld","3.3.9","1","y","0","left","right","NA","NA","left","678","53691","NA","NA","678","2","legacy","6","1024","2","48000","-16","experiment","3","odd","4","116738","120032","90600","2324","NA","56016","NA","2316","NA","117828","122034","122713","118830","122034","117826","Sternberg task","8","11760","10","yes","1024"
"81.81818181818181","81.81818181818181","1155.5454545454545","1155.5454545454545","black","practice","legacy","legacy","legacy","0","uniform","1","undefined","1","left","10","10","10","0","0","0","0","0","0","10","10","10","10","10","10","Sun Oct 24 12:01:00 2021","The main experiment item","yes","Sternbergtask.osexp","C:/Users/User/Desktop/School/Research Methods","no","mono","no","18","no","white","no","yes","768","legacy","10","10","C:/Users/User/Desktop/School/Research Methods/LW-subject-3-stern.csv","legacy","6","Lentiform Loewenfeld","3.3.9","1","y","0","left","right","NA","NA","left","951","53691","NA","NA","951","2","legacy","1","1024","2","48000","-16","experiment","3","odd","6","122717","126012","90600","2324","NA","56016","NA","2316","NA","123808","128014","128965","124810","128014","123806","Sternberg task","9","12711","11","yes","1024"
"83.33333333333333","83.33333333333333","1151","1151","black","practice","legacy","legacy","legacy","0","uniform","1","undefined","1","right","11","11","11","0","0","0","0","0","0","11","11","11","11","11","11","Sun Oct 24 12:01:00 2021","The main experiment item","yes","Sternbergtask.osexp","C:/Users/User/Desktop/School/Research Methods","no","mono","no","18","no","white","no","yes","768","legacy","11","11","C:/Users/User/Desktop/School/Research Methods/LW-subject-3-stern.csv","legacy","3 1 9 4","Lentiform Loewenfeld","3.3.9","0","n","0","right","right","NA","NA","right","1101","53691","NA","NA","1101","2","legacy","4","1024","2","48000","-16","experiment","3","odd","6","128969","132264","90600","2324","NA","56016","NA","2316","NA","130060","134266","135368","131062","134266","130058","Sternberg task","10","13812","12","yes","1024"
"84.61538461538461","84.61538461538461","1162.6153846153845","1162.6153846153845","black","experiment","legacy","legacy","legacy","0","uniform","1","undefined","1","right","12","12","12","0","0","0","0","0","0","12","12","12","12","12","12","Sun Oct 24 12:01:00 2021","The main experiment item","yes","Sternbergtask.osexp","C:/Users/User/Desktop/School/Research Methods","no","mono","no","18","no","white","no","yes","768","legacy","0","11","C:/Users/User/Desktop/School/Research Methods/LW-subject-3-stern.csv","legacy","7 1 8 4 9 3","Lentiform Loewenfeld","3.3.9","0","n","0","right","right","right","NA","right","1302","53691","8759","NA","1302","2","legacy","6","1024","2","48000","-16","experiment","3","odd","6","135372","147468","90600","2324","136403","56016","NA","2316","145163","145264","149470","150773","146266","149470","145262","Sternberg task","11","15114","13","yes","1024"
"85.71428571428571","85.71428571428571","1123.5714285714287","1123.5714285714287","black","experiment","legacy","legacy","legacy","0","uniform","1","undefined","1","left","13","13","13","0","0","0","0","0","0","13","13","13","13","13","13","Sun Oct 24 12:01:00 2021","The main experiment item","yes","Sternbergtask.osexp","C:/Users/User/Desktop/School/Research Methods","no","mono","no","18","no","white","no","yes","768","legacy","1","11","C:/Users/User/Desktop/School/Research Methods/LW-subject-3-stern.csv","legacy","2 4 8 5 1 3","Lentiform Loewenfeld","3.3.9","1","y","0","left","right","right","NA","left","616","53691","8759","NA","616","2","legacy","6","1024","2","48000","-16","experiment","3","odd","2","150777","154075","90600","2324","136403","56016","NA","2316","145163","151871","156077","156694","152873","156077","151869","Sternberg task","12","15730","14","yes","1024"
"86.66666666666667","86.66666666666667","1107.8666666666666","1107.8666666666666","black","experiment","legacy","legacy","legacy","0","uniform","1","undefined","1","right","14","14","14","0","0","0","0","0","0","14","14","14","14","14","14","Sun Oct 24 12:01:00 2021","The main experiment item","yes","Sternbergtask.osexp","C:/Users/User/Desktop/School/Research Methods","no","mono","no","18","no","white","no","yes","768","legacy","2","11","C:/Users/User/Desktop/School/Research Methods/LW-subject-3-stern.csv","legacy","4 2 7 6 1 3","Lentiform Loewenfeld","3.3.9","0","n","0","right","right","right","NA","right","888","53691","8759","NA","888","2","legacy","6","1024","2","48000","-16","experiment","3","odd","8","156698","159997","90600","2324","136403","56016","NA","2316","145163","157793","161999","162888","158795","161999","157790","Sternberg task","13","16618","15","yes","1024"
"87.5","87.5","1089.75","1089.75","black","experiment","legacy","legacy","legacy","0","uniform","1","undefined","1","right","15","15","15","0","0","0","0","0","0","15","15","15","15","15","15","Sun Oct 24 12:01:00 2021","The main experiment item","yes","Sternbergtask.osexp","C:/Users/User/Desktop/School/Research Methods","no","mono","no","18","no","white","no","yes","768","legacy","3","11","C:/Users/User/Desktop/School/Research Methods/LW-subject-3-stern.csv","legacy","6 9 5","Lentiform Loewenfeld","3.3.9","0","n","0","right","right","right","NA","right","818","53691","8759","NA","818","2","legacy","3","1024","2","48000","-16","experiment","3","odd","8","162892","166188","90600","2324","136403","56016","NA","2316","145163","163984","168190","169008","164986","168190","163982","Sternberg task","14","17436","16","yes","1024"
"88.23529411764706","88.23529411764706","1086.6470588235295","1086.6470588235295","black","experiment","legacy","legacy","legacy","0","uniform","1","undefined","1","left","16","16","16","0","0","0","0","0","0","16","16","16","16","16","16","Sun Oct 24 12:01:00 2021","The main experiment item","yes","Sternbergtask.osexp","C:/Users/User/Desktop/School/Research Methods","no","mono","no","18","no","white","no","yes","768","legacy","4","11","C:/Users/User/Desktop/School/Research Methods/LW-subject-3-stern.csv","legacy","7 2 3","Lentiform Loewenfeld","3.3.9","3","y","0","left","right","right","NA","left","1037","53691","8759","NA","1037","2","legacy","3","1024","2","48000","-16","experiment","3","odd","3","169012","172309","90600","2324","136403","56016","NA","2316","145163","170105","174311","175349","171107","174311","170103","Sternberg task","15","18473","17","yes","1024"
"88.88888888888889","88.88888888888889","1089.1666666666667","1089.1666666666667","black","experiment","legacy","legacy","legacy","0","uniform","1","undefined","1","right","17","17","17","0","0","0","0","0","0","17","17","17","17","17","17","Sun Oct 24 12:01:00 2021","The main experiment item","yes","Sternbergtask.osexp","C:/Users/User/Desktop/School/Research Methods","no","mono","no","18","no","white","no","yes","768","legacy","5","11","C:/Users/User/Desktop/School/Research Methods/LW-subject-3-stern.csv","legacy","8 5 4 2 9 6","Lentiform Loewenfeld","3.3.9","0","n","0","right","right","right","NA","right","1132","53691","8759","NA","1132","2","legacy","6","1024","2","48000","-16","experiment","3","odd","3","175353","178648","90600","2324","136403","56016","NA","2316","145163","176444","180650","181783","177446","180650","176442","Sternberg task","16","19605","18","yes","1024"
"89.47368421052632","89.47368421052632","1087.7894736842106","1087.7894736842106","black","experiment","legacy","legacy","legacy","0","uniform","1","undefined","1","right","18","18","18","0","0","0","0","0","0","18","18","18","18","18","18","Sun Oct 24 12:01:00 2021","The main experiment item","yes","Sternbergtask.osexp","C:/Users/User/Desktop/School/Research Methods","no","mono","no","18","no","white","no","yes","768","legacy","6","11","C:/Users/User/Desktop/School/Research Methods/LW-subject-3-stern.csv","legacy","1 3 2 6 9","Lentiform Loewenfeld","3.3.9","0","n","0","right","right","right","NA","right","1063","53691","8759","NA","1063","2","legacy","5","1024","2","48000","-16","experiment","3","odd","5","181786","185082","90600","2324","136403","56016","NA","2316","145163","182877","187084","188148","183880","187084","182875","Sternberg task","17","20668","19","yes","1024"
"90","90","1088.75","1088.75","black","experiment","legacy","legacy","legacy","0","uniform","1","undefined","1","left","19","19","19","0","0","0","0","0","0","19","19","19","19","19","19","Sun Oct 24 12:01:00 2021","The main experiment item","yes","Sternbergtask.osexp","C:/Users/User/Desktop/School/Research Methods","no","mono","no","18","no","white","no","yes","768","legacy","7","11","C:/Users/User/Desktop/School/Research Methods/LW-subject-3-stern.csv","legacy","4 3 2 5 8","Lentiform Loewenfeld","3.3.9","2","y","0","left","right","right","NA","left","1107","53691","8759","NA","1107","2","legacy","5","1024","2","48000","-16","experiment","3","odd","3","188152","191447","90600","2324","136403","56016","NA","2316","145163","189243","193449","194557","190245","193449","189241","Sternberg task","18","21775","20","yes","1024"
"90.47619047619048","90.47619047619048","1076.3809523809523","1076.3809523809523","black","experiment","legacy","legacy","legacy","0","uniform","1","undefined","1","left","20","20","20","0","0","0","0","0","0","20","20","20","20","20","20","Sun Oct 24 12:01:00 2021","The main experiment item","yes","Sternbergtask.osexp","C:/Users/User/Desktop/School/Research Methods","no","mono","no","18","no","white","no","yes","768","legacy","8","11","C:/Users/User/Desktop/School/Research Methods/LW-subject-3-stern.csv","legacy","7","Lentiform Loewenfeld","3.3.9","1","y","0","left","right","right","NA","left","829","53691","8759","NA","829","2","legacy","1","1024","2","48000","-16","experiment","3","odd","7","194561","197856","90600","2324","136403","56016","NA","2316","145163","195652","199858","200688","196654","199858","195650","Sternberg task","19","22604","21","yes","1024"
"90.9090909090909","90.9090909090909","1070.6363636363637","1070.6363636363637","black","experiment","legacy","legacy","legacy","0","uniform","1","undefined","1","left","21","21","21","0","0","0","0","0","0","21","21","21","21","21","21","Sun Oct 24 12:01:00 2021","The main experiment item","yes","Sternbergtask.osexp","C:/Users/User/Desktop/School/Research Methods","no","mono","no","18","no","white","no","yes","768","legacy","9","11","C:/Users/User/Desktop/School/Research Methods/LW-subject-3-stern.csv","legacy","3 5 7 1","Lentiform Loewenfeld","3.3.9","3","y","0","left","right","right","NA","left","950","53691","8759","NA","950","2","legacy","4","1024","2","48000","-16","experiment","3","odd","7","200692","203989","90600","2324","136403","56016","NA","2316","145163","201785","205991","206942","202787","205991","201782","Sternberg task","20","23554","22","yes","1024"
"91.30434782608695","91.30434782608695","1049.9565217391305","1049.9565217391305","black","experiment","legacy","legacy","legacy","0","uniform","1","undefined","1","right","22","22","22","0","0","0","0","0","0","22","22","22","22","22","22","Sun Oct 24 12:01:00 2021","The main experiment item","yes","Sternbergtask.osexp","C:/Users/User/Desktop/School/Research Methods","no","mono","no","18","no","white","no","yes","768","legacy","10","11","C:/Users/User/Desktop/School/Research Methods/LW-subject-3-stern.csv","legacy","2 8 6 3 1","Lentiform Loewenfeld","3.3.9","0","n","0","right","right","right","NA","right","595","53691","8759","NA","595","2","legacy","5","1024","2","48000","-16","experiment","3","odd","7","206946","210243","90600","2324","136403","56016","NA","2316","145163","208039","212245","212841","209041","212245","208037","Sternberg task","21","24149","23","yes","1024"
"91.66666666666667","91.66666666666667","1055.6666666666667","1055.6666666666667","black","experiment","legacy","legacy","legacy","0","uniform","1","undefined","1","left","23","23","23","0","0","0","0","0","0","23","23","23","23","23","23","Sun Oct 24 12:01:00 2021","The main experiment item","yes","Sternbergtask.osexp","C:/Users/User/Desktop/School/Research Methods","no","mono","no","18","no","white","no","yes","768","legacy","11","11","C:/Users/User/Desktop/School/Research Methods/LW-subject-3-stern.csv","legacy","4 6 2 5 1","Lentiform Loewenfeld","3.3.9","5","y","0","left","right","right","NA","left","1187","53691","8759","NA","1187","2","legacy","5","1024","2","48000","-16","experiment","3","odd","1","212845","216143","90600","2324","136403","56016","NA","2316","145163","213939","218145","219334","214941","218145","213936","Sternberg task","22","25336","24","yes","1024"
"92","92","1054.04","1054.04","black","experiment","legacy","legacy","legacy","0","uniform","1","undefined","1","left","24","24","24","0","0","0","0","0","0","24","24","24","24","24","24","Sun Oct 24 12:01:00 2021","The main experiment item","yes","Sternbergtask.osexp","C:/Users/User/Desktop/School/Research Methods","no","mono","no","18","no","white","no","yes","768","legacy","12","11","C:/Users/User/Desktop/School/Research Methods/LW-subject-3-stern.csv","legacy","9 6 2 4 1","Lentiform Loewenfeld","3.3.9","4","y","0","left","right","right","NA","left","1015","53691","8759","NA","1015","2","legacy","5","1024","2","48000","-16","experiment","3","odd","4","219337","222636","90600","2324","136403","56016","NA","2316","145163","220432","224638","225654","221434","224638","220430","Sternberg task","23","26351","25","yes","1024"
"92.3076923076923","92.3076923076923","1047.6153846153845","1047.6153846153845","black","experiment","legacy","legacy","legacy","0","uniform","1","undefined","1","right","25","25","25","0","0","0","0","0","0","25","25","25","25","25","25","Sun Oct 24 12:01:00 2021","The main experiment item","yes","Sternbergtask.osexp","C:/Users/User/Desktop/School/Research Methods","no","mono","no","18","no","white","no","yes","768","legacy","13","11","C:/Users/User/Desktop/School/Research Methods/LW-subject-3-stern.csv","legacy","9","Lentiform Loewenfeld","3.3.9","0","n","0","right","right","right","NA","right","887","53691","8759","NA","887","2","legacy","1","1024","2","48000","-16","experiment","3","odd","6","225658","228954","90600","2324","136403","56016","NA","2316","145163","226750","230956","231844","227752","230956","226748","Sternberg task","24","27238","26","yes","1024"
"92.5925925925926","92.5925925925926","1046.037037037037","1046.037037037037","black","experiment","legacy","legacy","legacy","0","uniform","1","undefined","1","right","26","26","26","0","0","0","0","0","0","26","26","26","26","26","26","Sun Oct 24 12:01:00 2021","The main experiment item","yes","Sternbergtask.osexp","C:/Users/User/Desktop/School/Research Methods","no","mono","no","18","no","white","no","yes","768","legacy","14","11","C:/Users/User/Desktop/School/Research Methods/LW-subject-3-stern.csv","legacy","2 8 7 9 5 3","Lentiform Loewenfeld","3.3.9","0","n","0","right","right","right","NA","right","1005","53691","8759","NA","1005","2","legacy","6","1024","2","48000","-16","experiment","3","odd","6","231848","235142","90600","2324","136403","56016","NA","2316","145163","232938","237144","238150","233940","237144","232936","Sternberg task","25","28243","27","yes","1024"
"92.85714285714286","92.85714285714286","1039.2142857142858","1039.2142857142858","black","experiment","legacy","legacy","legacy","0","uniform","1","undefined","1","left","27","27","27","0","0","0","0","0","0","27","27","27","27","27","27","Sun Oct 24 12:01:00 2021","The main experiment item","yes","Sternbergtask.osexp","C:/Users/User/Desktop/School/Research Methods","no","mono","no","18","no","white","no","yes","768","legacy","15","11","C:/Users/User/Desktop/School/Research Methods/LW-subject-3-stern.csv","legacy","3 4 9 6 2 9","Lentiform Loewenfeld","3.3.9","5","y","0","left","right","right","NA","left","855","53691","8759","NA","855","2","legacy","6","1024","2","48000","-16","experiment","3","odd","2","238153","241448","90600","2324","136403","56016","NA","2316","145163","239244","243450","244305","240246","243450","239242","Sternberg task","26","29098","28","yes","1024"
"93.10344827586206","93.10344827586206","1024.6896551724137","1024.6896551724137","black","experiment","legacy","legacy","legacy","0","uniform","1","undefined","1","right","28","28","28","0","0","0","0","0","0","28","28","28","28","28","28","Sun Oct 24 12:01:00 2021","The main experiment item","yes","Sternbergtask.osexp","C:/Users/User/Desktop/School/Research Methods","no","mono","no","18","no","white","no","yes","768","legacy","16","11","C:/Users/User/Desktop/School/Research Methods/LW-subject-3-stern.csv","legacy","1 8 7","Lentiform Loewenfeld","3.3.9","0","n","0","right","right","right","NA","right","618","53691","8759","NA","618","2","legacy","3","1024","2","48000","-16","experiment","3","odd","4","244309","247603","90600","2324","136403","56016","NA","2316","145163","245399","249605","250224","246401","249605","245397","Sternberg task","27","29716","29","yes","1024"
"93.33333333333333","93.33333333333333","1036.2333333333333","1036.2333333333333","black","experiment","legacy","legacy","legacy","0","uniform","1","undefined","1","right","29","29","29","0","0","0","0","0","0","29","29","29","29","29","29","Sun Oct 24 12:01:00 2021","The main experiment item","yes","Sternbergtask.osexp","C:/Users/User/Desktop/School/Research Methods","no","mono","no","18","no","white","no","yes","768","legacy","17","11","C:/Users/User/Desktop/School/Research Methods/LW-subject-3-stern.csv","legacy","1 4 3 6 5","Lentiform Loewenfeld","3.3.9","0","n","0","right","right","right","NA","right","1371","53691","8759","NA","1371","2","legacy","5","1024","2","48000","-16","experiment","3","odd","8","250228","253523","90600","2324","136403","56016","NA","2316","145163","251319","255525","256898","252321","255525","251317","Sternberg task","28","31087","30","yes","1024"
"93.54838709677419","93.54838709677419","1028.4193548387098","1028.4193548387098","black","experiment","legacy","legacy","legacy","0","uniform","1","undefined","1","left","30","30","30","0","0","0","0","0","0","30","30","30","30","30","30","Sun Oct 24 12:01:00 2021","The main experiment item","yes","Sternbergtask.osexp","C:/Users/User/Desktop/School/Research Methods","no","mono","no","18","no","white","no","yes","768","legacy","18","11","C:/Users/User/Desktop/School/Research Methods/LW-subject-3-stern.csv","legacy","6 5","Lentiform Loewenfeld","3.3.9","2","y","0","left","right","right","NA","left","794","53691","8759","NA","794","2","legacy","2","1024","2","48000","-16","experiment","3","odd","5","256902","260196","90600","2324","136403","56016","NA","2316","145163","257992","262198","262993","258994","262198","257990","Sternberg task","29","31881","31","yes","1024"
"93.75","93.75","1014.96875","1014.96875","black","experiment","legacy","legacy","legacy","0","uniform","1","undefined","1","right","31","31","31","0","0","0","0","0","0","31","31","31","31","31","31","Sun Oct 24 12:01:00 2021","The main experiment item","yes","Sternbergtask.osexp","C:/Users/User/Desktop/School/Research Methods","no","mono","no","18","no","white","no","yes","768","legacy","19","11","C:/Users/User/Desktop/School/Research Methods/LW-subject-3-stern.csv","legacy","1 6 4 3 9 7","Lentiform Loewenfeld","3.3.9","0","n","0","right","right","right","NA","right","598","53691","8759","NA","598","2","legacy","6","1024","2","48000","-16","experiment","3","odd","8","262996","266291","90600","2324","136403","56016","NA","2316","145163","264087","268293","268892","265089","268293","264085","Sternberg task","30","32479","32","yes","1024"
"90.9090909090909","90.9090909090909","1008.8484848484849","1008.8484848484849","black","experiment","legacy","legacy","legacy","0","uniform","0","undefined","0","right","32","32","32","0","0","0","0","0","0","32","32","32","32","32","32","Sun Oct 24 12:01:00 2021","The main experiment item","yes","Sternbergtask.osexp","C:/Users/User/Desktop/School/Research Methods","no","mono","no","18","no","white","no","yes","768","legacy","20","11","C:/Users/User/Desktop/School/Research Methods/LW-subject-3-stern.csv","legacy","8 2 1 4 5 9","Lentiform Loewenfeld","3.3.9","0","n","0","left","right","right","NA","left","813","53691","8759","NA","813","2","legacy","6","1024","2","48000","-16","experiment","3","odd","7","268896","272191","90600","2324","136403","56016","NA","2316","145163","269987","274193","275007","270989","274193","269985","Sternberg task","30","33292","33","yes","1024"
"91.17647058823529","91.17647058823529","1012.3823529411765","1012.3823529411765","black","experiment","legacy","legacy","legacy","0","uniform","1","undefined","1","left","33","33","33","0","0","0","0","0","0","33","33","33","33","33","33","Sun Oct 24 12:01:00 2021","The main experiment item","yes","Sternbergtask.osexp","C:/Users/User/Desktop/School/Research Methods","no","mono","no","18","no","white","no","yes","768","legacy","21","11","C:/Users/User/Desktop/School/Research Methods/LW-subject-3-stern.csv","legacy","8 9 6 1","Lentiform Loewenfeld","3.3.9","2","y","0","left","right","right","NA","left","1129","53691","8759","NA","1129","2","legacy","4","1024","2","48000","-16","experiment","3","odd","9","268896","278305","275011","2324","136403","56016","NA","2316","145163","276101","280307","281437","277103","280307","276099","Sternberg task","31","34421","34","yes","1024"
"91.42857142857143","91.42857142857143","1002.6","1002.6","black","experiment","legacy","legacy","legacy","0","uniform","1","undefined","1","right","34","34","34","0","0","0","0","0","0","34","34","34","34","34","34","Sun Oct 24 12:01:00 2021","The main experiment item","yes","Sternbergtask.osexp","C:/Users/User/Desktop/School/Research Methods","no","mono","no","18","no","white","no","yes","768","legacy","22","11","C:/Users/User/Desktop/School/Research Methods/LW-subject-3-stern.csv","legacy","4 2 6 9","Lentiform Loewenfeld","3.3.9","0","n","0","right","right","right","NA","right","670","53691","8759","NA","670","2","legacy","4","1024","2","48000","-16","experiment","3","odd","7","281441","284738","275011","2324","136403","56016","NA","2316","145163","282534","286740","287411","283536","286740","282532","Sternberg task","32","35091","35","yes","1024"
"91.66666666666667","91.66666666666667","996.6944444444445","996.6944444444445","black","experiment","legacy","legacy","legacy","0","uniform","1","undefined","1","right","35","35","35","0","0","0","0","0","0","35","35","35","35","35","35","Sun Oct 24 12:01:00 2021","The main experiment item","yes","Sternbergtask.osexp","C:/Users/User/Desktop/School/Research Methods","no","mono","no","18","no","white","no","yes","768","legacy","23","11","C:/Users/User/Desktop/School/Research Methods/LW-subject-3-stern.csv","legacy","6 2 9 3 8 4","Lentiform Loewenfeld","3.3.9","0","n","0","right","right","right","NA","right","790","53691","8759","NA","790","2","legacy","6","1024","2","48000","-16","experiment","3","odd","1","287415","290709","275011","2324","136403","56016","NA","2316","145163","288505","292711","293502","289507","292711","288503","Sternberg task","33","35881","36","yes","1024"
"91.89189189189189","91.89189189189189","1002.3513513513514","1002.3513513513514","black","experiment","legacy","legacy","legacy","0","uniform","1","undefined","1","right","36","36","36","0","0","0","0","0","0","36","36","36","36","36","36","Sun Oct 24 12:01:00 2021","The main experiment item","yes","Sternbergtask.osexp","C:/Users/User/Desktop/School/Research Methods","no","mono","no","18","no","white","no","yes","768","legacy","24","11","C:/Users/User/Desktop/School/Research Methods/LW-subject-3-stern.csv","legacy","5 3 8 7 2 4","Lentiform Loewenfeld","3.3.9","0","n","0","right","right","right","NA","right","1206","53691","8759","NA","1206","2","legacy","6","1024","2","48000","-16","experiment","3","odd","9","293506","296803","275011","2324","136403","56016","NA","2316","145163","294599","298805","300012","295601","298805","294597","Sternberg task","34","37087","37","yes","1024"
"92.10526315789474","92.10526315789474","991.421052631579","991.421052631579","black","experiment","legacy","legacy","legacy","0","uniform","1","undefined","1","right","37","37","37","0","0","0","0","0","0","37","37","37","37","37","37","Sun Oct 24 12:01:00 2021","The main experiment item","yes","Sternbergtask.osexp","C:/Users/User/Desktop/School/Research Methods","no","mono","no","18","no","white","no","yes","768","legacy","25","11","C:/Users/User/Desktop/School/Research Methods/LW-subject-3-stern.csv","legacy","3 4 2","Lentiform Loewenfeld","3.3.9","0","n","0","right","right","right","NA","right","587","53691","8759","NA","587","2","legacy","3","1024","2","48000","-16","experiment","3","odd","5","300016","303312","275011","2324","136403","56016","NA","2316","145163","301108","305314","305902","302110","305314","301106","Sternberg task","35","37674","38","yes","1024"
"92.3076923076923","92.3076923076923","986.5897435897435","986.5897435897435","black","experiment","legacy","legacy","legacy","0","uniform","1","undefined","1","left","38","38","38","0","0","0","0","0","0","38","38","38","38","38","38","Sun Oct 24 12:01:00 2021","The main experiment item","yes","Sternbergtask.osexp","C:/Users/User/Desktop/School/Research Methods","no","mono","no","18","no","white","no","yes","768","legacy","26","11","C:/Users/User/Desktop/School/Research Methods/LW-subject-3-stern.csv","legacy","4","Lentiform Loewenfeld","3.3.9","1","y","0","left","right","right","NA","left","803","53691","8759","NA","803","2","legacy","1","1024","2","48000","-16","experiment","3","odd","4","305906","309203","275011","2324","136403","56016","NA","2316","145163","306999","311205","312009","308001","311205","306996","Sternberg task","36","38477","39","yes","1024"
"92.5","92.5","982.7","982.7","black","experiment","legacy","legacy","legacy","0","uniform","1","undefined","1","left","39","39","39","0","0","0","0","0","0","39","39","39","39","39","39","Sun Oct 24 12:01:00 2021","The main experiment item","yes","Sternbergtask.osexp","C:/Users/User/Desktop/School/Research Methods","no","mono","no","18","no","white","no","yes","768","legacy","27","11","C:/Users/User/Desktop/School/Research Methods/LW-subject-3-stern.csv","legacy","6 8 9 3 4 9","Lentiform Loewenfeld","3.3.9","5","y","0","left","right","right","NA","left","831","53691","8759","NA","831","2","legacy","6","1024","2","48000","-16","experiment","3","odd","4","312013","315309","275011","2324","136403","56016","NA","2316","145163","313105","317311","318143","314107","317311","313103","Sternberg task","37","39308","40","yes","1024"
"92.6829268292683","92.6829268292683","970.9512195121952","970.9512195121952","black","experiment","legacy","legacy","legacy","0","uniform","1","undefined","1","right","40","40","40","0","0","0","0","0","0","40","40","40","40","40","40","Sun Oct 24 12:01:00 2021","The main experiment item","yes","Sternbergtask.osexp","C:/Users/User/Desktop/School/Research Methods","no","mono","no","18","no","white","no","yes","768","legacy","28","11","C:/Users/User/Desktop/School/Research Methods/LW-subject-3-stern.csv","legacy","3 4 9 6 7 8","Lentiform Loewenfeld","3.3.9","0","n","0","right","right","right","NA","right","501","53691","8759","NA","501","2","legacy","6","1024","2","48000","-16","experiment","3","odd","2","318147","321441","275011","2324","136403","56016","NA","2316","145163","319237","323443","323945","320239","323443","319235","Sternberg task","38","39809","41","yes","1024"
"92.85714285714286","92.85714285714286","965.952380952381","965.952380952381","black","experiment","legacy","legacy","legacy","0","uniform","1","undefined","1","left","41","41","41","0","0","0","0","0","0","41","41","41","41","41","41","Sun Oct 24 12:01:00 2021","The main experiment item","yes","Sternbergtask.osexp","C:/Users/User/Desktop/School/Research Methods","no","mono","no","18","no","white","no","yes","768","legacy","29","11","C:/Users/User/Desktop/School/Research Methods/LW-subject-3-stern.csv","legacy","8","Lentiform Loewenfeld","3.3.9","1","y","0","left","right","right","NA","left","761","53691","8759","NA","761","2","legacy","1","1024","2","48000","-16","experiment","3","odd","8","323949","327243","275011","2324","136403","56016","NA","2316","145163","325039","329245","330007","326041","329245","325037","Sternberg task","39","40570","42","yes","1024"
"93.02325581395348","93.02325581395348","959.2093023255813","959.2093023255813","black","experiment","legacy","legacy","legacy","0","uniform","1","undefined","1","right","42","42","42","0","0","0","0","0","0","42","42","42","42","42","42","Sun Oct 24 12:01:00 2021","The main experiment item","yes","Sternbergtask.osexp","C:/Users/User/Desktop/School/Research Methods","no","mono","no","18","no","white","no","yes","768","legacy","30","11","C:/Users/User/Desktop/School/Research Methods/LW-subject-3-stern.csv","legacy","1 7 5 2 9","Lentiform Loewenfeld","3.3.9","0","n","0","right","right","right","NA","right","676","53691","8759","NA","676","2","legacy","5","1024","2","48000","-16","experiment","3","odd","3","330011","333313","275011","2324","136403","56016","NA","2316","145163","331109","335315","335992","332111","335315","331106","Sternberg task","40","41246","43","yes","1024"
"93.18181818181819","93.18181818181819","959.3863636363636","959.3863636363636","black","experiment","legacy","legacy","legacy","0","uniform","1","undefined","1","left","43","43","43","0","0","0","0","0","0","43","43","43","43","43","43","Sun Oct 24 12:01:00 2021","The main experiment item","yes","Sternbergtask.osexp","C:/Users/User/Desktop/School/Research Methods","no","mono","no","18","no","white","no","yes","768","legacy","31","11","C:/Users/User/Desktop/School/Research Methods/LW-subject-3-stern.csv","legacy","9 4 2","Lentiform Loewenfeld","3.3.9","1","y","0","left","right","right","NA","left","967","53691","8759","NA","967","2","legacy","3","1024","2","48000","-16","experiment","3","odd","9","335996","339297","275011","2324","136403","56016","NA","2316","145163","337093","341299","342267","338095","341299","337091","Sternberg task","41","42213","44","yes","1024"
"93.33333333333333","93.33333333333333","954","954","black","experiment","legacy","legacy","legacy","0","uniform","1","undefined","1","right","44","44","44","0","0","0","0","0","0","44","44","44","44","44","44","Sun Oct 24 12:01:00 2021","The main experiment item","yes","Sternbergtask.osexp","C:/Users/User/Desktop/School/Research Methods","no","mono","no","18","no","white","no","yes","768","legacy","32","11","C:/Users/User/Desktop/School/Research Methods/LW-subject-3-stern.csv","legacy","5 2","Lentiform Loewenfeld","3.3.9","0","n","0","right","right","right","NA","right","717","53691","8759","NA","717","2","legacy","2","1024","2","48000","-16","experiment","3","odd","7","342271","345569","275011","2324","136403","56016","NA","2316","145163","343365","347571","348289","344367","347571","343363","Sternberg task","42","42930","45","yes","1024"
"93.47826086956522","93.47826086956522","946.6086956521739","946.6086956521739","black","experiment","legacy","legacy","legacy","0","uniform","1","undefined","1","left","45","45","45","0","0","0","0","0","0","45","45","45","45","45","45","Sun Oct 24 12:01:00 2021","The main experiment item","yes","Sternbergtask.osexp","C:/Users/User/Desktop/School/Research Methods","no","mono","no","18","no","white","no","yes","768","legacy","33","11","C:/Users/User/Desktop/School/Research Methods/LW-subject-3-stern.csv","legacy","3 5 4 7","Lentiform Loewenfeld","3.3.9","1","y","0","left","right","right","NA","left","614","53691","8759","NA","614","2","legacy","4","1024","2","48000","-16","experiment","3","odd","3","348293","351593","275011","2324","136403","56016","NA","2316","145163","349389","353595","354210","350391","353595","349387","Sternberg task","43","43544","46","yes","1024"
"93.61702127659575","93.61702127659575","948.9787234042553","948.9787234042553","black","experiment","legacy","legacy","legacy","0","uniform","1","undefined","1","left","46","46","46","0","0","0","0","0","0","46","46","46","46","46","46","Sun Oct 24 12:01:00 2021","The main experiment item","yes","Sternbergtask.osexp","C:/Users/User/Desktop/School/Research Methods","no","mono","no","18","no","white","no","yes","768","legacy","34","11","C:/Users/User/Desktop/School/Research Methods/LW-subject-3-stern.csv","legacy","4 9 7 8 5 3","Lentiform Loewenfeld","3.3.9","4","y","0","left","right","right","NA","left","1058","53691","8759","NA","1058","2","legacy","6","1024","2","48000","-16","experiment","3","odd","8","354214","357508","275011","2324","136403","56016","NA","2316","145163","355304","359510","360569","356306","359510","355302","Sternberg task","44","44602","47","yes","1024"
"93.75","93.75","958.0208333333334","958.0208333333334","black","experiment","legacy","legacy","legacy","0","uniform","1","undefined","1","left","47","47","47","0","0","0","0","0","0","47","47","47","47","47","47","Sun Oct 24 12:01:00 2021","The main experiment item","yes","Sternbergtask.osexp","C:/Users/User/Desktop/School/Research Methods","no","mono","no","18","no","white","no","yes","768","legacy","35","11","C:/Users/User/Desktop/School/Research Methods/LW-subject-3-stern.csv","legacy","7 6","Lentiform Loewenfeld","3.3.9","2","y","0","left","right","right","NA","left","1383","53691","8759","NA","1383","2","legacy","2","1024","2","48000","-16","experiment","3","odd","6","360574","363868","275011","2324","136403","56016","NA","2316","145163","361664","365870","367254","362666","365870","361662","Sternberg task","45","45985","48","yes","1024"
"93.87755102040816","93.87755102040816","949.9183673469388","949.9183673469388","black","experiment","legacy","legacy","legacy","0","uniform","1","undefined","1","right","48","48","48","0","0","0","0","0","0","48","48","48","48","48","48","Sun Oct 24 12:01:00 2021","The main experiment item","yes","Sternbergtask.osexp","C:/Users/User/Desktop/School/Research Methods","no","mono","no","18","no","white","no","yes","768","legacy","36","11","C:/Users/User/Desktop/School/Research Methods/LW-subject-3-stern.csv","legacy","1 4 9 3","Lentiform Loewenfeld","3.3.9","0","n","0","right","right","right","NA","right","561","53691","8759","NA","561","2","legacy","4","1024","2","48000","-16","experiment","3","odd","5","367258","370553","275011","2324","136403","56016","NA","2316","145163","368349","372555","373117","369351","372555","368347","Sternberg task","46","46546","49","yes","1024"
"94","94","947.32","947.32","black","experiment","legacy","legacy","legacy","0","uniform","1","undefined","1","right","49","49","49","0","0","0","0","0","0","49","49","49","49","49","49","Sun Oct 24 12:01:00 2021","The main experiment item","yes","Sternbergtask.osexp","C:/Users/User/Desktop/School/Research Methods","no","mono","no","18","no","white","no","yes","768","legacy","37","11","C:/Users/User/Desktop/School/Research Methods/LW-subject-3-stern.csv","legacy","5","Lentiform Loewenfeld","3.3.9","0","n","0","right","right","right","NA","right","820","53691","8759","NA","820","2","legacy","1","1024","2","48000","-16","experiment","3","odd","8","373121","376415","275011","2324","136403","56016","NA","2316","145163","374211","378417","379238","375213","378417","374208","Sternberg task","47","47366","50","yes","1024"
"94.11764705882354","94.11764705882354","948.8039215686274","948.8039215686274","black","experiment","legacy","legacy","legacy","0","uniform","1","undefined","1","right","50","50","50","0","0","0","0","0","0","50","50","50","50","50","50","Sun Oct 24 12:01:00 2021","The main experiment item","yes","Sternbergtask.osexp","C:/Users/User/Desktop/School/Research Methods","no","mono","no","18","no","white","no","yes","768","legacy","38","11","C:/Users/User/Desktop/School/Research Methods/LW-subject-3-stern.csv","legacy","7 6 4 8 1 2","Lentiform Loewenfeld","3.3.9","0","n","0","right","right","right","NA","right","1023","53691","8759","NA","1023","2","legacy","6","1024","2","48000","-16","experiment","3","odd","9","379242","382537","275011","2324","136403","56016","NA","2316","145163","380333","384539","385563","381335","384539","380330","Sternberg task","48","48389","51","yes","1024"
"94.23076923076923","94.23076923076923","947.8846153846154","947.8846153846154","black","experiment","legacy","legacy","legacy","0","uniform","1","undefined","1","left","51","51","51","0","0","0","0","0","0","51","51","51","51","51","51","Sun Oct 24 12:01:00 2021","The main experiment item","yes","Sternbergtask.osexp","C:/Users/User/Desktop/School/Research Methods","no","mono","no","18","no","white","no","yes","768","legacy","39","11","C:/Users/User/Desktop/School/Research Methods/LW-subject-3-stern.csv","legacy","3 9 6 2","Lentiform Loewenfeld","3.3.9","4","y","0","left","right","right","NA","left","901","53691","8759","NA","901","2","legacy","4","1024","2","48000","-16","experiment","3","odd","2","385567","388865","275011","2324","136403","56016","NA","2316","145163","386661","390867","391769","387663","390867","386659","Sternberg task","49","49290","52","yes","1024"
"94.33962264150944","94.33962264150944","945.1132075471698","945.1132075471698","black","experiment","legacy","legacy","legacy","0","uniform","1","undefined","1","left","52","52","52","0","0","0","0","0","0","52","52","52","52","52","52","Sun Oct 24 12:01:00 2021","The main experiment item","yes","Sternbergtask.osexp","C:/Users/User/Desktop/School/Research Methods","no","mono","no","18","no","white","no","yes","768","legacy","40","11","C:/Users/User/Desktop/School/Research Methods/LW-subject-3-stern.csv","legacy","4 1 8 7 5","Lentiform Loewenfeld","3.3.9","3","y","0","left","right","right","NA","left","801","53691","8759","NA","801","2","legacy","5","1024","2","48000","-16","experiment","3","odd","8","391773","395072","275011","2324","136403","56016","NA","2316","145163","392867","397074","397876","393870","397074","392865","Sternberg task","50","50091","53","yes","1024"
"94.44444444444444","94.44444444444444","947.8888888888889","947.8888888888889","black","experiment","legacy","legacy","legacy","0","uniform","1","undefined","1","left","53","53","53","0","0","0","0","0","0","53","53","53","53","53","53","Sun Oct 24 12:01:00 2021","The main experiment item","yes","Sternbergtask.osexp","C:/Users/User/Desktop/School/Research Methods","no","mono","no","18","no","white","no","yes","768","legacy","41","11","C:/Users/User/Desktop/School/Research Methods/LW-subject-3-stern.csv","legacy","6 7 9 3 1 2","Lentiform Loewenfeld","3.3.9","1","y","0","left","right","right","NA","left","1095","53691","8759","NA","1095","2","legacy","6","1024","2","48000","-16","experiment","3","odd","6","397880","401176","275011","2324","136403","56016","NA","2316","145163","398972","403178","404274","399974","403178","398970","Sternberg task","51","51186","54","yes","1024"
"94.54545454545455","94.54545454545455","941.4","941.4","black","experiment","legacy","legacy","legacy","0","uniform","1","undefined","1","left","54","54","54","0","0","0","0","0","0","54","54","54","54","54","54","Sun Oct 24 12:01:00 2021","The main experiment item","yes","Sternbergtask.osexp","C:/Users/User/Desktop/School/Research Methods","no","mono","no","18","no","white","no","yes","768","legacy","42","11","C:/Users/User/Desktop/School/Research Methods/LW-subject-3-stern.csv","legacy","4 1 5","Lentiform Loewenfeld","3.3.9","2","y","0","left","right","right","NA","left","591","53691","8759","NA","591","2","legacy","3","1024","2","48000","-16","experiment","3","odd","1","404278","407575","275011","2324","136403","56016","NA","2316","145163","405371","409577","410169","406373","409577","405369","Sternberg task","52","51777","55","yes","1024"
"94.64285714285714","94.64285714285714","935.0535714285714","935.0535714285714","black","experiment","legacy","legacy","legacy","0","uniform","1","undefined","1","left","55","55","55","0","0","0","0","0","0","55","55","55","55","55","55","Sun Oct 24 12:01:00 2021","The main experiment item","yes","Sternbergtask.osexp","C:/Users/User/Desktop/School/Research Methods","no","mono","no","18","no","white","no","yes","768","legacy","43","11","C:/Users/User/Desktop/School/Research Methods/LW-subject-3-stern.csv","legacy","2 3 7 4","Lentiform Loewenfeld","3.3.9","1","y","0","left","right","right","NA","left","586","53691","8759","NA","586","2","legacy","4","1024","2","48000","-16","experiment","3","odd","2","410177","413474","275011","2324","136403","56016","NA","2316","145163","411270","415476","416064","412272","415476","411267","Sternberg task","53","52363","56","yes","1024"
"94.73684210526316","94.73684210526316","938.6491228070175","938.6491228070175","black","experiment","legacy","legacy","legacy","0","uniform","1","undefined","1","left","56","56","56","0","0","0","0","0","0","56","56","56","56","56","56","Sun Oct 24 12:01:00 2021","The main experiment item","yes","Sternbergtask.osexp","C:/Users/User/Desktop/School/Research Methods","no","mono","no","18","no","white","no","yes","768","legacy","44","11","C:/Users/User/Desktop/School/Research Methods/LW-subject-3-stern.csv","legacy","6 7 8 5","Lentiform Loewenfeld","3.3.9","3","y","0","left","right","right","NA","left","1140","53691","8759","NA","1140","2","legacy","4","1024","2","48000","-16","experiment","3","odd","8","416068","419366","275011","2324","136403","56016","NA","2316","145163","417162","421368","422509","418164","421368","417160","Sternberg task","54","53503","57","yes","1024"
"94.82758620689656","94.82758620689656","937.8275862068965","937.8275862068965","black","experiment","legacy","legacy","legacy","0","uniform","1","undefined","1","right","57","57","57","0","0","0","0","0","0","57","57","57","57","57","57","Sun Oct 24 12:01:00 2021","The main experiment item","yes","Sternbergtask.osexp","C:/Users/User/Desktop/School/Research Methods","no","mono","no","18","no","white","no","yes","768","legacy","45","11","C:/Users/User/Desktop/School/Research Methods/LW-subject-3-stern.csv","legacy","6 9 4 5 3 2","Lentiform Loewenfeld","3.3.9","0","n","0","right","right","right","NA","right","891","53691","8759","NA","891","2","legacy","6","1024","2","48000","-16","experiment","3","odd","8","422513","425809","275011","2324","136403","56016","NA","2316","145163","423605","427811","428703","424607","427811","423603","Sternberg task","55","54394","58","yes","1024"
"94.91525423728814","94.91525423728814","937.728813559322","937.728813559322","black","experiment","legacy","legacy","legacy","0","uniform","1","undefined","1","left","58","58","58","0","0","0","0","0","0","58","58","58","58","58","58","Sun Oct 24 12:01:00 2021","The main experiment item","yes","Sternbergtask.osexp","C:/Users/User/Desktop/School/Research Methods","no","mono","no","18","no","white","no","yes","768","legacy","46","11","C:/Users/User/Desktop/School/Research Methods/LW-subject-3-stern.csv","legacy","2 8 5 1","Lentiform Loewenfeld","3.3.9","4","y","0","left","right","right","NA","left","932","53691","8759","NA","932","2","legacy","4","1024","2","48000","-16","experiment","3","odd","1","428707","432001","275011","2324","136403","56016","NA","2316","145163","429797","434003","434936","430799","434003","429795","Sternberg task","56","55326","59","yes","1024"
"95","95","935.0333333333333","935.0333333333333","black","experiment","legacy","legacy","legacy","0","uniform","1","undefined","1","right","59","59","59","0","0","0","0","0","0","59","59","59","59","59","59","Sun Oct 24 12:01:00 2021","The main experiment item","yes","Sternbergtask.osexp","C:/Users/User/Desktop/School/Research Methods","no","mono","no","18","no","white","no","yes","768","legacy","47","11","C:/Users/User/Desktop/School/Research Methods/LW-subject-3-stern.csv","legacy","9 5 3 2 8 6","Lentiform Loewenfeld","3.3.9","0","n","0","right","right","right","NA","right","776","53691","8759","NA","776","2","legacy","6","1024","2","48000","-16","experiment","3","odd","7","434940","438236","275011","2324","136403","56016","NA","2316","145163","436032","440238","441015","437034","440238","436030","Sternberg task","57","56102","60","yes","1024"
"95.08196721311475","95.08196721311475","931.9016393442623","931.9016393442623","black","experiment","legacy","legacy","legacy","0","uniform","1","undefined","1","right","60","60","60","0","0","0","0","0","0","60","60","60","60","60","60","Sun Oct 24 12:01:00 2021","The main experiment item","yes","Sternbergtask.osexp","C:/Users/User/Desktop/School/Research Methods","no","mono","no","18","no","white","no","yes","768","legacy","48","11","C:/Users/User/Desktop/School/Research Methods/LW-subject-3-stern.csv","legacy","3 9 8 1 6 4","Lentiform Loewenfeld","3.3.9","0","n","0","right","right","right","NA","right","744","53691","8759","NA","744","2","legacy","6","1024","2","48000","-16","experiment","3","odd","7","441020","444317","275011","2324","136403","56016","NA","2316","145163","442113","446319","447064","443115","446319","442111","Sternberg task","58","56846","61","yes","1024"
"95.16129032258064","95.16129032258064","927.9032258064516","927.9032258064516","black","experiment","legacy","legacy","legacy","0","uniform","1","undefined","1","left","61","61","61","0","0","0","0","0","0","61","61","61","61","61","61","Sun Oct 24 12:01:00 2021","The main experiment item","yes","Sternbergtask.osexp","C:/Users/User/Desktop/School/Research Methods","no","mono","no","18","no","white","no","yes","768","legacy","49","11","C:/Users/User/Desktop/School/Research Methods/LW-subject-3-stern.csv","legacy","3 5 9 6 2 4","Lentiform Loewenfeld","3.3.9","1","y","0","left","right","right","NA","left","684","53691","8759","NA","684","2","legacy","6","1024","2","48000","-16","experiment","3","odd","3","447068","450363","275011","2324","136403","56016","NA","2316","145163","448159","452365","453051","449161","452365","448157","Sternberg task","59","57530","62","yes","1024"
"95.23809523809524","95.23809523809524","923.1904761904761","923.1904761904761","black","experiment","legacy","legacy","legacy","0","uniform","1","undefined","1","right","62","62","62","0","0","0","0","0","0","62","62","62","62","62","62","Sun Oct 24 12:01:00 2021","The main experiment item","yes","Sternbergtask.osexp","C:/Users/User/Desktop/School/Research Methods","no","mono","no","18","no","white","no","yes","768","legacy","50","11","C:/Users/User/Desktop/School/Research Methods/LW-subject-3-stern.csv","legacy","9 7 4 5 8","Lentiform Loewenfeld","3.3.9","0","n","0","right","right","right","NA","right","631","53691","8759","NA","631","2","legacy","5","1024","2","48000","-16","experiment","3","odd","6","453054","456348","275011","2324","136403","56016","NA","2316","145163","454144","458350","458982","455146","458350","454142","Sternberg task","60","58161","63","yes","1024"
"95.3125","95.3125","923.453125","923.453125","black","experiment","legacy","legacy","legacy","0","uniform","1","undefined","1","left","63","63","63","0","0","0","0","0","0","63","63","63","63","63","63","Sun Oct 24 12:01:00 2021","The main experiment item","yes","Sternbergtask.osexp","C:/Users/User/Desktop/School/Research Methods","no","mono","no","18","no","white","no","yes","768","legacy","51","11","C:/Users/User/Desktop/School/Research Methods/LW-subject-3-stern.csv","legacy","9 3 1 2 5","Lentiform Loewenfeld","3.3.9","4","y","0","left","right","right","NA","left","940","53691","8759","NA","940","2","legacy","5","1024","2","48000","-16","experiment","3","odd","2","458986","462281","275011","2324","136403","56016","NA","2316","145163","460077","464283","465225","461079","464283","460075","Sternberg task","61","59101","64","yes","1024"
"95.38461538461539","95.38461538461539","924.3384615384615","924.3384615384615","black","experiment","legacy","legacy","legacy","0","uniform","1","undefined","1","right","64","64","64","0","0","0","0","0","0","64","64","64","64","64","64","Sun Oct 24 12:01:00 2021","The main experiment item","yes","Sternbergtask.osexp","C:/Users/User/Desktop/School/Research Methods","no","mono","no","18","no","white","no","yes","768","legacy","52","11","C:/Users/User/Desktop/School/Research Methods/LW-subject-3-stern.csv","legacy","8 6 3 4 7","Lentiform Loewenfeld","3.3.9","0","n","0","right","right","right","NA","right","981","53691","8759","NA","981","2","legacy","5","1024","2","48000","-16","experiment","3","odd","1","465229","468524","275011","2324","136403","56016","NA","2316","145163","466320","470526","471508","467322","470526","466318","Sternberg task","62","60082","65","yes","1024"
"95.45454545454545","95.45454545454545","920.2272727272727","920.2272727272727","black","experiment","legacy","legacy","legacy","0","uniform","1","undefined","1","right","65","65","65","0","0","0","0","0","0","65","65","65","65","65","65","Sun Oct 24 12:01:00 2021","The main experiment item","yes","Sternbergtask.osexp","C:/Users/User/Desktop/School/Research Methods","no","mono","no","18","no","white","no","yes","768","legacy","53","11","C:/Users/User/Desktop/School/Research Methods/LW-subject-3-stern.csv","legacy","2 5 1 4","Lentiform Loewenfeld","3.3.9","0","n","0","right","right","right","NA","right","653","53691","8759","NA","653","2","legacy","4","1024","2","48000","-16","experiment","3","odd","6","471512","474806","275011","2324","136403","56016","NA","2316","145163","472602","476808","477463","473604","476808","472600","Sternberg task","63","60735","66","yes","1024"
"95.5223880597015","95.5223880597015","917.2537313432836","917.2537313432836","black","experiment","legacy","legacy","legacy","0","uniform","1","undefined","1","left","66","66","66","0","0","0","0","0","0","66","66","66","66","66","66","Sun Oct 24 12:01:00 2021","The main experiment item","yes","Sternbergtask.osexp","C:/Users/User/Desktop/School/Research Methods","no","mono","no","18","no","white","no","yes","768","legacy","54","11","C:/Users/User/Desktop/School/Research Methods/LW-subject-3-stern.csv","legacy","7 4 2 6 3 5","Lentiform Loewenfeld","3.3.9","6","y","0","left","right","right","NA","left","721","53691","8759","NA","721","2","legacy","6","1024","2","48000","-16","experiment","3","odd","5","477466","480762","275011","2324","136403","56016","NA","2316","145163","478558","482764","483486","479560","482764","478556","Sternberg task","64","61456","67","yes","1024"
"95.58823529411765","95.58823529411765","915.7794117647059","915.7794117647059","black","experiment","legacy","legacy","legacy","0","uniform","1","undefined","1","left","67","67","67","0","0","0","0","0","0","67","67","67","67","67","67","Sun Oct 24 12:01:00 2021","The main experiment item","yes","Sternbergtask.osexp","C:/Users/User/Desktop/School/Research Methods","no","mono","no","18","no","white","no","yes","768","legacy","55","11","C:/Users/User/Desktop/School/Research Methods/LW-subject-3-stern.csv","legacy","9 5 8 1","Lentiform Loewenfeld","3.3.9","2","y","0","left","right","right","NA","left","817","53691","8759","NA","817","2","legacy","4","1024","2","48000","-16","experiment","3","odd","5","483490","486784","275011","2324","136403","56016","NA","2316","145163","484580","488786","489605","485582","488786","484577","Sternberg task","65","62273","68","yes","1024"
"95.65217391304348","95.65217391304348","911.3188405797101","911.3188405797101","black","experiment","legacy","legacy","legacy","0","uniform","1","undefined","1","right","68","68","68","0","0","0","0","0","0","68","68","68","68","68","68","Sun Oct 24 12:01:00 2021","The main experiment item","yes","Sternbergtask.osexp","C:/Users/User/Desktop/School/Research Methods","no","mono","no","18","no","white","no","yes","768","legacy","56","11","C:/Users/User/Desktop/School/Research Methods/LW-subject-3-stern.csv","legacy","7 9 1 6","Lentiform Loewenfeld","3.3.9","0","n","0","right","right","right","NA","right","608","53691","8759","NA","608","2","legacy","4","1024","2","48000","-16","experiment","3","odd","4","489608","492903","275011","2324","136403","56016","NA","2316","145163","490699","494905","495514","491701","494905","490697","Sternberg task","66","62881","69","yes","1024"
"95.71428571428571","95.71428571428571","914","914","black","experiment","legacy","legacy","legacy","0","uniform","1","undefined","1","left","69","69","69","0","0","0","0","0","0","69","69","69","69","69","69","Sun Oct 24 12:01:00 2021","The main experiment item","yes","Sternbergtask.osexp","C:/Users/User/Desktop/School/Research Methods","no","mono","no","18","no","white","no","yes","768","legacy","57","11","C:/Users/User/Desktop/School/Research Methods/LW-subject-3-stern.csv","legacy","5 2 9 6 1 7","Lentiform Loewenfeld","3.3.9","3","y","0","left","right","right","NA","left","1099","53691","8759","NA","1099","2","legacy","6","1024","2","48000","-16","experiment","3","odd","9","495518","498815","275011","2324","136403","56016","NA","2316","145163","496611","500817","501917","497613","500817","496609","Sternberg task","67","63980","70","yes","1024"
"95.77464788732394","95.77464788732394","911.6760563380282","911.6760563380282","black","experiment","legacy","legacy","legacy","0","uniform","1","undefined","1","left","70","70","70","0","0","0","0","0","0","70","70","70","70","70","70","Sun Oct 24 12:01:00 2021","The main experiment item","yes","Sternbergtask.osexp","C:/Users/User/Desktop/School/Research Methods","no","mono","no","18","no","white","no","yes","768","legacy","58","11","C:/Users/User/Desktop/School/Research Methods/LW-subject-3-stern.csv","legacy","6 1 2","Lentiform Loewenfeld","3.3.9","3","y","0","left","right","right","NA","left","749","53691","8759","NA","749","2","legacy","3","1024","2","48000","-16","experiment","3","odd","2","501922","505218","275011","2324","136403","56016","NA","2316","145163","503014","507220","507970","504016","507220","503012","Sternberg task","68","64729","71","yes","1024"
"95.83333333333333","95.83333333333333","911.0277777777778","911.0277777777778","black","experiment","legacy","legacy","legacy","0","uniform","1","undefined","1","right","71","71","71","0","0","0","0","0","0","71","71","71","71","71","71","Sun Oct 24 12:01:00 2021","The main experiment item","yes","Sternbergtask.osexp","C:/Users/User/Desktop/School/Research Methods","no","mono","no","18","no","white","no","yes","768","legacy","59","11","C:/Users/User/Desktop/School/Research Methods/LW-subject-3-stern.csv","legacy","3 9 1","Lentiform Loewenfeld","3.3.9","0","n","0","right","right","right","NA","right","865","53691","8759","NA","865","2","legacy","3","1024","2","48000","-16","experiment","3","odd","7","507974","511269","275011","2324","136403","56016","NA","2316","145163","509065","513271","514137","510067","513271","509063","Sternberg task","69","65594","72","yes","1024"
"95.89041095890411","95.89041095890411","910.1232876712329","910.1232876712329","black","experiment","legacy","legacy","legacy","0","uniform","1","undefined","1","left","72","72","72","0","0","0","0","0","0","72","72","72","72","72","72","Sun Oct 24 12:01:00 2021","The main experiment item","yes","Sternbergtask.osexp","C:/Users/User/Desktop/School/Research Methods","no","mono","no","18","no","white","no","yes","768","legacy","60","11","C:/Users/User/Desktop/School/Research Methods/LW-subject-3-stern.csv","legacy","5 7 3 6 2","Lentiform Loewenfeld","3.3.9","5","y","0","left","right","right","NA","left","845","53691","8759","NA","845","2","legacy","5","1024","2","48000","-16","experiment","3","odd","2","514142","517437","275011","2324","136403","56016","NA","2316","145163","515233","519439","520286","516235","519439","515231","Sternberg task","70","66439","73","yes","1024"
"95.94594594594595","95.94594594594595","904.5405405405405","904.5405405405405","black","experiment","legacy","legacy","legacy","0","uniform","1","undefined","1","right","73","73","73","0","0","0","0","0","0","73","73","73","73","73","73","Sun Oct 24 12:01:00 2021","The main experiment item","yes","Sternbergtask.osexp","C:/Users/User/Desktop/School/Research Methods","no","mono","no","18","no","white","no","yes","768","legacy","61","11","C:/Users/User/Desktop/School/Research Methods/LW-subject-3-stern.csv","legacy","7 9","Lentiform Loewenfeld","3.3.9","0","n","0","right","right","right","NA","right","497","53691","8759","NA","497","2","legacy","2","1024","2","48000","-16","experiment","3","odd","1","520290","523584","275011","2324","136403","56016","NA","2316","145163","521380","525586","526085","522382","525586","521377","Sternberg task","71","66936","74","yes","1024"
"96","96","903.4933333333333","903.4933333333333","black","experiment","legacy","legacy","legacy","0","uniform","1","undefined","1","right","74","74","74","0","0","0","0","0","0","74","74","74","74","74","74","Sun Oct 24 12:01:00 2021","The main experiment item","yes","Sternbergtask.osexp","C:/Users/User/Desktop/School/Research Methods","no","mono","no","18","no","white","no","yes","768","legacy","62","11","C:/Users/User/Desktop/School/Research Methods/LW-subject-3-stern.csv","legacy","6 3 1 7 9 8","Lentiform Loewenfeld","3.3.9","0","n","0","right","right","right","NA","right","826","53691","8759","NA","826","2","legacy","6","1024","2","48000","-16","experiment","3","odd","4","526089","529387","275011","2324","136403","56016","NA","2316","145163","527183","531389","532216","528185","531389","527180","Sternberg task","72","67762","75","yes","1024"
"96.05263157894737","96.05263157894737","899.0131578947369","899.0131578947369","black","experiment","legacy","legacy","legacy","0","uniform","1","undefined","1","right","75","75","75","0","0","0","0","0","0","75","75","75","75","75","75","Sun Oct 24 12:01:00 2021","The main experiment item","yes","Sternbergtask.osexp","C:/Users/User/Desktop/School/Research Methods","no","mono","no","18","no","white","no","yes","768","legacy","63","11","C:/Users/User/Desktop/School/Research Methods/LW-subject-3-stern.csv","legacy","2 8 9","Lentiform Loewenfeld","3.3.9","0","n","0","right","right","right","NA","right","563","53691","8759","NA","563","2","legacy","3","1024","2","48000","-16","experiment","3","odd","6","532221","535517","275011","2324","136403","56016","NA","2316","145163","533313","537519","538083","534315","537519","533311","Sternberg task","73","68325","76","yes","1024"
"96.1038961038961","96.1038961038961","895.5194805194806","895.5194805194806","black","experiment","legacy","legacy","legacy","0","uniform","1","undefined","1","right","76","76","76","0","0","0","0","0","0","76","76","76","76","76","76","Sun Oct 24 12:01:00 2021","The main experiment item","yes","Sternbergtask.osexp","C:/Users/User/Desktop/School/Research Methods","no","mono","no","18","no","white","no","yes","768","legacy","64","11","C:/Users/User/Desktop/School/Research Methods/LW-subject-3-stern.csv","legacy","8 4 3 5","Lentiform Loewenfeld","3.3.9","0","n","0","right","right","right","NA","right","630","53691","8759","NA","630","2","legacy","4","1024","2","48000","-16","experiment","3","odd","6","538087","541384","275011","2324","136403","56016","NA","2316","145163","539180","543386","544017","540182","543386","539178","Sternberg task","74","68955","77","yes","1024"
"96.15384615384616","96.15384615384616","894.1282051282051","894.1282051282051","black","experiment","legacy","legacy","legacy","0","uniform","1","undefined","1","right","77","77","77","0","0","0","0","0","0","77","77","77","77","77","77","Sun Oct 24 12:01:00 2021","The main experiment item","yes","Sternbergtask.osexp","C:/Users/User/Desktop/School/Research Methods","no","mono","no","18","no","white","no","yes","768","legacy","65","11","C:/Users/User/Desktop/School/Research Methods/LW-subject-3-stern.csv","legacy","8 4 3 9","Lentiform Loewenfeld","3.3.9","0","n","0","right","right","right","NA","right","787","53691","8759","NA","787","2","legacy","4","1024","2","48000","-16","experiment","3","odd","5","544021","547318","275011","2324","136403","56016","NA","2316","145163","545114","549320","550108","546116","549320","545112","Sternberg task","75","69742","78","yes","1024"
"96.20253164556962","96.20253164556962","893.7088607594936","893.7088607594936","black","experiment","legacy","legacy","legacy","0","uniform","1","undefined","1","right","78","78","78","0","0","0","0","0","0","78","78","78","78","78","78","Sun Oct 24 12:01:00 2021","The main experiment item","yes","Sternbergtask.osexp","C:/Users/User/Desktop/School/Research Methods","no","mono","no","18","no","white","no","yes","768","legacy","66","11","C:/Users/User/Desktop/School/Research Methods/LW-subject-3-stern.csv","legacy","8 9","Lentiform Loewenfeld","3.3.9","0","n","0","right","right","right","NA","right","861","53691","8759","NA","861","2","legacy","2","1024","2","48000","-16","experiment","3","odd","5","550112","553405","275011","2324","136403","56016","NA","2316","145163","551202","555407","556270","552204","555407","551200","Sternberg task","76","70603","79","yes","1024"
"96.25","96.25","893.525","893.525","black","experiment","legacy","legacy","legacy","0","uniform","1","undefined","1","left","79","79","79","0","0","0","0","0","0","79","79","79","79","79","79","Sun Oct 24 12:01:00 2021","The main experiment item","yes","Sternbergtask.osexp","C:/Users/User/Desktop/School/Research Methods","no","mono","no","18","no","white","no","yes","768","legacy","67","11","C:/Users/User/Desktop/School/Research Methods/LW-subject-3-stern.csv","legacy","8 7 3","Lentiform Loewenfeld","3.3.9","1","y","0","left","right","right","NA","left","879","53691","8759","NA","879","2","legacy","3","1024","2","48000","-16","experiment","3","odd","8","556277","559571","275011","2324","136403","56016","NA","2316","145163","557367","561573","562453","558369","561573","557365","Sternberg task","77","71482","80","yes","1024"
"96.29629629629629","96.29629629629629","897.2592592592592","897.2592592592592","black","experiment","legacy","legacy","legacy","0","uniform","1","undefined","1","left","80","80","80","0","0","0","0","0","0","80","80","80","80","80","80","Sun Oct 24 12:01:00 2021","The main experiment item","yes","Sternbergtask.osexp","C:/Users/User/Desktop/School/Research Methods","no","mono","no","18","no","white","no","yes","768","legacy","68","11","C:/Users/User/Desktop/School/Research Methods/LW-subject-3-stern.csv","legacy","5 7 8 2 3 8","Lentiform Loewenfeld","3.3.9","5","y","0","left","right","right","NA","left","1196","53691","8759","NA","1196","2","legacy","6","1024","2","48000","-16","experiment","3","odd","3","562457","565752","275011","2324","136403","56016","NA","2316","145163","563548","567754","568952","564550","567754","563546","Sternberg task","78","72678","81","yes","1024"
"96.34146341463415","96.34146341463415","894.8536585365854","894.8536585365854","black","experiment","legacy","legacy","legacy","0","uniform","1","undefined","1","left","81","81","81","0","0","0","0","0","0","81","81","81","81","81","81","Sun Oct 24 12:01:00 2021","The main experiment item","yes","Sternbergtask.osexp","C:/Users/User/Desktop/School/Research Methods","no","mono","no","18","no","white","no","yes","768","legacy","69","11","C:/Users/User/Desktop/School/Research Methods/LW-subject-3-stern.csv","legacy","8 3","Lentiform Loewenfeld","3.3.9","2","y","0","left","right","right","NA","left","700","53691","8759","NA","700","2","legacy","2","1024","2","48000","-16","experiment","3","odd","3","568955","572249","275011","2324","136403","56016","NA","2316","145163","570045","574251","574952","571047","574251","570043","Sternberg task","79","73378","82","yes","1024"
"96.3855421686747","96.3855421686747","892.3012048192771","892.3012048192771","black","experiment","legacy","legacy","legacy","0","uniform","1","undefined","1","right","82","82","82","0","0","0","0","0","0","82","82","82","82","82","82","Sun Oct 24 12:01:00 2021","The main experiment item","yes","Sternbergtask.osexp","C:/Users/User/Desktop/School/Research Methods","no","mono","no","18","no","white","no","yes","768","legacy","70","11","C:/Users/User/Desktop/School/Research Methods/LW-subject-3-stern.csv","legacy","2 6 4 3 9","Lentiform Loewenfeld","3.3.9","0","n","0","right","right","right","NA","right","683","53691","8759","NA","683","2","legacy","5","1024","2","48000","-16","experiment","3","odd","1","574956","578251","275011","2324","136403","56016","NA","2316","145163","576047","580253","580937","577049","580253","576044","Sternberg task","80","74061","83","yes","1024"
"96.42857142857143","96.42857142857143","892.0119047619048","892.0119047619048","black","experiment","legacy","legacy","legacy","0","uniform","1","undefined","1","left","83","83","83","0","0","0","0","0","0","83","83","83","83","83","83","Sun Oct 24 12:01:00 2021","The main experiment item","yes","Sternbergtask.osexp","C:/Users/User/Desktop/School/Research Methods","no","mono","no","18","no","white","no","yes","768","legacy","71","11","C:/Users/User/Desktop/School/Research Methods/LW-subject-3-stern.csv","legacy","4 7 6 8 2 3","Lentiform Loewenfeld","3.3.9","6","y","0","left","right","right","NA","left","868","53691","8759","NA","868","2","legacy","6","1024","2","48000","-16","experiment","3","odd","3","580941","584236","275011","2324","136403","56016","NA","2316","145163","582032","586238","587108","583034","586238","582030","Sternberg task","81","74929","84","yes","1024"
"96.47058823529412","96.47058823529412","891.964705882353","891.964705882353","black","experiment","legacy","legacy","legacy","0","uniform","1","undefined","1","left","84","84","84","0","0","0","0","0","0","84","84","84","84","84","84","Sun Oct 24 12:01:00 2021","The main experiment item","yes","Sternbergtask.osexp","C:/Users/User/Desktop/School/Research Methods","no","mono","no","18","no","white","no","yes","768","legacy","72","11","C:/Users/User/Desktop/School/Research Methods/LW-subject-3-stern.csv","legacy","8 5 3 7 4 6","Lentiform Loewenfeld","3.3.9","6","y","0","left","right","right","NA","left","888","53691","8759","NA","888","2","legacy","6","1024","2","48000","-16","experiment","3","odd","6","587112","590410","275011","2324","136403","56016","NA","2316","145163","588206","592412","593301","589208","592412","588204","Sternberg task","82","75817","85","yes","1024"
"96.51162790697674","96.51162790697674","892.1627906976744","892.1627906976744","black","experiment","legacy","legacy","legacy","0","uniform","1","undefined","1","left","85","85","85","0","0","0","0","0","0","85","85","85","85","85","85","Sun Oct 24 12:01:00 2021","The main experiment item","yes","Sternbergtask.osexp","C:/Users/User/Desktop/School/Research Methods","no","mono","no","18","no","white","no","yes","768","legacy","73","11","C:/Users/User/Desktop/School/Research Methods/LW-subject-3-stern.csv","legacy","9 3 8 2 1 4","Lentiform Loewenfeld","3.3.9","3","y","0","left","right","right","NA","left","909","53691","8759","NA","909","2","legacy","6","1024","2","48000","-16","experiment","3","odd","8","593305","596602","275011","2324","136403","56016","NA","2316","145163","594398","598604","599515","595400","598604","594396","Sternberg task","83","76726","86","yes","1024"
"96.55172413793103","96.55172413793103","891.4942528735633","891.4942528735633","black","experiment","legacy","legacy","legacy","0","uniform","1","undefined","1","right","86","86","86","0","0","0","0","0","0","86","86","86","86","86","86","Sun Oct 24 12:01:00 2021","The main experiment item","yes","Sternbergtask.osexp","C:/Users/User/Desktop/School/Research Methods","no","mono","no","18","no","white","no","yes","768","legacy","74","11","C:/Users/User/Desktop/School/Research Methods/LW-subject-3-stern.csv","legacy","1 5 3 2 8","Lentiform Loewenfeld","3.3.9","0","n","0","right","right","right","NA","right","834","53691","8759","NA","834","2","legacy","5","1024","2","48000","-16","experiment","3","odd","4","599519","602814","275011","2324","136403","56016","NA","2316","145163","600610","604816","605651","601612","604816","600608","Sternberg task","84","77560","87","yes","1024"
"96.5909090909091","96.5909090909091","891.7954545454545","891.7954545454545","black","experiment","legacy","legacy","legacy","0","uniform","1","undefined","1","right","87","87","87","0","0","0","0","0","0","87","87","87","87","87","87","Sun Oct 24 12:01:00 2021","The main experiment item","yes","Sternbergtask.osexp","C:/Users/User/Desktop/School/Research Methods","no","mono","no","18","no","white","no","yes","768","legacy","75","11","C:/Users/User/Desktop/School/Research Methods/LW-subject-3-stern.csv","legacy","2 3 8 5 6 7","Lentiform Loewenfeld","3.3.9","0","n","0","right","right","right","NA","right","918","53691","8759","NA","918","2","legacy","6","1024","2","48000","-16","experiment","3","odd","1","605655","608949","275011","2324","136403","56016","NA","2316","145163","606745","610951","611871","607747","610951","606743","Sternberg task","85","78478","88","yes","1024"
"95.50561797752809","95.50561797752809","892.5730337078652","892.5730337078652","black","experiment","legacy","legacy","legacy","0","uniform","0","undefined","0","right","88","88","88","0","0","0","0","0","0","88","88","88","88","88","88","Sun Oct 24 12:01:00 2021","The main experiment item","yes","Sternbergtask.osexp","C:/Users/User/Desktop/School/Research Methods","no","mono","no","18","no","white","no","yes","768","legacy","76","11","C:/Users/User/Desktop/School/Research Methods/LW-subject-3-stern.csv","legacy","6 9 7 3 8 2","Lentiform Loewenfeld","3.3.9","0","n","0","left","right","right","NA","left","961","53691","8759","NA","961","2","legacy","6","1024","2","48000","-16","experiment","3","odd","5","611874","615169","275011","2324","136403","56016","NA","2316","145163","612965","617171","618134","613967","617171","612963","Sternberg task","85","79439","89","yes","1024"
"95.55555555555556","95.55555555555556","895","895","black","experiment","legacy","legacy","legacy","0","uniform","1","undefined","1","right","89","89","89","0","0","0","0","0","0","89","89","89","89","89","89","Sun Oct 24 12:01:00 2021","The main experiment item","yes","Sternbergtask.osexp","C:/Users/User/Desktop/School/Research Methods","no","mono","no","18","no","white","no","yes","768","legacy","77","11","C:/Users/User/Desktop/School/Research Methods/LW-subject-3-stern.csv","legacy","7 1 5 6 3","Lentiform Loewenfeld","3.3.9","0","n","0","right","right","right","NA","right","1111","53691","8759","NA","1111","2","legacy","5","1024","2","48000","-16","experiment","3","odd","8","611874","621433","618138","2324","136403","56016","NA","2316","145163","619229","623435","624547","620231","623435","619226","Sternberg task","86","80550","90","yes","1024"
"95.6043956043956","95.6043956043956","892.1538461538462","892.1538461538462","black","experiment","legacy","legacy","legacy","0","uniform","1","undefined","1","right","90","90","90","0","0","0","0","0","0","90","90","90","90","90","90","Sun Oct 24 12:01:00 2021","The main experiment item","yes","Sternbergtask.osexp","C:/Users/User/Desktop/School/Research Methods","no","mono","no","18","no","white","no","yes","768","legacy","78","11","C:/Users/User/Desktop/School/Research Methods/LW-subject-3-stern.csv","legacy","4 1","Lentiform Loewenfeld","3.3.9","0","n","0","right","right","right","NA","right","636","53691","8759","NA","636","2","legacy","2","1024","2","48000","-16","experiment","3","odd","6","624551","627845","618138","2324","136403","56016","NA","2316","145163","625640","629847","630484","626643","629847","625638","Sternberg task","87","81186","91","yes","1024"
"95.65217391304348","95.65217391304348","892.0760869565217","892.0760869565217","black","experiment","legacy","legacy","legacy","0","uniform","1","undefined","1","left","91","91","91","0","0","0","0","0","0","91","91","91","91","91","91","Sun Oct 24 12:01:00 2021","The main experiment item","yes","Sternbergtask.osexp","C:/Users/User/Desktop/School/Research Methods","no","mono","no","18","no","white","no","yes","768","legacy","79","11","C:/Users/User/Desktop/School/Research Methods/LW-subject-3-stern.csv","legacy","8 1 6","Lentiform Loewenfeld","3.3.9","3","y","0","left","right","right","NA","left","885","53691","8759","NA","885","2","legacy","3","1024","2","48000","-16","experiment","3","odd","6","630488","633784","618138","2324","136403","56016","NA","2316","145163","631580","635786","636673","632582","635786","631578","Sternberg task","88","82071","92","yes","1024"
"95.6989247311828","95.6989247311828","889.9784946236559","889.9784946236559","black","experiment","legacy","legacy","legacy","0","uniform","1","undefined","1","left","92","92","92","0","0","0","0","0","0","92","92","92","92","92","92","Sun Oct 24 12:01:00 2021","The main experiment item","yes","Sternbergtask.osexp","C:/Users/User/Desktop/School/Research Methods","no","mono","no","18","no","white","no","yes","768","legacy","80","11","C:/Users/User/Desktop/School/Research Methods/LW-subject-3-stern.csv","legacy","2 4 6 9","Lentiform Loewenfeld","3.3.9","3","y","0","left","right","right","NA","left","697","53691","8759","NA","697","2","legacy","4","1024","2","48000","-16","experiment","3","odd","6","636677","639972","618138","2324","136403","56016","NA","2316","145163","637768","641974","642673","638770","641974","637766","Sternberg task","89","82768","93","yes","1024"
"95.74468085106383","95.74468085106383","887.4255319148937","887.4255319148937","black","experiment","legacy","legacy","legacy","0","uniform","1","undefined","1","left","93","93","93","0","0","0","0","0","0","93","93","93","93","93","93","Sun Oct 24 12:01:00 2021","The main experiment item","yes","Sternbergtask.osexp","C:/Users/User/Desktop/School/Research Methods","no","mono","no","18","no","white","no","yes","768","legacy","81","11","C:/Users/User/Desktop/School/Research Methods/LW-subject-3-stern.csv","legacy","5 2 6","Lentiform Loewenfeld","3.3.9","2","y","0","left","right","right","NA","left","650","53691","8759","NA","650","2","legacy","3","1024","2","48000","-16","experiment","3","odd","2","642677","645973","618138","2324","136403","56016","NA","2316","145163","643769","647975","648627","644771","647975","643767","Sternberg task","90","83418","94","yes","1024"
"95.78947368421052","95.78947368421052","888.6421052631579","888.6421052631579","black","experiment","legacy","legacy","legacy","0","uniform","1","undefined","1","right","94","94","94","0","0","0","0","0","0","94","94","94","94","94","94","Sun Oct 24 12:01:00 2021","The main experiment item","yes","Sternbergtask.osexp","C:/Users/User/Desktop/School/Research Methods","no","mono","no","18","no","white","no","yes","768","legacy","82","11","C:/Users/User/Desktop/School/Research Methods/LW-subject-3-stern.csv","legacy","5 9 2 3","Lentiform Loewenfeld","3.3.9","0","n","0","right","right","right","NA","right","1003","53691","8759","NA","1003","2","legacy","4","1024","2","48000","-16","experiment","3","odd","8","648630","651925","618138","2324","136403","56016","NA","2316","145163","649721","653927","654931","650723","653927","649719","Sternberg task","91","84421","95","yes","1024"
"95.83333333333333","95.83333333333333","888.4479166666666","888.4479166666666","black","experiment","legacy","legacy","legacy","0","uniform","1","undefined","1","left","95","95","95","0","0","0","0","0","0","95","95","95","95","95","95","Sun Oct 24 12:01:00 2021","The main experiment item","yes","Sternbergtask.osexp","C:/Users/User/Desktop/School/Research Methods","no","mono","no","18","no","white","no","yes","768","legacy","83","11","C:/Users/User/Desktop/School/Research Methods/LW-subject-3-stern.csv","legacy","9 1 6 7 8","Lentiform Loewenfeld","3.3.9","1","y","0","left","right","right","NA","left","870","53691","8759","NA","870","2","legacy","5","1024","2","48000","-16","experiment","3","odd","9","654935","658231","618138","2324","136403","56016","NA","2316","145163","656027","660233","661105","657029","660233","656025","Sternberg task","92","85291","96","yes","1024"
"95.87628865979381","95.87628865979381","884.2783505154639","884.2783505154639","black","experiment","legacy","legacy","legacy","0","uniform","1","undefined","1","right","96","96","96","0","0","0","0","0","0","96","96","96","96","96","96","Sun Oct 24 12:01:00 2021","The main experiment item","yes","Sternbergtask.osexp","C:/Users/User/Desktop/School/Research Methods","no","mono","no","18","no","white","no","yes","768","legacy","84","11","C:/Users/User/Desktop/School/Research Methods/LW-subject-3-stern.csv","legacy","1 7 5 2","Lentiform Loewenfeld","3.3.9","0","n","0","right","right","right","NA","right","484","53691","8759","NA","484","2","legacy","4","1024","2","48000","-16","experiment","3","odd","3","661109","664406","618138","2324","136403","56016","NA","2316","145163","662202","666408","666894","663204","666408","662199","Sternberg task","93","85775","97","yes","1024"
"95.91836734693878","95.91836734693878","882.1734693877551","882.1734693877551","black","experiment","legacy","legacy","legacy","0","uniform","1","undefined","1","left","97","97","97","0","0","0","0","0","0","97","97","97","97","97","97","Sun Oct 24 12:01:00 2021","The main experiment item","yes","Sternbergtask.osexp","C:/Users/User/Desktop/School/Research Methods","no","mono","no","18","no","white","no","yes","768","legacy","85","11","C:/Users/User/Desktop/School/Research Methods/LW-subject-3-stern.csv","legacy","2 6 1 7 4","Lentiform Loewenfeld","3.3.9","2","y","0","left","right","right","NA","left","678","53691","8759","NA","678","2","legacy","5","1024","2","48000","-16","experiment","3","odd","6","666898","670196","618138","2324","136403","56016","NA","2316","145163","667992","672198","672878","668994","672198","667989","Sternberg task","94","86453","98","yes","1024"
"95.95959595959596","95.95959595959596","878.2929292929293","878.2929292929293","black","experiment","legacy","legacy","legacy","0","uniform","1","undefined","1","left","98","98","98","0","0","0","0","0","0","98","98","98","98","98","98","Sun Oct 24 12:01:00 2021","The main experiment item","yes","Sternbergtask.osexp","C:/Users/User/Desktop/School/Research Methods","no","mono","no","18","no","white","no","yes","768","legacy","86","11","C:/Users/User/Desktop/School/Research Methods/LW-subject-3-stern.csv","legacy","3 4","Lentiform Loewenfeld","3.3.9","1","y","0","left","right","right","NA","left","498","53691","8759","NA","498","2","legacy","2","1024","2","48000","-16","experiment","3","odd","3","672882","676178","618138","2324","136403","56016","NA","2316","145163","673974","678180","678680","674976","678180","673972","Sternberg task","95","86951","99","yes","1024"
"96","96","877.72","877.72","black","experiment","legacy","legacy","legacy","0","uniform","1","undefined","1","right","99","99","99","0","0","0","0","0","0","99","99","99","99","99","99","Sun Oct 24 12:01:00 2021","The main experiment item","yes","Sternbergtask.osexp","C:/Users/User/Desktop/School/Research Methods","no","mono","no","18","no","white","no","yes","768","legacy","87","11","C:/Users/User/Desktop/School/Research Methods/LW-subject-3-stern.csv","legacy","7 8 6 1","Lentiform Loewenfeld","3.3.9","0","n","0","right","right","right","NA","right","821","53691","8759","NA","821","2","legacy","4","1024","2","48000","-16","experiment","3","odd","3","678684","681979","618138","2324","136403","56016","NA","2316","145163","679775","683981","684804","680777","683981","679773","Sternberg task","96","87772","100","yes","1024"
"96.03960396039604","96.03960396039604","875.009900990099","875.009900990099","black","experiment","legacy","legacy","legacy","0","uniform","1","undefined","1","left","100","100","100","0","0","0","0","0","0","100","100","100","100","100","100","Sun Oct 24 12:01:00 2021","The main experiment item","yes","Sternbergtask.osexp","C:/Users/User/Desktop/School/Research Methods","no","mono","no","18","no","white","no","yes","768","legacy","88","11","C:/Users/User/Desktop/School/Research Methods/LW-subject-3-stern.csv","legacy","2 3","Lentiform Loewenfeld","3.3.9","1","y","0","left","right","right","NA","left","604","53691","8759","NA","604","2","legacy","2","1024","2","48000","-16","experiment","3","odd","2","684808","688104","618138","2324","136403","56016","NA","2316","145163","685900","690106","690712","686902","690106","685898","Sternberg task","97","88376","101","yes","1024"
"96.07843137254902","96.07843137254902","874.7450980392157","874.7450980392157","black","experiment","legacy","legacy","legacy","0","uniform","1","undefined","1","right","101","101","101","0","0","0","0","0","0","101","101","101","101","101","101","Sun Oct 24 12:01:00 2021","The main experiment item","yes","Sternbergtask.osexp","C:/Users/User/Desktop/School/Research Methods","no","mono","no","18","no","white","no","yes","768","legacy","89","11","C:/Users/User/Desktop/School/Research Methods/LW-subject-3-stern.csv","legacy","7 4 2 8 1 9","Lentiform Loewenfeld","3.3.9","0","n","0","right","right","right","NA","right","848","53691","8759","NA","848","2","legacy","6","1024","2","48000","-16","experiment","3","odd","5","690716","694010","618138","2324","136403","56016","NA","2316","145163","691806","696012","696862","692808","696012","691804","Sternberg task","98","89224","102","yes","1024"
"96.11650485436893","96.11650485436893","873.0097087378641","873.0097087378641","black","experiment","legacy","legacy","legacy","0","uniform","1","undefined","1","left","102","102","102","0","0","0","0","0","0","102","102","102","102","102","102","Sun Oct 24 12:01:00 2021","The main experiment item","yes","Sternbergtask.osexp","C:/Users/User/Desktop/School/Research Methods","no","mono","no","18","no","white","no","yes","768","legacy","90","11","C:/Users/User/Desktop/School/Research Methods/LW-subject-3-stern.csv","legacy","1 4 9 3 2 5","Lentiform Loewenfeld","3.3.9","3","y","0","left","right","right","NA","left","696","53691","8759","NA","696","2","legacy","6","1024","2","48000","-16","experiment","3","odd","9","696866","700161","618138","2324","136403","56016","NA","2316","145163","697957","702163","702860","698959","702163","697955","Sternberg task","99","89920","103","yes","1024"
"96.15384615384616","96.15384615384616","871.5","871.5","black","experiment","legacy","legacy","legacy","0","uniform","1","undefined","1","right","103","103","103","0","0","0","0","0","0","103","103","103","103","103","103","Sun Oct 24 12:01:00 2021","The main experiment item","yes","Sternbergtask.osexp","C:/Users/User/Desktop/School/Research Methods","no","mono","no","18","no","white","no","yes","768","legacy","91","11","C:/Users/User/Desktop/School/Research Methods/LW-subject-3-stern.csv","legacy","2 8 9 4 1","Lentiform Loewenfeld","3.3.9","0","n","0","right","right","right","NA","right","716","53691","8759","NA","716","2","legacy","5","1024","2","48000","-16","experiment","3","odd","5","702864","706159","618138","2324","136403","56016","NA","2316","145163","703955","708161","708879","704957","708161","703953","Sternberg task","100","90636","104","yes","1024"
"96.19047619047619","96.19047619047619","875.5904761904762","875.5904761904762","black","experiment","legacy","legacy","legacy","0","uniform","1","undefined","1","left","104","104","104","0","0","0","0","0","0","104","104","104","104","104","104","Sun Oct 24 12:01:00 2021","The main experiment item","yes","Sternbergtask.osexp","C:/Users/User/Desktop/School/Research Methods","no","mono","no","18","no","white","no","yes","768","legacy","92","11","C:/Users/User/Desktop/School/Research Methods/LW-subject-3-stern.csv","legacy","7 1 3","Lentiform Loewenfeld","3.3.9","2","y","0","left","right","right","NA","left","1301","53691","8759","NA","1301","2","legacy","3","1024","2","48000","-16","experiment","3","odd","1","708883","712178","618138","2324","136403","56016","NA","2316","145163","709974","714180","715483","710976","714180","709972","Sternberg task","101","91937","105","yes","1024"
"96.22641509433963","96.22641509433963","874.6132075471698","874.6132075471698","black","experiment","legacy","legacy","legacy","0","uniform","1","undefined","1","left","105","105","105","0","0","0","0","0","0","105","105","105","105","105","105","Sun Oct 24 12:01:00 2021","The main experiment item","yes","Sternbergtask.osexp","C:/Users/User/Desktop/School/Research Methods","no","mono","no","18","no","white","no","yes","768","legacy","93","11","C:/Users/User/Desktop/School/Research Methods/LW-subject-3-stern.csv","legacy","8 5 1 3 9","Lentiform Loewenfeld","3.3.9","4","y","0","left","right","right","NA","left","772","53691","8759","NA","772","2","legacy","5","1024","2","48000","-16","experiment","3","odd","3","715487","718781","618138","2324","136403","56016","NA","2316","145163","716577","720783","721556","717579","720783","716575","Sternberg task","102","92709","106","yes","1024"
"96.26168224299066","96.26168224299066","871.7196261682243","871.7196261682243","black","experiment","legacy","legacy","legacy","0","uniform","1","undefined","1","right","106","106","106","0","0","0","0","0","0","106","106","106","106","106","106","Sun Oct 24 12:01:00 2021","The main experiment item","yes","Sternbergtask.osexp","C:/Users/User/Desktop/School/Research Methods","no","mono","no","18","no","white","no","yes","768","legacy","94","11","C:/Users/User/Desktop/School/Research Methods/LW-subject-3-stern.csv","legacy","2 7 5","Lentiform Loewenfeld","3.3.9","0","n","0","right","right","right","NA","right","565","53691","8759","NA","565","2","legacy","3","1024","2","48000","-16","experiment","3","odd","8","721560","724855","618138","2324","136403","56016","NA","2316","145163","722651","726857","727424","723653","726857","722648","Sternberg task","103","93274","107","yes","1024"
"96.29629629629629","96.29629629629629","869.2129629629629","869.2129629629629","black","experiment","legacy","legacy","legacy","0","uniform","1","undefined","1","right","107","107","107","0","0","0","0","0","0","107","107","107","107","107","107","Sun Oct 24 12:01:00 2021","The main experiment item","yes","Sternbergtask.osexp","C:/Users/User/Desktop/School/Research Methods","no","mono","no","18","no","white","no","yes","768","legacy","95","11","C:/Users/User/Desktop/School/Research Methods/LW-subject-3-stern.csv","legacy","6 8 4","Lentiform Loewenfeld","3.3.9","0","n","0","right","right","right","NA","right","601","53691","8759","NA","601","2","legacy","3","1024","2","48000","-16","experiment","3","odd","1","727428","730722","618138","2324","136403","56016","NA","2316","145163","728518","732724","733327","729520","732724","728516","Sternberg task","104","93875","108","yes","1024"
"96.3302752293578","96.3302752293578","870.6697247706422","870.6697247706422","black","experiment","legacy","legacy","legacy","0","uniform","1","undefined","1","right","108","108","108","0","0","0","0","0","0","108","108","108","108","108","108","Sun Oct 24 12:01:00 2021","The main experiment item","yes","Sternbergtask.osexp","C:/Users/User/Desktop/School/Research Methods","no","mono","no","18","no","white","no","yes","768","legacy","96","11","C:/Users/User/Desktop/School/Research Methods/LW-subject-3-stern.csv","legacy","1","Lentiform Loewenfeld","3.3.9","0","n","0","right","right","right","NA","right","1028","53691","8759","NA","1028","2","legacy","1","1024","2","48000","-16","experiment","3","odd","7","733331","736629","618138","2324","136403","56016","NA","2316","145163","734425","738631","739661","735427","738631","734423","Sternberg task","105","94903","109","yes","1024"
"96.36363636363636","96.36363636363636","872.7636363636364","872.7636363636364","black","experiment","legacy","legacy","legacy","0","uniform","1","undefined","1","right","109","109","109","0","0","0","0","0","0","109","109","109","109","109","109","Sun Oct 24 12:01:00 2021","The main experiment item","yes","Sternbergtask.osexp","C:/Users/User/Desktop/School/Research Methods","no","mono","no","18","no","white","no","yes","768","legacy","97","11","C:/Users/User/Desktop/School/Research Methods/LW-subject-3-stern.csv","legacy","5 7 3","Lentiform Loewenfeld","3.3.9","0","n","0","right","right","right","NA","right","1101","53691","8759","NA","1101","2","legacy","3","1024","2","48000","-16","experiment","3","odd","9","739664","742961","618138","2324","136403","56016","NA","2316","145163","740757","744963","746065","741759","744963","740754","Sternberg task","106","96004","110","yes","1024"
"96.3963963963964","96.3963963963964","870.027027027027","870.027027027027","black","experiment","legacy","legacy","legacy","0","uniform","1","undefined","1","right","110","110","110","0","0","0","0","0","0","110","110","110","110","110","110","Sun Oct 24 12:01:00 2021","The main experiment item","yes","Sternbergtask.osexp","C:/Users/User/Desktop/School/Research Methods","no","mono","no","18","no","white","no","yes","768","legacy","98","11","C:/Users/User/Desktop/School/Research Methods/LW-subject-3-stern.csv","legacy","9 8 2 7 4","Lentiform Loewenfeld","3.3.9","0","n","0","right","right","right","NA","right","569","53691","8759","NA","569","2","legacy","5","1024","2","48000","-16","experiment","3","odd","5","746069","749365","618138","2324","136403","56016","NA","2316","145163","747161","751367","751938","748163","751367","747158","Sternberg task","107","96573","111","yes","1024"
"96.42857142857143","96.42857142857143","868.1875","868.1875","black","experiment","legacy","legacy","legacy","0","uniform","1","undefined","1","left","111","111","111","0","0","0","0","0","0","111","111","111","111","111","111","Sun Oct 24 12:01:00 2021","The main experiment item","yes","Sternbergtask.osexp","C:/Users/User/Desktop/School/Research Methods","no","mono","no","18","no","white","no","yes","768","legacy","99","11","C:/Users/User/Desktop/School/Research Methods/LW-subject-3-stern.csv","legacy","6 9 7 4 5 1","Lentiform Loewenfeld","3.3.9","2","y","0","left","right","right","NA","left","664","53691","8759","NA","664","2","legacy","6","1024","2","48000","-16","experiment","3","odd","9","751942","755237","618138","2324","136403","56016","NA","2316","145163","753033","757239","757904","754035","757239","753030","Sternberg task","108","97237","112","yes","1024"
