acc,accuracy,average_response_time,avg_rt,background,block,canvas_backend,clock_backend,color_backend,compensation,coordinates,correct,correct_instruction1,correct_keyboard_response,correct_response,count_ISI,count_correctFeedback,count_expSequence,count_experiment,count_experimentLoop,count_fixation,count_incorrectFeedback,count_instruction1,count_instructions2,count_keyboard_response,count_logger,count_memorySet,count_practiceLoop,count_probe,count_thankYou,datetime,description,disable_garbage_collection,experiment_file,experiment_path,font_bold,font_family,font_italic,font_size,font_underline,foreground,form_clicks,fullscreen,height,keyboard_backend,live_row,live_row_practiceLoop,logfile,mouse_backend,numberSet,opensesame_codename,opensesame_version,posInSet,present,repeat_cycle,response,response_instruction1,response_instructions2,response_keyboard_response,response_thankYou,response_time,response_time_instruction1,response_time_instructions2,response_time_keyboard_response,response_time_thankYou,round_decimals,sampler_backend,setSize,sound_buf_size,sound_channels,sound_freq,sound_sample_size,start,subject_nr,subject_parity,target,time_ISI,time_correctFeedback,time_expSequence,time_experiment,time_experimentLoop,time_fixation,time_incorrectFeedback,time_instruction1,time_instructions2,time_keyboard_response,time_logger,time_memorySet,time_practiceLoop,time_probe,time_thankYou,title,total_correct,total_response_time,total_responses,uniform_coordinates,width
0,0,2001,2001,black,practice,legacy,legacy,legacy,0,uniform,0,undefined,0,left,0,0,0,0,0,0,0,0,0,0,0,0,0,0,0,10/25/19 12:40,The main experiment item,yes,Sternbergtask SL.osexp,C:/Users/Sarah Linan/Desktop,no,mono,no,18,no,white,no,yes,768,legacy,0,0,C:/Users/Sarah Linan/Desktop/SLsubject-4.csv,legacy,6,Kafkaesque Koffka,3.2.8,1,y,0,None,right,NA,None,NA,2001,35880,NA,2001,NA,2,legacy,1,1024,2,48000,-16,experiment,4,even,6,51297,NA,49084,4712,NA,49088,NA,4720,NA,53302,55303,50092,40680,53301,NA,Sternberg task,0,2001,1,yes,1024
0,0,1551,1551,black,practice,legacy,legacy,legacy,0,uniform,0,undefined,0,right,1,1,1,0,0,1,1,0,0,1,1,1,0,1,0,10/25/19 12:40,The main experiment item,yes,Sternbergtask SL.osexp,C:/Users/Sarah Linan/Desktop,no,mono,no,18,no,white,no,yes,768,legacy,1,1,C:/Users/Sarah Linan/Desktop/SLsubject-4.csv,legacy,4 1 5,Kafkaesque Koffka,3.2.8,0,n,0,left,right,NA,left,NA,1101,35880,NA,1101,NA,2,legacy,3,1024,2,48000,-16,experiment,4,even,2,58872,NA,56663,4712,NA,56665,55500,4720,NA,60876,61978,57668,40680,60876,NA,Sternberg task,0,3102,2,yes,1024
33.33333333,33.33333333,1279.333333,1279.333333,black,practice,legacy,legacy,legacy,0,uniform,1,undefined,1,right,2,2,2,0,0,2,2,0,0,2,2,2,0,2,0,10/25/19 12:40,The main experiment item,yes,Sternbergtask SL.osexp,C:/Users/Sarah Linan/Desktop,no,mono,no,18,no,white,no,yes,768,legacy,2,2,C:/Users/Sarah Linan/Desktop/SLsubject-4.csv,legacy,5 7 8 4 1 2,Kafkaesque Koffka,3.2.8,0,n,0,right,right,NA,right,NA,736,35880,NA,736,NA,2,legacy,6,1024,2,48000,-16,experiment,4,even,6,65435,NA,63224,4712,NA,63227,62058,4720,NA,67438,68174,64231,40680,67438,NA,Sternberg task,1,3838,3,yes,1024
50,50,1190,1190,black,practice,legacy,legacy,legacy,0,uniform,1,undefined,1,left,3,3,3,0,0,3,3,0,0,3,3,3,0,3,0,10/25/19 12:40,The main experiment item,yes,Sternbergtask SL.osexp,C:/Users/Sarah Linan/Desktop,no,mono,no,18,no,white,no,yes,768,legacy,3,3,C:/Users/Sarah Linan/Desktop/SLsubject-4.csv,legacy,1 5 2 9,Kafkaesque Koffka,3.2.8,2,y,0,left,right,NA,left,NA,922,35880,NA,922,NA,2,legacy,4,1024,2,48000,-16,experiment,4,even,5,71631,68261,69420,4712,NA,69423,62058,4720,NA,73635,74558,70427,40680,73635,NA,Sternberg task,2,4760,4,yes,1024
60,60,1093.8,1093.8,black,practice,legacy,legacy,legacy,0,uniform,1,undefined,1,left,4,4,4,0,0,4,4,0,0,4,4,4,0,4,0,10/25/19 12:40,The main experiment item,yes,Sternbergtask SL.osexp,C:/Users/Sarah Linan/Desktop,no,mono,no,18,no,white,no,yes,768,legacy,4,4,C:/Users/Sarah Linan/Desktop/SLsubject-4.csv,legacy,4 8,Kafkaesque Koffka,3.2.8,1,y,0,left,right,NA,left,NA,709,35880,NA,709,NA,2,legacy,2,1024,2,48000,-16,experiment,4,even,4,78034,74653,75823,4712,NA,75826,62058,4720,NA,80039,80748,76830,40680,80039,NA,Sternberg task,3,5469,5,yes,1024
66.66666667,66.66666667,1085.666667,1085.666667,black,practice,legacy,legacy,legacy,0,uniform,1,undefined,1,right,5,5,5,0,0,5,5,0,0,5,5,5,0,5,0,10/25/19 12:40,The main experiment item,yes,Sternbergtask SL.osexp,C:/Users/Sarah Linan/Desktop,no,mono,no,18,no,white,no,yes,768,legacy,5,5,C:/Users/Sarah Linan/Desktop/SLsubject-4.csv,legacy,2 1,Kafkaesque Koffka,3.2.8,0,n,0,right,right,NA,right,NA,1045,35880,NA,1045,NA,2,legacy,2,1024,2,48000,-16,experiment,4,even,5,84211,80834,82002,4712,NA,82004,62058,4720,NA,86216,87261,83008,40680,86215,NA,Sternberg task,4,6514,6,yes,1024
71.42857143,71.42857143,1024.714286,1024.714286,black,practice,legacy,legacy,legacy,0,uniform,1,undefined,1,left,6,6,6,0,0,6,6,0,0,6,6,6,0,6,0,10/25/19 12:40,The main experiment item,yes,Sternbergtask SL.osexp,C:/Users/Sarah Linan/Desktop,no,mono,no,18,no,white,no,yes,768,legacy,6,6,C:/Users/Sarah Linan/Desktop/SLsubject-4.csv,legacy,4 3 1 7 9 8,Kafkaesque Koffka,3.2.8,1,y,0,left,right,NA,left,NA,659,35880,NA,659,NA,2,legacy,6,1024,2,48000,-16,experiment,4,even,4,90722,87346,88513,4712,NA,88515,62058,4720,NA,92726,93386,89518,40680,92726,NA,Sternberg task,5,7173,7,yes,1024
75,75,993,993,black,practice,legacy,legacy,legacy,0,uniform,1,undefined,1,right,7,7,7,0,0,7,7,0,0,7,7,7,0,7,0,10/25/19 12:40,The main experiment item,yes,Sternbergtask SL.osexp,C:/Users/Sarah Linan/Desktop,no,mono,no,18,no,white,no,yes,768,legacy,7,7,C:/Users/Sarah Linan/Desktop/SLsubject-4.csv,legacy,5,Kafkaesque Koffka,3.2.8,0,n,0,right,right,NA,right,NA,771,35880,NA,771,NA,2,legacy,1,1024,2,48000,-16,experiment,4,even,3,96855,93471,94645,4712,NA,94648,62058,4720,NA,98860,99631,95651,40680,98859,NA,Sternberg task,6,7944,8,yes,1024
77.77777778,77.77777778,976.6666667,976.6666667,black,practice,legacy,legacy,legacy,0,uniform,1,undefined,1,right,8,8,8,0,0,8,8,0,0,8,8,8,0,8,0,10/25/19 12:40,The main experiment item,yes,Sternbergtask SL.osexp,C:/Users/Sarah Linan/Desktop,no,mono,no,18,no,white,no,yes,768,legacy,8,8,C:/Users/Sarah Linan/Desktop/SLsubject-4.csv,legacy,3 1 9 4,Kafkaesque Koffka,3.2.8,0,n,0,right,right,NA,right,NA,846,35880,NA,846,NA,2,legacy,4,1024,2,48000,-16,experiment,4,even,6,103055,99681,100845,4712,NA,100847,62058,4720,NA,105059,105906,101850,40680,105059,NA,Sternberg task,7,8790,9,yes,1024
70,70,962.9,962.9,black,practice,legacy,legacy,legacy,0,uniform,0,undefined,0,left,9,9,9,0,0,9,9,0,0,9,9,9,0,9,0,10/25/19 12:40,The main experiment item,yes,Sternbergtask SL.osexp,C:/Users/Sarah Linan/Desktop,no,mono,no,18,no,white,no,yes,768,legacy,9,9,C:/Users/Sarah Linan/Desktop/SLsubject-4.csv,legacy,2 9 4,Kafkaesque Koffka,3.2.8,3,y,0,right,right,NA,right,NA,839,35880,NA,839,NA,2,legacy,3,1024,2,48000,-16,experiment,4,even,4,109371,105998,107161,4712,NA,107164,62058,4720,NA,111375,112215,108168,40680,111375,NA,Sternberg task,7,9629,10,yes,1024
72.72727273,72.72727273,952.7272727,952.7272727,black,practice,legacy,legacy,legacy,0,uniform,1,undefined,1,right,10,10,10,0,0,10,10,0,0,10,10,10,0,10,0,10/25/19 12:40,The main experiment item,yes,Sternbergtask SL.osexp,C:/Users/Sarah Linan/Desktop,no,mono,no,18,no,white,no,yes,768,legacy,10,10,C:/Users/Sarah Linan/Desktop/SLsubject-4.csv,legacy,9 6 7 4 5,Kafkaesque Koffka,3.2.8,0,n,0,right,right,NA,right,NA,851,35880,NA,851,NA,2,legacy,5,1024,2,48000,-16,experiment,4,even,3,115615,105998,113406,4712,NA,113409,112251,4720,NA,117619,118470,114411,40680,117619,NA,Sternberg task,8,10480,11,yes,1024
75,75,977.1666667,977.1666667,black,practice,legacy,legacy,legacy,0,uniform,1,undefined,1,left,11,11,11,0,0,11,11,0,0,11,11,11,0,11,0,10/25/19 12:40,The main experiment item,yes,Sternbergtask SL.osexp,C:/Users/Sarah Linan/Desktop,no,mono,no,18,no,white,no,yes,768,legacy,11,11,C:/Users/Sarah Linan/Desktop/SLsubject-4.csv,legacy,1 7 9 8 5,Kafkaesque Koffka,3.2.8,4,y,0,left,right,NA,left,NA,1246,35880,NA,1246,NA,2,legacy,5,1024,2,48000,-16,experiment,4,even,8,121926,118557,119715,4712,NA,119718,112251,4720,NA,123930,125177,120722,40680,123930,NA,Sternberg task,9,11726,12,yes,1024
76.92307692,76.92307692,971.6923077,971.6923077,black,experiment,legacy,legacy,legacy,0,uniform,1,undefined,1,right,12,12,12,0,0,12,12,0,0,12,12,12,0,12,0,10/25/19 12:40,The main experiment item,yes,Sternbergtask SL.osexp,C:/Users/Sarah Linan/Desktop,no,mono,no,18,no,white,no,yes,768,legacy,0,11,C:/Users/Sarah Linan/Desktop/SLsubject-4.csv,legacy,3 9 8 1 6 4,Kafkaesque Koffka,3.2.8,0,n,0,right,right,right,right,NA,906,35880,9826,906,NA,2,legacy,6,1024,2,48000,-16,experiment,4,even,7,138498,125271,136290,4712,136120,136292,112251,4720,126294,140502,141409,137295,40680,140502,NA,Sternberg task,10,12632,13,yes,1024
78.57142857,78.57142857,991.1428571,991.1428571,black,experiment,legacy,legacy,legacy,0,uniform,1,undefined,1,left,13,13,13,0,0,13,13,0,0,13,13,13,0,13,0,10/25/19 12:40,The main experiment item,yes,Sternbergtask SL.osexp,C:/Users/Sarah Linan/Desktop,no,mono,no,18,no,white,no,yes,768,legacy,1,11,C:/Users/Sarah Linan/Desktop/SLsubject-4.csv,legacy,4 6 2 5 1,Kafkaesque Koffka,3.2.8,5,y,0,left,right,right,left,NA,1244,35880,9826,1244,NA,2,legacy,5,1024,2,48000,-16,experiment,4,even,1,144868,141502,142657,4712,136120,142660,112251,4720,126294,146872,148117,143664,40680,146871,NA,Sternberg task,11,13876,14,yes,1024
80,80,980.5333333,980.5333333,black,experiment,legacy,legacy,legacy,0,uniform,1,undefined,1,right,14,14,14,0,0,14,14,0,0,14,14,14,0,14,0,10/25/19 12:40,The main experiment item,yes,Sternbergtask SL.osexp,C:/Users/Sarah Linan/Desktop,no,mono,no,18,no,white,no,yes,768,legacy,2,11,C:/Users/Sarah Linan/Desktop/SLsubject-4.csv,legacy,8 9,Kafkaesque Koffka,3.2.8,0,n,0,right,right,right,right,NA,832,35880,9826,832,NA,2,legacy,2,1024,2,48000,-16,experiment,4,even,5,151578,148204,149369,4712,136120,149371,112251,4720,126294,153581,154413,150375,40680,153581,NA,Sternberg task,12,14708,15,yes,1024
81.25,81.25,966.6875,966.6875,black,experiment,legacy,legacy,legacy,0,uniform,1,undefined,1,left,15,15,15,0,0,15,15,0,0,15,15,15,0,15,0,10/25/19 12:40,The main experiment item,yes,Sternbergtask SL.osexp,C:/Users/Sarah Linan/Desktop,no,mono,no,18,no,white,no,yes,768,legacy,3,11,C:/Users/Sarah Linan/Desktop/SLsubject-4.csv,legacy,3 9 7 6 4,Kafkaesque Koffka,3.2.8,3,y,0,left,right,right,left,NA,759,35880,9826,759,NA,2,legacy,5,1024,2,48000,-16,experiment,4,even,7,157809,154446,155601,4712,136120,155603,112251,4720,126294,159814,160573,156606,40680,159814,NA,Sternberg task,13,15467,16,yes,1024
82.35294118,82.35294118,953.5294118,953.5294118,black,experiment,legacy,legacy,legacy,0,uniform,1,undefined,1,right,16,16,16,0,0,16,16,0,0,16,16,16,0,16,0,10/25/19 12:40,The main experiment item,yes,Sternbergtask SL.osexp,C:/Users/Sarah Linan/Desktop,no,mono,no,18,no,white,no,yes,768,legacy,4,11,C:/Users/Sarah Linan/Desktop/SLsubject-4.csv,legacy,5 9 2 3,Kafkaesque Koffka,3.2.8,0,n,0,right,right,right,right,NA,743,35880,9826,743,NA,2,legacy,4,1024,2,48000,-16,experiment,4,even,8,164028,160663,161819,4712,136120,161821,112251,4720,126294,166033,166777,162824,40680,166032,NA,Sternberg task,14,16210,17,yes,1024
83.33333333,83.33333333,955.7777778,955.7777778,black,experiment,legacy,legacy,legacy,0,uniform,1,undefined,1,right,17,17,17,0,0,17,17,0,0,17,17,17,0,17,0,10/25/19 12:40,The main experiment item,yes,Sternbergtask SL.osexp,C:/Users/Sarah Linan/Desktop,no,mono,no,18,no,white,no,yes,768,legacy,5,11,C:/Users/Sarah Linan/Desktop/SLsubject-4.csv,legacy,2 3 8 5 6 7,Kafkaesque Koffka,3.2.8,0,n,0,right,right,right,right,NA,994,35880,9826,994,NA,2,legacy,6,1024,2,48000,-16,experiment,4,even,1,170249,166866,168039,4712,136120,168041,112251,4720,126294,172253,173247,169045,40680,172253,NA,Sternberg task,15,17204,18,yes,1024
84.21052632,84.21052632,961.7368421,961.7368421,black,experiment,legacy,legacy,legacy,0,uniform,1,undefined,1,left,18,18,18,0,0,18,18,0,0,18,18,18,0,18,0,10/25/19 12:40,The main experiment item,yes,Sternbergtask SL.osexp,C:/Users/Sarah Linan/Desktop,no,mono,no,18,no,white,no,yes,768,legacy,6,11,C:/Users/Sarah Linan/Desktop/SLsubject-4.csv,legacy,5 2 6,Kafkaesque Koffka,3.2.8,2,y,0,left,right,right,left,NA,1069,35880,9826,1069,NA,2,legacy,3,1024,2,48000,-16,experiment,4,even,2,176708,173335,174498,4712,136120,174500,112251,4720,126294,178712,179781,175504,40680,178712,NA,Sternberg task,16,18273,19,yes,1024
85,85,949.2,949.2,black,experiment,legacy,legacy,legacy,0,uniform,1,undefined,1,left,19,19,19,0,0,19,19,0,0,19,19,19,0,19,0,10/25/19 12:40,The main experiment item,yes,Sternbergtask SL.osexp,C:/Users/Sarah Linan/Desktop,no,mono,no,18,no,white,no,yes,768,legacy,7,11,C:/Users/Sarah Linan/Desktop/SLsubject-4.csv,legacy,2 4 8 5 1 3,Kafkaesque Koffka,3.2.8,1,y,0,left,right,right,left,NA,711,35880,9826,711,NA,2,legacy,6,1024,2,48000,-16,experiment,4,even,2,183274,179881,181064,4712,136120,181066,112251,4720,126294,185278,185990,182070,40680,185278,NA,Sternberg task,17,18984,20,yes,1024
85.71428571,85.71428571,952.6190476,952.6190476,black,experiment,legacy,legacy,legacy,0,uniform,1,undefined,1,right,20,20,20,0,0,20,20,0,0,20,20,20,0,20,0,10/25/19 12:40,The main experiment item,yes,Sternbergtask SL.osexp,C:/Users/Sarah Linan/Desktop,no,mono,no,18,no,white,no,yes,768,legacy,8,11,C:/Users/Sarah Linan/Desktop/SLsubject-4.csv,legacy,7 9 1 6,Kafkaesque Koffka,3.2.8,0,n,0,right,right,right,right,NA,1021,35880,9826,1021,NA,2,legacy,4,1024,2,48000,-16,experiment,4,even,4,189439,186070,187230,4712,136120,187232,112251,4720,126294,191443,192465,188236,40680,191443,NA,Sternberg task,18,20005,21,yes,1024
86.36363636,86.36363636,963.9545455,963.9545455,black,experiment,legacy,legacy,legacy,0,uniform,1,undefined,1,right,21,21,21,0,0,21,21,0,0,21,21,21,0,21,0,10/25/19 12:40,The main experiment item,yes,Sternbergtask SL.osexp,C:/Users/Sarah Linan/Desktop,no,mono,no,18,no,white,no,yes,768,legacy,9,11,C:/Users/Sarah Linan/Desktop/SLsubject-4.csv,legacy,5 3 8 7 2 4,Kafkaesque Koffka,3.2.8,0,n,0,right,right,right,right,NA,1202,35880,9826,1202,NA,2,legacy,6,1024,2,48000,-16,experiment,4,even,9,195925,192551,193712,4712,136120,193715,112251,4720,126294,197928,199130,194719,40680,197928,NA,Sternberg task,19,21207,22,yes,1024
86.95652174,86.95652174,953.9130435,953.9130435,black,experiment,legacy,legacy,legacy,0,uniform,1,undefined,1,left,22,22,22,0,0,22,22,0,0,22,22,22,0,22,0,10/25/19 12:40,The main experiment item,yes,Sternbergtask SL.osexp,C:/Users/Sarah Linan/Desktop,no,mono,no,18,no,white,no,yes,768,legacy,10,11,C:/Users/Sarah Linan/Desktop/SLsubject-4.csv,legacy,8 3,Kafkaesque Koffka,3.2.8,2,y,0,left,right,right,left,NA,733,35880,9826,733,NA,2,legacy,2,1024,2,48000,-16,experiment,4,even,3,202592,199219,200382,4712,136120,200384,112251,4720,126294,204594,205327,201388,40680,204594,NA,Sternberg task,20,21940,23,yes,1024
87.5,87.5,954.375,954.375,black,experiment,legacy,legacy,legacy,0,uniform,1,undefined,1,right,23,23,23,0,0,23,23,0,0,23,23,23,0,23,0,10/25/19 12:40,The main experiment item,yes,Sternbergtask SL.osexp,C:/Users/Sarah Linan/Desktop,no,mono,no,18,no,white,no,yes,768,legacy,11,11,C:/Users/Sarah Linan/Desktop/SLsubject-4.csv,legacy,1 4 9 2 5,Kafkaesque Koffka,3.2.8,0,n,0,right,right,right,right,NA,965,35880,9826,965,NA,2,legacy,5,1024,2,48000,-16,experiment,4,even,7,208786,205410,206575,4712,136120,206578,112251,4720,126294,210788,211754,207582,40680,210788,NA,Sternberg task,21,22905,24,yes,1024
88,88,946.48,946.48,black,experiment,legacy,legacy,legacy,0,uniform,1,undefined,1,right,24,24,24,0,0,24,24,0,0,24,24,24,0,24,0,10/25/19 12:40,The main experiment item,yes,Sternbergtask SL.osexp,C:/Users/Sarah Linan/Desktop,no,mono,no,18,no,white,no,yes,768,legacy,12,11,C:/Users/Sarah Linan/Desktop/SLsubject-4.csv,legacy,4 2 6 9,Kafkaesque Koffka,3.2.8,0,n,0,right,right,right,right,NA,757,35880,9826,757,NA,2,legacy,4,1024,2,48000,-16,experiment,4,even,7,215222,211845,213011,4712,136120,213014,112251,4720,126294,217226,217983,214018,40680,217226,NA,Sternberg task,22,23662,25,yes,1024
88.46153846,88.46153846,935.5384615,935.5384615,black,experiment,legacy,legacy,legacy,0,uniform,1,undefined,1,left,25,25,25,0,0,25,25,0,0,25,25,25,0,25,0,10/25/19 12:40,The main experiment item,yes,Sternbergtask SL.osexp,C:/Users/Sarah Linan/Desktop,no,mono,no,18,no,white,no,yes,768,legacy,13,11,C:/Users/Sarah Linan/Desktop/SLsubject-4.csv,legacy,8,Kafkaesque Koffka,3.2.8,1,y,0,left,right,right,left,NA,662,35880,9826,662,NA,2,legacy,1,1024,2,48000,-16,experiment,4,even,8,221422,218047,219211,4712,136120,219214,112251,4720,126294,223426,224089,220218,40680,223426,NA,Sternberg task,23,24324,26,yes,1024
88.88888889,88.88888889,923.2592593,923.2592593,black,experiment,legacy,legacy,legacy,0,uniform,1,undefined,1,left,26,26,26,0,0,26,26,0,0,26,26,26,0,26,0,10/25/19 12:40,The main experiment item,yes,Sternbergtask SL.osexp,C:/Users/Sarah Linan/Desktop,no,mono,no,18,no,white,no,yes,768,legacy,14,11,C:/Users/Sarah Linan/Desktop/SLsubject-4.csv,legacy,2 3 7 4,Kafkaesque Koffka,3.2.8,1,y,0,left,right,right,left,NA,604,35880,9826,604,NA,2,legacy,4,1024,2,48000,-16,experiment,4,even,2,227547,224172,225334,4712,136120,225338,112251,4720,126294,229551,230156,226343,40680,229551,NA,Sternberg task,24,24928,27,yes,1024
89.28571429,89.28571429,915.2142857,915.2142857,black,experiment,legacy,legacy,legacy,0,uniform,1,undefined,1,left,27,27,27,0,0,27,27,0,0,27,27,27,0,27,0,10/25/19 12:40,The main experiment item,yes,Sternbergtask SL.osexp,C:/Users/Sarah Linan/Desktop,no,mono,no,18,no,white,no,yes,768,legacy,15,11,C:/Users/Sarah Linan/Desktop/SLsubject-4.csv,legacy,7 2 3,Kafkaesque Koffka,3.2.8,3,y,0,left,right,right,left,NA,698,35880,9826,698,NA,2,legacy,3,1024,2,48000,-16,experiment,4,even,3,233574,230182,231363,4712,136120,231366,112251,4720,126294,235580,236279,232370,40680,235580,NA,Sternberg task,25,25626,28,yes,1024
89.65517241,89.65517241,909.6896552,909.6896552,black,experiment,legacy,legacy,legacy,0,uniform,1,undefined,1,left,28,28,28,0,0,28,28,0,0,28,28,28,0,28,0,10/25/19 12:40,The main experiment item,yes,Sternbergtask SL.osexp,C:/Users/Sarah Linan/Desktop,no,mono,no,18,no,white,no,yes,768,legacy,16,11,C:/Users/Sarah Linan/Desktop/SLsubject-4.csv,legacy,5 7 3 6 2,Kafkaesque Koffka,3.2.8,5,y,0,left,right,right,left,NA,755,35880,9826,755,NA,2,legacy,5,1024,2,48000,-16,experiment,4,even,2,239742,236365,237533,4712,136120,237535,112251,4720,126294,241746,242502,238539,40680,241746,NA,Sternberg task,26,26381,29,yes,1024
90,90,899.0666667,899.0666667,black,experiment,legacy,legacy,legacy,0,uniform,1,undefined,1,left,29,29,29,0,0,29,29,0,0,29,29,29,0,29,0,10/25/19 12:40,The main experiment item,yes,Sternbergtask SL.osexp,C:/Users/Sarah Linan/Desktop,no,mono,no,18,no,white,no,yes,768,legacy,17,11,C:/Users/Sarah Linan/Desktop/SLsubject-4.csv,legacy,3 2 1 4 7,Kafkaesque Koffka,3.2.8,2,y,0,left,right,right,left,NA,591,35880,9826,591,NA,2,legacy,5,1024,2,48000,-16,experiment,4,even,2,245970,242591,243760,4712,136120,243762,112251,4720,126294,247974,248565,244765,40680,247974,NA,Sternberg task,27,26972,30,yes,1024
90.32258065,90.32258065,893.0967742,893.0967742,black,experiment,legacy,legacy,legacy,0,uniform,1,undefined,1,right,30,30,30,0,0,30,30,0,0,30,30,30,0,30,0,10/25/19 12:40,The main experiment item,yes,Sternbergtask SL.osexp,C:/Users/Sarah Linan/Desktop,no,mono,no,18,no,white,no,yes,768,legacy,18,11,C:/Users/Sarah Linan/Desktop/SLsubject-4.csv,legacy,3 9 1,Kafkaesque Koffka,3.2.8,0,n,0,right,right,right,right,NA,714,35880,9826,714,NA,2,legacy,3,1024,2,48000,-16,experiment,4,even,7,252028,248648,249818,4712,136120,249821,112251,4720,126294,254032,254747,250824,40680,254031,NA,Sternberg task,28,27686,31,yes,1024
90.625,90.625,887.09375,887.09375,black,experiment,legacy,legacy,legacy,0,uniform,1,undefined,1,right,31,31,31,0,0,31,31,0,0,31,31,31,0,31,0,10/25/19 12:40,The main experiment item,yes,Sternbergtask SL.osexp,C:/Users/Sarah Linan/Desktop,no,mono,no,18,no,white,no,yes,768,legacy,19,11,C:/Users/Sarah Linan/Desktop/SLsubject-4.csv,legacy,7 6 4 8 1 2,Kafkaesque Koffka,3.2.8,0,n,0,right,right,right,right,NA,701,35880,9826,701,NA,2,legacy,6,1024,2,48000,-16,experiment,4,even,9,258201,254839,255990,4712,136120,255993,112251,4720,126294,260207,260909,256997,40680,260206,NA,Sternberg task,29,28387,32,yes,1024
90.90909091,90.90909091,879.969697,879.969697,black,experiment,legacy,legacy,legacy,0,uniform,1,undefined,1,right,32,32,32,0,0,32,32,0,0,32,32,32,0,32,0,10/25/19 12:40,The main experiment item,yes,Sternbergtask SL.osexp,C:/Users/Sarah Linan/Desktop,no,mono,no,18,no,white,no,yes,768,legacy,20,11,C:/Users/Sarah Linan/Desktop/SLsubject-4.csv,legacy,1 4 9 3,Kafkaesque Koffka,3.2.8,0,n,0,right,right,right,right,NA,652,35880,9826,652,NA,2,legacy,4,1024,2,48000,-16,experiment,4,even,5,264370,260997,262159,4712,136120,262161,112251,4720,126294,266374,267027,263165,40680,266374,NA,Sternberg task,30,29039,33,yes,1024
91.17647059,91.17647059,873.1764706,873.1764706,black,experiment,legacy,legacy,legacy,0,uniform,1,undefined,1,right,33,33,33,0,0,33,33,0,0,33,33,33,0,33,0,10/25/19 12:40,The main experiment item,yes,Sternbergtask SL.osexp,C:/Users/Sarah Linan/Desktop,no,mono,no,18,no,white,no,yes,768,legacy,21,11,C:/Users/Sarah Linan/Desktop/SLsubject-4.csv,legacy,6 8,Kafkaesque Koffka,3.2.8,0,n,0,right,right,right,right,NA,649,35880,9826,649,NA,2,legacy,2,1024,2,48000,-16,experiment,4,even,9,270490,267110,268279,4712,136120,268282,112251,4720,126294,272495,273145,269285,40680,272495,NA,Sternberg task,31,29688,34,yes,1024
91.42857143,91.42857143,884.3142857,884.3142857,black,experiment,legacy,legacy,legacy,0,uniform,1,undefined,1,right,34,34,34,0,0,34,34,0,0,34,34,34,0,34,0,10/25/19 12:40,The main experiment item,yes,Sternbergtask SL.osexp,C:/Users/Sarah Linan/Desktop,no,mono,no,18,no,white,no,yes,768,legacy,22,11,C:/Users/Sarah Linan/Desktop/SLsubject-4.csv,legacy,3 4 9 6 7 8,Kafkaesque Koffka,3.2.8,0,n,0,right,right,right,right,NA,1263,35880,9826,1263,NA,2,legacy,6,1024,2,48000,-16,experiment,4,even,2,276617,273234,274408,4712,136120,274410,112251,4720,126294,278621,279885,275413,40680,278621,NA,Sternberg task,32,30951,35,yes,1024
91.66666667,91.66666667,874.2777778,874.2777778,black,experiment,legacy,legacy,legacy,0,uniform,1,undefined,1,left,35,35,35,0,0,35,35,0,0,35,35,35,0,35,0,10/25/19 12:40,The main experiment item,yes,Sternbergtask SL.osexp,C:/Users/Sarah Linan/Desktop,no,mono,no,18,no,white,no,yes,768,legacy,23,11,C:/Users/Sarah Linan/Desktop/SLsubject-4.csv,legacy,8 7 3,Kafkaesque Koffka,3.2.8,1,y,0,left,right,right,left,NA,523,35880,9826,523,NA,2,legacy,3,1024,2,48000,-16,experiment,4,even,8,283374,279975,281165,4712,136120,281167,112251,4720,126294,285378,285901,282170,40680,285378,NA,Sternberg task,33,31474,36,yes,1024
91.89189189,91.89189189,864.6216216,864.6216216,black,experiment,legacy,legacy,legacy,0,uniform,1,undefined,1,left,36,36,36,0,0,36,36,0,0,36,36,36,0,36,0,10/25/19 12:40,The main experiment item,yes,Sternbergtask SL.osexp,C:/Users/Sarah Linan/Desktop,no,mono,no,18,no,white,no,yes,768,legacy,24,11,C:/Users/Sarah Linan/Desktop/SLsubject-4.csv,legacy,6 1 2,Kafkaesque Koffka,3.2.8,3,y,0,left,right,right,left,NA,517,35880,9826,517,NA,2,legacy,3,1024,2,48000,-16,experiment,4,even,2,289355,285983,287143,4712,136120,287146,112251,4720,126294,291358,291876,288150,40680,291358,NA,Sternberg task,34,31991,37,yes,1024
92.10526316,92.10526316,870.3947368,870.3947368,black,experiment,legacy,legacy,legacy,0,uniform,1,undefined,1,left,37,37,37,0,0,37,37,0,0,37,37,37,0,37,0,10/25/19 12:40,The main experiment item,yes,Sternbergtask SL.osexp,C:/Users/Sarah Linan/Desktop,no,mono,no,18,no,white,no,yes,768,legacy,25,11,C:/Users/Sarah Linan/Desktop/SLsubject-4.csv,legacy,9 5 8 1,Kafkaesque Koffka,3.2.8,2,y,0,left,right,right,left,NA,1084,35880,9826,1084,NA,2,legacy,4,1024,2,48000,-16,experiment,4,even,5,295337,291963,293127,4712,136120,293129,112251,4720,126294,297342,298427,294133,40680,297342,NA,Sternberg task,35,33075,38,yes,1024
92.30769231,92.30769231,859.6666667,859.6666667,black,experiment,legacy,legacy,legacy,0,uniform,1,undefined,1,left,38,38,38,0,0,38,38,0,0,38,38,38,0,38,0,10/25/19 12:40,The main experiment item,yes,Sternbergtask SL.osexp,C:/Users/Sarah Linan/Desktop,no,mono,no,18,no,white,no,yes,768,legacy,26,11,C:/Users/Sarah Linan/Desktop/SLsubject-4.csv,legacy,9 1 7 2,Kafkaesque Koffka,3.2.8,2,y,0,left,right,right,left,NA,452,35880,9826,452,NA,2,legacy,4,1024,2,48000,-16,experiment,4,even,1,301881,298509,299671,4712,136120,299673,112251,4720,126294,303885,304338,300677,40680,303885,NA,Sternberg task,36,33527,39,yes,1024
92.5,92.5,854.725,854.725,black,experiment,legacy,legacy,legacy,0,uniform,1,undefined,1,right,39,39,39,0,0,39,39,0,0,39,39,39,0,39,0,10/25/19 12:40,The main experiment item,yes,Sternbergtask SL.osexp,C:/Users/Sarah Linan/Desktop,no,mono,no,18,no,white,no,yes,768,legacy,27,11,C:/Users/Sarah Linan/Desktop/SLsubject-4.csv,legacy,7 1 5 6 3,Kafkaesque Koffka,3.2.8,0,n,0,right,right,right,right,NA,662,35880,9826,662,NA,2,legacy,5,1024,2,48000,-16,experiment,4,even,8,307818,304437,305607,4712,136120,305610,112251,4720,126294,309822,310485,306614,40680,309822,NA,Sternberg task,37,34189,40,yes,1024
92.68292683,92.68292683,844.9268293,844.9268293,black,experiment,legacy,legacy,legacy,0,uniform,1,undefined,1,left,40,40,40,0,0,40,40,0,0,40,40,40,0,40,0,10/25/19 12:40,The main experiment item,yes,Sternbergtask SL.osexp,C:/Users/Sarah Linan/Desktop,no,mono,no,18,no,white,no,yes,768,legacy,28,11,C:/Users/Sarah Linan/Desktop/SLsubject-4.csv,legacy,4 6 5 8,Kafkaesque Koffka,3.2.8,1,y,0,left,right,right,left,NA,453,35880,9826,453,NA,2,legacy,4,1024,2,48000,-16,experiment,4,even,4,313954,310573,311742,4712,136120,311745,112251,4720,126294,315958,316413,312750,40680,315958,NA,Sternberg task,38,34642,41,yes,1024
92.85714286,92.85714286,841.9047619,841.9047619,black,experiment,legacy,legacy,legacy,0,uniform,1,undefined,1,right,41,41,41,0,0,41,41,0,0,41,41,41,0,41,0,10/25/19 12:40,The main experiment item,yes,Sternbergtask SL.osexp,C:/Users/Sarah Linan/Desktop,no,mono,no,18,no,white,no,yes,768,legacy,29,11,C:/Users/Sarah Linan/Desktop/SLsubject-4.csv,legacy,9 7 4 5 8,Kafkaesque Koffka,3.2.8,0,n,0,right,right,right,right,NA,718,35880,9826,718,NA,2,legacy,5,1024,2,48000,-16,experiment,4,even,6,319874,316498,317663,4712,136120,317665,112251,4720,126294,321878,322596,318670,40680,321878,NA,Sternberg task,39,35360,42,yes,1024
93.02325581,93.02325581,837.744186,837.744186,black,experiment,legacy,legacy,legacy,0,uniform,1,undefined,1,right,42,42,42,0,0,42,42,0,0,42,42,42,0,42,0,10/25/19 12:40,The main experiment item,yes,Sternbergtask SL.osexp,C:/Users/Sarah Linan/Desktop,no,mono,no,18,no,white,no,yes,768,legacy,30,11,C:/Users/Sarah Linan/Desktop/SLsubject-4.csv,legacy,2 6 4 3 9,Kafkaesque Koffka,3.2.8,0,n,0,right,right,right,right,NA,663,35880,9826,663,NA,2,legacy,5,1024,2,48000,-16,experiment,4,even,1,326064,322688,323855,4712,136120,323857,112251,4720,126294,328068,328732,324861,40680,328068,NA,Sternberg task,40,36023,43,yes,1024
93.18181818,93.18181818,836.6136364,836.6136364,black,experiment,legacy,legacy,legacy,0,uniform,1,undefined,1,left,43,43,43,0,0,43,43,0,0,43,43,43,0,43,0,10/25/19 12:40,The main experiment item,yes,Sternbergtask SL.osexp,C:/Users/Sarah Linan/Desktop,no,mono,no,18,no,white,no,yes,768,legacy,31,11,C:/Users/Sarah Linan/Desktop/SLsubject-4.csv,legacy,5 2 9 6 1 7,Kafkaesque Koffka,3.2.8,3,y,0,left,right,right,left,NA,788,35880,9826,788,NA,2,legacy,6,1024,2,48000,-16,experiment,4,even,9,332192,328824,329981,4712,136120,329983,112251,4720,126294,334196,334985,330987,40680,334196,NA,Sternberg task,41,36811,44,yes,1024
93.33333333,93.33333333,829.0888889,829.0888889,black,experiment,legacy,legacy,legacy,0,uniform,1,undefined,1,left,44,44,44,0,0,44,44,0,0,44,44,44,0,44,0,10/25/19 12:40,The main experiment item,yes,Sternbergtask SL.osexp,C:/Users/Sarah Linan/Desktop,no,mono,no,18,no,white,no,yes,768,legacy,32,11,C:/Users/Sarah Linan/Desktop/SLsubject-4.csv,legacy,8 5 1 3 9,Kafkaesque Koffka,3.2.8,4,y,0,left,right,right,left,NA,498,35880,9826,498,NA,2,legacy,5,1024,2,48000,-16,experiment,4,even,3,338446,335071,336234,4712,136120,336237,112251,4720,126294,340450,340949,337242,40680,340450,NA,Sternberg task,42,37309,45,yes,1024
93.47826087,93.47826087,820.6086957,820.6086957,black,experiment,legacy,legacy,legacy,0,uniform,1,undefined,1,left,45,45,45,0,0,45,45,0,0,45,45,45,0,45,0,10/25/19 12:40,The main experiment item,yes,Sternbergtask SL.osexp,C:/Users/Sarah Linan/Desktop,no,mono,no,18,no,white,no,yes,768,legacy,33,11,C:/Users/Sarah Linan/Desktop/SLsubject-4.csv,legacy,9 8 4,Kafkaesque Koffka,3.2.8,1,y,0,left,right,right,left,NA,439,35880,9826,439,NA,2,legacy,3,1024,2,48000,-16,experiment,4,even,9,344416,341042,342205,4712,136120,342207,112251,4720,126294,346419,346859,343211,40680,346419,NA,Sternberg task,43,37748,46,yes,1024
93.61702128,93.61702128,815.893617,815.893617,black,experiment,legacy,legacy,legacy,0,uniform,1,undefined,1,right,46,46,46,0,0,46,46,0,0,46,46,46,0,46,0,10/25/19 12:40,The main experiment item,yes,Sternbergtask SL.osexp,C:/Users/Sarah Linan/Desktop,no,mono,no,18,no,white,no,yes,768,legacy,34,11,C:/Users/Sarah Linan/Desktop/SLsubject-4.csv,legacy,7 1,Kafkaesque Koffka,3.2.8,0,n,0,right,right,right,right,NA,599,35880,9826,599,NA,2,legacy,2,1024,2,48000,-16,experiment,4,even,8,350335,346954,348124,4712,136120,348127,112251,4720,126294,352338,352938,349131,40680,352338,NA,Sternberg task,44,38347,47,yes,1024
93.75,93.75,820.3125,820.3125,black,experiment,legacy,legacy,legacy,0,uniform,1,undefined,1,left,47,47,47,0,0,47,47,0,0,47,47,47,0,47,0,10/25/19 12:40,The main experiment item,yes,Sternbergtask SL.osexp,C:/Users/Sarah Linan/Desktop,no,mono,no,18,no,white,no,yes,768,legacy,35,11,C:/Users/Sarah Linan/Desktop/SLsubject-4.csv,legacy,3 5 9 6 2 4,Kafkaesque Koffka,3.2.8,1,y,0,left,right,right,left,NA,1028,35880,9826,1028,NA,2,legacy,6,1024,2,48000,-16,experiment,4,even,3,356411,353034,354199,4712,136120,354202,112251,4720,126294,358415,359444,355207,40680,358415,NA,Sternberg task,45,39375,48,yes,1024
93.87755102,93.87755102,818.8367347,818.8367347,black,experiment,legacy,legacy,legacy,0,uniform,1,undefined,1,right,48,48,48,0,0,48,48,0,0,48,48,48,0,48,0,10/25/19 12:40,The main experiment item,yes,Sternbergtask SL.osexp,C:/Users/Sarah Linan/Desktop,no,mono,no,18,no,white,no,yes,768,legacy,36,11,C:/Users/Sarah Linan/Desktop/SLsubject-4.csv,legacy,1 6 4 3 9 7,Kafkaesque Koffka,3.2.8,0,n,0,right,right,right,right,NA,748,35880,9826,748,NA,2,legacy,6,1024,2,48000,-16,experiment,4,even,8,362878,359502,360668,4712,136120,360670,112251,4720,126294,364882,365631,361674,40680,364881,NA,Sternberg task,46,40123,49,yes,1024
94,94,830.48,830.48,black,experiment,legacy,legacy,legacy,0,uniform,1,undefined,1,right,49,49,49,0,0,49,49,0,0,49,49,49,0,49,0,10/25/19 12:40,The main experiment item,yes,Sternbergtask SL.osexp,C:/Users/Sarah Linan/Desktop,no,mono,no,18,no,white,no,yes,768,legacy,37,11,C:/Users/Sarah Linan/Desktop/SLsubject-4.csv,legacy,1 4 3 6 5,Kafkaesque Koffka,3.2.8,0,n,0,right,right,right,right,NA,1401,35880,9826,1401,NA,2,legacy,5,1024,2,48000,-16,experiment,4,even,8,369092,365715,366882,4712,136120,366885,112251,4720,126294,371096,372497,367888,40680,371096,NA,Sternberg task,47,41524,50,yes,1024
94.11764706,94.11764706,843.1176471,843.1176471,black,experiment,legacy,legacy,legacy,0,uniform,1,undefined,1,right,50,50,50,0,0,50,50,0,0,50,50,50,0,50,0,10/25/19 12:40,The main experiment item,yes,Sternbergtask SL.osexp,C:/Users/Sarah Linan/Desktop,no,mono,no,18,no,white,no,yes,768,legacy,38,11,C:/Users/Sarah Linan/Desktop/SLsubject-4.csv,legacy,6 9 7 3 8 2,Kafkaesque Koffka,3.2.8,0,n,0,right,right,right,right,NA,1475,35880,9826,1475,NA,2,legacy,6,1024,2,48000,-16,experiment,4,even,5,375960,372583,373749,4712,136120,373752,112251,4720,126294,377964,379439,374756,40680,377964,NA,Sternberg task,48,42999,51,yes,1024
94.23076923,94.23076923,841.8461538,841.8461538,black,experiment,legacy,legacy,legacy,0,uniform,1,undefined,1,right,51,51,51,0,0,51,51,0,0,51,51,51,0,51,0,10/25/19 12:40,The main experiment item,yes,Sternbergtask SL.osexp,C:/Users/Sarah Linan/Desktop,no,mono,no,18,no,white,no,yes,768,legacy,39,11,C:/Users/Sarah Linan/Desktop/SLsubject-4.csv,legacy,3 4 2,Kafkaesque Koffka,3.2.8,0,n,0,right,right,right,right,NA,777,35880,9826,777,NA,2,legacy,3,1024,2,48000,-16,experiment,4,even,5,382845,379472,380635,4712,136120,380637,112251,4720,126294,384849,385628,381640,40680,384849,NA,Sternberg task,49,43776,52,yes,1024
94.33962264,94.33962264,846.2264151,846.2264151,black,experiment,legacy,legacy,legacy,0,uniform,1,undefined,1,right,52,52,52,0,0,52,52,0,0,52,52,52,0,52,0,10/25/19 12:40,The main experiment item,yes,Sternbergtask SL.osexp,C:/Users/Sarah Linan/Desktop,no,mono,no,18,no,white,no,yes,768,legacy,40,11,C:/Users/Sarah Linan/Desktop/SLsubject-4.csv,legacy,1 7 5 2 9,Kafkaesque Koffka,3.2.8,0,n,0,right,right,right,right,NA,1074,35880,9826,1074,NA,2,legacy,5,1024,2,48000,-16,experiment,4,even,3,389095,385720,386883,4712,136120,386886,112251,4720,126294,391099,392174,387891,40680,391099,NA,Sternberg task,50,44850,53,yes,1024
94.44444444,94.44444444,848.5740741,848.5740741,black,experiment,legacy,legacy,legacy,0,uniform,1,undefined,1,right,53,53,53,0,0,53,53,0,0,53,53,53,0,53,0,10/25/19 12:40,The main experiment item,yes,Sternbergtask SL.osexp,C:/Users/Sarah Linan/Desktop,no,mono,no,18,no,white,no,yes,768,legacy,41,11,C:/Users/Sarah Linan/Desktop/SLsubject-4.csv,legacy,1 3 2 6 9,Kafkaesque Koffka,3.2.8,0,n,0,right,right,right,right,NA,973,35880,9826,973,NA,2,legacy,5,1024,2,48000,-16,experiment,4,even,5,395648,392266,393437,4712,136120,393440,112251,4720,126294,397651,398624,394443,40680,397651,NA,Sternberg task,51,45823,54,yes,1024
94.54545455,94.54545455,846.3636364,846.3636364,black,experiment,legacy,legacy,legacy,0,uniform,1,undefined,1,right,54,54,54,0,0,54,54,0,0,54,54,54,0,54,0,10/25/19 12:40,The main experiment item,yes,Sternbergtask SL.osexp,C:/Users/Sarah Linan/Desktop,no,mono,no,18,no,white,no,yes,768,legacy,42,11,C:/Users/Sarah Linan/Desktop/SLsubject-4.csv,legacy,8 6 3 4 7,Kafkaesque Koffka,3.2.8,0,n,0,right,right,right,right,NA,727,35880,9826,727,NA,2,legacy,5,1024,2,48000,-16,experiment,4,even,1,402117,398713,399906,4712,136120,399908,112251,4720,126294,404120,404848,400913,40680,404120,NA,Sternberg task,52,46550,55,yes,1024
94.64285714,94.64285714,840.875,840.875,black,experiment,legacy,legacy,legacy,0,uniform,1,undefined,1,right,55,55,55,0,0,55,55,0,0,55,55,55,0,55,0,10/25/19 12:40,The main experiment item,yes,Sternbergtask SL.osexp,C:/Users/Sarah Linan/Desktop,no,mono,no,18,no,white,no,yes,768,legacy,43,11,C:/Users/Sarah Linan/Desktop/SLsubject-4.csv,legacy,2 7 5,Kafkaesque Koffka,3.2.8,0,n,0,right,right,right,right,NA,539,35880,9826,539,NA,2,legacy,3,1024,2,48000,-16,experiment,4,even,8,408316,404937,406105,4712,136120,406108,112251,4720,126294,410320,410860,407112,40680,410320,NA,Sternberg task,53,47089,56,yes,1024
94.73684211,94.73684211,846.1929825,846.1929825,black,experiment,legacy,legacy,legacy,0,uniform,1,undefined,1,right,56,56,56,0,0,56,56,0,0,56,56,56,0,56,0,10/25/19 12:40,The main experiment item,yes,Sternbergtask SL.osexp,C:/Users/Sarah Linan/Desktop,no,mono,no,18,no,white,no,yes,768,legacy,44,11,C:/Users/Sarah Linan/Desktop/SLsubject-4.csv,legacy,1 8 7,Kafkaesque Koffka,3.2.8,0,n,0,right,right,right,right,NA,1144,35880,9826,1144,NA,2,legacy,3,1024,2,48000,-16,experiment,4,even,4,414334,410951,412122,4712,136120,412126,112251,4720,126294,416338,417483,413130,40680,416338,NA,Sternberg task,54,48233,57,yes,1024
94.82758621,94.82758621,847.2586207,847.2586207,black,experiment,legacy,legacy,legacy,0,uniform,1,undefined,1,left,57,57,57,0,0,57,57,0,0,57,57,57,0,57,0,10/25/19 12:40,The main experiment item,yes,Sternbergtask SL.osexp,C:/Users/Sarah Linan/Desktop,no,mono,no,18,no,white,no,yes,768,legacy,45,11,C:/Users/Sarah Linan/Desktop/SLsubject-4.csv,legacy,4 1 8 7 5,Kafkaesque Koffka,3.2.8,3,y,0,left,right,right,left,NA,908,35880,9826,908,NA,2,legacy,5,1024,2,48000,-16,experiment,4,even,8,420942,417575,418734,4712,136120,418737,112251,4720,126294,422946,423854,419739,40680,422946,NA,Sternberg task,55,49141,58,yes,1024
93.22033898,93.22033898,865.7457627,865.7457627,black,experiment,legacy,legacy,legacy,0,uniform,0,undefined,0,right,58,58,58,0,0,58,58,0,0,58,58,58,0,58,0,10/25/19 12:40,The main experiment item,yes,Sternbergtask SL.osexp,C:/Users/Sarah Linan/Desktop,no,mono,no,18,no,white,no,yes,768,legacy,46,11,C:/Users/Sarah Linan/Desktop/SLsubject-4.csv,legacy,6 8 4,Kafkaesque Koffka,3.2.8,0,n,0,left,right,right,left,NA,1938,35880,9826,1938,NA,2,legacy,3,1024,2,48000,-16,experiment,4,even,1,427287,423887,425076,4712,136120,425079,112251,4720,126294,429291,431231,426083,40680,429291,NA,Sternberg task,55,51079,59,yes,1024
93.33333333,93.33333333,865.5666667,865.5666667,black,experiment,legacy,legacy,legacy,0,uniform,1,undefined,1,left,59,59,59,0,0,59,59,0,0,59,59,59,0,59,0,10/25/19 12:40,The main experiment item,yes,Sternbergtask SL.osexp,C:/Users/Sarah Linan/Desktop,no,mono,no,18,no,white,no,yes,768,legacy,47,11,C:/Users/Sarah Linan/Desktop/SLsubject-4.csv,legacy,8 9 6 1,Kafkaesque Koffka,3.2.8,2,y,0,left,right,right,left,NA,855,35880,9826,855,NA,2,legacy,4,1024,2,48000,-16,experiment,4,even,9,434700,423887,432490,4712,136120,432493,431322,4720,126294,436704,437560,433497,40680,436704,NA,Sternberg task,56,51934,60,yes,1024
93.44262295,93.44262295,858.6229508,858.6229508,black,experiment,legacy,legacy,legacy,0,uniform,1,undefined,1,left,60,60,60,0,0,60,60,0,0,60,60,60,0,60,0,10/25/19 12:40,The main experiment item,yes,Sternbergtask SL.osexp,C:/Users/Sarah Linan/Desktop,no,mono,no,18,no,white,no,yes,768,legacy,48,11,C:/Users/Sarah Linan/Desktop/SLsubject-4.csv,legacy,6 2,Kafkaesque Koffka,3.2.8,1,y,0,left,right,right,left,NA,442,35880,9826,442,NA,2,legacy,2,1024,2,48000,-16,experiment,4,even,6,441011,437645,438802,4712,136120,438804,431322,4720,126294,443016,443459,439807,40680,443016,NA,Sternberg task,57,52376,61,yes,1024
93.5483871,93.5483871,854.3387097,854.3387097,black,experiment,legacy,legacy,legacy,0,uniform,1,undefined,1,right,61,61,61,0,0,61,61,0,0,61,61,61,0,61,0,10/25/19 12:40,The main experiment item,yes,Sternbergtask SL.osexp,C:/Users/Sarah Linan/Desktop,no,mono,no,18,no,white,no,yes,768,legacy,49,11,C:/Users/Sarah Linan/Desktop/SLsubject-4.csv,legacy,7 8 6 1,Kafkaesque Koffka,3.2.8,0,n,0,right,right,right,right,NA,593,35880,9826,593,NA,2,legacy,4,1024,2,48000,-16,experiment,4,even,3,446922,443549,444710,4712,136120,444713,431322,4720,126294,448926,449520,445717,40680,448926,NA,Sternberg task,58,52969,62,yes,1024
93.65079365,93.65079365,856.984127,856.984127,black,experiment,legacy,legacy,legacy,0,uniform,1,undefined,1,left,62,62,62,0,0,62,62,0,0,62,62,62,0,62,0,10/25/19 12:40,The main experiment item,yes,Sternbergtask SL.osexp,C:/Users/Sarah Linan/Desktop,no,mono,no,18,no,white,no,yes,768,legacy,50,11,C:/Users/Sarah Linan/Desktop/SLsubject-4.csv,legacy,6 8 9 3 4 9,Kafkaesque Koffka,3.2.8,5,y,0,left,right,right,left,NA,1021,35880,9826,1021,NA,2,legacy,6,1024,2,48000,-16,experiment,4,even,4,452932,449556,450722,4712,136120,450724,431322,4720,126294,454936,455957,451728,40680,454936,NA,Sternberg task,59,53990,63,yes,1024
92.1875,92.1875,852.84375,852.84375,black,experiment,legacy,legacy,legacy,0,uniform,0,undefined,0,right,63,63,63,0,0,63,63,0,0,63,63,63,0,63,0,10/25/19 12:40,The main experiment item,yes,Sternbergtask SL.osexp,C:/Users/Sarah Linan/Desktop,no,mono,no,18,no,white,no,yes,768,legacy,51,11,C:/Users/Sarah Linan/Desktop/SLsubject-4.csv,legacy,8 5 7 3 6,Kafkaesque Koffka,3.2.8,0,n,0,left,right,right,left,NA,592,35880,9826,592,NA,2,legacy,5,1024,2,48000,-16,experiment,4,even,9,459420,456041,457211,4712,136120,457214,431322,4720,126294,461424,462017,458218,40680,461423,NA,Sternberg task,59,54582,64,yes,1024
92.30769231,92.30769231,853.0461538,853.0461538,black,experiment,legacy,legacy,legacy,0,uniform,1,undefined,1,right,64,64,64,0,0,64,64,0,0,64,64,64,0,64,0,10/25/19 12:40,The main experiment item,yes,Sternbergtask SL.osexp,C:/Users/Sarah Linan/Desktop,no,mono,no,18,no,white,no,yes,768,legacy,52,11,C:/Users/Sarah Linan/Desktop/SLsubject-4.csv,legacy,8 4 3 9,Kafkaesque Koffka,3.2.8,0,n,0,right,right,right,right,NA,866,35880,9826,866,NA,2,legacy,4,1024,2,48000,-16,experiment,4,even,5,465487,456041,463277,4712,136120,463279,462111,4720,126294,467492,468358,464283,40680,467491,NA,Sternberg task,60,55448,65,yes,1024
92.42424242,92.42424242,849.8939394,849.8939394,black,experiment,legacy,legacy,legacy,0,uniform,1,undefined,1,right,65,65,65,0,0,65,65,0,0,65,65,65,0,65,0,10/25/19 12:40,The main experiment item,yes,Sternbergtask SL.osexp,C:/Users/Sarah Linan/Desktop,no,mono,no,18,no,white,no,yes,768,legacy,53,11,C:/Users/Sarah Linan/Desktop/SLsubject-4.csv,legacy,7 9,Kafkaesque Koffka,3.2.8,0,n,0,right,right,right,right,NA,645,35880,9826,645,NA,2,legacy,2,1024,2,48000,-16,experiment,4,even,1,471825,468446,469614,4712,136120,469616,462111,4720,126294,473829,474476,470621,40680,473829,NA,Sternberg task,61,56093,66,yes,1024
92.53731343,92.53731343,847.7462687,847.7462687,black,experiment,legacy,legacy,legacy,0,uniform,1,undefined,1,right,66,66,66,0,0,66,66,0,0,66,66,66,0,66,0,10/25/19 12:40,The main experiment item,yes,Sternbergtask SL.osexp,C:/Users/Sarah Linan/Desktop,no,mono,no,18,no,white,no,yes,768,legacy,54,11,C:/Users/Sarah Linan/Desktop/SLsubject-4.csv,legacy,1 6 4,Kafkaesque Koffka,3.2.8,0,n,0,right,right,right,right,NA,706,35880,9826,706,NA,2,legacy,3,1024,2,48000,-16,experiment,4,even,7,477970,474593,475759,4712,136120,475762,462111,4720,126294,479974,480681,476765,40680,479974,NA,Sternberg task,62,56799,67,yes,1024
92.64705882,92.64705882,852.6323529,852.6323529,black,experiment,legacy,legacy,legacy,0,uniform,1,undefined,1,left,67,67,67,0,0,67,67,0,0,67,67,67,0,67,0,10/25/19 12:40,The main experiment item,yes,Sternbergtask SL.osexp,C:/Users/Sarah Linan/Desktop,no,mono,no,18,no,white,no,yes,768,legacy,55,11,C:/Users/Sarah Linan/Desktop/SLsubject-4.csv,legacy,8 1 6,Kafkaesque Koffka,3.2.8,3,y,0,left,right,right,left,NA,1180,35880,9826,1180,NA,2,legacy,3,1024,2,48000,-16,experiment,4,even,6,484192,480828,481981,4712,136120,481983,462111,4720,126294,486196,487377,482988,40680,486196,NA,Sternberg task,63,57979,68,yes,1024
92.75362319,92.75362319,851.2753623,851.2753623,black,experiment,legacy,legacy,legacy,0,uniform,1,undefined,1,left,68,68,68,0,0,68,68,0,0,68,68,68,0,68,0,10/25/19 12:40,The main experiment item,yes,Sternbergtask SL.osexp,C:/Users/Sarah Linan/Desktop,no,mono,no,18,no,white,no,yes,768,legacy,56,11,C:/Users/Sarah Linan/Desktop/SLsubject-4.csv,legacy,9 3 1 2 5,Kafkaesque Koffka,3.2.8,4,y,0,left,right,right,left,NA,759,35880,9826,759,NA,2,legacy,5,1024,2,48000,-16,experiment,4,even,2,490780,487413,488569,4712,136120,488572,462111,4720,126294,492784,493544,489576,40680,492784,NA,Sternberg task,64,58738,69,yes,1024
91.42857143,91.42857143,864.4285714,864.4285714,black,experiment,legacy,legacy,legacy,0,uniform,0,undefined,0,left,69,69,69,0,0,69,69,0,0,69,69,69,0,69,0,10/25/19 12:40,The main experiment item,yes,Sternbergtask SL.osexp,C:/Users/Sarah Linan/Desktop,no,mono,no,18,no,white,no,yes,768,legacy,57,11,C:/Users/Sarah Linan/Desktop/SLsubject-4.csv,legacy,9 6 2 4 1,Kafkaesque Koffka,3.2.8,4,y,0,right,right,right,right,NA,1772,35880,9826,1772,NA,2,legacy,5,1024,2,48000,-16,experiment,4,even,4,497013,493632,494801,4712,136120,494804,462111,4720,126294,499017,500790,495809,40680,499017,NA,Sternberg task,64,60510,70,yes,1024
91.54929577,91.54929577,865.3098592,865.3098592,black,experiment,legacy,legacy,legacy,0,uniform,1,undefined,1,left,70,70,70,0,0,70,70,0,0,70,70,70,0,70,0,10/25/19 12:40,The main experiment item,yes,Sternbergtask SL.osexp,C:/Users/Sarah Linan/Desktop,no,mono,no,18,no,white,no,yes,768,legacy,58,11,C:/Users/Sarah Linan/Desktop/SLsubject-4.csv,legacy,7 6,Kafkaesque Koffka,3.2.8,2,y,0,left,right,right,left,NA,927,35880,9826,927,NA,2,legacy,2,1024,2,48000,-16,experiment,4,even,6,504201,493632,501990,4712,136120,501993,500831,4720,126294,506205,507133,502997,40680,506205,NA,Sternberg task,65,61437,71,yes,1024
91.66666667,91.66666667,861.4583333,861.4583333,black,experiment,legacy,legacy,legacy,0,uniform,1,undefined,1,right,71,71,71,0,0,71,71,0,0,71,71,71,0,71,0,10/25/19 12:40,The main experiment item,yes,Sternbergtask SL.osexp,C:/Users/Sarah Linan/Desktop,no,mono,no,18,no,white,no,yes,768,legacy,59,11,C:/Users/Sarah Linan/Desktop/SLsubject-4.csv,legacy,9,Kafkaesque Koffka,3.2.8,0,n,0,right,right,right,right,NA,588,35880,9826,588,NA,2,legacy,1,1024,2,48000,-16,experiment,4,even,6,510613,507246,508403,4712,136120,508405,500831,4720,126294,512618,513208,509409,40680,512618,NA,Sternberg task,66,62025,72,yes,1024
91.78082192,91.78082192,863.109589,863.109589,black,experiment,legacy,legacy,legacy,0,uniform,1,undefined,1,right,72,72,72,0,0,72,72,0,0,72,72,72,0,72,0,10/25/19 12:40,The main experiment item,yes,Sternbergtask SL.osexp,C:/Users/Sarah Linan/Desktop,no,mono,no,18,no,white,no,yes,768,legacy,60,11,C:/Users/Sarah Linan/Desktop/SLsubject-4.csv,legacy,9 8 2 7 4,Kafkaesque Koffka,3.2.8,0,n,0,right,right,right,right,NA,982,35880,9826,982,NA,2,legacy,5,1024,2,48000,-16,experiment,4,even,5,516668,513293,514455,4712,136120,514458,500831,4720,126294,518672,519655,515463,40680,518672,NA,Sternberg task,67,63007,73,yes,1024
91.89189189,91.89189189,858.2432432,858.2432432,black,experiment,legacy,legacy,legacy,0,uniform,1,undefined,1,left,73,73,73,0,0,73,73,0,0,73,73,73,0,73,0,10/25/19 12:40,The main experiment item,yes,Sternbergtask SL.osexp,C:/Users/Sarah Linan/Desktop,no,mono,no,18,no,white,no,yes,768,legacy,61,11,C:/Users/Sarah Linan/Desktop/SLsubject-4.csv,legacy,7 1 3,Kafkaesque Koffka,3.2.8,2,y,0,left,right,right,left,NA,503,35880,9826,503,NA,2,legacy,3,1024,2,48000,-16,experiment,4,even,1,523125,519750,520914,4712,136120,520916,500831,4720,126294,525128,525632,521920,40680,525127,NA,Sternberg task,68,63510,74,yes,1024
92,92,853.0533333,853.0533333,black,experiment,legacy,legacy,legacy,0,uniform,1,undefined,1,left,74,74,74,0,0,74,74,0,0,74,74,74,0,74,0,10/25/19 12:40,The main experiment item,yes,Sternbergtask SL.osexp,C:/Users/Sarah Linan/Desktop,no,mono,no,18,no,white,no,yes,768,legacy,62,11,C:/Users/Sarah Linan/Desktop/SLsubject-4.csv,legacy,9 4 2,Kafkaesque Koffka,3.2.8,1,y,0,left,right,right,left,NA,469,35880,9826,469,NA,2,legacy,3,1024,2,48000,-16,experiment,4,even,9,529101,525720,526890,4712,136120,526893,500831,4720,126294,531106,531577,527898,40680,531105,NA,Sternberg task,69,63979,75,yes,1024
92.10526316,92.10526316,855.4342105,855.4342105,black,experiment,legacy,legacy,legacy,0,uniform,1,undefined,1,left,75,75,75,0,0,75,75,0,0,75,75,75,0,75,0,10/25/19 12:40,The main experiment item,yes,Sternbergtask SL.osexp,C:/Users/Sarah Linan/Desktop,no,mono,no,18,no,white,no,yes,768,legacy,63,11,C:/Users/Sarah Linan/Desktop/SLsubject-4.csv,legacy,2 4 6 9,Kafkaesque Koffka,3.2.8,3,y,0,left,right,right,left,NA,1034,35880,9826,1034,NA,2,legacy,4,1024,2,48000,-16,experiment,4,even,6,534995,531623,532785,4712,136120,532787,500831,4720,126294,536999,538035,533791,40680,536999,NA,Sternberg task,70,65013,76,yes,1024
92.20779221,92.20779221,854.7012987,854.7012987,black,experiment,legacy,legacy,legacy,0,uniform,1,undefined,1,right,76,76,76,0,0,76,76,0,0,76,76,76,0,76,0,10/25/19 12:40,The main experiment item,yes,Sternbergtask SL.osexp,C:/Users/Sarah Linan/Desktop,no,mono,no,18,no,white,no,yes,768,legacy,64,11,C:/Users/Sarah Linan/Desktop/SLsubject-4.csv,legacy,8 4 3 5,Kafkaesque Koffka,3.2.8,0,n,0,right,right,right,right,NA,799,35880,9826,799,NA,2,legacy,4,1024,2,48000,-16,experiment,4,even,6,541500,538124,539290,4712,136120,539292,500831,4720,126294,543504,544305,540296,40680,543503,NA,Sternberg task,71,65812,77,yes,1024
92.30769231,92.30769231,852.2820513,852.2820513,black,experiment,legacy,legacy,legacy,0,uniform,1,undefined,1,right,77,77,77,0,0,77,77,0,0,77,77,77,0,77,0,10/25/19 12:40,The main experiment item,yes,Sternbergtask SL.osexp,C:/Users/Sarah Linan/Desktop,no,mono,no,18,no,white,no,yes,768,legacy,65,11,C:/Users/Sarah Linan/Desktop/SLsubject-4.csv,legacy,8 2 1 4 5 9,Kafkaesque Koffka,3.2.8,0,n,0,right,right,right,right,NA,666,35880,9826,666,NA,2,legacy,6,1024,2,48000,-16,experiment,4,even,7,547778,544393,545567,4712,136120,545570,500831,4720,126294,549782,550450,546573,40680,549781,NA,Sternberg task,72,66478,78,yes,1024
92.40506329,92.40506329,850.556962,850.556962,black,experiment,legacy,legacy,legacy,0,uniform,1,undefined,1,right,78,78,78,0,0,78,78,0,0,78,78,78,0,78,0,10/25/19 12:40,The main experiment item,yes,Sternbergtask SL.osexp,C:/Users/Sarah Linan/Desktop,no,mono,no,18,no,white,no,yes,768,legacy,66,11,C:/Users/Sarah Linan/Desktop/SLsubject-4.csv,legacy,1 7 5 2,Kafkaesque Koffka,3.2.8,0,n,0,right,right,right,right,NA,716,35880,9826,716,NA,2,legacy,4,1024,2,48000,-16,experiment,4,even,3,553918,550539,551709,4712,136120,551711,500831,4720,126294,555923,556641,552715,40680,555923,NA,Sternberg task,73,67194,79,yes,1024
91.25,91.25,860.7,860.7,black,experiment,legacy,legacy,legacy,0,uniform,0,undefined,0,left,79,79,79,0,0,79,79,0,0,79,79,79,0,79,0,10/25/19 12:40,The main experiment item,yes,Sternbergtask SL.osexp,C:/Users/Sarah Linan/Desktop,no,mono,no,18,no,white,no,yes,768,legacy,67,11,C:/Users/Sarah Linan/Desktop/SLsubject-4.csv,legacy,2 5 4 8 7,Kafkaesque Koffka,3.2.8,3,y,0,right,right,right,right,NA,1662,35880,9826,1662,NA,2,legacy,5,1024,2,48000,-16,experiment,4,even,4,560122,556742,557911,4712,136120,557914,500831,4720,126294,562126,563790,558918,40680,562126,NA,Sternberg task,73,68856,80,yes,1024
91.35802469,91.35802469,858.4938272,858.4938272,black,experiment,legacy,legacy,legacy,0,uniform,1,undefined,1,left,80,80,80,0,0,80,80,0,0,80,80,80,0,80,0,10/25/19 12:40,The main experiment item,yes,Sternbergtask SL.osexp,C:/Users/Sarah Linan/Desktop,no,mono,no,18,no,white,no,yes,768,legacy,68,11,C:/Users/Sarah Linan/Desktop/SLsubject-4.csv,legacy,2 3,Kafkaesque Koffka,3.2.8,1,y,0,left,right,right,left,NA,682,35880,9826,682,NA,2,legacy,2,1024,2,48000,-16,experiment,4,even,2,567270,556742,565063,4712,136120,565066,563875,4720,126294,569274,569958,566068,40680,569274,NA,Sternberg task,74,69538,81,yes,1024
91.46341463,91.46341463,860.8414634,860.8414634,black,experiment,legacy,legacy,legacy,0,uniform,1,undefined,1,right,81,81,81,0,0,81,81,0,0,81,81,81,0,81,0,10/25/19 12:40,The main experiment item,yes,Sternbergtask SL.osexp,C:/Users/Sarah Linan/Desktop,no,mono,no,18,no,white,no,yes,768,legacy,69,11,C:/Users/Sarah Linan/Desktop/SLsubject-4.csv,legacy,6 9 4 5 3 2,Kafkaesque Koffka,3.2.8,0,n,0,right,right,right,right,NA,1051,35880,9826,1051,NA,2,legacy,6,1024,2,48000,-16,experiment,4,even,8,573426,570055,571215,4712,136120,571218,563875,4720,126294,575431,576483,572222,40680,575430,NA,Sternberg task,75,70589,82,yes,1024
91.56626506,91.56626506,861.9036145,861.9036145,black,experiment,legacy,legacy,legacy,0,uniform,1,undefined,1,right,82,82,82,0,0,82,82,0,0,82,82,82,0,82,0,10/25/19 12:40,The main experiment item,yes,Sternbergtask SL.osexp,C:/Users/Sarah Linan/Desktop,no,mono,no,18,no,white,no,yes,768,legacy,70,11,C:/Users/Sarah Linan/Desktop/SLsubject-4.csv,legacy,7 1 8 4 9 3,Kafkaesque Koffka,3.2.8,0,n,0,right,right,right,right,NA,949,35880,9826,949,NA,2,legacy,6,1024,2,48000,-16,experiment,4,even,6,579954,576568,577743,4712,136120,577746,563875,4720,126294,581959,582909,578750,40680,581959,NA,Sternberg task,76,71538,83,yes,1024
91.66666667,91.66666667,861.3095238,861.3095238,black,experiment,legacy,legacy,legacy,0,uniform,1,undefined,1,right,83,83,83,0,0,83,83,0,0,83,83,83,0,83,0,10/25/19 12:40,The main experiment item,yes,Sternbergtask SL.osexp,C:/Users/Sarah Linan/Desktop,no,mono,no,18,no,white,no,yes,768,legacy,71,11,C:/Users/Sarah Linan/Desktop/SLsubject-4.csv,legacy,1 7 8 3 9,Kafkaesque Koffka,3.2.8,0,n,0,right,right,right,right,NA,812,35880,9826,812,NA,2,legacy,5,1024,2,48000,-16,experiment,4,even,2,586368,583004,584158,4712,136120,584160,563875,4720,126294,588373,589186,585164,40680,588372,NA,Sternberg task,77,72350,84,yes,1024
91.76470588,91.76470588,861.6588235,861.6588235,black,experiment,legacy,legacy,legacy,0,uniform,1,undefined,1,left,84,84,84,0,0,84,84,0,0,84,84,84,0,84,0,10/25/19 12:40,The main experiment item,yes,Sternbergtask SL.osexp,C:/Users/Sarah Linan/Desktop,no,mono,no,18,no,white,no,yes,768,legacy,72,11,C:/Users/Sarah Linan/Desktop/SLsubject-4.csv,legacy,6 9 7 4 5 1,Kafkaesque Koffka,3.2.8,2,y,0,left,right,right,left,NA,891,35880,9826,891,NA,2,legacy,6,1024,2,48000,-16,experiment,4,even,9,592654,589273,590443,4712,136120,590446,563875,4720,126294,594659,595551,591450,40680,594658,NA,Sternberg task,78,73241,85,yes,1024
91.86046512,91.86046512,857.8604651,857.8604651,black,experiment,legacy,legacy,legacy,0,uniform,1,undefined,1,left,85,85,85,0,0,85,85,0,0,85,85,85,0,85,0,10/25/19 12:40,The main experiment item,yes,Sternbergtask SL.osexp,C:/Users/Sarah Linan/Desktop,no,mono,no,18,no,white,no,yes,768,legacy,73,11,C:/Users/Sarah Linan/Desktop/SLsubject-4.csv,legacy,6 7 9 3 1 2,Kafkaesque Koffka,3.2.8,1,y,0,left,right,right,left,NA,535,35880,9826,535,NA,2,legacy,6,1024,2,48000,-16,experiment,4,even,6,599025,595641,596815,4712,136120,596818,563875,4720,126294,601029,601565,597820,40680,601029,NA,Sternberg task,79,73776,86,yes,1024
90.8045977,90.8045977,860.0804598,860.0804598,black,experiment,legacy,legacy,legacy,0,uniform,0,undefined,0,left,86,86,86,0,0,86,86,0,0,86,86,86,0,86,0,10/25/19 12:40,The main experiment item,yes,Sternbergtask SL.osexp,C:/Users/Sarah Linan/Desktop,no,mono,no,18,no,white,no,yes,768,legacy,74,11,C:/Users/Sarah Linan/Desktop/SLsubject-4.csv,legacy,8 5 3 7 4 6,Kafkaesque Koffka,3.2.8,6,y,0,right,right,right,right,NA,1051,35880,9826,1051,NA,2,legacy,6,1024,2,48000,-16,experiment,4,even,6,605033,601655,602821,4712,136120,602824,563875,4720,126294,607037,608089,603828,40680,607037,NA,Sternberg task,79,74827,87,yes,1024
90.90909091,90.90909091,855.0340909,855.0340909,black,experiment,legacy,legacy,legacy,0,uniform,1,undefined,1,left,87,87,87,0,0,87,87,0,0,87,87,87,0,87,0,10/25/19 12:40,The main experiment item,yes,Sternbergtask SL.osexp,C:/Users/Sarah Linan/Desktop,no,mono,no,18,no,white,no,yes,768,legacy,75,11,C:/Users/Sarah Linan/Desktop/SLsubject-4.csv,legacy,9 1 6 7 8,Kafkaesque Koffka,3.2.8,1,y,0,left,right,right,left,NA,416,35880,9826,416,NA,2,legacy,5,1024,2,48000,-16,experiment,4,even,9,611559,601655,609348,4712,136120,609351,608178,4720,126294,613563,613981,610355,40680,613563,NA,Sternberg task,80,75243,88,yes,1024
91.01123596,91.01123596,853.6853933,853.6853933,black,experiment,legacy,legacy,legacy,0,uniform,1,undefined,1,right,88,88,88,0,0,88,88,0,0,88,88,88,0,88,0,10/25/19 12:40,The main experiment item,yes,Sternbergtask SL.osexp,C:/Users/Sarah Linan/Desktop,no,mono,no,18,no,white,no,yes,768,legacy,76,11,C:/Users/Sarah Linan/Desktop/SLsubject-4.csv,legacy,9 5 3 2 8 6,Kafkaesque Koffka,3.2.8,0,n,0,right,right,right,right,NA,735,35880,9826,735,NA,2,legacy,6,1024,2,48000,-16,experiment,4,even,7,617450,614070,615237,4712,136120,615240,608178,4720,126294,619454,620190,616244,40680,619454,NA,Sternberg task,81,75978,89,yes,1024
91.11111111,91.11111111,852.8333333,852.8333333,black,experiment,legacy,legacy,legacy,0,uniform,1,undefined,1,right,89,89,89,0,0,89,89,0,0,89,89,89,0,89,0,10/25/19 12:40,The main experiment item,yes,Sternbergtask SL.osexp,C:/Users/Sarah Linan/Desktop,no,mono,no,18,no,white,no,yes,768,legacy,77,11,C:/Users/Sarah Linan/Desktop/SLsubject-4.csv,legacy,1,Kafkaesque Koffka,3.2.8,0,n,0,right,right,right,right,NA,777,35880,9826,777,NA,2,legacy,1,1024,2,48000,-16,experiment,4,even,7,623600,620227,621390,4712,136120,621392,608178,4720,126294,625604,626381,622396,40680,625604,NA,Sternberg task,82,76755,90,yes,1024
91.20879121,91.20879121,849.2417582,849.2417582,black,experiment,legacy,legacy,legacy,0,uniform,1,undefined,1,left,90,90,90,0,0,90,90,0,0,90,90,90,0,90,0,10/25/19 12:40,The main experiment item,yes,Sternbergtask SL.osexp,C:/Users/Sarah Linan/Desktop,no,mono,no,18,no,white,no,yes,768,legacy,78,11,C:/Users/Sarah Linan/Desktop/SLsubject-4.csv,legacy,3 4,Kafkaesque Koffka,3.2.8,1,y,0,left,right,right,left,NA,526,35880,9826,526,NA,2,legacy,2,1024,2,48000,-16,experiment,4,even,3,629848,626475,627637,4712,136120,627640,608178,4720,126294,631852,632379,628644,40680,631852,NA,Sternberg task,83,77281,91,yes,1024
91.30434783,91.30434783,849.576087,849.576087,black,experiment,legacy,legacy,legacy,0,uniform,1,undefined,1,left,91,91,91,0,0,91,91,0,0,91,91,91,0,91,0,10/25/19 12:40,The main experiment item,yes,Sternbergtask SL.osexp,C:/Users/Sarah Linan/Desktop,no,mono,no,18,no,white,no,yes,768,legacy,79,11,C:/Users/Sarah Linan/Desktop/SLsubject-4.csv,legacy,6 9 3 1,Kafkaesque Koffka,3.2.8,4,y,0,left,right,right,left,NA,880,35880,9826,880,NA,2,legacy,4,1024,2,48000,-16,experiment,4,even,1,635780,632409,633570,4712,136120,633572,608178,4720,126294,637785,638666,634576,40680,637785,NA,Sternberg task,84,78161,92,yes,1024
91.39784946,91.39784946,846.2365591,846.2365591,black,experiment,legacy,legacy,legacy,0,uniform,1,undefined,1,right,92,92,92,0,0,92,92,0,0,92,92,92,0,92,0,10/25/19 12:40,The main experiment item,yes,Sternbergtask SL.osexp,C:/Users/Sarah Linan/Desktop,no,mono,no,18,no,white,no,yes,768,legacy,80,11,C:/Users/Sarah Linan/Desktop/SLsubject-4.csv,legacy,5,Kafkaesque Koffka,3.2.8,0,n,0,right,right,right,right,NA,539,35880,9826,539,NA,2,legacy,1,1024,2,48000,-16,experiment,4,even,8,642133,638757,639922,4712,136120,639924,608178,4720,126294,644137,644677,640929,40680,644137,NA,Sternberg task,85,78700,93,yes,1024
91.4893617,91.4893617,845.4680851,845.4680851,black,experiment,legacy,legacy,legacy,0,uniform,1,undefined,1,left,93,93,93,0,0,93,93,0,0,93,93,93,0,93,0,10/25/19 12:40,The main experiment item,yes,Sternbergtask SL.osexp,C:/Users/Sarah Linan/Desktop,no,mono,no,18,no,white,no,yes,768,legacy,81,11,C:/Users/Sarah Linan/Desktop/SLsubject-4.csv,legacy,4 7 6 8 2 3,Kafkaesque Koffka,3.2.8,6,y,0,left,right,right,left,NA,774,35880,9826,774,NA,2,legacy,6,1024,2,48000,-16,experiment,4,even,3,648145,644771,645933,4712,136120,645936,608178,4720,126294,650148,650924,646941,40680,650148,NA,Sternberg task,86,79474,94,yes,1024
91.57894737,91.57894737,844.2,844.2,black,experiment,legacy,legacy,legacy,0,uniform,1,undefined,1,right,94,94,94,0,0,94,94,0,0,94,94,94,0,94,0,10/25/19 12:40,The main experiment item,yes,Sternbergtask SL.osexp,C:/Users/Sarah Linan/Desktop,no,mono,no,18,no,white,no,yes,768,legacy,82,11,C:/Users/Sarah Linan/Desktop/SLsubject-4.csv,legacy,4 1,Kafkaesque Koffka,3.2.8,0,n,0,right,right,right,right,NA,725,35880,9826,725,NA,2,legacy,2,1024,2,48000,-16,experiment,4,even,6,654391,651018,652181,4712,136120,652184,608178,4720,126294,656396,657122,653188,40680,656396,NA,Sternberg task,87,80199,95,yes,1024
91.66666667,91.66666667,841.8229167,841.8229167,black,experiment,legacy,legacy,legacy,0,uniform,1,undefined,1,left,95,95,95,0,0,95,95,0,0,95,95,95,0,95,0,10/25/19 12:40,The main experiment item,yes,Sternbergtask SL.osexp,C:/Users/Sarah Linan/Desktop,no,mono,no,18,no,white,no,yes,768,legacy,83,11,C:/Users/Sarah Linan/Desktop/SLsubject-4.csv,legacy,6 5,Kafkaesque Koffka,3.2.8,2,y,0,left,right,right,left,NA,616,35880,9826,616,NA,2,legacy,2,1024,2,48000,-16,experiment,4,even,5,660585,657209,658373,4712,136120,658376,608178,4720,126294,662589,663206,659381,40680,662589,NA,Sternberg task,88,80815,96,yes,1024
91.75257732,91.75257732,839.8453608,839.8453608,black,experiment,legacy,legacy,legacy,0,uniform,1,undefined,1,left,96,96,96,0,0,96,96,0,0,96,96,96,0,96,0,10/25/19 12:40,The main experiment item,yes,Sternbergtask SL.osexp,C:/Users/Sarah Linan/Desktop,no,mono,no,18,no,white,no,yes,768,legacy,84,11,C:/Users/Sarah Linan/Desktop/SLsubject-4.csv,legacy,7 8 4 6 9 5,Kafkaesque Koffka,3.2.8,4,y,0,left,right,right,left,NA,650,35880,9826,650,NA,2,legacy,6,1024,2,48000,-16,experiment,4,even,6,666681,663300,664471,4712,136120,664474,608178,4720,126294,668685,669336,665478,40680,668685,NA,Sternberg task,89,81465,97,yes,1024
91.83673469,91.83673469,844.244898,844.244898,black,experiment,legacy,legacy,legacy,0,uniform,1,undefined,1,right,97,97,97,0,0,97,97,0,0,97,97,97,0,97,0,10/25/19 12:40,The main experiment item,yes,Sternbergtask SL.osexp,C:/Users/Sarah Linan/Desktop,no,mono,no,18,no,white,no,yes,768,legacy,85,11,C:/Users/Sarah Linan/Desktop/SLsubject-4.csv,legacy,1 5 3 2 8,Kafkaesque Koffka,3.2.8,0,n,0,right,right,right,right,NA,1271,35880,9826,1271,NA,2,legacy,5,1024,2,48000,-16,experiment,4,even,4,672790,669410,670579,4712,136120,670581,608178,4720,126294,674792,676064,671585,40680,674792,NA,Sternberg task,90,82736,98,yes,1024
91.91919192,91.91919192,842.2525253,842.2525253,black,experiment,legacy,legacy,legacy,0,uniform,1,undefined,1,right,98,98,98,0,0,98,98,0,0,98,98,98,0,98,0,10/25/19 12:40,The main experiment item,yes,Sternbergtask SL.osexp,C:/Users/Sarah Linan/Desktop,no,mono,no,18,no,white,no,yes,768,legacy,86,11,C:/Users/Sarah Linan/Desktop/SLsubject-4.csv,legacy,6 9 4 5 2,Kafkaesque Koffka,3.2.8,0,n,0,right,right,right,right,NA,647,35880,9826,647,NA,2,legacy,5,1024,2,48000,-16,experiment,4,even,1,679584,676204,677374,4712,136120,677376,608178,4720,126294,681588,682236,678380,40680,681588,NA,Sternberg task,91,83383,99,yes,1024
92,92,837.87,837.87,black,experiment,legacy,legacy,legacy,0,uniform,1,undefined,1,left,99,99,99,0,0,99,99,0,0,99,99,99,0,99,0,10/25/19 12:40,The main experiment item,yes,Sternbergtask SL.osexp,C:/Users/Sarah Linan/Desktop,no,mono,no,18,no,white,no,yes,768,legacy,87,11,C:/Users/Sarah Linan/Desktop/SLsubject-4.csv,legacy,4,Kafkaesque Koffka,3.2.8,1,y,0,left,right,right,left,NA,404,35880,9826,404,NA,2,legacy,1,1024,2,48000,-16,experiment,4,even,4,685702,682328,683493,4712,136120,683495,608178,4720,126294,687706,688111,684499,40680,687705,NA,Sternberg task,92,83787,100,yes,1024
92.07920792,92.07920792,835.5148515,835.5148515,black,experiment,legacy,legacy,legacy,0,uniform,1,undefined,1,right,100,100,100,0,0,100,100,0,0,100,100,100,0,100,0,10/25/19 12:40,The main experiment item,yes,Sternbergtask SL.osexp,C:/Users/Sarah Linan/Desktop,no,mono,no,18,no,white,no,yes,768,legacy,88,11,C:/Users/Sarah Linan/Desktop/SLsubject-4.csv,legacy,4 8 1 2,Kafkaesque Koffka,3.2.8,0,n,0,right,right,right,right,NA,600,35880,9826,600,NA,2,legacy,4,1024,2,48000,-16,experiment,4,even,7,691528,688149,689317,4712,136120,689320,608178,4720,126294,693533,694135,690323,40680,693533,NA,Sternberg task,93,84387,101,yes,1024
92.15686275,92.15686275,831.8529412,831.8529412,black,experiment,legacy,legacy,legacy,0,uniform,1,undefined,1,left,101,101,101,0,0,101,101,0,0,101,101,101,0,101,0,10/25/19 12:40,The main experiment item,yes,Sternbergtask SL.osexp,C:/Users/Sarah Linan/Desktop,no,mono,no,18,no,white,no,yes,768,legacy,89,11,C:/Users/Sarah Linan/Desktop/SLsubject-4.csv,legacy,9 5 3 8 4,Kafkaesque Koffka,3.2.8,1,y,0,left,right,right,left,NA,462,35880,9826,462,NA,2,legacy,5,1024,2,48000,-16,experiment,4,even,9,697588,694222,695377,4712,136120,695380,608178,4720,126294,699592,700054,696384,40680,699592,NA,Sternberg task,94,84849,102,yes,1024
92.23300971,92.23300971,830.2718447,830.2718447,black,experiment,legacy,legacy,legacy,0,uniform,1,undefined,1,right,102,102,102,0,0,102,102,0,0,102,102,102,0,102,0,10/25/19 12:40,The main experiment item,yes,Sternbergtask SL.osexp,C:/Users/Sarah Linan/Desktop,no,mono,no,18,no,white,no,yes,768,legacy,90,11,C:/Users/Sarah Linan/Desktop/SLsubject-4.csv,legacy,5 7 3,Kafkaesque Koffka,3.2.8,0,n,0,right,right,right,right,NA,669,35880,9826,669,NA,2,legacy,3,1024,2,48000,-16,experiment,4,even,9,703509,700145,701299,4712,136120,701302,608178,4720,126294,705513,706183,702304,40680,705513,NA,Sternberg task,95,85518,103,yes,1024
92.30769231,92.30769231,833.2211538,833.2211538,black,experiment,legacy,legacy,legacy,0,uniform,1,undefined,1,right,103,103,103,0,0,103,103,0,0,103,103,103,0,103,0,10/25/19 12:40,The main experiment item,yes,Sternbergtask SL.osexp,C:/Users/Sarah Linan/Desktop,no,mono,no,18,no,white,no,yes,768,legacy,91,11,C:/Users/Sarah Linan/Desktop/SLsubject-4.csv,legacy,7 3 2 8,Kafkaesque Koffka,3.2.8,0,n,0,right,right,right,right,NA,1137,35880,9826,1137,NA,2,legacy,4,1024,2,48000,-16,experiment,4,even,4,709644,706272,707433,4712,136120,707436,608178,4720,126294,711648,712787,708440,40680,711648,NA,Sternberg task,96,86655,104,yes,1024
92.38095238,92.38095238,835.9619048,835.9619048,black,experiment,legacy,legacy,legacy,0,uniform,1,undefined,1,left,104,104,104,0,0,104,104,0,0,104,104,104,0,104,0,10/25/19 12:40,The main experiment item,yes,Sternbergtask SL.osexp,C:/Users/Sarah Linan/Desktop,no,mono,no,18,no,white,no,yes,768,legacy,92,11,C:/Users/Sarah Linan/Desktop/SLsubject-4.csv,legacy,6 7 8 5,Kafkaesque Koffka,3.2.8,3,y,0,left,right,right,left,NA,1121,35880,9826,1121,NA,2,legacy,4,1024,2,48000,-16,experiment,4,even,8,716246,712874,714036,4712,136120,714038,608178,4720,126294,718250,719372,715042,40680,718250,NA,Sternberg task,97,87776,105,yes,1024
92.45283019,92.45283019,838.1037736,838.1037736,black,experiment,legacy,legacy,legacy,0,uniform,1,undefined,1,left,105,105,105,0,0,105,105,0,0,105,105,105,0,105,0,10/25/19 12:40,The main experiment item,yes,Sternbergtask SL.osexp,C:/Users/Sarah Linan/Desktop,no,mono,no,18,no,white,no,yes,768,legacy,93,11,C:/Users/Sarah Linan/Desktop/SLsubject-4.csv,legacy,8 5 4 7 3 1,Kafkaesque Koffka,3.2.8,2,y,0,left,right,right,left,NA,1063,35880,9826,1063,NA,2,legacy,6,1024,2,48000,-16,experiment,4,even,5,722842,719463,720633,4712,136120,720636,608178,4720,126294,724846,725911,721640,40680,724845,NA,Sternberg task,98,88839,106,yes,1024
92.52336449,92.52336449,841.1869159,841.1869159,black,experiment,legacy,legacy,legacy,0,uniform,1,undefined,1,right,106,106,106,0,0,106,106,0,0,106,106,106,0,106,0,10/25/19 12:40,The main experiment item,yes,Sternbergtask SL.osexp,C:/Users/Sarah Linan/Desktop,no,mono,no,18,no,white,no,yes,768,legacy,94,11,C:/Users/Sarah Linan/Desktop/SLsubject-4.csv,legacy,8 5 4 2 9 6,Kafkaesque Koffka,3.2.8,0,n,0,right,right,right,right,NA,1168,35880,9826,1168,NA,2,legacy,6,1024,2,48000,-16,experiment,4,even,3,729335,725942,727124,4712,136120,727127,608178,4720,126294,731339,732509,728131,40680,731338,NA,Sternberg task,99,90007,107,yes,1024
92.59259259,92.59259259,840.4074074,840.4074074,black,experiment,legacy,legacy,legacy,0,uniform,1,undefined,1,left,107,107,107,0,0,107,107,0,0,107,107,107,0,107,0,10/25/19 12:40,The main experiment item,yes,Sternbergtask SL.osexp,C:/Users/Sarah Linan/Desktop,no,mono,no,18,no,white,no,yes,768,legacy,95,11,C:/Users/Sarah Linan/Desktop/SLsubject-4.csv,legacy,8 9 5 7 1 6,Kafkaesque Koffka,3.2.8,4,y,0,left,right,right,left,NA,757,35880,9826,757,NA,2,legacy,6,1024,2,48000,-16,experiment,4,even,7,735976,732601,733765,4712,136120,733768,608178,4720,126294,737981,738739,734772,40680,737981,NA,Sternberg task,100,90764,108,yes,1024
92.66055046,92.66055046,838.6330275,838.6330275,black,experiment,legacy,legacy,legacy,0,uniform,1,undefined,1,left,108,108,108,0,0,108,108,0,0,108,108,108,0,108,0,10/25/19 12:40,The main experiment item,yes,Sternbergtask SL.osexp,C:/Users/Sarah Linan/Desktop,no,mono,no,18,no,white,no,yes,768,legacy,96,11,C:/Users/Sarah Linan/Desktop/SLsubject-4.csv,legacy,3 4 9 6 2 9,Kafkaesque Koffka,3.2.8,5,y,0,left,right,right,left,NA,647,35880,9826,647,NA,2,legacy,6,1024,2,48000,-16,experiment,4,even,2,742168,738786,739957,4712,136120,739960,608178,4720,126294,744173,744820,740964,40680,744172,NA,Sternberg task,101,91411,109,yes,1024
92.72727273,92.72727273,835.4090909,835.4090909,black,experiment,legacy,legacy,legacy,0,uniform,1,undefined,1,left,109,109,109,0,0,109,109,0,0,109,109,109,0,109,0,10/25/19 12:40,The main experiment item,yes,Sternbergtask SL.osexp,C:/Users/Sarah Linan/Desktop,no,mono,no,18,no,white,no,yes,768,legacy,97,11,C:/Users/Sarah Linan/Desktop/SLsubject-4.csv,legacy,4 3 2 5 8,Kafkaesque Koffka,3.2.8,2,y,0,left,right,right,left,NA,484,35880,9826,484,NA,2,legacy,5,1024,2,48000,-16,experiment,4,even,3,748299,744917,746091,4712,136120,746093,608178,4720,126294,750301,750787,747097,40680,750301,NA,Sternberg task,102,91895,110,yes,1024
92.79279279,92.79279279,834.990991,834.990991,black,experiment,legacy,legacy,legacy,0,uniform,1,undefined,1,right,110,110,110,0,0,110,110,0,0,110,110,110,0,110,0,10/25/19 12:40,The main experiment item,yes,Sternbergtask SL.osexp,C:/Users/Sarah Linan/Desktop,no,mono,no,18,no,white,no,yes,768,legacy,98,11,C:/Users/Sarah Linan/Desktop/SLsubject-4.csv,legacy,2 8 9 4 1,Kafkaesque Koffka,3.2.8,0,n,0,right,right,right,right,NA,789,35880,9826,789,NA,2,legacy,5,1024,2,48000,-16,experiment,4,even,5,754318,750941,752108,4712,136120,752110,608178,4720,126294,756322,757113,753114,40680,756322,NA,Sternberg task,103,92684,111,yes,1024
92.85714286,92.85714286,832.5803571,832.5803571,black,experiment,legacy,legacy,legacy,0,uniform,1,undefined,1,left,111,111,111,0,0,111,111,0,0,111,111,111,0,111,0,10/25/19 12:40,The main experiment item,yes,Sternbergtask SL.osexp,C:/Users/Sarah Linan/Desktop,no,mono,no,18,no,white,no,yes,768,legacy,99,11,C:/Users/Sarah Linan/Desktop/SLsubject-4.csv,legacy,5 7 8 2 3 8,Kafkaesque Koffka,3.2.8,5,y,0,left,right,right,left,NA,565,35880,9826,565,NA,2,legacy,6,1024,2,48000,-16,experiment,4,even,3,760575,757199,758365,4712,136120,758368,608178,4720,126294,762581,763148,759372,40680,762580,NA,Sternberg task,104,93249,112,yes,1024
92.92035398,92.92035398,833.4070796,833.4070796,black,experiment,legacy,legacy,legacy,0,uniform,1,undefined,1,right,112,112,112,0,0,112,112,0,0,112,112,112,0,112,0,10/25/19 12:40,The main experiment item,yes,Sternbergtask SL.osexp,C:/Users/Sarah Linan/Desktop,no,mono,no,18,no,white,no,yes,768,legacy,100,11,C:/Users/Sarah Linan/Desktop/SLsubject-4.csv,legacy,6 2 9 3 8 4,Kafkaesque Koffka,3.2.8,0,n,0,right,right,right,right,NA,926,35880,9826,926,NA,2,legacy,6,1024,2,48000,-16,experiment,4,even,1,766580,763207,764370,4712,136120,764373,608178,4720,126294,768585,769513,765377,40680,768585,NA,Sternberg task,105,94175,113,yes,1024
92.98245614,92.98245614,830.1754386,830.1754386,black,experiment,legacy,legacy,legacy,0,uniform,1,undefined,1,left,113,113,113,0,0,113,113,0,0,113,113,113,0,113,0,10/25/19 12:40,The main experiment item,yes,Sternbergtask SL.osexp,C:/Users/Sarah Linan/Desktop,no,mono,no,18,no,white,no,yes,768,legacy,101,11,C:/Users/Sarah Linan/Desktop/SLsubject-4.csv,legacy,3 5 4 7,Kafkaesque Koffka,3.2.8,1,y,0,left,right,right,left,NA,465,35880,9826,465,NA,2,legacy,4,1024,2,48000,-16,experiment,4,even,3,772982,769604,770771,4712,136120,770774,608178,4720,126294,774985,775452,771778,40680,774985,NA,Sternberg task,106,94640,114,yes,1024
93.04347826,93.04347826,827.9652174,827.9652174,black,experiment,legacy,legacy,legacy,0,uniform,1,undefined,1,left,114,114,114,0,0,114,114,0,0,114,114,114,0,114,0,10/25/19 12:40,The main experiment item,yes,Sternbergtask SL.osexp,C:/Users/Sarah Linan/Desktop,no,mono,no,18,no,white,no,yes,768,legacy,102,11,C:/Users/Sarah Linan/Desktop/SLsubject-4.csv,legacy,2 6 1 7 4,Kafkaesque Koffka,3.2.8,2,y,0,left,right,right,left,NA,576,35880,9826,576,NA,2,legacy,5,1024,2,48000,-16,experiment,4,even,6,778866,775490,776655,4712,136120,776658,608178,4720,126294,780870,781448,777662,40680,780869,NA,Sternberg task,107,95216,115,yes,1024
93.10344828,93.10344828,824.6982759,824.6982759,black,experiment,legacy,legacy,legacy,0,uniform,1,undefined,1,left,115,115,115,0,0,115,115,0,0,115,115,115,0,115,0,10/25/19 12:40,The main experiment item,yes,Sternbergtask SL.osexp,C:/Users/Sarah Linan/Desktop,no,mono,no,18,no,white,no,yes,768,legacy,103,11,C:/Users/Sarah Linan/Desktop/SLsubject-4.csv,legacy,7,Kafkaesque Koffka,3.2.8,1,y,0,left,right,right,left,NA,449,35880,9826,449,NA,2,legacy,1,1024,2,48000,-16,experiment,4,even,7,784917,781542,782706,4712,136120,782709,608178,4720,126294,786921,787372,783713,40680,786921,NA,Sternberg task,108,95665,116,yes,1024
93.16239316,93.16239316,821.9401709,821.9401709,black,experiment,legacy,legacy,legacy,0,uniform,1,undefined,1,left,116,116,116,0,0,116,116,0,0,116,116,116,0,116,0,10/25/19 12:40,The main experiment item,yes,Sternbergtask SL.osexp,C:/Users/Sarah Linan/Desktop,no,mono,no,18,no,white,no,yes,768,legacy,104,11,C:/Users/Sarah Linan/Desktop/SLsubject-4.csv,legacy,1 4 9 3 2 5,Kafkaesque Koffka,3.2.8,3,y,0,left,right,right,left,NA,502,35880,9826,502,NA,2,legacy,6,1024,2,48000,-16,experiment,4,even,9,790855,787466,788645,4712,136120,788647,608178,4720,126294,792859,793363,789651,40680,792859,NA,Sternberg task,109,96167,117,yes,1024
93.22033898,93.22033898,819.3305085,819.3305085,black,experiment,legacy,legacy,legacy,0,uniform,1,undefined,1,left,117,117,117,0,0,117,117,0,0,117,117,117,0,117,0,10/25/19 12:40,The main experiment item,yes,Sternbergtask SL.osexp,C:/Users/Sarah Linan/Desktop,no,mono,no,18,no,white,no,yes,768,legacy,105,11,C:/Users/Sarah Linan/Desktop/SLsubject-4.csv,legacy,7 4 2 6 3 5,Kafkaesque Koffka,3.2.8,6,y,0,left,right,right,left,NA,514,35880,9826,514,NA,2,legacy,6,1024,2,48000,-16,experiment,4,even,5,796822,793458,794612,4712,136120,794615,608178,4720,126294,798827,799343,795618,40680,798827,NA,Sternberg task,110,96681,118,yes,1024
93.27731092,93.27731092,822.4957983,822.4957983,black,experiment,legacy,legacy,legacy,0,uniform,1,undefined,1,right,118,118,118,0,0,118,118,0,0,118,118,118,0,118,0,10/25/19 12:40,The main experiment item,yes,Sternbergtask SL.osexp,C:/Users/Sarah Linan/Desktop,no,mono,no,18,no,white,no,yes,768,legacy,106,11,C:/Users/Sarah Linan/Desktop/SLsubject-4.csv,legacy,2 8 7 9 5 3,Kafkaesque Koffka,3.2.8,0,n,0,right,right,right,right,NA,1196,35880,9826,1196,NA,2,legacy,6,1024,2,48000,-16,experiment,4,even,6,802814,799427,800602,4712,136120,800605,608178,4720,126294,804818,806015,801608,40680,804818,NA,Sternberg task,111,97877,119,yes,1024
92.5,92.5,820.0833333,820.0833333,black,experiment,legacy,legacy,legacy,0,uniform,0,undefined,0,right,119,119,119,0,0,119,119,0,0,119,119,119,0,119,0,10/25/19 12:40,The main experiment item,yes,Sternbergtask SL.osexp,C:/Users/Sarah Linan/Desktop,no,mono,no,18,no,white,no,yes,768,legacy,107,11,C:/Users/Sarah Linan/Desktop/SLsubject-4.csv,legacy,6 3 1 7 9 8,Kafkaesque Koffka,3.2.8,0,n,0,left,right,right,left,NA,533,35880,9826,533,NA,2,legacy,6,1024,2,48000,-16,experiment,4,even,4,809497,806106,807285,4712,136120,807288,608178,4720,126294,811501,812035,808293,40680,811501,NA,Sternberg task,111,98410,120,yes,1024
92.56198347,92.56198347,819.107438,819.107438,black,experiment,legacy,legacy,legacy,0,uniform,1,undefined,1,right,120,120,120,0,0,120,120,0,0,120,120,120,0,120,0,10/25/19 12:40,The main experiment item,yes,Sternbergtask SL.osexp,C:/Users/Sarah Linan/Desktop,no,mono,no,18,no,white,no,yes,768,legacy,108,11,C:/Users/Sarah Linan/Desktop/SLsubject-4.csv,legacy,6 9 5,Kafkaesque Koffka,3.2.8,0,n,0,right,right,right,right,NA,702,35880,9826,702,NA,2,legacy,3,1024,2,48000,-16,experiment,4,even,8,815495,806106,813286,4712,136120,813288,812120,4720,126294,817500,818204,814291,40680,817500,NA,Sternberg task,112,99112,121,yes,1024
92.62295082,92.62295082,818.3032787,818.3032787,black,experiment,legacy,legacy,legacy,0,uniform,1,undefined,1,right,121,121,121,0,0,121,121,0,0,121,121,121,0,121,0,10/25/19 12:40,The main experiment item,yes,Sternbergtask SL.osexp,C:/Users/Sarah Linan/Desktop,no,mono,no,18,no,white,no,yes,768,legacy,109,11,C:/Users/Sarah Linan/Desktop/SLsubject-4.csv,legacy,2 8 9,Kafkaesque Koffka,3.2.8,0,n,0,right,right,right,right,NA,721,35880,9826,721,NA,2,legacy,3,1024,2,48000,-16,experiment,4,even,6,821664,818289,819454,4712,136120,819457,812120,4720,126294,823668,824391,820460,40680,823668,NA,Sternberg task,113,99833,122,yes,1024
92.68292683,92.68292683,817.0650407,817.0650407,black,experiment,legacy,legacy,legacy,0,uniform,1,undefined,1,right,122,122,122,0,0,122,122,0,0,122,122,122,0,122,0,10/25/19 12:40,The main experiment item,yes,Sternbergtask SL.osexp,C:/Users/Sarah Linan/Desktop,no,mono,no,18,no,white,no,yes,768,legacy,110,11,C:/Users/Sarah Linan/Desktop/SLsubject-4.csv,legacy,2 8 6 3 1,Kafkaesque Koffka,3.2.8,0,n,0,right,right,right,right,NA,666,35880,9826,666,NA,2,legacy,5,1024,2,48000,-16,experiment,4,even,7,827853,824479,825643,4712,136120,825645,812120,4720,126294,829857,830524,826649,40680,829857,NA,Sternberg task,114,100499,123,yes,1024
91.93548387,91.93548387,822.4758065,822.4758065,black,experiment,legacy,legacy,legacy,0,uniform,0,undefined,0,left,123,123,123,0,0,123,123,0,0,123,123,123,0,123,0,10/25/19 12:40,The main experiment item,yes,Sternbergtask SL.osexp,C:/Users/Sarah Linan/Desktop,no,mono,no,18,no,white,no,yes,768,legacy,111,11,C:/Users/Sarah Linan/Desktop/SLsubject-4.csv,legacy,9 3 8 2 1 4,Kafkaesque Koffka,3.2.8,3,y,0,right,right,right,right,NA,1488,35880,9826,1488,NA,2,legacy,6,1024,2,48000,-16,experiment,4,even,8,834023,830615,831812,4712,136120,831814,812120,4720,126294,836027,837516,832819,40680,836027,NA,Sternberg task,114,101987,124,yes,1024
91.2,91.2,831.896,831.896,black,experiment,legacy,legacy,legacy,0,uniform,0,undefined,0,left,124,124,124,0,0,124,124,0,0,124,124,124,0,124,0,10/25/19 12:40,The main experiment item,yes,Sternbergtask SL.osexp,C:/Users/Sarah Linan/Desktop,no,mono,no,18,no,white,no,yes,768,legacy,112,11,C:/Users/Sarah Linan/Desktop/SLsubject-4.csv,legacy,7 1 8 5 6 2,Kafkaesque Koffka,3.2.8,2,y,0,None,right,right,None,NA,2000,35880,9826,2000,NA,2,legacy,6,1024,2,48000,-16,experiment,4,even,1,840996,830615,838785,4712,136120,838788,837605,4720,126294,843001,845002,839792,40680,843000,NA,Sternberg task,114,103987,125,yes,1024
91.26984127,91.26984127,835.6190476,835.6190476,black,experiment,legacy,legacy,legacy,0,uniform,1,undefined,1,right,125,125,125,0,0,125,125,0,0,125,125,125,0,125,0,10/25/19 12:40,The main experiment item,yes,Sternbergtask SL.osexp,C:/Users/Sarah Linan/Desktop,no,mono,no,18,no,white,no,yes,768,legacy,113,11,C:/Users/Sarah Linan/Desktop/SLsubject-4.csv,legacy,5 3 2 6 9 8,Kafkaesque Koffka,3.2.8,0,n,0,right,right,right,right,NA,1301,35880,9826,1301,NA,2,legacy,6,1024,2,48000,-16,experiment,4,even,4,848406,830615,846197,4712,136120,846199,845039,4720,126294,850410,851713,847203,40680,850410,NA,Sternberg task,115,105288,126,yes,1024
91.33858268,91.33858268,833.511811,833.511811,black,experiment,legacy,legacy,legacy,0,uniform,1,undefined,1,left,126,126,126,0,0,126,126,0,0,126,126,126,0,126,0,10/25/19 12:40,The main experiment item,yes,Sternbergtask SL.osexp,C:/Users/Sarah Linan/Desktop,no,mono,no,18,no,white,no,yes,768,legacy,114,11,C:/Users/Sarah Linan/Desktop/SLsubject-4.csv,legacy,4 1 5,Kafkaesque Koffka,3.2.8,2,y,0,left,right,right,left,NA,568,35880,9826,568,NA,2,legacy,3,1024,2,48000,-16,experiment,4,even,1,855177,851807,852967,4712,136120,852969,845039,4720,126294,857181,857752,853973,40680,857181,NA,Sternberg task,116,105856,127,yes,1024
91.40625,91.40625,831.9921875,831.9921875,black,experiment,legacy,legacy,legacy,0,uniform,1,undefined,1,left,127,127,127,0,0,127,127,0,0,127,127,127,0,127,0,10/25/19 12:40,The main experiment item,yes,Sternbergtask SL.osexp,C:/Users/Sarah Linan/Desktop,no,mono,no,18,no,white,no,yes,768,legacy,115,11,C:/Users/Sarah Linan/Desktop/SLsubject-4.csv,legacy,2 8 5 1,Kafkaesque Koffka,3.2.8,4,y,0,left,right,right,left,NA,639,35880,9826,639,NA,2,legacy,4,1024,2,48000,-16,experiment,4,even,1,861226,857843,859015,4712,136120,859017,845039,4720,126294,863230,863871,860022,40680,863230,NA,Sternberg task,117,106495,128,yes,1024
91.47286822,91.47286822,831.9612403,831.9612403,black,experiment,legacy,legacy,legacy,0,uniform,1,undefined,1,right,128,128,128,0,0,128,128,0,0,128,128,128,0,128,0,10/25/19 12:40,The main experiment item,yes,Sternbergtask SL.osexp,C:/Users/Sarah Linan/Desktop,no,mono,no,18,no,white,no,yes,768,legacy,116,11,C:/Users/Sarah Linan/Desktop/SLsubject-4.csv,legacy,4 2 7 6 1 3,Kafkaesque Koffka,3.2.8,0,n,0,right,right,right,right,NA,828,35880,9826,828,NA,2,legacy,6,1024,2,48000,-16,experiment,4,even,8,867348,863956,865138,4712,136120,865140,845039,4720,126294,869352,870182,866143,40680,869352,NA,Sternberg task,118,107323,129,yes,1024
90.76923077,90.76923077,830.2692308,830.2692308,black,experiment,legacy,legacy,legacy,0,uniform,0,undefined,0,right,129,129,129,0,0,129,129,0,0,129,129,129,0,129,0,10/25/19 12:40,The main experiment item,yes,Sternbergtask SL.osexp,C:/Users/Sarah Linan/Desktop,no,mono,no,18,no,white,no,yes,768,legacy,117,11,C:/Users/Sarah Linan/Desktop/SLsubject-4.csv,legacy,7 4 2 8 1 9,Kafkaesque Koffka,3.2.8,0,n,0,left,right,right,left,NA,612,35880,9826,612,NA,2,legacy,6,1024,2,48000,-16,experiment,4,even,5,873636,870271,871426,4712,136120,871428,845039,4720,126294,875640,876254,872432,40680,875640,NA,Sternberg task,118,107935,130,yes,1024
90.83969466,90.83969466,833.1068702,833.1068702,black,experiment,legacy,legacy,legacy,0,uniform,1,undefined,1,right,130,130,130,0,0,130,130,0,0,130,130,130,0,130,0,10/25/19 12:40,The main experiment item,yes,Sternbergtask SL.osexp,C:/Users/Sarah Linan/Desktop,no,mono,no,18,no,white,no,yes,768,legacy,118,11,C:/Users/Sarah Linan/Desktop/SLsubject-4.csv,legacy,6 7 5 9,Kafkaesque Koffka,3.2.8,0,n,0,right,right,right,right,NA,1202,35880,9826,1202,NA,2,legacy,4,1024,2,48000,-16,experiment,4,even,2,879711,870271,877500,4712,136120,877502,876338,4720,126294,881715,882919,878507,40680,881715,NA,Sternberg task,119,109137,131,yes,1024
90.90909091,90.90909091,831.5378788,831.5378788,black,experiment,legacy,legacy,legacy,0,uniform,1,undefined,1,left,131,131,131,0,0,131,131,0,0,131,131,131,0,131,0,10/25/19 12:40,The main experiment item,yes,Sternbergtask SL.osexp,C:/Users/Sarah Linan/Desktop,no,mono,no,18,no,white,no,yes,768,legacy,119,11,C:/Users/Sarah Linan/Desktop/SLsubject-4.csv,legacy,3 5 7 1,Kafkaesque Koffka,3.2.8,3,y,0,left,right,right,left,NA,626,35880,9826,626,NA,2,legacy,4,1024,2,48000,-16,experiment,4,even,7,886374,883007,884163,4712,136120,884166,876338,4720,126294,888378,889006,885170,40680,888378,NA,Sternberg task,120,109763,132,yes,1024
90.97744361,90.97744361,829.3684211,829.3684211,black,experiment,legacy,legacy,legacy,0,uniform,1,undefined,1,left,132,132,132,0,0,132,132,0,0,132,132,132,0,132,0,10/25/19 12:40,The main experiment item,yes,Sternbergtask SL.osexp,C:/Users/Sarah Linan/Desktop,no,mono,no,18,no,white,no,yes,768,legacy,120,11,C:/Users/Sarah Linan/Desktop/SLsubject-4.csv,legacy,4 9 7 8 5 3,Kafkaesque Koffka,3.2.8,4,y,0,left,right,right,left,NA,543,35880,9826,543,NA,2,legacy,6,1024,2,48000,-16,experiment,4,even,8,892488,889099,890277,4712,136120,890280,876338,4720,126294,894492,895038,891284,40680,894492,NA,Sternberg task,121,110306,133,yes,1024
91.04477612,91.04477612,827.3955224,827.3955224,black,experiment,legacy,legacy,legacy,0,uniform,1,undefined,1,left,133,133,133,0,0,133,133,0,0,133,133,133,0,133,0,10/25/19 12:40,The main experiment item,yes,Sternbergtask SL.osexp,C:/Users/Sarah Linan/Desktop,no,mono,no,18,no,white,no,yes,768,legacy,121,11,C:/Users/Sarah Linan/Desktop/SLsubject-4.csv,legacy,8 9 5 6 7,Kafkaesque Koffka,3.2.8,1,y,0,left,right,right,left,NA,565,35880,9826,565,NA,2,legacy,5,1024,2,48000,-16,experiment,4,even,8,898498,895123,896288,4712,136120,896291,876338,4720,126294,900501,901067,897295,40680,900501,NA,Sternberg task,122,110871,134,yes,1024
91.11111111,91.11111111,825.362963,825.362963,black,experiment,legacy,legacy,legacy,0,uniform,1,undefined,1,left,134,134,134,0,0,134,134,0,0,134,134,134,0,134,0,10/25/19 12:40,The main experiment item,yes,Sternbergtask SL.osexp,C:/Users/Sarah Linan/Desktop,no,mono,no,18,no,white,no,yes,768,legacy,122,11,C:/Users/Sarah Linan/Desktop/SLsubject-4.csv,legacy,3 9 6 2,Kafkaesque Koffka,3.2.8,4,y,0,left,right,right,left,NA,553,35880,9826,553,NA,2,legacy,4,1024,2,48000,-16,experiment,4,even,2,904482,901114,902271,4712,136120,902273,876338,4720,126294,906486,907041,903278,40680,906486,NA,Sternberg task,123,111424,135,yes,1024
91.17647059,91.17647059,824.5,824.5,black,experiment,legacy,legacy,legacy,0,uniform,1,undefined,1,right,135,135,135,0,0,135,135,0,0,135,135,135,0,135,0,10/25/19 12:40,The main experiment item,yes,Sternbergtask SL.osexp,C:/Users/Sarah Linan/Desktop,no,mono,no,18,no,white,no,yes,768,legacy,123,11,C:/Users/Sarah Linan/Desktop/SLsubject-4.csv,legacy,5 2,Kafkaesque Koffka,3.2.8,0,n,0,right,right,right,right,NA,708,35880,9826,708,NA,2,legacy,2,1024,2,48000,-16,experiment,4,even,7,910503,907128,908293,4712,136120,908296,876338,4720,126294,912507,913217,909300,40680,912507,NA,Sternberg task,124,112132,136,yes,1024
91.24087591,91.24087591,822.8613139,822.8613139,black,experiment,legacy,legacy,legacy,0,uniform,1,undefined,1,right,136,136,136,0,0,136,136,0,0,136,136,136,0,136,0,10/25/19 12:40,The main experiment item,yes,Sternbergtask SL.osexp,C:/Users/Sarah Linan/Desktop,no,mono,no,18,no,white,no,yes,768,legacy,124,11,C:/Users/Sarah Linan/Desktop/SLsubject-4.csv,legacy,2 5 1 4,Kafkaesque Koffka,3.2.8,0,n,0,right,right,right,right,NA,600,35880,9826,600,NA,2,legacy,4,1024,2,48000,-16,experiment,4,even,6,916681,913309,914472,4712,136120,914474,876338,4720,126294,918685,919287,915478,40680,918685,NA,Sternberg task,125,112732,137,yes,1024
91.30434783,91.30434783,825.9927536,825.9927536,black,experiment,legacy,legacy,legacy,0,uniform,1,undefined,1,left,137,137,137,0,0,137,137,0,0,137,137,137,0,137,0,10/25/19 12:40,The main experiment item,yes,Sternbergtask SL.osexp,C:/Users/Sarah Linan/Desktop,no,mono,no,18,no,white,no,yes,768,legacy,125,11,C:/Users/Sarah Linan/Desktop/SLsubject-4.csv,legacy,7 8 6 3 1,Kafkaesque Koffka,3.2.8,5,y,0,left,right,right,left,NA,1255,35880,9826,1255,NA,2,legacy,5,1024,2,48000,-16,experiment,4,even,1,922745,919377,920534,4712,136120,920536,876338,4720,126294,924749,926006,921540,40680,924749,NA,Sternberg task,126,113987,138,yes,1024