"acc","accuracy","average_response_time","avg_rt","background","block","canvas_backend","clock_backend","color_backend","correct","correct_instruction1","correct_new_keyboard_response","correct_response","count_ISI","count_correctFeedback","count_expSequence","count_experiment","count_experimentLoop","count_fixation","count_incorrectFeedback","count_instruction1","count_instructions2","count_memorySet","count_new_keyboard_response","count_new_logger","count_practiceLoop","count_probe","count_thankYou","datetime","description","disable_garbage_collection","experiment_file","experiment_path","font_bold","font_family","font_italic","font_size","font_underline","foreground","form_clicks","fullscreen","height","keyboard_backend","live_row","live_row_practiceLoop","logfile","mouse_backend","numberSet","opensesame_codename","opensesame_version","posInSet","present","repeat_cycle","response","response_instruction1","response_instructions2","response_new_keyboard_response","response_thankYou","response_time","response_time_instruction1","response_time_instructions2","response_time_new_keyboard_response","response_time_thankYou","round_decimals","sampler_backend","setSize","sound_buf_size","sound_channels","sound_freq","sound_sample_size","start","subject_nr","subject_parity","target","time_ISI","time_correctFeedback","time_expSequence","time_experiment","time_experimentLoop","time_fixation","time_incorrectFeedback","time_instruction1","time_instructions2","time_memorySet","time_new_keyboard_response","time_new_logger","time_practiceLoop","time_probe","time_thankYou","title","total_correct","total_response_time","total_responses","width"
"100","100","1087","1087","#3d3846","practice","legacy","legacy","legacy","1","undefined","1","right","0","0","0","0","0","0","0","0","0","0","0","0","0","0","0","Thu Oct 19 21:43:06 2023","The main experiment item","False","SternbergTask.osexp","/Users/xaleyelyse/Desktop","False","mono","False","18","no","white","no","yes","768","legacy","0","0","/Users/xaleyelyse/Downloads/XWsubject_3.csv","legacy","3 1 9 4","Melodramatic Milgram","4.0.5","0","n","0","right","left","NA","right","NA","1087.0","33648","NA","1087","NA","2","legacy","4","1024","2","48000","-16","experiment","3","odd","6","38083","NA","35869","1869","NA","35876","NA","1923","NA","36880","40085","41173","35590","40085","NA","Sternberg Task","1","1087.0","1","1024"
"100","100","894","894","#3d3846","practice","legacy","legacy","legacy","1","undefined","1","right","1","1","1","0","0","1","1","0","0","1","1","1","0","1","0","Thu Oct 19 21:43:06 2023","The main experiment item","False","SternbergTask.osexp","/Users/xaleyelyse/Desktop","False","mono","False","18","no","white","no","yes","768","legacy","1","1","/Users/xaleyelyse/Downloads/XWsubject_3.csv","legacy","9 6 7 4 5","Melodramatic Milgram","4.0.5","0","n","0","right","left","NA","right","NA","702.0","33648","NA","702","NA","2","legacy","5","1024","2","48000","-16","experiment","3","odd","3","44440","41197","42234","1869","NA","42236","NA","1923","NA","43238","46443","47149","35590","46443","NA","Sternberg Task","2","1789.0","2","1024"
"100","100","766","766","#3d3846","practice","legacy","legacy","legacy","1","undefined","1","left","2","2","2","0","0","2","2","0","0","2","2","2","0","2","0","Thu Oct 19 21:43:06 2023","The main experiment item","False","SternbergTask.osexp","/Users/xaleyelyse/Desktop","False","mono","False","18","no","white","no","yes","768","legacy","2","2","/Users/xaleyelyse/Downloads/XWsubject_3.csv","legacy","4 8","Melodramatic Milgram","4.0.5","1","y","0","left","left","NA","left","NA","510.0","33648","NA","510","NA","2","legacy","2","1024","2","48000","-16","experiment","3","odd","4","50395","47152","48187","1869","NA","48190","NA","1923","NA","49192","52398","52908","35590","52398","NA","Sternberg Task","3","2299.0","3","1024"
"100","100","754","754","#3d3846","practice","legacy","legacy","legacy","1","undefined","1","right","3","3","3","0","0","3","3","0","0","3","3","3","0","3","0","Thu Oct 19 21:43:06 2023","The main experiment item","False","SternbergTask.osexp","/Users/xaleyelyse/Desktop","False","mono","False","18","no","white","no","yes","768","legacy","3","3","/Users/xaleyelyse/Downloads/XWsubject_3.csv","legacy","5 7 8 4 1 2","Melodramatic Milgram","4.0.5","0","n","0","right","left","NA","right","NA","717.0","33648","NA","717","NA","2","legacy","6","1024","2","48000","-16","experiment","3","odd","6","56156","52911","53948","1869","NA","53950","NA","1923","NA","54952","58158","58875","35590","58158","NA","Sternberg Task","4","3016.0","4","1024"
"100","100","713","713","#3d3846","practice","legacy","legacy","legacy","1","undefined","1","left","4","4","4","0","0","4","4","0","0","4","4","4","0","4","0","Thu Oct 19 21:43:06 2023","The main experiment item","False","SternbergTask.osexp","/Users/xaleyelyse/Desktop","False","mono","False","18","no","white","no","yes","768","legacy","4","4","/Users/xaleyelyse/Downloads/XWsubject_3.csv","legacy","1 5 2 9","Melodramatic Milgram","4.0.5","2","y","0","left","left","NA","left","NA","550.0","33648","NA","550","NA","2","legacy","4","1024","2","48000","-16","experiment","3","odd","5","62124","58878","59912","1869","NA","59920","NA","1923","NA","60921","64126","64677","35590","64126","NA","Sternberg Task","5","3566.0","5","1024"
"100","100","667","667","#3d3846","practice","legacy","legacy","legacy","1","undefined","1","right","5","5","5","0","0","5","5","0","0","5","5","5","0","5","0","Thu Oct 19 21:43:06 2023","The main experiment item","False","SternbergTask.osexp","/Users/xaleyelyse/Desktop","False","mono","False","18","no","white","no","yes","768","legacy","5","5","/Users/xaleyelyse/Downloads/XWsubject_3.csv","legacy","5","Melodramatic Milgram","4.0.5","0","n","0","right","left","NA","right","NA","439.0","33648","NA","439","NA","2","legacy","1","1024","2","48000","-16","experiment","3","odd","3","67922","64679","65715","1869","NA","65717","NA","1923","NA","66719","69924","70364","35590","69924","NA","Sternberg Task","6","4005.0","6","1024"
"100","100","683","683","#3d3846","practice","legacy","legacy","legacy","1","undefined","1","left","6","6","6","0","0","6","6","0","0","6","6","6","0","6","0","Thu Oct 19 21:43:06 2023","The main experiment item","False","SternbergTask.osexp","/Users/xaleyelyse/Desktop","False","mono","False","18","no","white","no","yes","768","legacy","6","6","/Users/xaleyelyse/Downloads/XWsubject_3.csv","legacy","1 7 9 8 5","Melodramatic Milgram","4.0.5","4","y","0","left","left","NA","left","NA","780.0","33648","NA","780","NA","2","legacy","5","1024","2","48000","-16","experiment","3","odd","8","73621","70368","71413","1869","NA","71415","NA","1923","NA","72417","75623","76404","35590","75623","NA","Sternberg Task","7","4785.0","7","1024"
"100","100","719","719","#3d3846","practice","legacy","legacy","legacy","1","undefined","1","left","7","7","7","0","0","7","7","0","0","7","7","7","0","7","0","Thu Oct 19 21:43:06 2023","The main experiment item","False","SternbergTask.osexp","/Users/xaleyelyse/Desktop","False","mono","False","18","no","white","no","yes","768","legacy","7","7","/Users/xaleyelyse/Downloads/XWsubject_3.csv","legacy","2 9 4","Melodramatic Milgram","4.0.5","3","y","0","left","left","NA","left","NA","968.0","33648","NA","968","NA","2","legacy","3","1024","2","48000","-16","experiment","3","odd","4","79641","76406","77435","1869","NA","77437","NA","1923","NA","78439","81643","82611","35590","81643","NA","Sternberg Task","8","5753.0","8","1024"
"100","100","699","699","#3d3846","practice","legacy","legacy","legacy","1","undefined","1","left","8","8","8","0","0","8","8","0","0","8","8","8","0","8","0","Thu Oct 19 21:43:06 2023","The main experiment item","False","SternbergTask.osexp","/Users/xaleyelyse/Desktop","False","mono","False","18","no","white","no","yes","768","legacy","8","8","/Users/xaleyelyse/Downloads/XWsubject_3.csv","legacy","4 3 1 7 9 8","Melodramatic Milgram","4.0.5","1","y","0","left","left","NA","left","NA","541.0","33648","NA","541","NA","2","legacy","6","1024","2","48000","-16","experiment","3","odd","4","85853","82614","83646","1869","NA","83648","NA","1923","NA","84650","87856","88397","35590","87855","NA","Sternberg Task","9","6294.0","9","1024"
"100","100","687","687","#3d3846","practice","legacy","legacy","legacy","1","undefined","1","left","9","9","9","0","0","9","9","0","0","9","9","9","0","9","0","Thu Oct 19 21:43:06 2023","The main experiment item","False","SternbergTask.osexp","/Users/xaleyelyse/Desktop","False","mono","False","18","no","white","no","yes","768","legacy","9","9","/Users/xaleyelyse/Downloads/XWsubject_3.csv","legacy","6","Melodramatic Milgram","4.0.5","1","y","0","left","left","NA","left","NA","576.0","33648","NA","576","NA","2","legacy","1","1024","2","48000","-16","experiment","3","odd","6","91642","88400","89436","1869","NA","89438","NA","1923","NA","90440","93644","94220","35590","93644","NA","Sternberg Task","10","6870.0","10","1024"
"100","100","680","680","#3d3846","practice","legacy","legacy","legacy","1","undefined","1","right","10","10","10","0","0","10","10","0","0","10","10","10","0","10","0","Thu Oct 19 21:43:06 2023","The main experiment item","False","SternbergTask.osexp","/Users/xaleyelyse/Desktop","False","mono","False","18","no","white","no","yes","768","legacy","10","10","/Users/xaleyelyse/Downloads/XWsubject_3.csv","legacy","4 1 5","Melodramatic Milgram","4.0.5","0","n","0","right","left","NA","right","NA","617.0","33648","NA","617","NA","2","legacy","3","1024","2","48000","-16","experiment","3","odd","2","97467","94223","95258","1869","NA","95261","NA","1923","NA","96263","99469","100087","35590","99469","NA","Sternberg Task","11","7487.0","11","1024"
"100","100","694","694","#3d3846","practice","legacy","legacy","legacy","1","undefined","1","right","11","11","11","0","0","11","11","0","0","11","11","11","0","11","0","Thu Oct 19 21:43:06 2023","The main experiment item","False","SternbergTask.osexp","/Users/xaleyelyse/Desktop","False","mono","False","18","no","white","no","yes","768","legacy","11","11","/Users/xaleyelyse/Downloads/XWsubject_3.csv","legacy","2 1","Melodramatic Milgram","4.0.5","0","n","0","right","left","NA","right","NA","850.0","33648","NA","850","NA","2","legacy","2","1024","2","48000","-16","experiment","3","odd","5","103332","100089","101125","1869","NA","101128","NA","1923","NA","102130","105335","106186","35590","105335","NA","Sternberg Task","12","8337.0","12","1024"
"100","100","680","680","#3d3846","experiment","legacy","legacy","legacy","1","undefined","1","right","12","12","12","0","0","12","12","0","0","12","12","12","0","12","0","Thu Oct 19 21:43:06 2023","The main experiment item","False","SternbergTask.osexp","/Users/xaleyelyse/Desktop","False","mono","False","18","no","white","no","yes","768","legacy","0","11","/Users/xaleyelyse/Downloads/XWsubject_3.csv","legacy","8 6 3 4 7","Melodramatic Milgram","4.0.5","0","n","0","right","left","left","right","NA","510.0","33648","6791","510","NA","2","legacy","5","1024","2","48000","-16","experiment","3","odd","1","116239","106188","114028","1869","113982","114033","NA","1923","107191","115037","118241","118752","35590","118241","NA","Sternberg Task","13","8847.0","13","1024"
"100","100","677","677","#3d3846","experiment","legacy","legacy","legacy","1","undefined","1","left","13","13","13","0","0","13","13","0","0","13","13","13","0","13","0","Thu Oct 19 21:43:06 2023","The main experiment item","False","SternbergTask.osexp","/Users/xaleyelyse/Desktop","False","mono","False","18","no","white","no","yes","768","legacy","1","11","/Users/xaleyelyse/Downloads/XWsubject_3.csv","legacy","7 1 3","Melodramatic Milgram","4.0.5","2","y","0","left","left","left","left","NA","644.0","33648","6791","644","NA","2","legacy","3","1024","2","48000","-16","experiment","3","odd","1","121989","118755","119783","1869","113982","119785","NA","1923","107191","120787","123991","124636","35590","123991","NA","Sternberg Task","14","9491.0","14","1024"
"93","93","663","663","#3d3846","experiment","legacy","legacy","legacy","0","undefined","0","left","14","14","14","0","0","14","14","0","0","14","14","14","0","14","0","Thu Oct 19 21:43:06 2023","The main experiment item","False","SternbergTask.osexp","/Users/xaleyelyse/Desktop","False","mono","False","18","no","white","no","yes","768","legacy","2","11","/Users/xaleyelyse/Downloads/XWsubject_3.csv","legacy","6 9 3 1","Melodramatic Milgram","4.0.5","4","y","0","right","left","left","right","NA","464.0","33648","6791","464","NA","2","legacy","4","1024","2","48000","-16","experiment","3","odd","1","127880","124638","125674","1869","113982","125676","NA","1923","107191","126678","129883","130347","35590","129882","NA","Sternberg Task","14","9955.0","15","1024"
"93","93","650","650","#3d3846","experiment","legacy","legacy","legacy","1","undefined","1","left","15","15","15","0","0","15","15","0","0","15","15","15","0","15","0","Thu Oct 19 21:43:06 2023","The main experiment item","False","SternbergTask.osexp","/Users/xaleyelyse/Desktop","False","mono","False","18","no","white","no","yes","768","legacy","3","11","/Users/xaleyelyse/Downloads/XWsubject_3.csv","legacy","7 8 6 3 1","Melodramatic Milgram","4.0.5","5","y","0","left","left","left","left","NA","447.0","33648","6791","447","NA","2","legacy","5","1024","2","48000","-16","experiment","3","odd","1","133592","124638","131384","1869","113982","131387","130350","1923","107191","132389","135594","136042","35590","135594","NA","Sternberg Task","15","10402.0","16","1024"
"94","94","653","653","#3d3846","experiment","legacy","legacy","legacy","1","undefined","1","left","16","16","16","0","0","16","16","0","0","16","16","16","0","16","0","Thu Oct 19 21:43:06 2023","The main experiment item","False","SternbergTask.osexp","/Users/xaleyelyse/Desktop","False","mono","False","18","no","white","no","yes","768","legacy","4","11","/Users/xaleyelyse/Downloads/XWsubject_3.csv","legacy","6 5","Melodramatic Milgram","4.0.5","2","y","0","left","left","left","left","NA","701.0","33648","6791","701","NA","2","legacy","2","1024","2","48000","-16","experiment","3","odd","5","139280","136045","137074","1869","113982","137076","130350","1923","107191","138078","141283","141985","35590","141283","NA","Sternberg Task","16","11103.0","17","1024"
"94","94","645","645","#3d3846","experiment","legacy","legacy","legacy","1","undefined","1","left","17","17","17","0","0","17","17","0","0","17","17","17","0","17","0","Thu Oct 19 21:43:06 2023","The main experiment item","False","SternbergTask.osexp","/Users/xaleyelyse/Desktop","False","mono","False","18","no","white","no","yes","768","legacy","5","11","/Users/xaleyelyse/Downloads/XWsubject_3.csv","legacy","8","Melodramatic Milgram","4.0.5","1","y","0","left","left","left","left","NA","510.0","33648","6791","510","NA","2","legacy","1","1024","2","48000","-16","experiment","3","odd","8","145225","141987","143019","1869","113982","143021","130350","1923","107191","144023","147227","147738","35590","147227","NA","Sternberg Task","17","11613.0","18","1024"
"94","94","643","643","#3d3846","experiment","legacy","legacy","legacy","1","undefined","1","right","18","18","18","0","0","18","18","0","0","18","18","18","0","18","0","Thu Oct 19 21:43:06 2023","The main experiment item","False","SternbergTask.osexp","/Users/xaleyelyse/Desktop","False","mono","False","18","no","white","no","yes","768","legacy","6","11","/Users/xaleyelyse/Downloads/XWsubject_3.csv","legacy","2 6 4 3 9","Melodramatic Milgram","4.0.5","0","n","0","right","left","left","right","NA","604.0","33648","6791","604","NA","2","legacy","5","1024","2","48000","-16","experiment","3","odd","1","150984","147741","148778","1869","113982","148780","130350","1923","107191","149782","152986","153591","35590","152986","NA","Sternberg Task","18","12217.0","19","1024"
"95","95","645","645","#3d3846","experiment","legacy","legacy","legacy","1","undefined","1","right","19","19","19","0","0","19","19","0","0","19","19","19","0","19","0","Thu Oct 19 21:43:06 2023","The main experiment item","False","SternbergTask.osexp","/Users/xaleyelyse/Desktop","False","mono","False","18","no","white","no","yes","768","legacy","7","11","/Users/xaleyelyse/Downloads/XWsubject_3.csv","legacy","7 9","Melodramatic Milgram","4.0.5","0","n","0","right","left","left","right","NA","691.0","33648","6791","691","NA","2","legacy","2","1024","2","48000","-16","experiment","3","odd","1","156838","153594","154630","1869","113982","154632","130350","1923","107191","155635","158840","159532","35590","158840","NA","Sternberg Task","19","12908.0","20","1024"
"95","95","645","645","#3d3846","experiment","legacy","legacy","legacy","1","undefined","1","left","20","20","20","0","0","20","20","0","0","20","20","20","0","20","0","Thu Oct 19 21:43:06 2023","The main experiment item","False","SternbergTask.osexp","/Users/xaleyelyse/Desktop","False","mono","False","18","no","white","no","yes","768","legacy","8","11","/Users/xaleyelyse/Downloads/XWsubject_3.csv","legacy","4 3 2 5 8","Melodramatic Milgram","4.0.5","2","y","0","left","left","left","left","NA","653.0","33648","6791","653","NA","2","legacy","5","1024","2","48000","-16","experiment","3","odd","3","162779","159535","160572","1869","113982","160574","130350","1923","107191","161576","164781","165435","35590","164781","NA","Sternberg Task","20","13561.0","21","1024"
"95","95","642","642","#3d3846","experiment","legacy","legacy","legacy","1","undefined","1","right","21","21","21","0","0","21","21","0","0","21","21","21","0","21","0","Thu Oct 19 21:43:06 2023","The main experiment item","False","SternbergTask.osexp","/Users/xaleyelyse/Desktop","False","mono","False","18","no","white","no","yes","768","legacy","9","11","/Users/xaleyelyse/Downloads/XWsubject_3.csv","legacy","1 4 3 6 5","Melodramatic Milgram","4.0.5","0","n","0","right","left","left","right","NA","568.0","33648","6791","568","NA","2","legacy","5","1024","2","48000","-16","experiment","3","odd","8","168688","165438","166481","1869","113982","166483","130350","1923","107191","167485","170690","171259","35590","170690","NA","Sternberg Task","21","14129.0","22","1024"
"95","95","642","642","#3d3846","experiment","legacy","legacy","legacy","1","undefined","1","left","22","22","22","0","0","22","22","0","0","22","22","22","0","22","0","Thu Oct 19 21:43:06 2023","The main experiment item","False","SternbergTask.osexp","/Users/xaleyelyse/Desktop","False","mono","False","18","no","white","no","yes","768","legacy","10","11","/Users/xaleyelyse/Downloads/XWsubject_3.csv","legacy","7 6","Melodramatic Milgram","4.0.5","2","y","0","left","left","left","left","NA","644.0","33648","6791","644","NA","2","legacy","2","1024","2","48000","-16","experiment","3","odd","6","174496","171262","172290","1869","113982","172292","130350","1923","107191","173294","176498","177143","35590","176498","NA","Sternberg Task","22","14773.0","23","1024"
"95","95","641","641","#3d3846","experiment","legacy","legacy","legacy","1","undefined","1","right","23","23","23","0","0","23","23","0","0","23","23","23","0","23","0","Thu Oct 19 21:43:06 2023","The main experiment item","False","SternbergTask.osexp","/Users/xaleyelyse/Desktop","False","mono","False","18","no","white","no","yes","768","legacy","11","11","/Users/xaleyelyse/Downloads/XWsubject_3.csv","legacy","3 9 8 1 6 4","Melodramatic Milgram","4.0.5","0","n","0","right","left","left","right","NA","630.0","33648","6791","630","NA","2","legacy","6","1024","2","48000","-16","experiment","3","odd","7","180383","177145","178176","1869","113982","178179","130350","1923","107191","179181","182385","183016","35590","182385","NA","Sternberg Task","23","15403.0","24","1024"
"92","92","647","647","#3d3846","experiment","legacy","legacy","legacy","0","undefined","0","left","24","24","24","0","0","24","24","0","0","24","24","24","0","24","0","Thu Oct 19 21:43:06 2023","The main experiment item","False","SternbergTask.osexp","/Users/xaleyelyse/Desktop","False","mono","False","18","no","white","no","yes","768","legacy","12","11","/Users/xaleyelyse/Downloads/XWsubject_3.csv","legacy","2 4 8 5 1 3","Melodramatic Milgram","4.0.5","1","y","0","right","left","left","right","NA","785.0","33648","6791","785","NA","2","legacy","6","1024","2","48000","-16","experiment","3","odd","2","186261","183018","184054","1869","113982","184057","130350","1923","107191","185059","188264","189050","35590","188264","NA","Sternberg Task","23","16188.0","25","1024"
"92","92","641","641","#3d3846","experiment","legacy","legacy","legacy","1","undefined","1","left","25","25","25","0","0","25","25","0","0","25","25","25","0","25","0","Thu Oct 19 21:43:06 2023","The main experiment item","False","SternbergTask.osexp","/Users/xaleyelyse/Desktop","False","mono","False","18","no","white","no","yes","768","legacy","13","11","/Users/xaleyelyse/Downloads/XWsubject_3.csv","legacy","9 5 3 8 4","Melodramatic Milgram","4.0.5","1","y","0","left","left","left","left","NA","503.0","33648","6791","503","NA","2","legacy","5","1024","2","48000","-16","experiment","3","odd","9","192295","183018","190088","1869","113982","190090","189052","1923","107191","191092","194298","194801","35590","194297","NA","Sternberg Task","24","16691.0","26","1024"
"92","92","639","639","#3d3846","experiment","legacy","legacy","legacy","1","undefined","1","left","26","26","26","0","0","26","26","0","0","26","26","26","0","26","0","Thu Oct 19 21:43:06 2023","The main experiment item","False","SternbergTask.osexp","/Users/xaleyelyse/Desktop","False","mono","False","18","no","white","no","yes","768","legacy","14","11","/Users/xaleyelyse/Downloads/XWsubject_3.csv","legacy","9 1 7 2","Melodramatic Milgram","4.0.5","2","y","0","left","left","left","left","NA","582.0","33648","6791","582","NA","2","legacy","4","1024","2","48000","-16","experiment","3","odd","1","198049","194804","195841","1869","113982","195844","189052","1923","107191","196846","200052","200635","35590","200052","NA","Sternberg Task","25","17273.0","27","1024"
"92","92","637","637","#3d3846","experiment","legacy","legacy","legacy","1","undefined","1","left","27","27","27","0","0","27","27","0","0","27","27","27","0","27","0","Thu Oct 19 21:43:06 2023","The main experiment item","False","SternbergTask.osexp","/Users/xaleyelyse/Desktop","False","mono","False","18","no","white","no","yes","768","legacy","15","11","/Users/xaleyelyse/Downloads/XWsubject_3.csv","legacy","7 2 3","Melodramatic Milgram","4.0.5","3","y","0","left","left","left","left","NA","572.0","33648","6791","572","NA","2","legacy","3","1024","2","48000","-16","experiment","3","odd","3","203905","200638","201698","1869","113982","201700","189052","1923","107191","202702","205907","206480","35590","205907","NA","Sternberg Task","26","17845.0","28","1024"
"93","93","631","631","#3d3846","experiment","legacy","legacy","legacy","1","undefined","1","left","28","28","28","0","0","28","28","0","0","28","28","28","0","28","0","Thu Oct 19 21:43:06 2023","The main experiment item","False","SternbergTask.osexp","/Users/xaleyelyse/Desktop","False","mono","False","18","no","white","no","yes","768","legacy","16","11","/Users/xaleyelyse/Downloads/XWsubject_3.csv","legacy","9 8 4","Melodramatic Milgram","4.0.5","1","y","0","left","left","left","left","NA","455.0","33648","6791","455","NA","2","legacy","3","1024","2","48000","-16","experiment","3","odd","9","209717","206482","207511","1869","113982","207513","189052","1923","107191","208515","211720","212176","35590","211720","NA","Sternberg Task","27","18300.0","29","1024"
"93","93","629","629","#3d3846","experiment","legacy","legacy","legacy","1","undefined","1","left","29","29","29","0","0","29","29","0","0","29","29","29","0","29","0","Thu Oct 19 21:43:06 2023","The main experiment item","False","SternbergTask.osexp","/Users/xaleyelyse/Desktop","False","mono","False","18","no","white","no","yes","768","legacy","17","11","/Users/xaleyelyse/Downloads/XWsubject_3.csv","legacy","2 4 6 9","Melodramatic Milgram","4.0.5","3","y","0","left","left","left","left","NA","589.0","33648","6791","589","NA","2","legacy","4","1024","2","48000","-16","experiment","3","odd","6","215417","212179","213211","1869","113982","213213","189052","1923","107191","214215","217420","218010","35590","217420","NA","Sternberg Task","28","18889.0","30","1024"
"93","93","627","627","#3d3846","experiment","legacy","legacy","legacy","1","undefined","1","left","30","30","30","0","0","30","30","0","0","30","30","30","0","30","0","Thu Oct 19 21:43:06 2023","The main experiment item","False","SternbergTask.osexp","/Users/xaleyelyse/Desktop","False","mono","False","18","no","white","no","yes","768","legacy","18","11","/Users/xaleyelyse/Downloads/XWsubject_3.csv","legacy","8 9 6 1","Melodramatic Milgram","4.0.5","2","y","0","left","left","left","left","NA","551.0","33648","6791","551","NA","2","legacy","4","1024","2","48000","-16","experiment","3","odd","9","221254","218012","219047","1869","113982","219050","189052","1923","107191","220052","223256","223808","35590","223256","NA","Sternberg Task","29","19440.0","31","1024"
"93","93","625","625","#3d3846","experiment","legacy","legacy","legacy","1","undefined","1","left","31","31","31","0","0","31","31","0","0","31","31","31","0","31","0","Thu Oct 19 21:43:06 2023","The main experiment item","False","SternbergTask.osexp","/Users/xaleyelyse/Desktop","False","mono","False","18","no","white","no","yes","768","legacy","19","11","/Users/xaleyelyse/Downloads/XWsubject_3.csv","legacy","4 7 6 8 2 3","Melodramatic Milgram","4.0.5","6","y","0","left","left","left","left","NA","587.0","33648","6791","587","NA","2","legacy","6","1024","2","48000","-16","experiment","3","odd","3","227053","223810","224847","1869","113982","224849","189052","1923","107191","225851","229056","229644","35590","229056","NA","Sternberg Task","30","20027.0","32","1024"
"93","93","628","628","#3d3846","experiment","legacy","legacy","legacy","1","undefined","1","left","32","32","32","0","0","32","32","0","0","32","32","32","0","32","0","Thu Oct 19 21:43:06 2023","The main experiment item","False","SternbergTask.osexp","/Users/xaleyelyse/Desktop","False","mono","False","18","no","white","no","yes","768","legacy","20","11","/Users/xaleyelyse/Downloads/XWsubject_3.csv","legacy","4 9 7 8 5 3","Melodramatic Milgram","4.0.5","4","y","0","left","left","left","left","NA","722.0","33648","6791","722","NA","2","legacy","6","1024","2","48000","-16","experiment","3","odd","8","232891","229647","230684","1869","113982","230686","189052","1923","107191","231688","234893","235616","35590","234893","NA","Sternberg Task","31","20749.0","33","1024"
"94","94","625","625","#3d3846","experiment","legacy","legacy","legacy","1","undefined","1","right","33","33","33","0","0","33","33","0","0","33","33","33","0","33","0","Thu Oct 19 21:43:06 2023","The main experiment item","False","SternbergTask.osexp","/Users/xaleyelyse/Desktop","False","mono","False","18","no","white","no","yes","768","legacy","21","11","/Users/xaleyelyse/Downloads/XWsubject_3.csv","legacy","1 6 4","Melodramatic Milgram","4.0.5","0","n","0","right","left","left","right","NA","519.0","33648","6791","519","NA","2","legacy","3","1024","2","48000","-16","experiment","3","odd","7","238873","235619","236666","1869","113982","236668","189052","1923","107191","237670","240876","241396","35590","240875","NA","Sternberg Task","32","21268.0","34","1024"
"94","94","640","640","#3d3846","experiment","legacy","legacy","legacy","1","undefined","1","right","34","34","34","0","0","34","34","0","0","34","34","34","0","34","0","Thu Oct 19 21:43:06 2023","The main experiment item","False","SternbergTask.osexp","/Users/xaleyelyse/Desktop","False","mono","False","18","no","white","no","yes","768","legacy","22","11","/Users/xaleyelyse/Downloads/XWsubject_3.csv","legacy","2 5 1 4","Melodramatic Milgram","4.0.5","0","n","0","right","left","left","right","NA","1159.0","33648","6791","1159","NA","2","legacy","4","1024","2","48000","-16","experiment","3","odd","6","244633","241399","242427","1869","113982","242429","189052","1923","107191","243431","246636","247795","35590","246636","NA","Sternberg Task","33","22427.0","35","1024"
"94","94","635","635","#3d3846","experiment","legacy","legacy","legacy","1","undefined","1","left","35","35","35","0","0","35","35","0","0","35","35","35","0","35","0","Thu Oct 19 21:43:06 2023","The main experiment item","False","SternbergTask.osexp","/Users/xaleyelyse/Desktop","False","mono","False","18","no","white","no","yes","768","legacy","23","11","/Users/xaleyelyse/Downloads/XWsubject_3.csv","legacy","6 7 9 3 1 2","Melodramatic Milgram","4.0.5","1","y","0","left","left","left","left","NA","465.0","33648","6791","465","NA","2","legacy","6","1024","2","48000","-16","experiment","3","odd","6","251037","247798","248830","1869","113982","248832","189052","1923","107191","249834","253039","253505","35590","253039","NA","Sternberg Task","34","22892.0","36","1024"
"94","94","633","633","#3d3846","experiment","legacy","legacy","legacy","1","undefined","1","right","36","36","36","0","0","36","36","0","0","36","36","36","0","36","0","Thu Oct 19 21:43:06 2023","The main experiment item","False","SternbergTask.osexp","/Users/xaleyelyse/Desktop","False","mono","False","18","no","white","no","yes","768","legacy","24","11","/Users/xaleyelyse/Downloads/XWsubject_3.csv","legacy","4 8 1 2","Melodramatic Milgram","4.0.5","0","n","0","right","left","left","right","NA","541.0","33648","6791","541","NA","2","legacy","4","1024","2","48000","-16","experiment","3","odd","7","256750","253508","254544","1869","113982","254546","189052","1923","107191","255548","258753","259295","35590","258753","NA","Sternberg Task","35","23433.0","37","1024"
"94","94","629","629","#3d3846","experiment","legacy","legacy","legacy","1","undefined","1","right","37","37","37","0","0","37","37","0","0","37","37","37","0","37","0","Thu Oct 19 21:43:06 2023","The main experiment item","False","SternbergTask.osexp","/Users/xaleyelyse/Desktop","False","mono","False","18","no","white","no","yes","768","legacy","25","11","/Users/xaleyelyse/Downloads/XWsubject_3.csv","legacy","6 8 4","Melodramatic Milgram","4.0.5","0","n","0","right","left","left","right","NA","502.0","33648","6791","502","NA","2","legacy","3","1024","2","48000","-16","experiment","3","odd","1","262541","259297","260334","1869","113982","260336","189052","1923","107191","261338","264544","265047","35590","264543","NA","Sternberg Task","36","23935.0","38","1024"
"94","94","632","632","#3d3846","experiment","legacy","legacy","legacy","1","undefined","1","right","38","38","38","0","0","38","38","0","0","38","38","38","0","38","0","Thu Oct 19 21:43:06 2023","The main experiment item","False","SternbergTask.osexp","/Users/xaleyelyse/Desktop","False","mono","False","18","no","white","no","yes","768","legacy","26","11","/Users/xaleyelyse/Downloads/XWsubject_3.csv","legacy","8 4 3 9","Melodramatic Milgram","4.0.5","0","n","0","right","left","left","right","NA","716.0","33648","6791","716","NA","2","legacy","4","1024","2","48000","-16","experiment","3","odd","5","268292","265049","266086","1869","113982","266088","189052","1923","107191","267090","270295","271012","35590","270295","NA","Sternberg Task","37","24651.0","39","1024"
"95","95","634","634","#3d3846","experiment","legacy","legacy","legacy","1","undefined","1","left","39","39","39","0","0","39","39","0","0","39","39","39","0","39","0","Thu Oct 19 21:43:06 2023","The main experiment item","False","SternbergTask.osexp","/Users/xaleyelyse/Desktop","False","mono","False","18","no","white","no","yes","768","legacy","27","11","/Users/xaleyelyse/Downloads/XWsubject_3.csv","legacy","2 8 5 1","Melodramatic Milgram","4.0.5","4","y","0","left","left","left","left","NA","712.0","33648","6791","712","NA","2","legacy","4","1024","2","48000","-16","experiment","3","odd","1","274258","271014","272052","1869","113982","272054","189052","1923","107191","273056","276261","276974","35590","276261","NA","Sternberg Task","38","25363.0","40","1024"
"95","95","632","632","#3d3846","experiment","legacy","legacy","legacy","1","undefined","1","right","40","40","40","0","0","40","40","0","0","40","40","40","0","40","0","Thu Oct 19 21:43:06 2023","The main experiment item","False","SternbergTask.osexp","/Users/xaleyelyse/Desktop","False","mono","False","18","no","white","no","yes","768","legacy","28","11","/Users/xaleyelyse/Downloads/XWsubject_3.csv","legacy","2 8 7 9 5 3","Melodramatic Milgram","4.0.5","0","n","0","right","left","left","right","NA","582.0","33648","6791","582","NA","2","legacy","6","1024","2","48000","-16","experiment","3","odd","6","280211","276976","278004","1869","113982","278006","189052","1923","107191","279008","282213","282795","35590","282213","NA","Sternberg Task","39","25945.0","41","1024"
"95","95","631","631","#3d3846","experiment","legacy","legacy","legacy","1","undefined","1","right","41","41","41","0","0","41","41","0","0","41","41","41","0","41","0","Thu Oct 19 21:43:06 2023","The main experiment item","False","SternbergTask.osexp","/Users/xaleyelyse/Desktop","False","mono","False","18","no","white","no","yes","768","legacy","29","11","/Users/xaleyelyse/Downloads/XWsubject_3.csv","legacy","5 3 8 7 2 4","Melodramatic Milgram","4.0.5","0","n","0","right","left","left","right","NA","592.0","33648","6791","592","NA","2","legacy","6","1024","2","48000","-16","experiment","3","odd","9","286038","282798","283831","1869","113982","283833","189052","1923","107191","284835","288040","288633","35590","288040","NA","Sternberg Task","40","26537.0","42","1024"
"95","95","631","631","#3d3846","experiment","legacy","legacy","legacy","1","undefined","1","left","42","42","42","0","0","42","42","0","0","42","42","42","0","42","0","Thu Oct 19 21:43:06 2023","The main experiment item","False","SternbergTask.osexp","/Users/xaleyelyse/Desktop","False","mono","False","18","no","white","no","yes","768","legacy","30","11","/Users/xaleyelyse/Downloads/XWsubject_3.csv","legacy","3 9 6 2","Melodramatic Milgram","4.0.5","4","y","0","left","left","left","left","NA","613.0","33648","6791","613","NA","2","legacy","4","1024","2","48000","-16","experiment","3","odd","2","291881","288636","289673","1869","113982","289675","189052","1923","107191","290677","293883","294497","35590","293883","NA","Sternberg Task","41","27150.0","43","1024"
"95","95","630","630","#3d3846","experiment","legacy","legacy","legacy","1","undefined","1","left","43","43","43","0","0","43","43","0","0","43","43","43","0","43","0","Thu Oct 19 21:43:06 2023","The main experiment item","False","SternbergTask.osexp","/Users/xaleyelyse/Desktop","False","mono","False","18","no","white","no","yes","768","legacy","31","11","/Users/xaleyelyse/Downloads/XWsubject_3.csv","legacy","5 7 8 2 3 8","Melodramatic Milgram","4.0.5","5","y","0","left","left","left","left","NA","570.0","33648","6791","570","NA","2","legacy","6","1024","2","48000","-16","experiment","3","odd","3","297746","294501","295539","1869","113982","295541","189052","1923","107191","296543","299748","300319","35590","299748","NA","Sternberg Task","42","27720.0","44","1024"
"95","95","634","634","#3d3846","experiment","legacy","legacy","legacy","1","undefined","1","right","44","44","44","0","0","44","44","0","0","44","44","44","0","44","0","Thu Oct 19 21:43:06 2023","The main experiment item","False","SternbergTask.osexp","/Users/xaleyelyse/Desktop","False","mono","False","18","no","white","no","yes","768","legacy","32","11","/Users/xaleyelyse/Downloads/XWsubject_3.csv","legacy","3 4 2","Melodramatic Milgram","4.0.5","0","n","0","right","left","left","right","NA","829.0","33648","6791","829","NA","2","legacy","3","1024","2","48000","-16","experiment","3","odd","5","303564","300321","301357","1869","113982","301359","189052","1923","107191","302361","305566","306396","35590","305566","NA","Sternberg Task","43","28549.0","45","1024"
"95","95","639","639","#3d3846","experiment","legacy","legacy","legacy","1","undefined","1","left","45","45","45","0","0","45","45","0","0","45","45","45","0","45","0","Thu Oct 19 21:43:06 2023","The main experiment item","False","SternbergTask.osexp","/Users/xaleyelyse/Desktop","False","mono","False","18","no","white","no","yes","768","legacy","33","11","/Users/xaleyelyse/Downloads/XWsubject_3.csv","legacy","1 4 9 3 2 5","Melodramatic Milgram","4.0.5","3","y","0","left","left","left","left","NA","864.0","33648","6791","864","NA","2","legacy","6","1024","2","48000","-16","experiment","3","odd","9","309654","306398","307445","1869","113982","307448","189052","1923","107191","308450","311657","312522","35590","311656","NA","Sternberg Task","44","29413.0","46","1024"
"95","95","637","637","#3d3846","experiment","legacy","legacy","legacy","1","undefined","1","right","46","46","46","0","0","46","46","0","0","46","46","46","0","46","0","Thu Oct 19 21:43:06 2023","The main experiment item","False","SternbergTask.osexp","/Users/xaleyelyse/Desktop","False","mono","False","18","no","white","no","yes","768","legacy","34","11","/Users/xaleyelyse/Downloads/XWsubject_3.csv","legacy","9 7 4 5 8","Melodramatic Milgram","4.0.5","0","n","0","right","left","left","right","NA","567.0","33648","6791","567","NA","2","legacy","5","1024","2","48000","-16","experiment","3","odd","6","315761","312525","313554","1869","113982","313556","189052","1923","107191","314558","317763","318331","35590","317763","NA","Sternberg Task","45","29980.0","47","1024"
"95","95","638","638","#3d3846","experiment","legacy","legacy","legacy","1","undefined","1","left","47","47","47","0","0","47","47","0","0","47","47","47","0","47","0","Thu Oct 19 21:43:06 2023","The main experiment item","False","SternbergTask.osexp","/Users/xaleyelyse/Desktop","False","mono","False","18","no","white","no","yes","768","legacy","35","11","/Users/xaleyelyse/Downloads/XWsubject_3.csv","legacy","3 2 1 4 7","Melodramatic Milgram","4.0.5","2","y","0","left","left","left","left","NA","651.0","33648","6791","651","NA","2","legacy","5","1024","2","48000","-16","experiment","3","odd","2","321572","318333","319366","1869","113982","319368","189052","1923","107191","320370","323574","324226","35590","323573","NA","Sternberg Task","46","30631.0","48","1024"
"95","95","635","635","#3d3846","experiment","legacy","legacy","legacy","1","undefined","1","right","48","48","48","0","0","48","48","0","0","48","48","48","0","48","0","Thu Oct 19 21:43:06 2023","The main experiment item","False","SternbergTask.osexp","/Users/xaleyelyse/Desktop","False","mono","False","18","no","white","no","yes","768","legacy","36","11","/Users/xaleyelyse/Downloads/XWsubject_3.csv","legacy","4 2 7 6 1 3","Melodramatic Milgram","4.0.5","0","n","0","right","left","left","right","NA","522.0","33648","6791","522","NA","2","legacy","6","1024","2","48000","-16","experiment","3","odd","8","327475","324228","325268","1869","113982","325270","189052","1923","107191","326272","329478","330001","35590","329478","NA","Sternberg Task","47","31153.0","49","1024"
"96","96","634","634","#3d3846","experiment","legacy","legacy","legacy","1","undefined","1","right","49","49","49","0","0","49","49","0","0","49","49","49","0","49","0","Thu Oct 19 21:43:06 2023","The main experiment item","False","SternbergTask.osexp","/Users/xaleyelyse/Desktop","False","mono","False","18","no","white","no","yes","768","legacy","37","11","/Users/xaleyelyse/Downloads/XWsubject_3.csv","legacy","6 7 5 9","Melodramatic Milgram","4.0.5","0","n","0","right","left","left","right","NA","590.0","33648","6791","590","NA","2","legacy","4","1024","2","48000","-16","experiment","3","odd","2","333247","330004","331039","1869","113982","331042","189052","1923","107191","332044","335249","335840","35590","335249","NA","Sternberg Task","48","31743.0","50","1024"
"96","96","637","637","#3d3846","experiment","legacy","legacy","legacy","1","undefined","1","right","50","50","50","0","0","50","50","0","0","50","50","50","0","50","0","Thu Oct 19 21:43:06 2023","The main experiment item","False","SternbergTask.osexp","/Users/xaleyelyse/Desktop","False","mono","False","18","no","white","no","yes","768","legacy","38","11","/Users/xaleyelyse/Downloads/XWsubject_3.csv","legacy","6 9 7 3 8 2","Melodramatic Milgram","4.0.5","0","n","0","right","left","left","right","NA","752.0","33648","6791","752","NA","2","legacy","6","1024","2","48000","-16","experiment","3","odd","5","339086","335842","336878","1869","113982","336880","189052","1923","107191","337883","341089","341842","35590","341088","NA","Sternberg Task","49","32495.0","51","1024"
"96","96","635","635","#3d3846","experiment","legacy","legacy","legacy","1","undefined","1","right","51","51","51","0","0","51","51","0","0","51","51","51","0","51","0","Thu Oct 19 21:43:06 2023","The main experiment item","False","SternbergTask.osexp","/Users/xaleyelyse/Desktop","False","mono","False","18","no","white","no","yes","768","legacy","39","11","/Users/xaleyelyse/Downloads/XWsubject_3.csv","legacy","1 4 9 3","Melodramatic Milgram","4.0.5","0","n","0","right","left","left","right","NA","566.0","33648","6791","566","NA","2","legacy","4","1024","2","48000","-16","experiment","3","odd","5","345098","341844","342889","1869","113982","342892","189052","1923","107191","343895","347100","347667","35590","347100","NA","Sternberg Task","50","33061.0","52","1024"
"96","96","638","638","#3d3846","experiment","legacy","legacy","legacy","1","undefined","1","left","52","52","52","0","0","52","52","0","0","52","52","52","0","52","0","Thu Oct 19 21:43:06 2023","The main experiment item","False","SternbergTask.osexp","/Users/xaleyelyse/Desktop","False","mono","False","18","no","white","no","yes","768","legacy","40","11","/Users/xaleyelyse/Downloads/XWsubject_3.csv","legacy","8 9 5 6 7","Melodramatic Milgram","4.0.5","1","y","0","left","left","left","left","NA","762.0","33648","6791","762","NA","2","legacy","5","1024","2","48000","-16","experiment","3","odd","8","350905","347670","348699","1869","113982","348701","189052","1923","107191","349703","352907","353670","35590","352907","NA","Sternberg Task","51","33823.0","53","1024"
"96","96","635","635","#3d3846","experiment","legacy","legacy","legacy","1","undefined","1","right","53","53","53","0","0","53","53","0","0","53","53","53","0","53","0","Thu Oct 19 21:43:06 2023","The main experiment item","False","SternbergTask.osexp","/Users/xaleyelyse/Desktop","False","mono","False","18","no","white","no","yes","768","legacy","41","11","/Users/xaleyelyse/Downloads/XWsubject_3.csv","legacy","7 4 2 8 1 9","Melodramatic Milgram","4.0.5","0","n","0","right","left","left","right","NA","489.0","33648","6791","489","NA","2","legacy","6","1024","2","48000","-16","experiment","3","odd","5","356911","353673","354704","1869","113982","354707","189052","1923","107191","355709","358913","359403","35590","358913","NA","Sternberg Task","52","34312.0","54","1024"
"94","94","637","637","#3d3846","experiment","legacy","legacy","legacy","0","undefined","0","right","54","54","54","0","0","54","54","0","0","54","54","54","0","54","0","Thu Oct 19 21:43:06 2023","The main experiment item","False","SternbergTask.osexp","/Users/xaleyelyse/Desktop","False","mono","False","18","no","white","no","yes","768","legacy","42","11","/Users/xaleyelyse/Downloads/XWsubject_3.csv","legacy","1 6 4 3 9 7","Melodramatic Milgram","4.0.5","0","n","0","left","left","left","left","NA","726.0","33648","6791","726","NA","2","legacy","6","1024","2","48000","-16","experiment","3","odd","8","362648","359406","360443","1869","113982","360445","189052","1923","107191","361447","364651","365378","35590","364651","NA","Sternberg Task","52","35038.0","55","1024"
"94","94","639","639","#3d3846","experiment","legacy","legacy","legacy","1","undefined","1","right","55","55","55","0","0","55","55","0","0","55","55","55","0","55","0","Thu Oct 19 21:43:06 2023","The main experiment item","False","SternbergTask.osexp","/Users/xaleyelyse/Desktop","False","mono","False","18","no","white","no","yes","768","legacy","43","11","/Users/xaleyelyse/Downloads/XWsubject_3.csv","legacy","8 2 1 4 5 9","Melodramatic Milgram","4.0.5","0","n","0","right","left","left","right","NA","795.0","33648","6791","795","NA","2","legacy","6","1024","2","48000","-16","experiment","3","odd","7","368622","359406","366416","1869","113982","366418","365380","1923","107191","367420","370625","371421","35590","370625","NA","Sternberg Task","53","35833.0","56","1024"
"94","94","641","641","#3d3846","experiment","legacy","legacy","legacy","1","undefined","1","right","56","56","56","0","0","56","56","0","0","56","56","56","0","56","0","Thu Oct 19 21:43:06 2023","The main experiment item","False","SternbergTask.osexp","/Users/xaleyelyse/Desktop","False","mono","False","18","no","white","no","yes","768","legacy","44","11","/Users/xaleyelyse/Downloads/XWsubject_3.csv","legacy","9 8 2 7 4","Melodramatic Milgram","4.0.5","0","n","0","right","left","left","right","NA","705.0","33648","6791","705","NA","2","legacy","5","1024","2","48000","-16","experiment","3","odd","5","374667","371423","372459","1869","113982","372462","365380","1923","107191","373464","376669","377375","35590","376669","NA","Sternberg Task","54","36538.0","57","1024"
"93","93","648","648","#3d3846","experiment","legacy","legacy","legacy","0","undefined","0","left","57","57","57","0","0","57","57","0","0","57","57","57","0","57","0","Thu Oct 19 21:43:06 2023","The main experiment item","False","SternbergTask.osexp","/Users/xaleyelyse/Desktop","False","mono","False","18","no","white","no","yes","768","legacy","45","11","/Users/xaleyelyse/Downloads/XWsubject_3.csv","legacy","8 5 3 7 4 6","Melodramatic Milgram","4.0.5","6","y","0","right","left","left","right","NA","1072.0","33648","6791","1072","NA","2","legacy","6","1024","2","48000","-16","experiment","3","odd","6","380631","377378","378423","1869","113982","378425","365380","1923","107191","379427","382633","383706","35590","382633","NA","Sternberg Task","54","37610.0","58","1024"
"93","93","650","650","#3d3846","experiment","legacy","legacy","legacy","1","undefined","1","right","58","58","58","0","0","58","58","0","0","58","58","58","0","58","0","Thu Oct 19 21:43:06 2023","The main experiment item","False","SternbergTask.osexp","/Users/xaleyelyse/Desktop","False","mono","False","18","no","white","no","yes","768","legacy","46","11","/Users/xaleyelyse/Downloads/XWsubject_3.csv","legacy","7 8 6 1","Melodramatic Milgram","4.0.5","0","n","0","right","left","left","right","NA","760.0","33648","6791","760","NA","2","legacy","4","1024","2","48000","-16","experiment","3","odd","3","386943","377378","384736","1869","113982","384738","383708","1923","107191","385740","388945","389706","35590","388945","NA","Sternberg Task","55","38370.0","59","1024"
"93","93","649","649","#3d3846","experiment","legacy","legacy","legacy","1","undefined","1","right","59","59","59","0","0","59","59","0","0","59","59","59","0","59","0","Thu Oct 19 21:43:06 2023","The main experiment item","False","SternbergTask.osexp","/Users/xaleyelyse/Desktop","False","mono","False","18","no","white","no","yes","768","legacy","47","11","/Users/xaleyelyse/Downloads/XWsubject_3.csv","legacy","1","Melodramatic Milgram","4.0.5","0","n","0","right","left","left","right","NA","574.0","33648","6791","574","NA","2","legacy","1","1024","2","48000","-16","experiment","3","odd","7","392947","389708","390740","1869","113982","390742","383708","1923","107191","391744","394950","395525","35590","394950","NA","Sternberg Task","56","38944.0","60","1024"
"93","93","660","660","#3d3846","experiment","legacy","legacy","legacy","1","undefined","1","right","60","60","60","0","0","60","60","0","0","60","60","60","0","60","0","Thu Oct 19 21:43:06 2023","The main experiment item","False","SternbergTask.osexp","/Users/xaleyelyse/Desktop","False","mono","False","18","no","white","no","yes","768","legacy","48","11","/Users/xaleyelyse/Downloads/XWsubject_3.csv","legacy","4 1","Melodramatic Milgram","4.0.5","0","n","0","right","left","left","right","NA","1375.0","33648","6791","1375","NA","2","legacy","2","1024","2","48000","-16","experiment","3","odd","6","398771","395528","396564","1869","113982","396567","383708","1923","107191","397569","400774","402150","35590","400774","NA","Sternberg Task","57","40319.0","61","1024"
"91","91","663","663","#3d3846","experiment","legacy","legacy","legacy","0","undefined","0","left","61","61","61","0","0","61","61","0","0","61","61","61","0","61","0","Thu Oct 19 21:43:06 2023","The main experiment item","False","SternbergTask.osexp","/Users/xaleyelyse/Desktop","False","mono","False","18","no","white","no","yes","768","legacy","49","11","/Users/xaleyelyse/Downloads/XWsubject_3.csv","legacy","8 7 3","Melodramatic Milgram","4.0.5","1","y","0","right","left","left","right","NA","803.0","33648","6791","803","NA","2","legacy","3","1024","2","48000","-16","experiment","3","odd","8","405416","402173","403209","1869","113982","403211","383708","1923","107191","404213","407418","408222","35590","407418","NA","Sternberg Task","57","41122.0","62","1024"
"92","92","662","662","#3d3846","experiment","legacy","legacy","legacy","1","undefined","1","left","62","62","62","0","0","62","62","0","0","62","62","62","0","62","0","Thu Oct 19 21:43:06 2023","The main experiment item","False","SternbergTask.osexp","/Users/xaleyelyse/Desktop","False","mono","False","18","no","white","no","yes","768","legacy","50","11","/Users/xaleyelyse/Downloads/XWsubject_3.csv","legacy","3 5 9 6 2 4","Melodramatic Milgram","4.0.5","1","y","0","left","left","left","left","NA","643.0","33648","6791","643","NA","2","legacy","6","1024","2","48000","-16","experiment","3","odd","3","411469","402173","409261","1869","113982","409263","408224","1923","107191","410266","413471","414115","35590","413471","NA","Sternberg Task","58","41765.0","63","1024"
"92","92","661","661","#3d3846","experiment","legacy","legacy","legacy","1","undefined","1","right","63","63","63","0","0","63","63","0","0","63","63","63","0","63","0","Thu Oct 19 21:43:06 2023","The main experiment item","False","SternbergTask.osexp","/Users/xaleyelyse/Desktop","False","mono","False","18","no","white","no","yes","768","legacy","51","11","/Users/xaleyelyse/Downloads/XWsubject_3.csv","legacy","3 9 1","Melodramatic Milgram","4.0.5","0","n","0","right","left","left","right","NA","592.0","33648","6791","592","NA","2","legacy","3","1024","2","48000","-16","experiment","3","odd","7","417378","414118","415171","1869","113982","415173","408224","1923","107191","416176","419381","419974","35590","419381","NA","Sternberg Task","59","42357.0","64","1024"
"92","92","661","661","#3d3846","experiment","legacy","legacy","legacy","1","undefined","1","right","64","64","64","0","0","64","64","0","0","64","64","64","0","64","0","Thu Oct 19 21:43:06 2023","The main experiment item","False","SternbergTask.osexp","/Users/xaleyelyse/Desktop","False","mono","False","18","no","white","no","yes","768","legacy","52","11","/Users/xaleyelyse/Downloads/XWsubject_3.csv","legacy","7 3 2 8","Melodramatic Milgram","4.0.5","0","n","0","right","left","left","right","NA","638.0","33648","6791","638","NA","2","legacy","4","1024","2","48000","-16","experiment","3","odd","4","423212","419976","421005","1869","113982","421007","408224","1923","107191","422009","425214","425853","35590","425214","NA","Sternberg Task","60","42995.0","65","1024"
"92","92","659","659","#3d3846","experiment","legacy","legacy","legacy","1","undefined","1","right","65","65","65","0","0","65","65","0","0","65","65","65","0","65","0","Thu Oct 19 21:43:06 2023","The main experiment item","False","SternbergTask.osexp","/Users/xaleyelyse/Desktop","False","mono","False","18","no","white","no","yes","768","legacy","53","11","/Users/xaleyelyse/Downloads/XWsubject_3.csv","legacy","7 1 8 4 9 3","Melodramatic Milgram","4.0.5","0","n","0","right","left","left","right","NA","545.0","33648","6791","545","NA","2","legacy","6","1024","2","48000","-16","experiment","3","odd","6","429094","425855","426887","1869","113982","426890","408224","1923","107191","427892","431096","431642","35590","431096","NA","Sternberg Task","61","43540.0","66","1024"
"92","92","662","662","#3d3846","experiment","legacy","legacy","legacy","1","undefined","1","right","66","66","66","0","0","66","66","0","0","66","66","66","0","66","0","Thu Oct 19 21:43:06 2023","The main experiment item","False","SternbergTask.osexp","/Users/xaleyelyse/Desktop","False","mono","False","18","no","white","no","yes","768","legacy","54","11","/Users/xaleyelyse/Downloads/XWsubject_3.csv","legacy","8 4 3 5","Melodramatic Milgram","4.0.5","0","n","0","right","left","left","right","NA","831.0","33648","6791","831","NA","2","legacy","4","1024","2","48000","-16","experiment","3","odd","6","434888","431645","432681","1869","113982","432683","408224","1923","107191","433685","436890","437722","35590","436890","NA","Sternberg Task","62","44371.0","67","1024"
"92","92","662","662","#3d3846","experiment","legacy","legacy","legacy","1","undefined","1","left","67","67","67","0","0","67","67","0","0","67","67","67","0","67","0","Thu Oct 19 21:43:06 2023","The main experiment item","False","SternbergTask.osexp","/Users/xaleyelyse/Desktop","False","mono","False","18","no","white","no","yes","768","legacy","55","11","/Users/xaleyelyse/Downloads/XWsubject_3.csv","legacy","9 5 8 1","Melodramatic Milgram","4.0.5","2","y","0","left","left","left","left","NA","648.0","33648","6791","648","NA","2","legacy","4","1024","2","48000","-16","experiment","3","odd","5","440967","437725","438760","1869","113982","438763","408224","1923","107191","439765","442969","443618","35590","442969","NA","Sternberg Task","63","45019.0","68","1024"
"92","92","659","659","#3d3846","experiment","legacy","legacy","legacy","1","undefined","1","right","68","68","68","0","0","68","68","0","0","68","68","68","0","68","0","Thu Oct 19 21:43:06 2023","The main experiment item","False","SternbergTask.osexp","/Users/xaleyelyse/Desktop","False","mono","False","18","no","white","no","yes","768","legacy","56","11","/Users/xaleyelyse/Downloads/XWsubject_3.csv","legacy","2 7 5","Melodramatic Milgram","4.0.5","0","n","0","right","left","left","right","NA","520.0","33648","6791","520","NA","2","legacy","3","1024","2","48000","-16","experiment","3","odd","8","446866","443621","444658","1869","113982","444660","408224","1923","107191","445662","448868","449389","35590","448868","NA","Sternberg Task","64","45539.0","69","1024"
"92","92","659","659","#3d3846","experiment","legacy","legacy","legacy","1","undefined","1","left","69","69","69","0","0","69","69","0","0","69","69","69","0","69","0","Thu Oct 19 21:43:06 2023","The main experiment item","False","SternbergTask.osexp","/Users/xaleyelyse/Desktop","False","mono","False","18","no","white","no","yes","768","legacy","57","11","/Users/xaleyelyse/Downloads/XWsubject_3.csv","legacy","5 7 3 6 2","Melodramatic Milgram","4.0.5","5","y","0","left","left","left","left","NA","638.0","33648","6791","638","NA","2","legacy","5","1024","2","48000","-16","experiment","3","odd","2","452645","449391","450437","1869","113982","450439","408224","1923","107191","451441","454647","455287","35590","454647","NA","Sternberg Task","65","46177.0","70","1024"
"92","92","658","658","#3d3846","experiment","legacy","legacy","legacy","1","undefined","1","right","70","70","70","0","0","70","70","0","0","70","70","70","0","70","0","Thu Oct 19 21:43:06 2023","The main experiment item","False","SternbergTask.osexp","/Users/xaleyelyse/Desktop","False","mono","False","18","no","white","no","yes","768","legacy","58","11","/Users/xaleyelyse/Downloads/XWsubject_3.csv","legacy","4 2 6 9","Melodramatic Milgram","4.0.5","0","n","0","right","left","left","right","NA","550.0","33648","6791","550","NA","2","legacy","4","1024","2","48000","-16","experiment","3","odd","7","458524","455289","456318","1869","113982","456320","408224","1923","107191","457322","460526","461076","35590","460526","NA","Sternberg Task","66","46727.0","71","1024"
"93","93","658","658","#3d3846","experiment","legacy","legacy","legacy","1","undefined","1","right","71","71","71","0","0","71","71","0","0","71","71","71","0","71","0","Thu Oct 19 21:43:06 2023","The main experiment item","False","SternbergTask.osexp","/Users/xaleyelyse/Desktop","False","mono","False","18","no","white","no","yes","768","legacy","59","11","/Users/xaleyelyse/Downloads/XWsubject_3.csv","legacy","8 5 4 2 9 6","Melodramatic Milgram","4.0.5","0","n","0","right","left","left","right","NA","662.0","33648","6791","662","NA","2","legacy","6","1024","2","48000","-16","experiment","3","odd","3","464318","461079","462111","1869","113982","462113","408224","1923","107191","463115","466320","466983","35590","466320","NA","Sternberg Task","67","47389.0","72","1024"
"93","93","662","662","#3d3846","experiment","legacy","legacy","legacy","1","undefined","1","left","72","72","72","0","0","72","72","0","0","72","72","72","0","72","0","Thu Oct 19 21:43:06 2023","The main experiment item","False","SternbergTask.osexp","/Users/xaleyelyse/Desktop","False","mono","False","18","no","white","no","yes","768","legacy","60","11","/Users/xaleyelyse/Downloads/XWsubject_3.csv","legacy","4 1 5","Melodramatic Milgram","4.0.5","2","y","0","left","left","left","left","NA","961.0","33648","6791","961","NA","2","legacy","3","1024","2","48000","-16","experiment","3","odd","1","470228","466986","468021","1869","113982","468023","408224","1923","107191","469025","472230","473192","35590","472230","NA","Sternberg Task","68","48350.0","73","1024"
"93","93","662","662","#3d3846","experiment","legacy","legacy","legacy","1","undefined","1","left","73","73","73","0","0","73","73","0","0","73","73","73","0","73","0","Thu Oct 19 21:43:06 2023","The main experiment item","False","SternbergTask.osexp","/Users/xaleyelyse/Desktop","False","mono","False","18","no","white","no","yes","768","legacy","61","11","/Users/xaleyelyse/Downloads/XWsubject_3.csv","legacy","6 9 7 4 5 1","Melodramatic Milgram","4.0.5","2","y","0","left","left","left","left","NA","702.0","33648","6791","702","NA","2","legacy","6","1024","2","48000","-16","experiment","3","odd","9","476438","473195","474230","1869","113982","474233","408224","1923","107191","475235","478440","479143","35590","478440","NA","Sternberg Task","69","49052.0","74","1024"
"93","93","659","659","#3d3846","experiment","legacy","legacy","legacy","1","undefined","1","left","74","74","74","0","0","74","74","0","0","74","74","74","0","74","0","Thu Oct 19 21:43:06 2023","The main experiment item","False","SternbergTask.osexp","/Users/xaleyelyse/Desktop","False","mono","False","18","no","white","no","yes","768","legacy","62","11","/Users/xaleyelyse/Downloads/XWsubject_3.csv","legacy","4","Melodramatic Milgram","4.0.5","1","y","0","left","left","left","left","NA","415.0","33648","6791","415","NA","2","legacy","1","1024","2","48000","-16","experiment","3","odd","4","482391","479146","480183","1869","113982","480185","408224","1923","107191","481188","484393","484809","35590","484393","NA","Sternberg Task","70","49467.0","75","1024"
"93","93","657","657","#3d3846","experiment","legacy","legacy","legacy","1","undefined","1","left","75","75","75","0","0","75","75","0","0","75","75","75","0","75","0","Thu Oct 19 21:43:06 2023","The main experiment item","False","SternbergTask.osexp","/Users/xaleyelyse/Desktop","False","mono","False","18","no","white","no","yes","768","legacy","63","11","/Users/xaleyelyse/Downloads/XWsubject_3.csv","legacy","6 7 8 5","Melodramatic Milgram","4.0.5","3","y","0","left","left","left","left","NA","500.0","33648","6791","500","NA","2","legacy","4","1024","2","48000","-16","experiment","3","odd","8","488065","484813","485858","1869","113982","485860","408224","1923","107191","486862","490068","490569","35590","490067","NA","Sternberg Task","71","49967.0","76","1024"
"93","93","658","658","#3d3846","experiment","legacy","legacy","legacy","1","undefined","1","right","76","76","76","0","0","76","76","0","0","76","76","76","0","76","0","Thu Oct 19 21:43:06 2023","The main experiment item","False","SternbergTask.osexp","/Users/xaleyelyse/Desktop","False","mono","False","18","no","white","no","yes","768","legacy","64","11","/Users/xaleyelyse/Downloads/XWsubject_3.csv","legacy","6 3 1 7 9 8","Melodramatic Milgram","4.0.5","0","n","0","right","left","left","right","NA","751.0","33648","6791","751","NA","2","legacy","6","1024","2","48000","-16","experiment","3","odd","4","493806","490571","491600","1869","113982","491602","408224","1923","107191","492604","495809","496561","35590","495809","NA","Sternberg Task","72","50718.0","77","1024"
"93","93","656","656","#3d3846","experiment","legacy","legacy","legacy","1","undefined","1","right","77","77","77","0","0","77","77","0","0","77","77","77","0","77","0","Thu Oct 19 21:43:06 2023","The main experiment item","False","SternbergTask.osexp","/Users/xaleyelyse/Desktop","False","mono","False","18","no","white","no","yes","768","legacy","65","11","/Users/xaleyelyse/Downloads/XWsubject_3.csv","legacy","9","Melodramatic Milgram","4.0.5","0","n","0","right","left","left","right","NA","511.0","33648","6791","511","NA","2","legacy","1","1024","2","48000","-16","experiment","3","odd","6","499798","496565","497592","1869","113982","497594","408224","1923","107191","498596","501800","502312","35590","501800","NA","Sternberg Task","73","51229.0","78","1024"
"93","93","657","657","#3d3846","experiment","legacy","legacy","legacy","1","undefined","1","right","78","78","78","0","0","78","78","0","0","78","78","78","0","78","0","Thu Oct 19 21:43:06 2023","The main experiment item","False","SternbergTask.osexp","/Users/xaleyelyse/Desktop","False","mono","False","18","no","white","no","yes","768","legacy","66","11","/Users/xaleyelyse/Downloads/XWsubject_3.csv","legacy","1 4 9 2 5","Melodramatic Milgram","4.0.5","0","n","0","right","left","left","right","NA","741.0","33648","6791","741","NA","2","legacy","5","1024","2","48000","-16","experiment","3","odd","7","505557","502315","503351","1869","113982","503353","408224","1923","107191","504355","507559","508301","35590","507559","NA","Sternberg Task","74","51970.0","79","1024"
"93","93","656","656","#3d3846","experiment","legacy","legacy","legacy","1","undefined","1","right","79","79","79","0","0","79","79","0","0","79","79","79","0","79","0","Thu Oct 19 21:43:06 2023","The main experiment item","False","SternbergTask.osexp","/Users/xaleyelyse/Desktop","False","mono","False","18","no","white","no","yes","768","legacy","67","11","/Users/xaleyelyse/Downloads/XWsubject_3.csv","legacy","2 8 6 3 1","Melodramatic Milgram","4.0.5","0","n","0","right","left","left","right","NA","577.0","33648","6791","577","NA","2","legacy","5","1024","2","48000","-16","experiment","3","odd","7","511547","508304","509340","1869","113982","509342","408224","1923","107191","510344","513549","514127","35590","513549","NA","Sternberg Task","75","52547.0","80","1024"
"93","93","655","655","#3d3846","experiment","legacy","legacy","legacy","1","undefined","1","right","80","80","80","0","0","80","80","0","0","80","80","80","0","80","0","Thu Oct 19 21:43:06 2023","The main experiment item","False","SternbergTask.osexp","/Users/xaleyelyse/Desktop","False","mono","False","18","no","white","no","yes","768","legacy","68","11","/Users/xaleyelyse/Downloads/XWsubject_3.csv","legacy","6 8","Melodramatic Milgram","4.0.5","0","n","0","right","left","left","right","NA","566.0","33648","6791","566","NA","2","legacy","2","1024","2","48000","-16","experiment","3","odd","9","517374","514130","515167","1869","113982","515169","408224","1923","107191","516171","519376","519943","35590","519376","NA","Sternberg Task","76","53113.0","81","1024"
"93","93","659","659","#3d3846","experiment","legacy","legacy","legacy","1","undefined","1","left","81","81","81","0","0","81","81","0","0","81","81","81","0","81","0","Thu Oct 19 21:43:06 2023","The main experiment item","False","SternbergTask.osexp","/Users/xaleyelyse/Desktop","False","mono","False","18","no","white","no","yes","768","legacy","69","11","/Users/xaleyelyse/Downloads/XWsubject_3.csv","legacy","8 5 4 7 3 1","Melodramatic Milgram","4.0.5","2","y","0","left","left","left","left","NA","1003.0","33648","6791","1003","NA","2","legacy","6","1024","2","48000","-16","experiment","3","odd","5","523199","519945","520991","1869","113982","520993","408224","1923","107191","521995","525201","526205","35590","525201","NA","Sternberg Task","77","54116.0","82","1024"
"93","93","658","658","#3d3846","experiment","legacy","legacy","legacy","1","undefined","1","left","82","82","82","0","0","82","82","0","0","82","82","82","0","82","0","Thu Oct 19 21:43:06 2023","The main experiment item","False","SternbergTask.osexp","/Users/xaleyelyse/Desktop","False","mono","False","18","no","white","no","yes","768","legacy","70","11","/Users/xaleyelyse/Downloads/XWsubject_3.csv","legacy","4 1 8 7 5","Melodramatic Milgram","4.0.5","3","y","0","left","left","left","left","NA","514.0","33648","6791","514","NA","2","legacy","5","1024","2","48000","-16","experiment","3","odd","8","529442","526208","527236","1869","113982","527238","408224","1923","107191","528240","531444","531959","35590","531444","NA","Sternberg Task","78","54630.0","83","1024"
"94","94","661","661","#3d3846","experiment","legacy","legacy","legacy","1","undefined","1","left","83","83","83","0","0","83","83","0","0","83","83","83","0","83","0","Thu Oct 19 21:43:06 2023","The main experiment item","False","SternbergTask.osexp","/Users/xaleyelyse/Desktop","False","mono","False","18","no","white","no","yes","768","legacy","71","11","/Users/xaleyelyse/Downloads/XWsubject_3.csv","legacy","2 6 1 7 4","Melodramatic Milgram","4.0.5","2","y","0","left","left","left","left","NA","927.0","33648","6791","927","NA","2","legacy","5","1024","2","48000","-16","experiment","3","odd","6","535199","531961","532994","1869","113982","532996","408224","1923","107191","533998","537203","538131","35590","537202","NA","Sternberg Task","79","55557.0","84","1024"
"94","94","659","659","#3d3846","experiment","legacy","legacy","legacy","1","undefined","1","left","84","84","84","0","0","84","84","0","0","84","84","84","0","84","0","Thu Oct 19 21:43:06 2023","The main experiment item","False","SternbergTask.osexp","/Users/xaleyelyse/Desktop","False","mono","False","18","no","white","no","yes","768","legacy","72","11","/Users/xaleyelyse/Downloads/XWsubject_3.csv","legacy","2 3","Melodramatic Milgram","4.0.5","1","y","0","left","left","left","left","NA","481.0","33648","6791","481","NA","2","legacy","2","1024","2","48000","-16","experiment","3","odd","2","541383","538134","539169","1869","113982","539172","408224","1923","107191","540181","543388","543870","35590","543388","NA","Sternberg Task","80","56038.0","85","1024"
"94","94","657","657","#3d3846","experiment","legacy","legacy","legacy","1","undefined","1","left","85","85","85","0","0","85","85","0","0","85","85","85","0","85","0","Thu Oct 19 21:43:06 2023","The main experiment item","False","SternbergTask.osexp","/Users/xaleyelyse/Desktop","False","mono","False","18","no","white","no","yes","768","legacy","73","11","/Users/xaleyelyse/Downloads/XWsubject_3.csv","legacy","6 2","Melodramatic Milgram","4.0.5","1","y","0","left","left","left","left","NA","476.0","33648","6791","476","NA","2","legacy","2","1024","2","48000","-16","experiment","3","odd","6","547118","543872","544910","1869","113982","544913","408224","1923","107191","545916","549120","549597","35590","549120","NA","Sternberg Task","81","56514.0","86","1024"
"94","94","656","656","#3d3846","experiment","legacy","legacy","legacy","1","undefined","1","right","86","86","86","0","0","86","86","0","0","86","86","86","0","86","0","Thu Oct 19 21:43:06 2023","The main experiment item","False","SternbergTask.osexp","/Users/xaleyelyse/Desktop","False","mono","False","18","no","white","no","yes","768","legacy","74","11","/Users/xaleyelyse/Downloads/XWsubject_3.csv","legacy","5 2","Melodramatic Milgram","4.0.5","0","n","0","right","left","left","right","NA","576.0","33648","6791","576","NA","2","legacy","2","1024","2","48000","-16","experiment","3","odd","7","552844","549600","550636","1869","113982","550639","408224","1923","107191","551641","554846","555423","35590","554846","NA","Sternberg Task","82","57090.0","87","1024"
"94","94","657","657","#3d3846","experiment","legacy","legacy","legacy","1","undefined","1","left","87","87","87","0","0","87","87","0","0","87","87","87","0","87","0","Thu Oct 19 21:43:06 2023","The main experiment item","False","SternbergTask.osexp","/Users/xaleyelyse/Desktop","False","mono","False","18","no","white","no","yes","768","legacy","75","11","/Users/xaleyelyse/Downloads/XWsubject_3.csv","legacy","7 1 8 5 6 2","Melodramatic Milgram","4.0.5","2","y","0","left","left","left","left","NA","757.0","33648","6791","757","NA","2","legacy","6","1024","2","48000","-16","experiment","3","odd","1","558680","555425","556473","1869","113982","556475","408224","1923","107191","557477","560682","561440","35590","560682","NA","Sternberg Task","83","57847.0","88","1024"
"94","94","657","657","#3d3846","experiment","legacy","legacy","legacy","1","undefined","1","right","88","88","88","0","0","88","88","0","0","88","88","88","0","88","0","Thu Oct 19 21:43:06 2023","The main experiment item","False","SternbergTask.osexp","/Users/xaleyelyse/Desktop","False","mono","False","18","no","white","no","yes","768","legacy","76","11","/Users/xaleyelyse/Downloads/XWsubject_3.csv","legacy","7 1","Melodramatic Milgram","4.0.5","0","n","0","right","left","left","right","NA","694.0","33648","6791","694","NA","2","legacy","2","1024","2","48000","-16","experiment","3","odd","8","564677","561443","562471","1869","113982","562473","408224","1923","107191","563475","566680","567375","35590","566680","NA","Sternberg Task","84","58541.0","89","1024"
"94","94","660","660","#3d3846","experiment","legacy","legacy","legacy","1","undefined","1","left","89","89","89","0","0","89","89","0","0","89","89","89","0","89","0","Thu Oct 19 21:43:06 2023","The main experiment item","False","SternbergTask.osexp","/Users/xaleyelyse/Desktop","False","mono","False","18","no","white","no","yes","768","legacy","77","11","/Users/xaleyelyse/Downloads/XWsubject_3.csv","legacy","8 3","Melodramatic Milgram","4.0.5","2","y","0","left","left","left","left","NA","864.0","33648","6791","864","NA","2","legacy","2","1024","2","48000","-16","experiment","3","odd","3","570617","567378","568410","1869","113982","568413","408224","1923","107191","569415","572619","573484","35590","572619","NA","Sternberg Task","85","59405.0","90","1024"
"94","94","658","658","#3d3846","experiment","legacy","legacy","legacy","1","undefined","1","left","90","90","90","0","0","90","90","0","0","90","90","90","0","90","0","Thu Oct 19 21:43:06 2023","The main experiment item","False","SternbergTask.osexp","/Users/xaleyelyse/Desktop","False","mono","False","18","no","white","no","yes","768","legacy","78","11","/Users/xaleyelyse/Downloads/XWsubject_3.csv","legacy","3 5 4 7","Melodramatic Milgram","4.0.5","1","y","0","left","left","left","left","NA","478.0","33648","6791","478","NA","2","legacy","4","1024","2","48000","-16","experiment","3","odd","3","576731","573487","574522","1869","113982","574524","408224","1923","107191","575527","578733","579212","35590","578733","NA","Sternberg Task","86","59883.0","91","1024"
"94","94","659","659","#3d3846","experiment","legacy","legacy","legacy","1","undefined","1","right","91","91","91","0","0","91","91","0","0","91","91","91","0","91","0","Thu Oct 19 21:43:06 2023","The main experiment item","False","SternbergTask.osexp","/Users/xaleyelyse/Desktop","False","mono","False","18","no","white","no","yes","768","legacy","79","11","/Users/xaleyelyse/Downloads/XWsubject_3.csv","legacy","7 6 4 8 1 2","Melodramatic Milgram","4.0.5","0","n","0","right","left","left","right","NA","796.0","33648","6791","796","NA","2","legacy","6","1024","2","48000","-16","experiment","3","odd","9","582457","579214","580251","1869","113982","580253","408224","1923","107191","581255","584459","585256","35590","584459","NA","Sternberg Task","87","60679.0","92","1024"
"94","94","660","660","#3d3846","experiment","legacy","legacy","legacy","1","undefined","1","left","92","92","92","0","0","92","92","0","0","92","92","92","0","92","0","Thu Oct 19 21:43:06 2023","The main experiment item","False","SternbergTask.osexp","/Users/xaleyelyse/Desktop","False","mono","False","18","no","white","no","yes","768","legacy","80","11","/Users/xaleyelyse/Downloads/XWsubject_3.csv","legacy","4 6 2 5 1","Melodramatic Milgram","4.0.5","5","y","0","left","left","left","left","NA","758.0","33648","6791","758","NA","2","legacy","5","1024","2","48000","-16","experiment","3","odd","1","588501","585259","586295","1869","113982","586297","408224","1923","107191","587299","590504","591263","35590","590504","NA","Sternberg Task","88","61437.0","93","1024"
"94","94","661","661","#3d3846","experiment","legacy","legacy","legacy","1","undefined","1","right","93","93","93","0","0","93","93","0","0","93","93","93","0","93","0","Thu Oct 19 21:43:06 2023","The main experiment item","False","SternbergTask.osexp","/Users/xaleyelyse/Desktop","False","mono","False","18","no","white","no","yes","768","legacy","81","11","/Users/xaleyelyse/Downloads/XWsubject_3.csv","legacy","2 8 9 4 1","Melodramatic Milgram","4.0.5","0","n","0","right","left","left","right","NA","756.0","33648","6791","756","NA","2","legacy","5","1024","2","48000","-16","experiment","3","odd","5","594519","591266","592312","1869","113982","592314","408224","1923","107191","593316","596521","597279","35590","596521","NA","Sternberg Task","89","62193.0","94","1024"
"94","94","662","662","#3d3846","experiment","legacy","legacy","legacy","1","undefined","1","right","94","94","94","0","0","94","94","0","0","94","94","94","0","94","0","Thu Oct 19 21:43:06 2023","The main experiment item","False","SternbergTask.osexp","/Users/xaleyelyse/Desktop","False","mono","False","18","no","white","no","yes","768","legacy","82","11","/Users/xaleyelyse/Downloads/XWsubject_3.csv","legacy","6 9 5","Melodramatic Milgram","4.0.5","0","n","0","right","left","left","right","NA","728.0","33648","6791","728","NA","2","legacy","3","1024","2","48000","-16","experiment","3","odd","8","600517","597283","598311","1869","113982","598313","408224","1923","107191","599315","602519","603248","35590","602519","NA","Sternberg Task","90","62921.0","95","1024"
"94","94","663","663","#3d3846","experiment","legacy","legacy","legacy","1","undefined","1","left","95","95","95","0","0","95","95","0","0","95","95","95","0","95","0","Thu Oct 19 21:43:06 2023","The main experiment item","False","SternbergTask.osexp","/Users/xaleyelyse/Desktop","False","mono","False","18","no","white","no","yes","768","legacy","83","11","/Users/xaleyelyse/Downloads/XWsubject_3.csv","legacy","8 1 6","Melodramatic Milgram","4.0.5","3","y","0","left","left","left","left","NA","785.0","33648","6791","785","NA","2","legacy","3","1024","2","48000","-16","experiment","3","odd","6","606488","603251","604282","1869","113982","604284","408224","1923","107191","605286","608491","609277","35590","608491","NA","Sternberg Task","91","63706.0","96","1024"
"94","94","662","662","#3d3846","experiment","legacy","legacy","legacy","1","undefined","1","right","96","96","96","0","0","96","96","0","0","96","96","96","0","96","0","Thu Oct 19 21:43:06 2023","The main experiment item","False","SternbergTask.osexp","/Users/xaleyelyse/Desktop","False","mono","False","18","no","white","no","yes","768","legacy","84","11","/Users/xaleyelyse/Downloads/XWsubject_3.csv","legacy","1 7 8 3 9","Melodramatic Milgram","4.0.5","0","n","0","right","left","left","right","NA","564.0","33648","6791","564","NA","2","legacy","5","1024","2","48000","-16","experiment","3","odd","2","612522","609279","610315","1869","113982","610318","408224","1923","107191","611320","614524","615089","35590","614524","NA","Sternberg Task","92","64270.0","97","1024"
"94","94","661","661","#3d3846","experiment","legacy","legacy","legacy","1","undefined","1","right","97","97","97","0","0","97","97","0","0","97","97","97","0","97","0","Thu Oct 19 21:43:06 2023","The main experiment item","False","SternbergTask.osexp","/Users/xaleyelyse/Desktop","False","mono","False","18","no","white","no","yes","768","legacy","85","11","/Users/xaleyelyse/Downloads/XWsubject_3.csv","legacy","1 5 3 2 8","Melodramatic Milgram","4.0.5","0","n","0","right","left","left","right","NA","577.0","33648","6791","577","NA","2","legacy","5","1024","2","48000","-16","experiment","3","odd","4","618336","615092","616129","1869","113982","616131","408224","1923","107191","617133","620338","620916","35590","620338","NA","Sternberg Task","93","64847.0","98","1024"
"94","94","660","660","#3d3846","experiment","legacy","legacy","legacy","1","undefined","1","left","98","98","98","0","0","98","98","0","0","98","98","98","0","98","0","Thu Oct 19 21:43:06 2023","The main experiment item","False","SternbergTask.osexp","/Users/xaleyelyse/Desktop","False","mono","False","18","no","white","no","yes","768","legacy","86","11","/Users/xaleyelyse/Downloads/XWsubject_3.csv","legacy","2 5 4 8 7","Melodramatic Milgram","4.0.5","3","y","0","left","left","left","left","NA","525.0","33648","6791","525","NA","2","legacy","5","1024","2","48000","-16","experiment","3","odd","4","624165","620919","621956","1869","113982","621959","408224","1923","107191","622961","626167","626693","35590","626167","NA","Sternberg Task","94","65372.0","99","1024"
"95","95","658","658","#3d3846","experiment","legacy","legacy","legacy","1","undefined","1","right","99","99","99","0","0","99","99","0","0","99","99","99","0","99","0","Thu Oct 19 21:43:06 2023","The main experiment item","False","SternbergTask.osexp","/Users/xaleyelyse/Desktop","False","mono","False","18","no","white","no","yes","768","legacy","87","11","/Users/xaleyelyse/Downloads/XWsubject_3.csv","legacy","5","Melodramatic Milgram","4.0.5","0","n","0","right","left","left","right","NA","509.0","33648","6791","509","NA","2","legacy","1","1024","2","48000","-16","experiment","3","odd","8","629983","626696","627776","1869","113982","627778","408224","1923","107191","628780","631985","632495","35590","631985","NA","Sternberg Task","95","65881.0","100","1024"
"95","95","657","657","#3d3846","experiment","legacy","legacy","legacy","1","undefined","1","left","100","100","100","0","0","100","100","0","0","100","100","100","0","100","0","Thu Oct 19 21:43:06 2023","The main experiment item","False","SternbergTask.osexp","/Users/xaleyelyse/Desktop","False","mono","False","18","no","white","no","yes","768","legacy","88","11","/Users/xaleyelyse/Downloads/XWsubject_3.csv","legacy","3 4","Melodramatic Milgram","4.0.5","1","y","0","left","left","left","left","NA","512.0","33648","6791","512","NA","2","legacy","2","1024","2","48000","-16","experiment","3","odd","3","635732","632498","633526","1869","113982","633528","408224","1923","107191","634530","637734","638247","35590","637734","NA","Sternberg Task","96","66393.0","101","1024"
"95","95","655","655","#3d3846","experiment","legacy","legacy","legacy","1","undefined","1","left","101","101","101","0","0","101","101","0","0","101","101","101","0","101","0","Thu Oct 19 21:43:06 2023","The main experiment item","False","SternbergTask.osexp","/Users/xaleyelyse/Desktop","False","mono","False","18","no","white","no","yes","768","legacy","89","11","/Users/xaleyelyse/Downloads/XWsubject_3.csv","legacy","6 1 2","Melodramatic Milgram","4.0.5","3","y","0","left","left","left","left","NA","503.0","33648","6791","503","NA","2","legacy","3","1024","2","48000","-16","experiment","3","odd","2","641488","638249","639281","1869","113982","639283","408224","1923","107191","640285","643490","643994","35590","643490","NA","Sternberg Task","97","66896.0","102","1024"
"95","95","655","655","#3d3846","experiment","legacy","legacy","legacy","1","undefined","1","left","102","102","102","0","0","102","102","0","0","102","102","102","0","102","0","Thu Oct 19 21:43:06 2023","The main experiment item","False","SternbergTask.osexp","/Users/xaleyelyse/Desktop","False","mono","False","18","no","white","no","yes","768","legacy","90","11","/Users/xaleyelyse/Downloads/XWsubject_3.csv","legacy","9 3 8 2 1 4","Melodramatic Milgram","4.0.5","3","y","0","left","left","left","left","NA","626.0","33648","6791","626","NA","2","legacy","6","1024","2","48000","-16","experiment","3","odd","8","647238","643996","645032","1869","113982","645034","408224","1923","107191","646036","649241","649868","35590","649241","NA","Sternberg Task","98","67522.0","103","1024"
"95","95","653","653","#3d3846","experiment","legacy","legacy","legacy","1","undefined","1","right","103","103","103","0","0","103","103","0","0","103","103","103","0","103","0","Thu Oct 19 21:43:06 2023","The main experiment item","False","SternbergTask.osexp","/Users/xaleyelyse/Desktop","False","mono","False","18","no","white","no","yes","768","legacy","91","11","/Users/xaleyelyse/Downloads/XWsubject_3.csv","legacy","7 9 1 6","Melodramatic Milgram","4.0.5","0","n","0","right","left","left","right","NA","466.0","33648","6791","466","NA","2","legacy","4","1024","2","48000","-16","experiment","3","odd","4","653114","649870","650907","1869","113982","650909","408224","1923","107191","651911","655116","655583","35590","655116","NA","Sternberg Task","99","67988.0","104","1024"
"95","95","652","652","#3d3846","experiment","legacy","legacy","legacy","1","undefined","1","left","104","104","104","0","0","104","104","0","0","104","104","104","0","104","0","Thu Oct 19 21:43:06 2023","The main experiment item","False","SternbergTask.osexp","/Users/xaleyelyse/Desktop","False","mono","False","18","no","white","no","yes","768","legacy","92","11","/Users/xaleyelyse/Downloads/XWsubject_3.csv","legacy","7 4 2 6 3 5","Melodramatic Milgram","4.0.5","6","y","0","left","left","left","left","NA","562.0","33648","6791","562","NA","2","legacy","6","1024","2","48000","-16","experiment","3","odd","5","658829","655586","656622","1869","113982","656624","408224","1923","107191","657626","660832","661395","35590","660832","NA","Sternberg Task","100","68550.0","105","1024"
"95","95","652","652","#3d3846","experiment","legacy","legacy","legacy","1","undefined","1","left","105","105","105","0","0","105","105","0","0","105","105","105","0","105","0","Thu Oct 19 21:43:06 2023","The main experiment item","False","SternbergTask.osexp","/Users/xaleyelyse/Desktop","False","mono","False","18","no","white","no","yes","768","legacy","93","11","/Users/xaleyelyse/Downloads/XWsubject_3.csv","legacy","5 2 9 6 1 7","Melodramatic Milgram","4.0.5","3","y","0","left","left","left","left","NA","589.0","33648","6791","589","NA","2","legacy","6","1024","2","48000","-16","experiment","3","odd","9","664651","661398","662444","1869","113982","662446","408224","1923","107191","663448","666653","667243","35590","666653","NA","Sternberg Task","101","69139.0","106","1024"
"95","95","652","652","#3d3846","experiment","legacy","legacy","legacy","1","undefined","1","left","106","106","106","0","0","106","106","0","0","106","106","106","0","106","0","Thu Oct 19 21:43:06 2023","The main experiment item","False","SternbergTask.osexp","/Users/xaleyelyse/Desktop","False","mono","False","18","no","white","no","yes","768","legacy","94","11","/Users/xaleyelyse/Downloads/XWsubject_3.csv","legacy","4 6 5 8","Melodramatic Milgram","4.0.5","1","y","0","left","left","left","left","NA","720.0","33648","6791","720","NA","2","legacy","4","1024","2","48000","-16","experiment","3","odd","4","670481","667246","668274","1869","113982","668276","408224","1923","107191","669278","672483","673204","35590","672483","NA","Sternberg Task","102","69859.0","107","1024"
"95","95","655","655","#3d3846","experiment","legacy","legacy","legacy","1","undefined","1","right","107","107","107","0","0","107","107","0","0","107","107","107","0","107","0","Thu Oct 19 21:43:06 2023","The main experiment item","False","SternbergTask.osexp","/Users/xaleyelyse/Desktop","False","mono","False","18","no","white","no","yes","768","legacy","95","11","/Users/xaleyelyse/Downloads/XWsubject_3.csv","legacy","1 8 7","Melodramatic Milgram","4.0.5","0","n","0","right","left","left","right","NA","982.0","33648","6791","982","NA","2","legacy","3","1024","2","48000","-16","experiment","3","odd","4","676447","673208","674240","1869","113982","674242","408224","1923","107191","675244","678449","679433","35590","678449","NA","Sternberg Task","103","70841.0","108","1024"
"95","95","654","654","#3d3846","experiment","legacy","legacy","legacy","1","undefined","1","left","108","108","108","0","0","108","108","0","0","108","108","108","0","108","0","Thu Oct 19 21:43:06 2023","The main experiment item","False","SternbergTask.osexp","/Users/xaleyelyse/Desktop","False","mono","False","18","no","white","no","yes","768","legacy","96","11","/Users/xaleyelyse/Downloads/XWsubject_3.csv","legacy","7","Melodramatic Milgram","4.0.5","1","y","0","left","left","left","left","NA","493.0","33648","6791","493","NA","2","legacy","1","1024","2","48000","-16","experiment","3","odd","7","682676","679435","680470","1869","113982","680472","408224","1923","107191","681474","684678","685172","35590","684678","NA","Sternberg Task","104","71334.0","109","1024"
"95","95","655","655","#3d3846","experiment","legacy","legacy","legacy","1","undefined","1","right","109","109","109","0","0","109","109","0","0","109","109","109","0","109","0","Thu Oct 19 21:43:06 2023","The main experiment item","False","SternbergTask.osexp","/Users/xaleyelyse/Desktop","False","mono","False","18","no","white","no","yes","768","legacy","97","11","/Users/xaleyelyse/Downloads/XWsubject_3.csv","legacy","1 3 2 6 9","Melodramatic Milgram","4.0.5","0","n","0","right","left","left","right","NA","753.0","33648","6791","753","NA","2","legacy","5","1024","2","48000","-16","experiment","3","odd","5","688418","685175","686211","1869","113982","686214","408224","1923","107191","687216","690421","691175","35590","690420","NA","Sternberg Task","105","72087.0","110","1024"
"95","95","654","654","#3d3846","experiment","legacy","legacy","legacy","1","undefined","1","right","110","110","110","0","0","110","110","0","0","110","110","110","0","110","0","Thu Oct 19 21:43:06 2023","The main experiment item","False","SternbergTask.osexp","/Users/xaleyelyse/Desktop","False","mono","False","18","no","white","no","yes","768","legacy","98","11","/Users/xaleyelyse/Downloads/XWsubject_3.csv","legacy","5 9 2 3","Melodramatic Milgram","4.0.5","0","n","0","right","left","left","right","NA","518.0","33648","6791","518","NA","2","legacy","4","1024","2","48000","-16","experiment","3","odd","8","694420","691178","692214","1869","113982","692216","408224","1923","107191","693218","696422","696941","35590","696422","NA","Sternberg Task","106","72605.0","111","1024"
"95","95","653","653","#3d3846","experiment","legacy","legacy","legacy","1","undefined","1","left","111","111","111","0","0","111","111","0","0","111","111","111","0","111","0","Thu Oct 19 21:43:06 2023","The main experiment item","False","SternbergTask.osexp","/Users/xaleyelyse/Desktop","False","mono","False","18","no","white","no","yes","768","legacy","99","11","/Users/xaleyelyse/Downloads/XWsubject_3.csv","legacy","3 4 9 6 2 9","Melodramatic Milgram","4.0.5","5","y","0","left","left","left","left","NA","611.0","33648","6791","611","NA","2","legacy","6","1024","2","48000","-16","experiment","3","odd","2","700198","696944","697991","1869","113982","697993","408224","1923","107191","698995","702200","702812","35590","702200","NA","Sternberg Task","107","73216.0","112","1024"
"95","95","653","653","#3d3846","experiment","legacy","legacy","legacy","1","undefined","1","right","112","112","112","0","0","112","112","0","0","112","112","112","0","112","0","Thu Oct 19 21:43:06 2023","The main experiment item","False","SternbergTask.osexp","/Users/xaleyelyse/Desktop","False","mono","False","18","no","white","no","yes","768","legacy","100","11","/Users/xaleyelyse/Downloads/XWsubject_3.csv","legacy","1 7 5 2 9","Melodramatic Milgram","4.0.5","0","n","0","right","left","left","right","NA","628.0","33648","6791","628","NA","2","legacy","5","1024","2","48000","-16","experiment","3","odd","3","706050","702815","703843","1869","113982","703846","408224","1923","107191","704848","708052","708681","35590","708052","NA","Sternberg Task","108","73844.0","113","1024"
"95","95","653","653","#3d3846","experiment","legacy","legacy","legacy","1","undefined","1","left","113","113","113","0","0","113","113","0","0","113","113","113","0","113","0","Thu Oct 19 21:43:06 2023","The main experiment item","False","SternbergTask.osexp","/Users/xaleyelyse/Desktop","False","mono","False","18","no","white","no","yes","768","legacy","101","11","/Users/xaleyelyse/Downloads/XWsubject_3.csv","legacy","9 4 2","Melodramatic Milgram","4.0.5","1","y","0","left","left","left","left","NA","621.0","33648","6791","621","NA","2","legacy","3","1024","2","48000","-16","experiment","3","odd","9","711922","708684","709715","1869","113982","709717","408224","1923","107191","710720","713925","714547","35590","713925","NA","Sternberg Task","109","74465.0","114","1024"
"95","95","652","652","#3d3846","experiment","legacy","legacy","legacy","1","undefined","1","left","114","114","114","0","0","114","114","0","0","114","114","114","0","114","0","Thu Oct 19 21:43:06 2023","The main experiment item","False","SternbergTask.osexp","/Users/xaleyelyse/Desktop","False","mono","False","18","no","white","no","yes","768","legacy","102","11","/Users/xaleyelyse/Downloads/XWsubject_3.csv","legacy","2 3 7 4","Melodramatic Milgram","4.0.5","1","y","0","left","left","left","left","NA","529.0","33648","6791","529","NA","2","legacy","4","1024","2","48000","-16","experiment","3","odd","2","717794","714550","715586","1869","113982","715589","408224","1923","107191","716591","719796","720326","35590","719796","NA","Sternberg Task","110","74994.0","115","1024"
"95","95","651","651","#3d3846","experiment","legacy","legacy","legacy","1","undefined","1","left","115","115","115","0","0","115","115","0","0","115","115","115","0","115","0","Thu Oct 19 21:43:06 2023","The main experiment item","False","SternbergTask.osexp","/Users/xaleyelyse/Desktop","False","mono","False","18","no","white","no","yes","768","legacy","103","11","/Users/xaleyelyse/Downloads/XWsubject_3.csv","legacy","9 6 2 4 1","Melodramatic Milgram","4.0.5","4","y","0","left","left","left","left","NA","600.0","33648","6791","600","NA","2","legacy","5","1024","2","48000","-16","experiment","3","odd","4","723570","720328","721364","1869","113982","721366","408224","1923","107191","722368","725573","726174","35590","725573","NA","Sternberg Task","111","75594.0","116","1024"
"95","95","653","653","#3d3846","experiment","legacy","legacy","legacy","1","undefined","1","left","116","116","116","0","0","116","116","0","0","116","116","116","0","116","0","Thu Oct 19 21:43:06 2023","The main experiment item","False","SternbergTask.osexp","/Users/xaleyelyse/Desktop","False","mono","False","18","no","white","no","yes","768","legacy","104","11","/Users/xaleyelyse/Downloads/XWsubject_3.csv","legacy","7 8 4 6 9 5","Melodramatic Milgram","4.0.5","4","y","0","left","left","left","left","NA","908.0","33648","6791","908","NA","2","legacy","6","1024","2","48000","-16","experiment","3","odd","6","729420","726177","727213","1869","113982","727216","408224","1923","107191","728218","731422","732331","35590","731422","NA","Sternberg Task","112","76502.0","117","1024"
"95","95","663","663","#3d3846","experiment","legacy","legacy","legacy","1","undefined","1","right","117","117","117","0","0","117","117","0","0","117","117","117","0","117","0","Thu Oct 19 21:43:06 2023","The main experiment item","False","SternbergTask.osexp","/Users/xaleyelyse/Desktop","False","mono","False","18","no","white","no","yes","768","legacy","105","11","/Users/xaleyelyse/Downloads/XWsubject_3.csv","legacy","6 9 4 5 3 2","Melodramatic Milgram","4.0.5","0","n","0","right","left","left","right","NA","1749.0","33648","6791","1749","NA","2","legacy","6","1024","2","48000","-16","experiment","3","odd","8","735585","732334","733378","1869","113982","733380","408224","1923","107191","734382","737587","739337","35590","737587","NA","Sternberg Task","113","78251.0","118","1024"
"95","95","662","662","#3d3846","experiment","legacy","legacy","legacy","1","undefined","1","left","118","118","118","0","0","118","118","0","0","118","118","118","0","118","0","Thu Oct 19 21:43:06 2023","The main experiment item","False","SternbergTask.osexp","/Users/xaleyelyse/Desktop","False","mono","False","18","no","white","no","yes","768","legacy","106","11","/Users/xaleyelyse/Downloads/XWsubject_3.csv","legacy","9 3 1 2 5","Melodramatic Milgram","4.0.5","4","y","0","left","left","left","left","NA","562.0","33648","6791","562","NA","2","legacy","5","1024","2","48000","-16","experiment","3","odd","2","742573","739339","740368","1869","113982","740369","408224","1923","107191","741371","744575","745139","35590","744575","NA","Sternberg Task","114","78813.0","119","1024"
"95","95","664","664","#3d3846","experiment","legacy","legacy","legacy","1","undefined","1","right","119","119","119","0","0","119","119","0","0","119","119","119","0","119","0","Thu Oct 19 21:43:06 2023","The main experiment item","False","SternbergTask.osexp","/Users/xaleyelyse/Desktop","False","mono","False","18","no","white","no","yes","768","legacy","107","11","/Users/xaleyelyse/Downloads/XWsubject_3.csv","legacy","3 4 9 6 7 8","Melodramatic Milgram","4.0.5","0","n","0","right","left","left","right","NA","876.0","33648","6791","876","NA","2","legacy","6","1024","2","48000","-16","experiment","3","odd","2","748381","745141","746174","1869","113982","746176","408224","1923","107191","747178","750383","751261","35590","750383","NA","Sternberg Task","115","79689.0","120","1024"
"95","95","662","662","#3d3846","experiment","legacy","legacy","legacy","1","undefined","1","left","120","120","120","0","0","120","120","0","0","120","120","120","0","120","0","Thu Oct 19 21:43:06 2023","The main experiment item","False","SternbergTask.osexp","/Users/xaleyelyse/Desktop","False","mono","False","18","no","white","no","yes","768","legacy","108","11","/Users/xaleyelyse/Downloads/XWsubject_3.csv","legacy","5 2 6","Melodramatic Milgram","4.0.5","2","y","0","left","left","left","left","NA","490.0","33648","6791","490","NA","2","legacy","3","1024","2","48000","-16","experiment","3","odd","2","754506","751264","752299","1869","113982","752301","408224","1923","107191","753304","756508","756999","35590","756508","NA","Sternberg Task","116","80179.0","121","1024"
"95","95","664","664","#3d3846","experiment","legacy","legacy","legacy","1","undefined","1","right","121","121","121","0","0","121","121","0","0","121","121","121","0","121","0","Thu Oct 19 21:43:06 2023","The main experiment item","False","SternbergTask.osexp","/Users/xaleyelyse/Desktop","False","mono","False","18","no","white","no","yes","768","legacy","109","11","/Users/xaleyelyse/Downloads/XWsubject_3.csv","legacy","8 5 7 3 6","Melodramatic Milgram","4.0.5","0","n","0","right","left","left","right","NA","856.0","33648","6791","856","NA","2","legacy","5","1024","2","48000","-16","experiment","3","odd","9","760245","757002","758038","1869","113982","758041","408224","1923","107191","759043","762247","763104","35590","762247","NA","Sternberg Task","117","81035.0","122","1024"
"95","95","664","664","#3d3846","experiment","legacy","legacy","legacy","1","undefined","1","left","122","122","122","0","0","122","122","0","0","122","122","122","0","122","0","Thu Oct 19 21:43:06 2023","The main experiment item","False","SternbergTask.osexp","/Users/xaleyelyse/Desktop","False","mono","False","18","no","white","no","yes","768","legacy","110","11","/Users/xaleyelyse/Downloads/XWsubject_3.csv","legacy","8 5 1 3 9","Melodramatic Milgram","4.0.5","4","y","0","left","left","left","left","NA","704.0","33648","6791","704","NA","2","legacy","5","1024","2","48000","-16","experiment","3","odd","3","766347","763106","764141","1869","113982","764143","408224","1923","107191","765145","768349","769054","35590","768349","NA","Sternberg Task","118","81739.0","123","1024"
"95","95","663","663","#3d3846","experiment","legacy","legacy","legacy","1","undefined","1","left","123","123","123","0","0","123","123","0","0","123","123","123","0","123","0","Thu Oct 19 21:43:06 2023","The main experiment item","False","SternbergTask.osexp","/Users/xaleyelyse/Desktop","False","mono","False","18","no","white","no","yes","768","legacy","111","11","/Users/xaleyelyse/Downloads/XWsubject_3.csv","legacy","8 9 5 7 1 6","Melodramatic Milgram","4.0.5","4","y","0","left","left","left","left","NA","567.0","33648","6791","567","NA","2","legacy","6","1024","2","48000","-16","experiment","3","odd","7","772309","769057","770102","1869","113982","770104","408224","1923","107191","771106","774311","774879","35590","774311","NA","Sternberg Task","119","82306.0","124","1024"
"96","96","663","663","#3d3846","experiment","legacy","legacy","legacy","1","undefined","1","right","124","124","124","0","0","124","124","0","0","124","124","124","0","124","0","Thu Oct 19 21:43:06 2023","The main experiment item","False","SternbergTask.osexp","/Users/xaleyelyse/Desktop","False","mono","False","18","no","white","no","yes","768","legacy","112","11","/Users/xaleyelyse/Downloads/XWsubject_3.csv","legacy","5 3 2 6 9 8","Melodramatic Milgram","4.0.5","0","n","0","right","left","left","right","NA","686.0","33648","6791","686","NA","2","legacy","6","1024","2","48000","-16","experiment","3","odd","4","778116","774882","775910","1869","113982","775912","408224","1923","107191","776914","780118","780805","35590","780118","NA","Sternberg Task","120","82992.0","125","1024"
"95","95","665","665","#3d3846","experiment","legacy","legacy","legacy","0","undefined","0","right","125","125","125","0","0","125","125","0","0","125","125","125","0","125","0","Thu Oct 19 21:43:06 2023","The main experiment item","False","SternbergTask.osexp","/Users/xaleyelyse/Desktop","False","mono","False","18","no","white","no","yes","768","legacy","113","11","/Users/xaleyelyse/Downloads/XWsubject_3.csv","legacy","8 9","Melodramatic Milgram","4.0.5","0","n","0","left","left","left","left","NA","858.0","33648","6791","858","NA","2","legacy","2","1024","2","48000","-16","experiment","3","odd","5","784047","780808","781840","1869","113982","781842","408224","1923","107191","782844","786049","786908","35590","786049","NA","Sternberg Task","120","83850.0","126","1024"
"95","95","670","670","#3d3846","experiment","legacy","legacy","legacy","1","undefined","1","left","126","126","126","0","0","126","126","0","0","126","126","126","0","126","0","Thu Oct 19 21:43:06 2023","The main experiment item","False","SternbergTask.osexp","/Users/xaleyelyse/Desktop","False","mono","False","18","no","white","no","yes","768","legacy","114","11","/Users/xaleyelyse/Downloads/XWsubject_3.csv","legacy","6 8 9 3 4 9","Melodramatic Milgram","4.0.5","5","y","0","left","left","left","left","NA","1281.0","33648","6791","1281","NA","2","legacy","6","1024","2","48000","-16","experiment","3","odd","4","790153","780808","787947","1869","113982","787949","786910","1923","107191","788951","792155","793437","35590","792155","NA","Sternberg Task","121","85131.0","127","1024"
