"acc","accuracy","average_response_time","avg_rt","background","block","canvas_backend","clock_backend","color_backend","compensation","coordinates","correct","correct_instruction1","correct_keyboard_response","correct_response","count_Instructions2","count_correctFeedback","count_experiment","count_experiment_loop","count_fixation","count_incorrectFeedback","count_instruction1","count_isi","count_keyboard_response","count_logger","count_memory_set","count_practiceloop","count_probe","count_thankYou","count_x_sequence","datetime","description","disable_garbage_collection","experiment_file","experiment_path","font_bold","font_family","font_italic","font_size","font_underline","foreground","form_clicks","fullscreen","height","keyboard_backend","live_row","live_row_practiceloop","logfile","mouse_backend","numberSet","opensesame_codename","opensesame_version","posInSet","present","repeat_cycle","response","response_Instructions2","response_instruction1","response_keyboard_response","response_thankYou","response_time","response_time_Instructions2","response_time_instruction1","response_time_keyboard_response","response_time_thankYou","round_decimals","sampler_backend","setSize","sound_buf_size","sound_channels","sound_freq","sound_sample_size","start","subject_nr","subject_parity","target","time_Instructions2","time_correctFeedback","time_experiment","time_experiment_loop","time_fixation","time_incorrectFeedback","time_instruction1","time_isi","time_keyboard_response","time_logger","time_memory_set","time_practiceloop","time_probe","time_thankYou","time_x_sequence","title","total_correct","total_response_time","total_responses","uniform_coordinates","width"
"100","100","1260","1260","black","practice","legacy","legacy","legacy","0","uniform","1","undefined","1","right","0","0","0","0","0","0","0","0","0","0","0","0","0","0","0","10/17/21 16:14:20","The main experiment item","yes","SternburgTask.osexp","C:/Users/borna.000/Documents/PSYC/PSYC5316/Sternburg","no","mono","no","18","no","white","no","yes","768","legacy","0","0","C:/Users/borna.000/Documents/PSYC/PSYC5316/Sternburg/DH-subject-3.csv","legacy","3 1 9 4","Lentiform Loewenfeld","3.3.9","0","n","0","right","NA","right","right","NA","1260","NA","174560","1260","NA","2","legacy","4","1024","2","48000","-16","experiment","3","odd","6","NA","NA","2238","NA","177572","NA","2241","179775","181776","183036","178573","176803","181776","NA","177570","Sternburg Task","1","1260","1","yes","1024"
"50","50","892.5","892.5","black","practice","legacy","legacy","legacy","0","uniform","0","undefined","0","left","0","1","0","0","1","1","0","1","1","1","1","0","1","0","1","10/17/21 16:14:20","The main experiment item","yes","SternburgTask.osexp","C:/Users/borna.000/Documents/PSYC/PSYC5316/Sternburg","no","mono","no","18","no","white","no","yes","768","legacy","1","1","C:/Users/borna.000/Documents/PSYC/PSYC5316/Sternburg/DH-subject-3.csv","legacy","6","Lentiform Loewenfeld","3.3.9","1","y","0","right","NA","right","right","NA","525","NA","174560","525","NA","2","legacy","1","1024","2","48000","-16","experiment","3","odd","6","NA","183080","2238","NA","184158","NA","2241","186363","188366","188892","185161","176803","188365","NA","184156","Sternburg Task","1","1785","2","yes","1024"
"66.6666666667","66.6666666667","1158","1158","black","practice","legacy","legacy","legacy","0","uniform","1","undefined","1","left","0","2","0","0","2","2","0","2","2","2","2","0","2","0","2","10/17/21 16:14:20","The main experiment item","yes","SternburgTask.osexp","C:/Users/borna.000/Documents/PSYC/PSYC5316/Sternburg","no","mono","no","18","no","white","no","yes","768","legacy","2","2","C:/Users/borna.000/Documents/PSYC/PSYC5316/Sternburg/DH-subject-3.csv","legacy","4 8","Lentiform Loewenfeld","3.3.9","1","y","0","left","NA","right","left","NA","1689","NA","174560","1689","NA","2","legacy","2","1024","2","48000","-16","experiment","3","odd","4","NA","183080","2238","NA","189974","188900","2241","192180","194186","195876","190976","176803","194185","NA","189972","Sternburg Task","2","3474","3","yes","1024"
"75","75","1017.5","1017.5","black","practice","legacy","legacy","legacy","0","uniform","1","undefined","1","right","0","3","0","0","3","3","0","3","3","3","3","0","3","0","3","10/17/21 16:14:20","The main experiment item","yes","SternburgTask.osexp","C:/Users/borna.000/Documents/PSYC/PSYC5316/Sternburg","no","mono","no","18","no","white","no","yes","768","legacy","3","3","C:/Users/borna.000/Documents/PSYC/PSYC5316/Sternburg/DH-subject-3.csv","legacy","2 1","Lentiform Loewenfeld","3.3.9","0","n","0","right","NA","right","right","NA","596","NA","174560","596","NA","2","legacy","2","1024","2","48000","-16","experiment","3","odd","5","NA","195884","2238","NA","196956","188900","2241","199164","201166","201762","197959","176803","201166","NA","196954","Sternburg Task","3","4070","4","yes","1024"
"80","80","924.8","924.8","black","practice","legacy","legacy","legacy","0","uniform","1","undefined","1","right","0","4","0","0","4","4","0","4","4","4","4","0","4","0","4","10/17/21 16:14:20","The main experiment item","yes","SternburgTask.osexp","C:/Users/borna.000/Documents/PSYC/PSYC5316/Sternburg","no","mono","no","18","no","white","no","yes","768","legacy","4","4","C:/Users/borna.000/Documents/PSYC/PSYC5316/Sternburg/DH-subject-3.csv","legacy","4 1 5","Lentiform Loewenfeld","3.3.9","0","n","0","right","NA","right","right","NA","554","NA","174560","554","NA","2","legacy","3","1024","2","48000","-16","experiment","3","odd","2","NA","201771","2238","NA","202845","188900","2241","205049","207053","207608","203847","176803","207053","NA","202843","Sternburg Task","4","4624","5","yes","1024"
"66.6666666667","66.6666666667","864","864","black","practice","legacy","legacy","legacy","0","uniform","0","undefined","0","left","0","5","0","0","5","5","0","5","5","5","5","0","5","0","5","10/17/21 16:14:20","The main experiment item","yes","SternburgTask.osexp","C:/Users/borna.000/Documents/PSYC/PSYC5316/Sternburg","no","mono","no","18","no","white","no","yes","768","legacy","5","5","C:/Users/borna.000/Documents/PSYC/PSYC5316/Sternburg/DH-subject-3.csv","legacy","1 7 9 8 5","Lentiform Loewenfeld","3.3.9","4","y","0","right","NA","right","right","NA","560","NA","174560","560","NA","2","legacy","5","1024","2","48000","-16","experiment","3","odd","8","NA","207611","2238","NA","208685","188900","2241","210891","212892","213452","209689","176803","212892","NA","208683","Sternburg Task","4","5184","6","yes","1024"
"71.4285714286","71.4285714286","940.714285714","940.714285714","black","practice","legacy","legacy","legacy","0","uniform","1","undefined","1","right","0","6","0","0","6","6","0","6","6","6","6","0","6","0","6","10/17/21 16:14:20","The main experiment item","yes","SternburgTask.osexp","C:/Users/borna.000/Documents/PSYC/PSYC5316/Sternburg","no","mono","no","18","no","white","no","yes","768","legacy","6","6","C:/Users/borna.000/Documents/PSYC/PSYC5316/Sternburg/DH-subject-3.csv","legacy","5","Lentiform Loewenfeld","3.3.9","0","n","0","right","NA","right","right","NA","1401","NA","174560","1401","NA","2","legacy","1","1024","2","48000","-16","experiment","3","odd","3","NA","207611","2238","NA","214530","213455","2241","216732","218733","220134","215531","176803","218733","NA","214528","Sternburg Task","5","6585","7","yes","1024"
"75","75","910.25","910.25","black","practice","legacy","legacy","legacy","0","uniform","1","undefined","1","right","0","7","0","0","7","7","0","7","7","7","7","0","7","0","7","10/17/21 16:14:20","The main experiment item","yes","SternburgTask.osexp","C:/Users/borna.000/Documents/PSYC/PSYC5316/Sternburg","no","mono","no","18","no","white","no","yes","768","legacy","7","7","C:/Users/borna.000/Documents/PSYC/PSYC5316/Sternburg/DH-subject-3.csv","legacy","5 7 8 4 1 2","Lentiform Loewenfeld","3.3.9","0","n","0","right","NA","right","right","NA","697","NA","174560","697","NA","2","legacy","6","1024","2","48000","-16","experiment","3","odd","6","NA","220143","2238","NA","221213","213455","2241","223419","225422","226120","222216","176803","225422","NA","221211","Sternburg Task","6","7282","8","yes","1024"
"77.7777777778","77.7777777778","873.333333333","873.333333333","black","practice","legacy","legacy","legacy","0","uniform","1","undefined","1","left","0","8","0","0","8","8","0","8","8","8","8","0","8","0","8","10/17/21 16:14:20","The main experiment item","yes","SternburgTask.osexp","C:/Users/borna.000/Documents/PSYC/PSYC5316/Sternburg","no","mono","no","18","no","white","no","yes","768","legacy","8","8","C:/Users/borna.000/Documents/PSYC/PSYC5316/Sternburg/DH-subject-3.csv","legacy","1 5 2 9","Lentiform Loewenfeld","3.3.9","2","y","0","left","NA","right","left","NA","578","NA","174560","578","NA","2","legacy","4","1024","2","48000","-16","experiment","3","odd","5","NA","226128","2238","NA","227212","213455","2241","229417","231419","231998","228213","176803","231418","NA","227210","Sternburg Task","7","7860","9","yes","1024"
"80","80","846.1","846.1","black","practice","legacy","legacy","legacy","0","uniform","1","undefined","1","left","0","9","0","0","9","9","0","9","9","9","9","0","9","0","9","10/17/21 16:14:20","The main experiment item","yes","SternburgTask.osexp","C:/Users/borna.000/Documents/PSYC/PSYC5316/Sternburg","no","mono","no","18","no","white","no","yes","768","legacy","9","9","C:/Users/borna.000/Documents/PSYC/PSYC5316/Sternburg/DH-subject-3.csv","legacy","4 3 1 7 9 8","Lentiform Loewenfeld","3.3.9","1","y","0","left","NA","right","left","NA","601","NA","174560","601","NA","2","legacy","6","1024","2","48000","-16","experiment","3","odd","4","NA","232007","2238","NA","233077","213455","2241","235283","237284","237886","234080","176803","237284","NA","233075","Sternburg Task","8","8461","10","yes","1024"
"81.8181818182","81.8181818182","819.727272727","819.727272727","black","practice","legacy","legacy","legacy","0","uniform","1","undefined","1","right","0","10","0","0","10","10","0","10","10","10","10","0","10","0","10","10/17/21 16:14:20","The main experiment item","yes","SternburgTask.osexp","C:/Users/borna.000/Documents/PSYC/PSYC5316/Sternburg","no","mono","no","18","no","white","no","yes","768","legacy","10","10","C:/Users/borna.000/Documents/PSYC/PSYC5316/Sternburg/DH-subject-3.csv","legacy","9 6 7 4 5","Lentiform Loewenfeld","3.3.9","0","n","0","right","NA","right","right","NA","556","NA","174560","556","NA","2","legacy","5","1024","2","48000","-16","experiment","3","odd","3","NA","237894","2238","NA","238966","213455","2241","241170","243172","243729","239967","176803","243172","NA","238964","Sternburg Task","9","9017","11","yes","1024"
"83.3333333333","83.3333333333","813","813","black","practice","legacy","legacy","legacy","0","uniform","1","undefined","1","left","0","11","0","0","11","11","0","11","11","11","11","0","11","0","11","10/17/21 16:14:20","The main experiment item","yes","SternburgTask.osexp","C:/Users/borna.000/Documents/PSYC/PSYC5316/Sternburg","no","mono","no","18","no","white","no","yes","768","legacy","11","11","C:/Users/borna.000/Documents/PSYC/PSYC5316/Sternburg/DH-subject-3.csv","legacy","2 9 4","Lentiform Loewenfeld","3.3.9","3","y","0","left","NA","right","left","NA","739","NA","174560","739","NA","2","legacy","3","1024","2","48000","-16","experiment","3","odd","4","NA","243737","2238","NA","244807","213455","2241","247012","249013","249753","245810","176803","249013","NA","244805","Sternburg Task","10","9756","12","yes","1024"
"84.6153846154","84.6153846154","794.461538462","794.461538462","black","experiment","legacy","legacy","legacy","0","uniform","1","undefined","1","right","0","12","0","0","12","12","0","12","12","12","12","0","12","0","12","10/17/21 16:14:20","The main experiment item","yes","SternburgTask.osexp","C:/Users/borna.000/Documents/PSYC/PSYC5316/Sternburg","no","mono","no","18","no","white","no","yes","768","legacy","0","11","C:/Users/borna.000/Documents/PSYC/PSYC5316/Sternburg/DH-subject-3.csv","legacy","1 4 9 2 5","Lentiform Loewenfeld","3.3.9","0","n","0","right","left","right","right","NA","572","16114","174560","572","NA","2","legacy","5","1024","2","48000","-16","experiment","3","odd","7","250778","249761","2238","266893","266983","213455","2241","269187","271191","271763","267986","176803","271190","NA","266981","Sternburg Task","11","10328","13","yes","1024"
"85.7142857143","85.7142857143","776.5","776.5","black","experiment","legacy","legacy","legacy","0","uniform","1","undefined","1","right","0","13","0","0","13","13","0","13","13","13","13","0","13","0","13","10/17/21 16:14:20","The main experiment item","yes","SternburgTask.osexp","C:/Users/borna.000/Documents/PSYC/PSYC5316/Sternburg","no","mono","no","18","no","white","no","yes","768","legacy","1","11","C:/Users/borna.000/Documents/PSYC/PSYC5316/Sternburg/DH-subject-3.csv","legacy","2 7 5","Lentiform Loewenfeld","3.3.9","0","n","0","right","left","right","right","NA","543","16114","174560","543","NA","2","legacy","3","1024","2","48000","-16","experiment","3","odd","8","250778","271771","2238","266893","272842","213455","2241","275051","277052","277595","273846","176803","277052","NA","272840","Sternburg Task","12","10871","14","yes","1024"
"86.6666666667","86.6666666667","755.2","755.2","black","experiment","legacy","legacy","legacy","0","uniform","1","undefined","1","left","0","14","0","0","14","14","0","14","14","14","14","0","14","0","14","10/17/21 16:14:20","The main experiment item","yes","SternburgTask.osexp","C:/Users/borna.000/Documents/PSYC/PSYC5316/Sternburg","no","mono","no","18","no","white","no","yes","768","legacy","2","11","C:/Users/borna.000/Documents/PSYC/PSYC5316/Sternburg/DH-subject-3.csv","legacy","3 5 4 7","Lentiform Loewenfeld","3.3.9","1","y","0","left","left","right","left","NA","457","16114","174560","457","NA","2","legacy","4","1024","2","48000","-16","experiment","3","odd","3","250778","277604","2238","266893","278676","213455","2241","280882","282884","283341","279679","176803","282884","NA","278674","Sternburg Task","13","11328","15","yes","1024"
"87.5","87.5","744.5625","744.5625","black","experiment","legacy","legacy","legacy","0","uniform","1","undefined","1","right","0","15","0","0","15","15","0","15","15","15","15","0","15","0","15","10/17/21 16:14:20","The main experiment item","yes","SternburgTask.osexp","C:/Users/borna.000/Documents/PSYC/PSYC5316/Sternburg","no","mono","no","18","no","white","no","yes","768","legacy","3","11","C:/Users/borna.000/Documents/PSYC/PSYC5316/Sternburg/DH-subject-3.csv","legacy","1 4 3 6 5","Lentiform Loewenfeld","3.3.9","0","n","0","right","left","right","right","NA","585","16114","174560","585","NA","2","legacy","5","1024","2","48000","-16","experiment","3","odd","8","250778","283349","2238","266893","284422","213455","2241","286626","288627","289212","285424","176803","288627","NA","284420","Sternburg Task","14","11913","16","yes","1024"
"88.2352941176","88.2352941176","738","738","black","experiment","legacy","legacy","legacy","0","uniform","1","undefined","1","left","0","16","0","0","16","16","0","16","16","16","16","0","16","0","16","10/17/21 16:14:20","The main experiment item","yes","SternburgTask.osexp","C:/Users/borna.000/Documents/PSYC/PSYC5316/Sternburg","no","mono","no","18","no","white","no","yes","768","legacy","4","11","C:/Users/borna.000/Documents/PSYC/PSYC5316/Sternburg/DH-subject-3.csv","legacy","6 7 9 3 1 2","Lentiform Loewenfeld","3.3.9","1","y","0","left","left","right","left","NA","633","16114","174560","633","NA","2","legacy","6","1024","2","48000","-16","experiment","3","odd","6","250778","289220","2238","266893","290293","213455","2241","292499","294503","295137","291296","176803","294502","NA","290291","Sternburg Task","15","12546","17","yes","1024"
"88.8888888889","88.8888888889","727.333333333","727.333333333","black","experiment","legacy","legacy","legacy","0","uniform","1","undefined","1","left","0","17","0","0","17","17","0","17","17","17","17","0","17","0","17","10/17/21 16:14:20","The main experiment item","yes","SternburgTask.osexp","C:/Users/borna.000/Documents/PSYC/PSYC5316/Sternburg","no","mono","no","18","no","white","no","yes","768","legacy","5","11","C:/Users/borna.000/Documents/PSYC/PSYC5316/Sternburg/DH-subject-3.csv","legacy","7","Lentiform Loewenfeld","3.3.9","1","y","0","left","left","right","left","NA","546","16114","174560","546","NA","2","legacy","1","1024","2","48000","-16","experiment","3","odd","7","250778","295145","2238","266893","296221","213455","2241","298424","300425","300972","297222","176803","300425","NA","296219","Sternburg Task","16","13092","18","yes","1024"
"89.4736842105","89.4736842105","719.315789474","719.315789474","black","experiment","legacy","legacy","legacy","0","uniform","1","undefined","1","right","0","18","0","0","18","18","0","18","18","18","18","0","18","0","18","10/17/21 16:14:20","The main experiment item","yes","SternburgTask.osexp","C:/Users/borna.000/Documents/PSYC/PSYC5316/Sternburg","no","mono","no","18","no","white","no","yes","768","legacy","6","11","C:/Users/borna.000/Documents/PSYC/PSYC5316/Sternburg/DH-subject-3.csv","legacy","9 5 3 2 8 6","Lentiform Loewenfeld","3.3.9","0","n","0","right","left","right","right","NA","575","16114","174560","575","NA","2","legacy","6","1024","2","48000","-16","experiment","3","odd","7","250778","300980","2238","266893","302059","213455","2241","304266","306267","306843","303061","176803","306267","NA","302057","Sternburg Task","17","13667","19","yes","1024"
"90","90","710.4","710.4","black","experiment","legacy","legacy","legacy","0","uniform","1","undefined","1","left","0","19","0","0","19","19","0","19","19","19","19","0","19","0","19","10/17/21 16:14:20","The main experiment item","yes","SternburgTask.osexp","C:/Users/borna.000/Documents/PSYC/PSYC5316/Sternburg","no","mono","no","18","no","white","no","yes","768","legacy","7","11","C:/Users/borna.000/Documents/PSYC/PSYC5316/Sternburg/DH-subject-3.csv","legacy","8 5 4 7 3 1","Lentiform Loewenfeld","3.3.9","2","y","0","left","left","right","left","NA","541","16114","174560","541","NA","2","legacy","6","1024","2","48000","-16","experiment","3","odd","5","250778","306851","2238","266893","307921","213455","2241","310127","312132","312674","308922","176803","312131","NA","307919","Sternburg Task","18","14208","20","yes","1024"
"90.4761904762","90.4761904762","719.476190476","719.476190476","black","experiment","legacy","legacy","legacy","0","uniform","1","undefined","1","left","0","20","0","0","20","20","0","20","20","20","20","0","20","0","20","10/17/21 16:14:20","The main experiment item","yes","SternburgTask.osexp","C:/Users/borna.000/Documents/PSYC/PSYC5316/Sternburg","no","mono","no","18","no","white","no","yes","768","legacy","8","11","C:/Users/borna.000/Documents/PSYC/PSYC5316/Sternburg/DH-subject-3.csv","legacy","3 5 7 1","Lentiform Loewenfeld","3.3.9","3","y","0","left","left","right","left","NA","901","16114","174560","901","NA","2","legacy","4","1024","2","48000","-16","experiment","3","odd","7","250778","312682","2238","266893","313755","213455","2241","315960","317965","318867","314757","176803","317964","NA","313753","Sternburg Task","19","15109","21","yes","1024"
"90.9090909091","90.9090909091","708.863636364","708.863636364","black","experiment","legacy","legacy","legacy","0","uniform","1","undefined","1","right","0","21","0","0","21","21","0","21","21","21","21","0","21","0","21","10/17/21 16:14:20","The main experiment item","yes","SternburgTask.osexp","C:/Users/borna.000/Documents/PSYC/PSYC5316/Sternburg","no","mono","no","18","no","white","no","yes","768","legacy","9","11","C:/Users/borna.000/Documents/PSYC/PSYC5316/Sternburg/DH-subject-3.csv","legacy","3 4 2","Lentiform Loewenfeld","3.3.9","0","n","0","right","left","right","right","NA","486","16114","174560","486","NA","2","legacy","3","1024","2","48000","-16","experiment","3","odd","5","250778","318875","2238","266893","319951","213455","2241","322156","324161","324648","320953","176803","324161","NA","319949","Sternburg Task","20","15595","22","yes","1024"
"91.3043478261","91.3043478261","699.52173913","699.52173913","black","experiment","legacy","legacy","legacy","0","uniform","1","undefined","1","right","0","22","0","0","22","22","0","22","22","22","22","0","22","0","22","10/17/21 16:14:20","The main experiment item","yes","SternburgTask.osexp","C:/Users/borna.000/Documents/PSYC/PSYC5316/Sternburg","no","mono","no","18","no","white","no","yes","768","legacy","10","11","C:/Users/borna.000/Documents/PSYC/PSYC5316/Sternburg/DH-subject-3.csv","legacy","5 9 2 3","Lentiform Loewenfeld","3.3.9","0","n","0","right","left","right","right","NA","494","16114","174560","494","NA","2","legacy","4","1024","2","48000","-16","experiment","3","odd","8","250778","324656","2238","266893","325727","213455","2241","327931","329935","330430","326728","176803","329935","NA","325725","Sternburg Task","21","16089","23","yes","1024"
"91.6666666667","91.6666666667","690.75","690.75","black","experiment","legacy","legacy","legacy","0","uniform","1","undefined","1","right","0","23","0","0","23","23","0","23","23","23","23","0","23","0","23","10/17/21 16:14:20","The main experiment item","yes","SternburgTask.osexp","C:/Users/borna.000/Documents/PSYC/PSYC5316/Sternburg","no","mono","no","18","no","white","no","yes","768","legacy","11","11","C:/Users/borna.000/Documents/PSYC/PSYC5316/Sternburg/DH-subject-3.csv","legacy","4 1","Lentiform Loewenfeld","3.3.9","0","n","0","right","left","right","right","NA","489","16114","174560","489","NA","2","legacy","2","1024","2","48000","-16","experiment","3","odd","6","250778","330438","2238","266893","331516","213455","2241","333719","335720","336210","332517","176803","335720","NA","331514","Sternburg Task","22","16578","24","yes","1024"
"92","92","685.2","685.2","black","experiment","legacy","legacy","legacy","0","uniform","1","undefined","1","right","0","24","0","0","24","24","0","24","24","24","24","0","24","0","24","10/17/21 16:14:20","The main experiment item","yes","SternburgTask.osexp","C:/Users/borna.000/Documents/PSYC/PSYC5316/Sternburg","no","mono","no","18","no","white","no","yes","768","legacy","12","11","C:/Users/borna.000/Documents/PSYC/PSYC5316/Sternburg/DH-subject-3.csv","legacy","1 7 8 3 9","Lentiform Loewenfeld","3.3.9","0","n","0","right","left","right","right","NA","552","16114","174560","552","NA","2","legacy","5","1024","2","48000","-16","experiment","3","odd","2","250778","336218","2238","266893","337290","213455","2241","339496","341501","342054","338293","176803","341501","NA","337288","Sternburg Task","23","17130","25","yes","1024"
"92.3076923077","92.3076923077","677.884615385","677.884615385","black","experiment","legacy","legacy","legacy","0","uniform","1","undefined","1","left","0","25","0","0","25","25","0","25","25","25","25","0","25","0","25","10/17/21 16:14:20","The main experiment item","yes","SternburgTask.osexp","C:/Users/borna.000/Documents/PSYC/PSYC5316/Sternburg","no","mono","no","18","no","white","no","yes","768","legacy","13","11","C:/Users/borna.000/Documents/PSYC/PSYC5316/Sternburg/DH-subject-3.csv","legacy","3 9 7 6 4","Lentiform Loewenfeld","3.3.9","3","y","0","left","left","right","left","NA","495","16114","174560","495","NA","2","legacy","5","1024","2","48000","-16","experiment","3","odd","7","250778","342062","2238","266893","343133","213455","2241","345342","347344","347839","344137","176803","347344","NA","343131","Sternburg Task","24","17625","26","yes","1024"
"92.5925925926","92.5925925926","670.703703704","670.703703704","black","experiment","legacy","legacy","legacy","0","uniform","1","undefined","1","right","0","26","0","0","26","26","0","26","26","26","26","0","26","0","26","10/17/21 16:14:20","The main experiment item","yes","SternburgTask.osexp","C:/Users/borna.000/Documents/PSYC/PSYC5316/Sternburg","no","mono","no","18","no","white","no","yes","768","legacy","14","11","C:/Users/borna.000/Documents/PSYC/PSYC5316/Sternburg/DH-subject-3.csv","legacy","1 4 9 3","Lentiform Loewenfeld","3.3.9","0","n","0","right","left","right","right","NA","484","16114","174560","484","NA","2","legacy","4","1024","2","48000","-16","experiment","3","odd","5","250778","347847","2238","266893","348918","213455","2241","351123","353126","353611","349921","176803","353126","NA","348916","Sternburg Task","25","18109","27","yes","1024"
"92.8571428571","92.8571428571","665.642857143","665.642857143","black","experiment","legacy","legacy","legacy","0","uniform","1","undefined","1","right","0","27","0","0","27","27","0","27","27","27","27","0","27","0","27","10/17/21 16:14:20","The main experiment item","yes","SternburgTask.osexp","C:/Users/borna.000/Documents/PSYC/PSYC5316/Sternburg","no","mono","no","18","no","white","no","yes","768","legacy","15","11","C:/Users/borna.000/Documents/PSYC/PSYC5316/Sternburg/DH-subject-3.csv","legacy","2 6 4 3 9","Lentiform Loewenfeld","3.3.9","0","n","0","right","left","right","right","NA","529","16114","174560","529","NA","2","legacy","5","1024","2","48000","-16","experiment","3","odd","1","250778","353619","2238","266893","354692","213455","2241","356896","358900","359429","355694","176803","358900","NA","354690","Sternburg Task","26","18638","28","yes","1024"
"93.1034482759","93.1034482759","660.620689655","660.620689655","black","experiment","legacy","legacy","legacy","0","uniform","1","undefined","1","right","0","28","0","0","28","28","0","28","28","28","28","0","28","0","28","10/17/21 16:14:20","The main experiment item","yes","SternburgTask.osexp","C:/Users/borna.000/Documents/PSYC/PSYC5316/Sternburg","no","mono","no","18","no","white","no","yes","768","legacy","16","11","C:/Users/borna.000/Documents/PSYC/PSYC5316/Sternburg/DH-subject-3.csv","legacy","2 3 8 5 6 7","Lentiform Loewenfeld","3.3.9","0","n","0","right","left","right","right","NA","520","16114","174560","520","NA","2","legacy","6","1024","2","48000","-16","experiment","3","odd","1","250778","359437","2238","266893","360511","213455","2241","362716","364718","365239","361512","176803","364718","NA","360509","Sternburg Task","27","19158","29","yes","1024"
"93.3333333333","93.3333333333","654.266666667","654.266666667","black","experiment","legacy","legacy","legacy","0","uniform","1","undefined","1","left","0","29","0","0","29","29","0","29","29","29","29","0","29","0","29","10/17/21 16:14:20","The main experiment item","yes","SternburgTask.osexp","C:/Users/borna.000/Documents/PSYC/PSYC5316/Sternburg","no","mono","no","18","no","white","no","yes","768","legacy","17","11","C:/Users/borna.000/Documents/PSYC/PSYC5316/Sternburg/DH-subject-3.csv","legacy","8 7 3","Lentiform Loewenfeld","3.3.9","1","y","0","left","left","right","left","NA","470","16114","174560","470","NA","2","legacy","3","1024","2","48000","-16","experiment","3","odd","8","250778","365247","2238","266893","366319","213455","2241","368525","370526","370997","367322","176803","370526","NA","366317","Sternburg Task","28","19628","30","yes","1024"
"93.5483870968","93.5483870968","652.387096774","652.387096774","black","experiment","legacy","legacy","legacy","0","uniform","1","undefined","1","left","0","30","0","0","30","30","0","30","30","30","30","0","30","0","30","10/17/21 16:14:20","The main experiment item","yes","SternburgTask.osexp","C:/Users/borna.000/Documents/PSYC/PSYC5316/Sternburg","no","mono","no","18","no","white","no","yes","768","legacy","18","11","C:/Users/borna.000/Documents/PSYC/PSYC5316/Sternburg/DH-subject-3.csv","legacy","4 1 8 7 5","Lentiform Loewenfeld","3.3.9","3","y","0","left","left","right","left","NA","596","16114","174560","596","NA","2","legacy","5","1024","2","48000","-16","experiment","3","odd","8","250778","371005","2238","266893","372080","213455","2241","374288","376290","376886","373083","176803","376290","NA","372078","Sternburg Task","29","20224","31","yes","1024"
"93.75","93.75","647.65625","647.65625","black","experiment","legacy","legacy","legacy","0","uniform","1","undefined","1","left","0","31","0","0","31","31","0","31","31","31","31","0","31","0","31","10/17/21 16:14:20","The main experiment item","yes","SternburgTask.osexp","C:/Users/borna.000/Documents/PSYC/PSYC5316/Sternburg","no","mono","no","18","no","white","no","yes","768","legacy","19","11","C:/Users/borna.000/Documents/PSYC/PSYC5316/Sternburg/DH-subject-3.csv","legacy","9 5 8 1","Lentiform Loewenfeld","3.3.9","2","y","0","left","left","right","left","NA","501","16114","174560","501","NA","2","legacy","4","1024","2","48000","-16","experiment","3","odd","5","250778","376894","2238","266893","377964","213455","2241","380172","382173","382675","378967","176803","382173","NA","377962","Sternburg Task","30","20725","32","yes","1024"
"93.9393939394","93.9393939394","645.212121212","645.212121212","black","experiment","legacy","legacy","legacy","0","uniform","1","undefined","1","left","0","32","0","0","32","32","0","32","32","32","32","0","32","0","32","10/17/21 16:14:20","The main experiment item","yes","SternburgTask.osexp","C:/Users/borna.000/Documents/PSYC/PSYC5316/Sternburg","no","mono","no","18","no","white","no","yes","768","legacy","20","11","C:/Users/borna.000/Documents/PSYC/PSYC5316/Sternburg/DH-subject-3.csv","legacy","2 4 8 5 1 3","Lentiform Loewenfeld","3.3.9","1","y","0","left","left","right","left","NA","567","16114","174560","567","NA","2","legacy","6","1024","2","48000","-16","experiment","3","odd","2","250778","382683","2238","266893","383754","213455","2241","385958","387959","388527","384756","176803","387959","NA","383752","Sternburg Task","31","21292","33","yes","1024"
"94.1176470588","94.1176470588","644","644","black","experiment","legacy","legacy","legacy","0","uniform","1","undefined","1","right","0","33","0","0","33","33","0","33","33","33","33","0","33","0","33","10/17/21 16:14:20","The main experiment item","yes","SternburgTask.osexp","C:/Users/borna.000/Documents/PSYC/PSYC5316/Sternburg","no","mono","no","18","no","white","no","yes","768","legacy","21","11","C:/Users/borna.000/Documents/PSYC/PSYC5316/Sternburg/DH-subject-3.csv","legacy","3 9 1","Lentiform Loewenfeld","3.3.9","0","n","0","right","left","right","right","NA","604","16114","174560","604","NA","2","legacy","3","1024","2","48000","-16","experiment","3","odd","7","250778","388536","2238","266893","389611","213455","2241","391816","393819","394423","390612","176803","393819","NA","389609","Sternburg Task","32","21896","34","yes","1024"
"94.2857142857","94.2857142857","638.285714286","638.285714286","black","experiment","legacy","legacy","legacy","0","uniform","1","undefined","1","left","0","34","0","0","34","34","0","34","34","34","34","0","34","0","34","10/17/21 16:14:20","The main experiment item","yes","SternburgTask.osexp","C:/Users/borna.000/Documents/PSYC/PSYC5316/Sternburg","no","mono","no","18","no","white","no","yes","768","legacy","22","11","C:/Users/borna.000/Documents/PSYC/PSYC5316/Sternburg/DH-subject-3.csv","legacy","9 6 2 4 1","Lentiform Loewenfeld","3.3.9","4","y","0","left","left","right","left","NA","444","16114","174560","444","NA","2","legacy","5","1024","2","48000","-16","experiment","3","odd","4","250778","394432","2238","266893","395506","213455","2241","397712","399714","400159","396507","176803","399714","NA","395504","Sternburg Task","33","22340","35","yes","1024"
"94.4444444444","94.4444444444","634.722222222","634.722222222","black","experiment","legacy","legacy","legacy","0","uniform","1","undefined","1","right","0","35","0","0","35","35","0","35","35","35","35","0","35","0","35","10/17/21 16:14:20","The main experiment item","yes","SternburgTask.osexp","C:/Users/borna.000/Documents/PSYC/PSYC5316/Sternburg","no","mono","no","18","no","white","no","yes","768","legacy","23","11","C:/Users/borna.000/Documents/PSYC/PSYC5316/Sternburg/DH-subject-3.csv","legacy","9 8 2 7 4","Lentiform Loewenfeld","3.3.9","0","n","0","right","left","right","right","NA","510","16114","174560","510","NA","2","legacy","5","1024","2","48000","-16","experiment","3","odd","5","250778","400167","2238","266893","401238","213455","2241","403446","405447","405958","402241","176803","405447","NA","401236","Sternburg Task","34","22850","36","yes","1024"
"94.5945945946","94.5945945946","631.189189189","631.189189189","black","experiment","legacy","legacy","legacy","0","uniform","1","undefined","1","right","0","36","0","0","36","36","0","36","36","36","36","0","36","0","36","10/17/21 16:14:20","The main experiment item","yes","SternburgTask.osexp","C:/Users/borna.000/Documents/PSYC/PSYC5316/Sternburg","no","mono","no","18","no","white","no","yes","768","legacy","24","11","C:/Users/borna.000/Documents/PSYC/PSYC5316/Sternburg/DH-subject-3.csv","legacy","1 7 5 2 9","Lentiform Loewenfeld","3.3.9","0","n","0","right","left","right","right","NA","504","16114","174560","504","NA","2","legacy","5","1024","2","48000","-16","experiment","3","odd","3","250778","405967","2238","266893","407038","213455","2241","409243","411247","411752","408040","176803","411246","NA","407037","Sternburg Task","35","23354","37","yes","1024"
"92.1052631579","92.1052631579","630.657894737","630.657894737","black","experiment","legacy","legacy","legacy","0","uniform","0","undefined","0","right","0","37","0","0","37","37","0","37","37","37","37","0","37","0","37","10/17/21 16:14:20","The main experiment item","yes","SternburgTask.osexp","C:/Users/borna.000/Documents/PSYC/PSYC5316/Sternburg","no","mono","no","18","no","white","no","yes","768","legacy","25","11","C:/Users/borna.000/Documents/PSYC/PSYC5316/Sternburg/DH-subject-3.csv","legacy","1 3 2 6 9","Lentiform Loewenfeld","3.3.9","0","n","0","left","left","right","left","NA","611","16114","174560","611","NA","2","legacy","5","1024","2","48000","-16","experiment","3","odd","5","250778","411760","2238","266893","412835","213455","2241","415041","417043","417654","413837","176803","417043","NA","412833","Sternburg Task","35","23965","38","yes","1024"
"92.3076923077","92.3076923077","626.025641026","626.025641026","black","experiment","legacy","legacy","legacy","0","uniform","1","undefined","1","left","0","38","0","0","38","38","0","38","38","38","38","0","38","0","38","10/17/21 16:14:20","The main experiment item","yes","SternburgTask.osexp","C:/Users/borna.000/Documents/PSYC/PSYC5316/Sternburg","no","mono","no","18","no","white","no","yes","768","legacy","26","11","C:/Users/borna.000/Documents/PSYC/PSYC5316/Sternburg/DH-subject-3.csv","legacy","4","Lentiform Loewenfeld","3.3.9","1","y","0","left","left","right","left","NA","450","16114","174560","450","NA","2","legacy","1","1024","2","48000","-16","experiment","3","odd","4","250778","411760","2238","266893","418737","417662","2241","420943","422944","423395","419741","176803","422944","NA","418735","Sternburg Task","36","24415","39","yes","1024"
"92.5","92.5","624.75","624.75","black","experiment","legacy","legacy","legacy","0","uniform","1","undefined","1","right","0","39","0","0","39","39","0","39","39","39","39","0","39","0","39","10/17/21 16:14:20","The main experiment item","yes","SternburgTask.osexp","C:/Users/borna.000/Documents/PSYC/PSYC5316/Sternburg","no","mono","no","18","no","white","no","yes","768","legacy","27","11","C:/Users/borna.000/Documents/PSYC/PSYC5316/Sternburg/DH-subject-3.csv","legacy","4 2 6 9","Lentiform Loewenfeld","3.3.9","0","n","0","right","left","right","right","NA","575","16114","174560","575","NA","2","legacy","4","1024","2","48000","-16","experiment","3","odd","7","250778","423399","2238","266893","424472","417662","2241","426678","428681","429257","425474","176803","428681","NA","424470","Sternburg Task","37","24990","40","yes","1024"
"92.6829268293","92.6829268293","624.292682927","624.292682927","black","experiment","legacy","legacy","legacy","0","uniform","1","undefined","1","right","0","40","0","0","40","40","0","40","40","40","40","0","40","0","40","10/17/21 16:14:20","The main experiment item","yes","SternburgTask.osexp","C:/Users/borna.000/Documents/PSYC/PSYC5316/Sternburg","no","mono","no","18","no","white","no","yes","768","legacy","28","11","C:/Users/borna.000/Documents/PSYC/PSYC5316/Sternburg/DH-subject-3.csv","legacy","8 5 7 3 6","Lentiform Loewenfeld","3.3.9","0","n","0","right","left","right","right","NA","606","16114","174560","606","NA","2","legacy","5","1024","2","48000","-16","experiment","3","odd","9","250778","429265","2238","266893","430339","417662","2241","432545","434547","435154","431341","176803","434547","NA","430337","Sternburg Task","38","25596","41","yes","1024"
"92.8571428571","92.8571428571","622.666666667","622.666666667","black","experiment","legacy","legacy","legacy","0","uniform","1","undefined","1","right","0","41","0","0","41","41","0","41","41","41","41","0","41","0","41","10/17/21 16:14:20","The main experiment item","yes","SternburgTask.osexp","C:/Users/borna.000/Documents/PSYC/PSYC5316/Sternburg","no","mono","no","18","no","white","no","yes","768","legacy","29","11","C:/Users/borna.000/Documents/PSYC/PSYC5316/Sternburg/DH-subject-3.csv","legacy","6 9 7 3 8 2","Lentiform Loewenfeld","3.3.9","0","n","0","right","left","right","right","NA","556","16114","174560","556","NA","2","legacy","6","1024","2","48000","-16","experiment","3","odd","5","250778","435162","2238","266893","436233","417662","2241","438438","440441","440998","437235","176803","440441","NA","436231","Sternburg Task","39","26152","42","yes","1024"
"93.023255814","93.023255814","623.348837209","623.348837209","black","experiment","legacy","legacy","legacy","0","uniform","1","undefined","1","right","0","42","0","0","42","42","0","42","42","42","42","0","42","0","42","10/17/21 16:14:20","The main experiment item","yes","SternburgTask.osexp","C:/Users/borna.000/Documents/PSYC/PSYC5316/Sternburg","no","mono","no","18","no","white","no","yes","768","legacy","30","11","C:/Users/borna.000/Documents/PSYC/PSYC5316/Sternburg/DH-subject-3.csv","legacy","1 6 4 3 9 7","Lentiform Loewenfeld","3.3.9","0","n","0","right","left","right","right","NA","652","16114","174560","652","NA","2","legacy","6","1024","2","48000","-16","experiment","3","odd","8","250778","441006","2238","266893","442082","417662","2241","444286","446288","446941","443083","176803","446288","NA","442080","Sternburg Task","40","26804","43","yes","1024"
"93.1818181818","93.1818181818","620.931818182","620.931818182","black","experiment","legacy","legacy","legacy","0","uniform","1","undefined","1","right","0","43","0","0","43","43","0","43","43","43","43","0","43","0","43","10/17/21 16:14:20","The main experiment item","yes","SternburgTask.osexp","C:/Users/borna.000/Documents/PSYC/PSYC5316/Sternburg","no","mono","no","18","no","white","no","yes","768","legacy","31","11","C:/Users/borna.000/Documents/PSYC/PSYC5316/Sternburg/DH-subject-3.csv","legacy","1 6 4","Lentiform Loewenfeld","3.3.9","0","n","0","right","left","right","right","NA","517","16114","174560","517","NA","2","legacy","3","1024","2","48000","-16","experiment","3","odd","7","250778","446949","2238","266893","448022","417662","2241","450225","452227","452745","449023","176803","452227","NA","448021","Sternburg Task","41","27321","44","yes","1024"
"93.3333333333","93.3333333333","618.822222222","618.822222222","black","experiment","legacy","legacy","legacy","0","uniform","1","undefined","1","right","0","44","0","0","44","44","0","44","44","44","44","0","44","0","44","10/17/21 16:14:20","The main experiment item","yes","SternburgTask.osexp","C:/Users/borna.000/Documents/PSYC/PSYC5316/Sternburg","no","mono","no","18","no","white","no","yes","768","legacy","32","11","C:/Users/borna.000/Documents/PSYC/PSYC5316/Sternburg/DH-subject-3.csv","legacy","8 4 3 5","Lentiform Loewenfeld","3.3.9","0","n","0","right","left","right","right","NA","526","16114","174560","526","NA","2","legacy","4","1024","2","48000","-16","experiment","3","odd","6","250778","452753","2238","266893","453827","417662","2241","456035","458037","458564","454831","176803","458037","NA","453825","Sternburg Task","42","27847","45","yes","1024"
"93.4782608696","93.4782608696","617.717391304","617.717391304","black","experiment","legacy","legacy","legacy","0","uniform","1","undefined","1","left","0","45","0","0","45","45","0","45","45","45","45","0","45","0","45","10/17/21 16:14:20","The main experiment item","yes","SternburgTask.osexp","C:/Users/borna.000/Documents/PSYC/PSYC5316/Sternburg","no","mono","no","18","no","white","no","yes","768","legacy","33","11","C:/Users/borna.000/Documents/PSYC/PSYC5316/Sternburg/DH-subject-3.csv","legacy","8 5 3 7 4 6","Lentiform Loewenfeld","3.3.9","6","y","0","left","left","right","left","NA","568","16114","174560","568","NA","2","legacy","6","1024","2","48000","-16","experiment","3","odd","6","250778","458572","2238","266893","459649","417662","2241","461855","463857","464426","460654","176803","463857","NA","459647","Sternburg Task","43","28415","46","yes","1024"
"93.6170212766","93.6170212766","623.170212766","623.170212766","black","experiment","legacy","legacy","legacy","0","uniform","1","undefined","1","right","0","46","0","0","46","46","0","46","46","46","46","0","46","0","46","10/17/21 16:14:20","The main experiment item","yes","SternburgTask.osexp","C:/Users/borna.000/Documents/PSYC/PSYC5316/Sternburg","no","mono","no","18","no","white","no","yes","768","legacy","34","11","C:/Users/borna.000/Documents/PSYC/PSYC5316/Sternburg/DH-subject-3.csv","legacy","7 3 2 8","Lentiform Loewenfeld","3.3.9","0","n","0","right","left","right","right","NA","874","16114","174560","874","NA","2","legacy","4","1024","2","48000","-16","experiment","3","odd","4","250778","464434","2238","266893","465503","417662","2241","467710","469711","470586","466506","176803","469711","NA","465501","Sternburg Task","44","29289","47","yes","1024"
"93.75","93.75","627.291666667","627.291666667","black","experiment","legacy","legacy","legacy","0","uniform","1","undefined","1","left","0","47","0","0","47","47","0","47","47","47","47","0","47","0","47","10/17/21 16:14:20","The main experiment item","yes","SternburgTask.osexp","C:/Users/borna.000/Documents/PSYC/PSYC5316/Sternburg","no","mono","no","18","no","white","no","yes","768","legacy","35","11","C:/Users/borna.000/Documents/PSYC/PSYC5316/Sternburg/DH-subject-3.csv","legacy","7 1 3","Lentiform Loewenfeld","3.3.9","2","y","0","left","left","right","left","NA","821","16114","174560","821","NA","2","legacy","3","1024","2","48000","-16","experiment","3","odd","1","250778","470589","2238","266893","471660","417662","2241","473866","475868","476690","472662","176803","475868","NA","471658","Sternburg Task","45","30110","48","yes","1024"
"93.8775510204","93.8775510204","625.714285714","625.714285714","black","experiment","legacy","legacy","legacy","0","uniform","1","undefined","1","right","0","48","0","0","48","48","0","48","48","48","48","0","48","0","48","10/17/21 16:14:20","The main experiment item","yes","SternburgTask.osexp","C:/Users/borna.000/Documents/PSYC/PSYC5316/Sternburg","no","mono","no","18","no","white","no","yes","768","legacy","36","11","C:/Users/borna.000/Documents/PSYC/PSYC5316/Sternburg/DH-subject-3.csv","legacy","8 6 3 4 7","Lentiform Loewenfeld","3.3.9","0","n","0","right","left","right","right","NA","550","16114","174560","550","NA","2","legacy","5","1024","2","48000","-16","experiment","3","odd","1","250778","476697","2238","266893","477768","417662","2241","479973","481977","482527","478769","176803","481977","NA","477766","Sternburg Task","46","30660","49","yes","1024"
"94","94","622.38","622.38","black","experiment","legacy","legacy","legacy","0","uniform","1","undefined","1","left","0","49","0","0","49","49","0","49","49","49","49","0","49","0","49","10/17/21 16:14:20","The main experiment item","yes","SternburgTask.osexp","C:/Users/borna.000/Documents/PSYC/PSYC5316/Sternburg","no","mono","no","18","no","white","no","yes","768","legacy","37","11","C:/Users/borna.000/Documents/PSYC/PSYC5316/Sternburg/DH-subject-3.csv","legacy","8 1 6","Lentiform Loewenfeld","3.3.9","3","y","0","left","left","right","left","NA","459","16114","174560","459","NA","2","legacy","3","1024","2","48000","-16","experiment","3","odd","6","250778","482531","2238","266893","483602","417662","2241","485804","487806","488265","484603","176803","487806","NA","483600","Sternburg Task","47","31119","50","yes","1024"
"94.1176470588","94.1176470588","622.764705882","622.764705882","black","experiment","legacy","legacy","legacy","0","uniform","1","undefined","1","left","0","50","0","0","50","50","0","50","50","50","50","0","50","0","50","10/17/21 16:14:20","The main experiment item","yes","SternburgTask.osexp","C:/Users/borna.000/Documents/PSYC/PSYC5316/Sternburg","no","mono","no","18","no","white","no","yes","768","legacy","38","11","C:/Users/borna.000/Documents/PSYC/PSYC5316/Sternburg/DH-subject-3.csv","legacy","6 9 3 1","Lentiform Loewenfeld","3.3.9","4","y","0","left","left","right","left","NA","642","16114","174560","642","NA","2","legacy","4","1024","2","48000","-16","experiment","3","odd","1","250778","488274","2238","266893","489346","417662","2241","491549","493551","494194","490347","176803","493551","NA","489344","Sternburg Task","48","31761","51","yes","1024"
"94.2307692308","94.2307692308","623.192307692","623.192307692","black","experiment","legacy","legacy","legacy","0","uniform","1","undefined","1","right","0","51","0","0","51","51","0","51","51","51","51","0","51","0","51","10/17/21 16:14:20","The main experiment item","yes","SternburgTask.osexp","C:/Users/borna.000/Documents/PSYC/PSYC5316/Sternburg","no","mono","no","18","no","white","no","yes","768","legacy","39","11","C:/Users/borna.000/Documents/PSYC/PSYC5316/Sternburg/DH-subject-3.csv","legacy","6 9 4 5 3 2","Lentiform Loewenfeld","3.3.9","0","n","0","right","left","right","right","NA","645","16114","174560","645","NA","2","legacy","6","1024","2","48000","-16","experiment","3","odd","8","250778","494203","2238","266893","495274","417662","2241","497480","499482","500127","496275","176803","499482","NA","495272","Sternburg Task","49","32406","52","yes","1024"
"94.3396226415","94.3396226415","620.622641509","620.622641509","black","experiment","legacy","legacy","legacy","0","uniform","1","undefined","1","left","0","52","0","0","52","52","0","52","52","52","52","0","52","0","52","10/17/21 16:14:20","The main experiment item","yes","SternburgTask.osexp","C:/Users/borna.000/Documents/PSYC/PSYC5316/Sternburg","no","mono","no","18","no","white","no","yes","768","legacy","40","11","C:/Users/borna.000/Documents/PSYC/PSYC5316/Sternburg/DH-subject-3.csv","legacy","5 2 6","Lentiform Loewenfeld","3.3.9","2","y","0","left","left","right","left","NA","487","16114","174560","487","NA","2","legacy","3","1024","2","48000","-16","experiment","3","odd","2","250778","500135","2238","266893","501213","417662","2241","503418","505421","505909","502215","176803","505421","NA","501211","Sternburg Task","50","32893","53","yes","1024"
"94.4444444444","94.4444444444","626.425925926","626.425925926","black","experiment","legacy","legacy","legacy","0","uniform","1","undefined","1","right","0","53","0","0","53","53","0","53","53","53","53","0","53","0","53","10/17/21 16:14:20","The main experiment item","yes","SternburgTask.osexp","C:/Users/borna.000/Documents/PSYC/PSYC5316/Sternburg","no","mono","no","18","no","white","no","yes","768","legacy","41","11","C:/Users/borna.000/Documents/PSYC/PSYC5316/Sternburg/DH-subject-3.csv","legacy","5 3 2 6 9 8","Lentiform Loewenfeld","3.3.9","0","n","0","right","left","right","right","NA","934","16114","174560","934","NA","2","legacy","6","1024","2","48000","-16","experiment","3","odd","4","250778","505917","2238","266893","506991","417662","2241","509201","511202","512138","507995","176803","511202","NA","506989","Sternburg Task","51","33827","54","yes","1024"
"94.5454545455","94.5454545455","630","630","black","experiment","legacy","legacy","legacy","0","uniform","1","undefined","1","left","0","54","0","0","54","54","0","54","54","54","54","0","54","0","54","10/17/21 16:14:20","The main experiment item","yes","SternburgTask.osexp","C:/Users/borna.000/Documents/PSYC/PSYC5316/Sternburg","no","mono","no","18","no","white","no","yes","768","legacy","42","11","C:/Users/borna.000/Documents/PSYC/PSYC5316/Sternburg/DH-subject-3.csv","legacy","7 8 4 6 9 5","Lentiform Loewenfeld","3.3.9","4","y","0","left","left","right","left","NA","823","16114","174560","823","NA","2","legacy","6","1024","2","48000","-16","experiment","3","odd","6","250778","512146","2238","266893","513216","417662","2241","515427","517429","518252","514221","176803","517428","NA","513214","Sternburg Task","52","34650","55","yes","1024"
"94.6428571429","94.6428571429","627.875","627.875","black","experiment","legacy","legacy","legacy","0","uniform","1","undefined","1","right","0","55","0","0","55","55","0","55","55","55","55","0","55","0","55","10/17/21 16:14:20","The main experiment item","yes","SternburgTask.osexp","C:/Users/borna.000/Documents/PSYC/PSYC5316/Sternburg","no","mono","no","18","no","white","no","yes","768","legacy","43","11","C:/Users/borna.000/Documents/PSYC/PSYC5316/Sternburg/DH-subject-3.csv","legacy","5 2","Lentiform Loewenfeld","3.3.9","0","n","0","right","left","right","right","NA","511","16114","174560","511","NA","2","legacy","2","1024","2","48000","-16","experiment","3","odd","7","250778","518261","2238","266893","519332","417662","2241","521536","523540","524052","520333","176803","523540","NA","519330","Sternburg Task","53","35161","56","yes","1024"
"94.7368421053","94.7368421053","632.157894737","632.157894737","black","experiment","legacy","legacy","legacy","0","uniform","1","undefined","1","right","0","56","0","0","56","56","0","56","56","56","56","0","56","0","56","10/17/21 16:14:20","The main experiment item","yes","SternburgTask.osexp","C:/Users/borna.000/Documents/PSYC/PSYC5316/Sternburg","no","mono","no","18","no","white","no","yes","768","legacy","44","11","C:/Users/borna.000/Documents/PSYC/PSYC5316/Sternburg/DH-subject-3.csv","legacy","6 7 5 9","Lentiform Loewenfeld","3.3.9","0","n","0","right","left","right","right","NA","872","16114","174560","872","NA","2","legacy","4","1024","2","48000","-16","experiment","3","odd","2","250778","524060","2238","266893","525132","417662","2241","527334","529335","530209","526133","176803","529335","NA","525130","Sternburg Task","54","36033","57","yes","1024"
"94.8275862069","94.8275862069","639.706896552","639.706896552","black","experiment","legacy","legacy","legacy","0","uniform","1","undefined","1","left","0","57","0","0","57","57","0","57","57","57","57","0","57","0","57","10/17/21 16:14:20","The main experiment item","yes","SternburgTask.osexp","C:/Users/borna.000/Documents/PSYC/PSYC5316/Sternburg","no","mono","no","18","no","white","no","yes","768","legacy","45","11","C:/Users/borna.000/Documents/PSYC/PSYC5316/Sternburg/DH-subject-3.csv","legacy","2 6 1 7 4","Lentiform Loewenfeld","3.3.9","2","y","0","left","left","right","left","NA","1070","16114","174560","1070","NA","2","legacy","5","1024","2","48000","-16","experiment","3","odd","6","250778","530219","2238","266893","531328","417662","2241","533535","535538","536609","532331","176803","535538","NA","531326","Sternburg Task","55","37103","58","yes","1024"
"94.9152542373","94.9152542373","639.372881356","639.372881356","black","experiment","legacy","legacy","legacy","0","uniform","1","undefined","1","left","0","58","0","0","58","58","0","58","58","58","58","0","58","0","58","10/17/21 16:14:20","The main experiment item","yes","SternburgTask.osexp","C:/Users/borna.000/Documents/PSYC/PSYC5316/Sternburg","no","mono","no","18","no","white","no","yes","768","legacy","46","11","C:/Users/borna.000/Documents/PSYC/PSYC5316/Sternburg/DH-subject-3.csv","legacy","4 6 2 5 1","Lentiform Loewenfeld","3.3.9","5","y","0","left","left","right","left","NA","620","16114","174560","620","NA","2","legacy","5","1024","2","48000","-16","experiment","3","odd","1","250778","536618","2238","266893","537690","417662","2241","539895","541898","542519","538692","176803","541898","NA","537688","Sternburg Task","56","37723","59","yes","1024"
"95","95","637.683333333","637.683333333","black","experiment","legacy","legacy","legacy","0","uniform","1","undefined","1","right","0","59","0","0","59","59","0","59","59","59","59","0","59","0","59","10/17/21 16:14:20","The main experiment item","yes","SternburgTask.osexp","C:/Users/borna.000/Documents/PSYC/PSYC5316/Sternburg","no","mono","no","18","no","white","no","yes","768","legacy","47","11","C:/Users/borna.000/Documents/PSYC/PSYC5316/Sternburg/DH-subject-3.csv","legacy","7 9 1 6","Lentiform Loewenfeld","3.3.9","0","n","0","right","left","right","right","NA","538","16114","174560","538","NA","2","legacy","4","1024","2","48000","-16","experiment","3","odd","4","250778","542528","2238","266893","543601","417662","2241","545803","547805","548343","544602","176803","547805","NA","543600","Sternburg Task","57","38261","60","yes","1024"
"95.0819672131","95.0819672131","641.524590164","641.524590164","black","experiment","legacy","legacy","legacy","0","uniform","1","undefined","1","left","0","60","0","0","60","60","0","60","60","60","60","0","60","0","60","10/17/21 16:14:20","The main experiment item","yes","SternburgTask.osexp","C:/Users/borna.000/Documents/PSYC/PSYC5316/Sternburg","no","mono","no","18","no","white","no","yes","768","legacy","48","11","C:/Users/borna.000/Documents/PSYC/PSYC5316/Sternburg/DH-subject-3.csv","legacy","8 9 6 1","Lentiform Loewenfeld","3.3.9","2","y","0","left","left","right","left","NA","872","16114","174560","872","NA","2","legacy","4","1024","2","48000","-16","experiment","3","odd","9","250778","548351","2238","266893","549428","417662","2241","551632","553634","554507","550430","176803","553634","NA","549426","Sternburg Task","58","39133","61","yes","1024"
"95.1612903226","95.1612903226","638.290322581","638.290322581","black","experiment","legacy","legacy","legacy","0","uniform","1","undefined","1","left","0","61","0","0","61","61","0","61","61","61","61","0","61","0","61","10/17/21 16:14:20","The main experiment item","yes","SternburgTask.osexp","C:/Users/borna.000/Documents/PSYC/PSYC5316/Sternburg","no","mono","no","18","no","white","no","yes","768","legacy","49","11","C:/Users/borna.000/Documents/PSYC/PSYC5316/Sternburg/DH-subject-3.csv","legacy","3 4","Lentiform Loewenfeld","3.3.9","1","y","0","left","left","right","left","NA","441","16114","174560","441","NA","2","legacy","2","1024","2","48000","-16","experiment","3","odd","3","250778","554515","2238","266893","555587","417662","2241","557791","559795","560236","556588","176803","559794","NA","555585","Sternburg Task","59","39574","62","yes","1024"
"95.2380952381","95.2380952381","646.047619048","646.047619048","black","experiment","legacy","legacy","legacy","0","uniform","1","undefined","1","left","0","62","0","0","62","62","0","62","62","62","62","0","62","0","62","10/17/21 16:14:20","The main experiment item","yes","SternburgTask.osexp","C:/Users/borna.000/Documents/PSYC/PSYC5316/Sternburg","no","mono","no","18","no","white","no","yes","768","legacy","50","11","C:/Users/borna.000/Documents/PSYC/PSYC5316/Sternburg/DH-subject-3.csv","legacy","7 1 8 5 6 2","Lentiform Loewenfeld","3.3.9","2","y","0","left","left","right","left","NA","1127","16114","174560","1127","NA","2","legacy","6","1024","2","48000","-16","experiment","3","odd","1","250778","560245","2238","266893","561319","417662","2241","563526","565528","566656","562323","176803","565528","NA","561317","Sternburg Task","60","40701","63","yes","1024"
"95.3125","95.3125","646.296875","646.296875","black","experiment","legacy","legacy","legacy","0","uniform","1","undefined","1","left","0","63","0","0","63","63","0","63","63","63","63","0","63","0","63","10/17/21 16:14:20","The main experiment item","yes","SternburgTask.osexp","C:/Users/borna.000/Documents/PSYC/PSYC5316/Sternburg","no","mono","no","18","no","white","no","yes","768","legacy","51","11","C:/Users/borna.000/Documents/PSYC/PSYC5316/Sternburg/DH-subject-3.csv","legacy","5 7 3 6 2","Lentiform Loewenfeld","3.3.9","5","y","0","left","left","right","left","NA","662","16114","174560","662","NA","2","legacy","5","1024","2","48000","-16","experiment","3","odd","2","250778","566664","2238","266893","567736","417662","2241","569943","571947","572609","568737","176803","571946","NA","567734","Sternburg Task","61","41363","64","yes","1024"
"95.3846153846","95.3846153846","643.738461538","643.738461538","black","experiment","legacy","legacy","legacy","0","uniform","1","undefined","1","left","0","64","0","0","64","64","0","64","64","64","64","0","64","0","64","10/17/21 16:14:20","The main experiment item","yes","SternburgTask.osexp","C:/Users/borna.000/Documents/PSYC/PSYC5316/Sternburg","no","mono","no","18","no","white","no","yes","768","legacy","52","11","C:/Users/borna.000/Documents/PSYC/PSYC5316/Sternburg/DH-subject-3.csv","legacy","3 9 6 2","Lentiform Loewenfeld","3.3.9","4","y","0","left","left","right","left","NA","480","16114","174560","480","NA","2","legacy","4","1024","2","48000","-16","experiment","3","odd","2","250778","572618","2238","266893","573691","417662","2241","575895","577900","578381","574693","176803","577900","NA","573689","Sternburg Task","62","41843","65","yes","1024"
"95.4545454545","95.4545454545","644.409090909","644.409090909","black","experiment","legacy","legacy","legacy","0","uniform","1","undefined","1","left","0","65","0","0","65","65","0","65","65","65","65","0","65","0","65","10/17/21 16:14:20","The main experiment item","yes","SternburgTask.osexp","C:/Users/borna.000/Documents/PSYC/PSYC5316/Sternburg","no","mono","no","18","no","white","no","yes","768","legacy","53","11","C:/Users/borna.000/Documents/PSYC/PSYC5316/Sternburg/DH-subject-3.csv","legacy","6 8 9 3 4 9","Lentiform Loewenfeld","3.3.9","5","y","0","left","left","right","left","NA","688","16114","174560","688","NA","2","legacy","6","1024","2","48000","-16","experiment","3","odd","4","250778","578385","2238","266893","579458","417662","2241","581664","583665","584354","580460","176803","583665","NA","579456","Sternburg Task","63","42531","66","yes","1024"
"95.5223880597","95.5223880597","643.791044776","643.791044776","black","experiment","legacy","legacy","legacy","0","uniform","1","undefined","1","left","0","66","0","0","66","66","0","66","66","66","66","0","66","0","66","10/17/21 16:14:20","The main experiment item","yes","SternburgTask.osexp","C:/Users/borna.000/Documents/PSYC/PSYC5316/Sternburg","no","mono","no","18","no","white","no","yes","768","legacy","54","11","C:/Users/borna.000/Documents/PSYC/PSYC5316/Sternburg/DH-subject-3.csv","legacy","7 8 6 3 1","Lentiform Loewenfeld","3.3.9","5","y","0","left","left","right","left","NA","603","16114","174560","603","NA","2","legacy","5","1024","2","48000","-16","experiment","3","odd","1","250778","584362","2238","266893","585447","417662","2241","587655","589658","590262","586451","176803","589658","NA","585445","Sternburg Task","64","43134","67","yes","1024"
"95.5882352941","95.5882352941","644.573529412","644.573529412","black","experiment","legacy","legacy","legacy","0","uniform","1","undefined","1","right","0","67","0","0","67","67","0","67","67","67","67","0","67","0","67","10/17/21 16:14:20","The main experiment item","yes","SternburgTask.osexp","C:/Users/borna.000/Documents/PSYC/PSYC5316/Sternburg","no","mono","no","18","no","white","no","yes","768","legacy","55","11","C:/Users/borna.000/Documents/PSYC/PSYC5316/Sternburg/DH-subject-3.csv","legacy","7 6 4 8 1 2","Lentiform Loewenfeld","3.3.9","0","n","0","right","left","right","right","NA","697","16114","174560","697","NA","2","legacy","6","1024","2","48000","-16","experiment","3","odd","9","250778","590270","2238","266893","591346","417662","2241","593552","595556","596254","592348","176803","595556","NA","591344","Sternburg Task","65","43831","68","yes","1024"
"95.652173913","95.652173913","643.31884058","643.31884058","black","experiment","legacy","legacy","legacy","0","uniform","1","undefined","1","left","0","68","0","0","68","68","0","68","68","68","68","0","68","0","68","10/17/21 16:14:20","The main experiment item","yes","SternburgTask.osexp","C:/Users/borna.000/Documents/PSYC/PSYC5316/Sternburg","no","mono","no","18","no","white","no","yes","768","legacy","56","11","C:/Users/borna.000/Documents/PSYC/PSYC5316/Sternburg/DH-subject-3.csv","legacy","6 1 2","Lentiform Loewenfeld","3.3.9","3","y","0","left","left","right","left","NA","558","16114","174560","558","NA","2","legacy","3","1024","2","48000","-16","experiment","3","odd","2","250778","596262","2238","266893","597332","417662","2241","599537","601543","602102","598333","176803","601543","NA","597330","Sternburg Task","66","44389","69","yes","1024"
"95.7142857143","95.7142857143","642.142857143","642.142857143","black","experiment","legacy","legacy","legacy","0","uniform","1","undefined","1","right","0","69","0","0","69","69","0","69","69","69","69","0","69","0","69","10/17/21 16:14:20","The main experiment item","yes","SternburgTask.osexp","C:/Users/borna.000/Documents/PSYC/PSYC5316/Sternburg","no","mono","no","18","no","white","no","yes","768","legacy","57","11","C:/Users/borna.000/Documents/PSYC/PSYC5316/Sternburg/DH-subject-3.csv","legacy","7 1","Lentiform Loewenfeld","3.3.9","0","n","0","right","left","right","right","NA","561","16114","174560","561","NA","2","legacy","2","1024","2","48000","-16","experiment","3","odd","8","250778","602110","2238","266893","603180","417662","2241","605386","607390","607951","604182","176803","607390","NA","603178","Sternburg Task","67","44950","70","yes","1024"
"95.7746478873","95.7746478873","641.197183099","641.197183099","black","experiment","legacy","legacy","legacy","0","uniform","1","undefined","1","right","0","70","0","0","70","70","0","70","70","70","70","0","70","0","70","10/17/21 16:14:20","The main experiment item","yes","SternburgTask.osexp","C:/Users/borna.000/Documents/PSYC/PSYC5316/Sternburg","no","mono","no","18","no","white","no","yes","768","legacy","58","11","C:/Users/borna.000/Documents/PSYC/PSYC5316/Sternburg/DH-subject-3.csv","legacy","9","Lentiform Loewenfeld","3.3.9","0","n","0","right","left","right","right","NA","575","16114","174560","575","NA","2","legacy","1","1024","2","48000","-16","experiment","3","odd","6","250778","607960","2238","266893","609031","417662","2241","611235","613236","613812","610033","176803","613236","NA","609029","Sternburg Task","68","45525","71","yes","1024"
"95.8333333333","95.8333333333","642.458333333","642.458333333","black","experiment","legacy","legacy","legacy","0","uniform","1","undefined","1","left","0","71","0","0","71","71","0","71","71","71","71","0","71","0","71","10/17/21 16:14:20","The main experiment item","yes","SternburgTask.osexp","C:/Users/borna.000/Documents/PSYC/PSYC5316/Sternburg","no","mono","no","18","no","white","no","yes","768","legacy","59","11","C:/Users/borna.000/Documents/PSYC/PSYC5316/Sternburg/DH-subject-3.csv","legacy","9 1 6 7 8","Lentiform Loewenfeld","3.3.9","1","y","0","left","left","right","left","NA","732","16114","174560","732","NA","2","legacy","5","1024","2","48000","-16","experiment","3","odd","9","250778","613817","2238","266893","614887","417662","2241","617091","619093","619826","615889","176803","619093","NA","614885","Sternburg Task","69","46257","72","yes","1024"
"95.8904109589","95.8904109589","639.890410959","639.890410959","black","experiment","legacy","legacy","legacy","0","uniform","1","undefined","1","right","0","72","0","0","72","72","0","72","72","72","72","0","72","0","72","10/17/21 16:14:20","The main experiment item","yes","SternburgTask.osexp","C:/Users/borna.000/Documents/PSYC/PSYC5316/Sternburg","no","mono","no","18","no","white","no","yes","768","legacy","60","11","C:/Users/borna.000/Documents/PSYC/PSYC5316/Sternburg/DH-subject-3.csv","legacy","8 9","Lentiform Loewenfeld","3.3.9","0","n","0","right","left","right","right","NA","455","16114","174560","455","NA","2","legacy","2","1024","2","48000","-16","experiment","3","odd","5","250778","619834","2238","266893","620907","417662","2241","623112","625113","625569","621908","176803","625113","NA","620905","Sternburg Task","70","46712","73","yes","1024"
"95.9459459459","95.9459459459","637.391891892","637.391891892","black","experiment","legacy","legacy","legacy","0","uniform","1","undefined","1","right","0","73","0","0","73","73","0","73","73","73","73","0","73","0","73","10/17/21 16:14:20","The main experiment item","yes","SternburgTask.osexp","C:/Users/borna.000/Documents/PSYC/PSYC5316/Sternburg","no","mono","no","18","no","white","no","yes","768","legacy","61","11","C:/Users/borna.000/Documents/PSYC/PSYC5316/Sternburg/DH-subject-3.csv","legacy","5","Lentiform Loewenfeld","3.3.9","0","n","0","right","left","right","right","NA","455","16114","174560","455","NA","2","legacy","1","1024","2","48000","-16","experiment","3","odd","8","250778","625577","2238","266893","626652","417662","2241","628860","630865","631321","627656","176803","630864","NA","626650","Sternburg Task","71","47167","74","yes","1024"
"96","96","636.306666667","636.306666667","black","experiment","legacy","legacy","legacy","0","uniform","1","undefined","1","right","0","74","0","0","74","74","0","74","74","74","74","0","74","0","74","10/17/21 16:14:20","The main experiment item","yes","SternburgTask.osexp","C:/Users/borna.000/Documents/PSYC/PSYC5316/Sternburg","no","mono","no","18","no","white","no","yes","768","legacy","62","11","C:/Users/borna.000/Documents/PSYC/PSYC5316/Sternburg/DH-subject-3.csv","legacy","2 5 1 4","Lentiform Loewenfeld","3.3.9","0","n","0","right","left","right","right","NA","556","16114","174560","556","NA","2","legacy","4","1024","2","48000","-16","experiment","3","odd","6","250778","631329","2238","266893","632399","417662","2241","634605","636610","637167","633401","176803","636609","NA","632397","Sternburg Task","72","47723","75","yes","1024"
"96.0526315789","96.0526315789","636.802631579","636.802631579","black","experiment","legacy","legacy","legacy","0","uniform","1","undefined","1","left","0","75","0","0","75","75","0","75","75","75","75","0","75","0","75","10/17/21 16:14:20","The main experiment item","yes","SternburgTask.osexp","C:/Users/borna.000/Documents/PSYC/PSYC5316/Sternburg","no","mono","no","18","no","white","no","yes","768","legacy","63","11","C:/Users/borna.000/Documents/PSYC/PSYC5316/Sternburg/DH-subject-3.csv","legacy","2 4 6 9","Lentiform Loewenfeld","3.3.9","3","y","0","left","left","right","left","NA","674","16114","174560","674","NA","2","legacy","4","1024","2","48000","-16","experiment","3","odd","6","250778","637175","2238","266893","638253","417662","2241","640460","642462","643136","639257","176803","642462","NA","638251","Sternburg Task","73","48397","76","yes","1024"
"96.1038961039","96.1038961039","636.441558442","636.441558442","black","experiment","legacy","legacy","legacy","0","uniform","1","undefined","1","right","0","76","0","0","76","76","0","76","76","76","76","0","76","0","76","10/17/21 16:14:20","The main experiment item","yes","SternburgTask.osexp","C:/Users/borna.000/Documents/PSYC/PSYC5316/Sternburg","no","mono","no","18","no","white","no","yes","768","legacy","64","11","C:/Users/borna.000/Documents/PSYC/PSYC5316/Sternburg/DH-subject-3.csv","legacy","6 9 5","Lentiform Loewenfeld","3.3.9","0","n","0","right","left","right","right","NA","609","16114","174560","609","NA","2","legacy","3","1024","2","48000","-16","experiment","3","odd","8","250778","643145","2238","266893","644221","417662","2241","646424","648426","649035","645223","176803","648426","NA","644219","Sternburg Task","74","49006","77","yes","1024"
"96.1538461538","96.1538461538","635.858974359","635.858974359","black","experiment","legacy","legacy","legacy","0","uniform","1","undefined","1","left","0","77","0","0","77","77","0","77","77","77","77","0","77","0","77","10/17/21 16:14:20","The main experiment item","yes","SternburgTask.osexp","C:/Users/borna.000/Documents/PSYC/PSYC5316/Sternburg","no","mono","no","18","no","white","no","yes","768","legacy","65","11","C:/Users/borna.000/Documents/PSYC/PSYC5316/Sternburg/DH-subject-3.csv","legacy","2 8 5 1","Lentiform Loewenfeld","3.3.9","4","y","0","left","left","right","left","NA","591","16114","174560","591","NA","2","legacy","4","1024","2","48000","-16","experiment","3","odd","1","250778","649044","2238","266893","650117","417662","2241","652324","654327","654919","651119","176803","654327","NA","650115","Sternburg Task","75","49597","78","yes","1024"
"96.2025316456","96.2025316456","635.037974684","635.037974684","black","experiment","legacy","legacy","legacy","0","uniform","1","undefined","1","left","0","78","0","0","78","78","0","78","78","78","78","0","78","0","78","10/17/21 16:14:20","The main experiment item","yes","SternburgTask.osexp","C:/Users/borna.000/Documents/PSYC/PSYC5316/Sternburg","no","mono","no","18","no","white","no","yes","768","legacy","66","11","C:/Users/borna.000/Documents/PSYC/PSYC5316/Sternburg/DH-subject-3.csv","legacy","7 4 2 6 3 5","Lentiform Loewenfeld","3.3.9","6","y","0","left","left","right","left","NA","571","16114","174560","571","NA","2","legacy","6","1024","2","48000","-16","experiment","3","odd","5","250778","654927","2238","266893","655999","417662","2241","658205","660207","660779","657001","176803","660207","NA","655997","Sternburg Task","76","50168","79","yes","1024"
"96.25","96.25","632.6375","632.6375","black","experiment","legacy","legacy","legacy","0","uniform","1","undefined","1","left","0","79","0","0","79","79","0","79","79","79","79","0","79","0","79","10/17/21 16:14:20","The main experiment item","yes","SternburgTask.osexp","C:/Users/borna.000/Documents/PSYC/PSYC5316/Sternburg","no","mono","no","18","no","white","no","yes","768","legacy","67","11","C:/Users/borna.000/Documents/PSYC/PSYC5316/Sternburg/DH-subject-3.csv","legacy","7 6","Lentiform Loewenfeld","3.3.9","2","y","0","left","left","right","left","NA","443","16114","174560","443","NA","2","legacy","2","1024","2","48000","-16","experiment","3","odd","6","250778","660788","2238","266893","661860","417662","2241","664064","666065","666509","662862","176803","666065","NA","661858","Sternburg Task","77","50611","80","yes","1024"
"96.2962962963","96.2962962963","632.617283951","632.617283951","black","experiment","legacy","legacy","legacy","0","uniform","1","undefined","1","right","0","80","0","0","80","80","0","80","80","80","80","0","80","0","80","10/17/21 16:14:20","The main experiment item","yes","SternburgTask.osexp","C:/Users/borna.000/Documents/PSYC/PSYC5316/Sternburg","no","mono","no","18","no","white","no","yes","768","legacy","68","11","C:/Users/borna.000/Documents/PSYC/PSYC5316/Sternburg/DH-subject-3.csv","legacy","8 2 1 4 5 9","Lentiform Loewenfeld","3.3.9","0","n","0","right","left","right","right","NA","631","16114","174560","631","NA","2","legacy","6","1024","2","48000","-16","experiment","3","odd","7","250778","666518","2238","266893","667590","417662","2241","669792","671793","672425","668591","176803","671793","NA","667588","Sternburg Task","78","51242","81","yes","1024"
"96.3414634146","96.3414634146","631.304878049","631.304878049","black","experiment","legacy","legacy","legacy","0","uniform","1","undefined","1","left","0","81","0","0","81","81","0","81","81","81","81","0","81","0","81","10/17/21 16:14:20","The main experiment item","yes","SternburgTask.osexp","C:/Users/borna.000/Documents/PSYC/PSYC5316/Sternburg","no","mono","no","18","no","white","no","yes","768","legacy","69","11","C:/Users/borna.000/Documents/PSYC/PSYC5316/Sternburg/DH-subject-3.csv","legacy","2 3 7 4","Lentiform Loewenfeld","3.3.9","1","y","0","left","left","right","left","NA","525","16114","174560","525","NA","2","legacy","4","1024","2","48000","-16","experiment","3","odd","2","250778","672433","2238","266893","673504","417662","2241","675710","677712","678238","674508","176803","677712","NA","673502","Sternburg Task","79","51767","82","yes","1024"
"96.3855421687","96.3855421687","630.21686747","630.21686747","black","experiment","legacy","legacy","legacy","0","uniform","1","undefined","1","left","0","82","0","0","82","82","0","82","82","82","82","0","82","0","82","10/17/21 16:14:20","The main experiment item","yes","SternburgTask.osexp","C:/Users/borna.000/Documents/PSYC/PSYC5316/Sternburg","no","mono","no","18","no","white","no","yes","768","legacy","70","11","C:/Users/borna.000/Documents/PSYC/PSYC5316/Sternburg/DH-subject-3.csv","legacy","9 8 4","Lentiform Loewenfeld","3.3.9","1","y","0","left","left","right","left","NA","541","16114","174560","541","NA","2","legacy","3","1024","2","48000","-16","experiment","3","odd","9","250778","678247","2238","266893","679322","417662","2241","681526","683530","684071","680323","176803","683530","NA","679320","Sternburg Task","80","52308","83","yes","1024"
"96.4285714286","96.4285714286","630.869047619","630.869047619","black","experiment","legacy","legacy","legacy","0","uniform","1","undefined","1","left","0","83","0","0","83","83","0","83","83","83","83","0","83","0","83","10/17/21 16:14:20","The main experiment item","yes","SternburgTask.osexp","C:/Users/borna.000/Documents/PSYC/PSYC5316/Sternburg","no","mono","no","18","no","white","no","yes","768","legacy","71","11","C:/Users/borna.000/Documents/PSYC/PSYC5316/Sternburg/DH-subject-3.csv","legacy","4 3 2 5 8","Lentiform Loewenfeld","3.3.9","2","y","0","left","left","right","left","NA","685","16114","174560","685","NA","2","legacy","5","1024","2","48000","-16","experiment","3","odd","3","250778","684080","2238","266893","685155","417662","2241","687359","689363","690048","686157","176803","689363","NA","685153","Sternburg Task","81","52993","84","yes","1024"
"96.4705882353","96.4705882353","630.235294118","630.235294118","black","experiment","legacy","legacy","legacy","0","uniform","1","undefined","1","right","0","84","0","0","84","84","0","84","84","84","84","0","84","0","84","10/17/21 16:14:20","The main experiment item","yes","SternburgTask.osexp","C:/Users/borna.000/Documents/PSYC/PSYC5316/Sternburg","no","mono","no","18","no","white","no","yes","768","legacy","72","11","C:/Users/borna.000/Documents/PSYC/PSYC5316/Sternburg/DH-subject-3.csv","legacy","1 7 5 2","Lentiform Loewenfeld","3.3.9","0","n","0","right","left","right","right","NA","577","16114","174560","577","NA","2","legacy","4","1024","2","48000","-16","experiment","3","odd","3","250778","690057","2238","266893","691129","417662","2241","693334","695337","695915","692132","176803","695337","NA","691127","Sternburg Task","82","53570","85","yes","1024"
"96.511627907","96.511627907","628.418604651","628.418604651","black","experiment","legacy","legacy","legacy","0","uniform","1","undefined","1","left","0","85","0","0","85","85","0","85","85","85","85","0","85","0","85","10/17/21 16:14:20","The main experiment item","yes","SternburgTask.osexp","C:/Users/borna.000/Documents/PSYC/PSYC5316/Sternburg","no","mono","no","18","no","white","no","yes","768","legacy","73","11","C:/Users/borna.000/Documents/PSYC/PSYC5316/Sternburg/DH-subject-3.csv","legacy","9 4 2","Lentiform Loewenfeld","3.3.9","1","y","0","left","left","right","left","NA","474","16114","174560","474","NA","2","legacy","3","1024","2","48000","-16","experiment","3","odd","9","250778","695923","2238","266893","696995","417662","2241","699199","701202","701677","697997","176803","701202","NA","696993","Sternburg Task","83","54044","86","yes","1024"
"96.5517241379","96.5517241379","627.528735632","627.528735632","black","experiment","legacy","legacy","legacy","0","uniform","1","undefined","1","right","0","86","0","0","86","86","0","86","86","86","86","0","86","0","86","10/17/21 16:14:20","The main experiment item","yes","SternburgTask.osexp","C:/Users/borna.000/Documents/PSYC/PSYC5316/Sternburg","no","mono","no","18","no","white","no","yes","768","legacy","74","11","C:/Users/borna.000/Documents/PSYC/PSYC5316/Sternburg/DH-subject-3.csv","legacy","2 8 9","Lentiform Loewenfeld","3.3.9","0","n","0","right","left","right","right","NA","551","16114","174560","551","NA","2","legacy","3","1024","2","48000","-16","experiment","3","odd","6","250778","701687","2238","266893","702761","417662","2241","704963","706964","707516","703763","176803","706964","NA","702759","Sternburg Task","84","54595","87","yes","1024"
"96.5909090909","96.5909090909","626.431818182","626.431818182","black","experiment","legacy","legacy","legacy","0","uniform","1","undefined","1","right","0","87","0","0","87","87","0","87","87","87","87","0","87","0","87","10/17/21 16:14:20","The main experiment item","yes","SternburgTask.osexp","C:/Users/borna.000/Documents/PSYC/PSYC5316/Sternburg","no","mono","no","18","no","white","no","yes","768","legacy","75","11","C:/Users/borna.000/Documents/PSYC/PSYC5316/Sternburg/DH-subject-3.csv","legacy","4 2 7 6 1 3","Lentiform Loewenfeld","3.3.9","0","n","0","right","left","right","right","NA","531","16114","174560","531","NA","2","legacy","6","1024","2","48000","-16","experiment","3","odd","8","250778","707524","2238","266893","708600","417662","2241","710806","712810","713342","709602","176803","712810","NA","708598","Sternburg Task","85","55126","88","yes","1024"
"96.6292134831","96.6292134831","626.04494382","626.04494382","black","experiment","legacy","legacy","legacy","0","uniform","1","undefined","1","right","0","88","0","0","88","88","0","88","88","88","88","0","88","0","88","10/17/21 16:14:20","The main experiment item","yes","SternburgTask.osexp","C:/Users/borna.000/Documents/PSYC/PSYC5316/Sternburg","no","mono","no","18","no","white","no","yes","768","legacy","76","11","C:/Users/borna.000/Documents/PSYC/PSYC5316/Sternburg/DH-subject-3.csv","legacy","7 4 2 8 1 9","Lentiform Loewenfeld","3.3.9","0","n","0","right","left","right","right","NA","592","16114","174560","592","NA","2","legacy","6","1024","2","48000","-16","experiment","3","odd","5","250778","713345","2238","266893","714421","417662","2241","716626","718628","719221","715422","176803","718628","NA","714419","Sternburg Task","86","55718","89","yes","1024"
"96.6666666667","96.6666666667","628","628","black","experiment","legacy","legacy","legacy","0","uniform","1","undefined","1","left","0","89","0","0","89","89","0","89","89","89","89","0","89","0","89","10/17/21 16:14:20","The main experiment item","yes","SternburgTask.osexp","C:/Users/borna.000/Documents/PSYC/PSYC5316/Sternburg","no","mono","no","18","no","white","no","yes","768","legacy","77","11","C:/Users/borna.000/Documents/PSYC/PSYC5316/Sternburg/DH-subject-3.csv","legacy","3 2 1 4 7","Lentiform Loewenfeld","3.3.9","2","y","0","left","left","right","left","NA","802","16114","174560","802","NA","2","legacy","5","1024","2","48000","-16","experiment","3","odd","2","250778","719225","2238","266893","720301","417662","2241","722506","724511","725313","721302","176803","724511","NA","720298","Sternburg Task","87","56520","90","yes","1024"
"96.7032967033","96.7032967033","626.593406593","626.593406593","black","experiment","legacy","legacy","legacy","0","uniform","1","undefined","1","left","0","90","0","0","90","90","0","90","90","90","90","0","90","0","90","10/17/21 16:14:20","The main experiment item","yes","SternburgTask.osexp","C:/Users/borna.000/Documents/PSYC/PSYC5316/Sternburg","no","mono","no","18","no","white","no","yes","768","legacy","78","11","C:/Users/borna.000/Documents/PSYC/PSYC5316/Sternburg/DH-subject-3.csv","legacy","8 5 1 3 9","Lentiform Loewenfeld","3.3.9","4","y","0","left","left","right","left","NA","500","16114","174560","500","NA","2","legacy","5","1024","2","48000","-16","experiment","3","odd","3","250778","725322","2238","266893","726397","417662","2241","728604","730605","731106","727401","176803","730605","NA","726395","Sternburg Task","88","57020","91","yes","1024"
"96.7391304348","96.7391304348","625.706521739","625.706521739","black","experiment","legacy","legacy","legacy","0","uniform","1","undefined","1","right","0","91","0","0","91","91","0","91","91","91","91","0","91","0","91","10/17/21 16:14:20","The main experiment item","yes","SternburgTask.osexp","C:/Users/borna.000/Documents/PSYC/PSYC5316/Sternburg","no","mono","no","18","no","white","no","yes","768","legacy","79","11","C:/Users/borna.000/Documents/PSYC/PSYC5316/Sternburg/DH-subject-3.csv","legacy","1 5 3 2 8","Lentiform Loewenfeld","3.3.9","0","n","0","right","left","right","right","NA","545","16114","174560","545","NA","2","legacy","5","1024","2","48000","-16","experiment","3","odd","4","250778","731114","2238","266893","732185","417662","2241","734388","736391","736937","733186","176803","736391","NA","732184","Sternburg Task","89","57565","92","yes","1024"
"96.7741935484","96.7741935484","624","624","black","experiment","legacy","legacy","legacy","0","uniform","1","undefined","1","left","0","92","0","0","92","92","0","92","92","92","92","0","92","0","92","10/17/21 16:14:20","The main experiment item","yes","SternburgTask.osexp","C:/Users/borna.000/Documents/PSYC/PSYC5316/Sternburg","no","mono","no","18","no","white","no","yes","768","legacy","80","11","C:/Users/borna.000/Documents/PSYC/PSYC5316/Sternburg/DH-subject-3.csv","legacy","6 5","Lentiform Loewenfeld","3.3.9","2","y","0","left","left","right","left","NA","467","16114","174560","467","NA","2","legacy","2","1024","2","48000","-16","experiment","3","odd","5","250778","736945","2238","266893","738018","417662","2241","740223","742225","742693","739021","176803","742225","NA","738016","Sternburg Task","90","58032","93","yes","1024"
"96.8085106383","96.8085106383","623.79787234","623.79787234","black","experiment","legacy","legacy","legacy","0","uniform","1","undefined","1","right","0","93","0","0","93","93","0","93","93","93","93","0","93","0","93","10/17/21 16:14:20","The main experiment item","yes","SternburgTask.osexp","C:/Users/borna.000/Documents/PSYC/PSYC5316/Sternburg","no","mono","no","18","no","white","no","yes","768","legacy","81","11","C:/Users/borna.000/Documents/PSYC/PSYC5316/Sternburg/DH-subject-3.csv","legacy","3 4 9 6 7 8","Lentiform Loewenfeld","3.3.9","0","n","0","right","left","right","right","NA","605","16114","174560","605","NA","2","legacy","6","1024","2","48000","-16","experiment","3","odd","2","250778","742701","2238","266893","743776","417662","2241","745980","747985","748591","744778","176803","747985","NA","743774","Sternburg Task","91","58637","94","yes","1024"
"96.8421052632","96.8421052632","624.6","624.6","black","experiment","legacy","legacy","legacy","0","uniform","1","undefined","1","left","0","94","0","0","94","94","0","94","94","94","94","0","94","0","94","10/17/21 16:14:20","The main experiment item","yes","SternburgTask.osexp","C:/Users/borna.000/Documents/PSYC/PSYC5316/Sternburg","no","mono","no","18","no","white","no","yes","768","legacy","82","11","C:/Users/borna.000/Documents/PSYC/PSYC5316/Sternburg/DH-subject-3.csv","legacy","5 7 8 2 3 8","Lentiform Loewenfeld","3.3.9","5","y","0","left","left","right","left","NA","700","16114","174560","700","NA","2","legacy","6","1024","2","48000","-16","experiment","3","odd","3","250778","748599","2238","266893","749671","417662","2241","751881","753883","754584","750675","176803","753882","NA","749669","Sternburg Task","92","59337","95","yes","1024"
"96.875","96.875","624.958333333","624.958333333","black","experiment","legacy","legacy","legacy","0","uniform","1","undefined","1","left","0","95","0","0","95","95","0","95","95","95","95","0","95","0","95","10/17/21 16:14:20","The main experiment item","yes","SternburgTask.osexp","C:/Users/borna.000/Documents/PSYC/PSYC5316/Sternburg","no","mono","no","18","no","white","no","yes","768","legacy","83","11","C:/Users/borna.000/Documents/PSYC/PSYC5316/Sternburg/DH-subject-3.csv","legacy","6 7 8 5","Lentiform Loewenfeld","3.3.9","3","y","0","left","left","right","left","NA","659","16114","174560","659","NA","2","legacy","4","1024","2","48000","-16","experiment","3","odd","8","250778","754592","2238","266893","755661","417662","2241","757871","759872","760532","756666","176803","759872","NA","755659","Sternburg Task","93","59996","96","yes","1024"
"96.9072164948","96.9072164948","623.948453608","623.948453608","black","experiment","legacy","legacy","legacy","0","uniform","1","undefined","1","left","0","96","0","0","96","96","0","96","96","96","96","0","96","0","96","10/17/21 16:14:20","The main experiment item","yes","SternburgTask.osexp","C:/Users/borna.000/Documents/PSYC/PSYC5316/Sternburg","no","mono","no","18","no","white","no","yes","768","legacy","84","11","C:/Users/borna.000/Documents/PSYC/PSYC5316/Sternburg/DH-subject-3.csv","legacy","1 4 9 3 2 5","Lentiform Loewenfeld","3.3.9","3","y","0","left","left","right","left","NA","527","16114","174560","527","NA","2","legacy","6","1024","2","48000","-16","experiment","3","odd","9","250778","760541","2238","266893","761613","417662","2241","763817","765821","766349","762614","176803","765821","NA","761611","Sternburg Task","94","60523","97","yes","1024"
"96.9387755102","96.9387755102","622.969387755","622.969387755","black","experiment","legacy","legacy","legacy","0","uniform","1","undefined","1","left","0","97","0","0","97","97","0","97","97","97","97","0","97","0","97","10/17/21 16:14:20","The main experiment item","yes","SternburgTask.osexp","C:/Users/borna.000/Documents/PSYC/PSYC5316/Sternburg","no","mono","no","18","no","white","no","yes","768","legacy","85","11","C:/Users/borna.000/Documents/PSYC/PSYC5316/Sternburg/DH-subject-3.csv","legacy","9 1 7 2","Lentiform Loewenfeld","3.3.9","2","y","0","left","left","right","left","NA","528","16114","174560","528","NA","2","legacy","4","1024","2","48000","-16","experiment","3","odd","1","250778","766356","2238","266893","767431","417662","2241","769635","771640","772169","768432","176803","771639","NA","767430","Sternburg Task","95","61051","98","yes","1024"
"96.9696969697","96.9696969697","621.383838384","621.383838384","black","experiment","legacy","legacy","legacy","0","uniform","1","undefined","1","left","0","98","0","0","98","98","0","98","98","98","98","0","98","0","98","10/17/21 16:14:20","The main experiment item","yes","SternburgTask.osexp","C:/Users/borna.000/Documents/PSYC/PSYC5316/Sternburg","no","mono","no","18","no","white","no","yes","768","legacy","86","11","C:/Users/borna.000/Documents/PSYC/PSYC5316/Sternburg/DH-subject-3.csv","legacy","8 9 5 7 1 6","Lentiform Loewenfeld","3.3.9","4","y","0","left","left","right","left","NA","466","16114","174560","466","NA","2","legacy","6","1024","2","48000","-16","experiment","3","odd","7","250778","772178","2238","266893","773252","417662","2241","775456","777461","777928","774253","176803","777460","NA","773250","Sternburg Task","96","61517","99","yes","1024"
"97","97","620.31","620.31","black","experiment","legacy","legacy","legacy","0","uniform","1","undefined","1","right","0","99","0","0","99","99","0","99","99","99","99","0","99","0","99","10/17/21 16:14:20","The main experiment item","yes","SternburgTask.osexp","C:/Users/borna.000/Documents/PSYC/PSYC5316/Sternburg","no","mono","no","18","no","white","no","yes","768","legacy","87","11","C:/Users/borna.000/Documents/PSYC/PSYC5316/Sternburg/DH-subject-3.csv","legacy","7 9","Lentiform Loewenfeld","3.3.9","0","n","0","right","left","right","right","NA","514","16114","174560","514","NA","2","legacy","2","1024","2","48000","-16","experiment","3","odd","1","250778","777936","2238","266893","779009","417662","2241","781217","783221","783736","780012","176803","783221","NA","779007","Sternburg Task","97","62031","100","yes","1024"
"97.0297029703","97.0297029703","620.643564356","620.643564356","black","experiment","legacy","legacy","legacy","0","uniform","1","undefined","1","left","0","100","0","0","100","100","0","100","100","100","100","0","100","0","100","10/17/21 16:14:20","The main experiment item","yes","SternburgTask.osexp","C:/Users/borna.000/Documents/PSYC/PSYC5316/Sternburg","no","mono","no","18","no","white","no","yes","768","legacy","88","11","C:/Users/borna.000/Documents/PSYC/PSYC5316/Sternburg/DH-subject-3.csv","legacy","9 3 8 2 1 4","Lentiform Loewenfeld","3.3.9","3","y","0","left","left","right","left","NA","654","16114","174560","654","NA","2","legacy","6","1024","2","48000","-16","experiment","3","odd","8","250778","783745","2238","266893","784817","417662","2241","787021","789024","789679","785820","176803","789024","NA","784815","Sternburg Task","98","62685","101","yes","1024"
"97.0588235294","97.0588235294","620.323529412","620.323529412","black","experiment","legacy","legacy","legacy","0","uniform","1","undefined","1","right","0","101","0","0","101","101","0","101","101","101","101","0","101","0","101","10/17/21 16:14:20","The main experiment item","yes","SternburgTask.osexp","C:/Users/borna.000/Documents/PSYC/PSYC5316/Sternburg","no","mono","no","18","no","white","no","yes","768","legacy","89","11","C:/Users/borna.000/Documents/PSYC/PSYC5316/Sternburg/DH-subject-3.csv","legacy","4 8 1 2","Lentiform Loewenfeld","3.3.9","0","n","0","right","left","right","right","NA","588","16114","174560","588","NA","2","legacy","4","1024","2","48000","-16","experiment","3","odd","7","250778","789683","2238","266893","790760","417662","2241","792965","794967","795556","791762","176803","794967","NA","790757","Sternburg Task","99","63273","102","yes","1024"
"97.0873786408","97.0873786408","618.922330097","618.922330097","black","experiment","legacy","legacy","legacy","0","uniform","1","undefined","1","left","0","102","0","0","102","102","0","102","102","102","102","0","102","0","102","10/17/21 16:14:20","The main experiment item","yes","SternburgTask.osexp","C:/Users/borna.000/Documents/PSYC/PSYC5316/Sternburg","no","mono","no","18","no","white","no","yes","768","legacy","90","11","C:/Users/borna.000/Documents/PSYC/PSYC5316/Sternburg/DH-subject-3.csv","legacy","3 5 9 6 2 4","Lentiform Loewenfeld","3.3.9","1","y","0","left","left","right","left","NA","476","16114","174560","476","NA","2","legacy","6","1024","2","48000","-16","experiment","3","odd","3","250778","795564","2238","266893","796640","417662","2241","798847","800848","801324","797643","176803","800848","NA","796638","Sternburg Task","100","63749","103","yes","1024"
"97.1153846154","97.1153846154","618.721153846","618.721153846","black","experiment","legacy","legacy","legacy","0","uniform","1","undefined","1","left","0","103","0","0","103","103","0","103","103","103","103","0","103","0","103","10/17/21 16:14:20","The main experiment item","yes","SternburgTask.osexp","C:/Users/borna.000/Documents/PSYC/PSYC5316/Sternburg","no","mono","no","18","no","white","no","yes","768","legacy","91","11","C:/Users/borna.000/Documents/PSYC/PSYC5316/Sternburg/DH-subject-3.csv","legacy","9 5 3 8 4","Lentiform Loewenfeld","3.3.9","1","y","0","left","left","right","left","NA","598","16114","174560","598","NA","2","legacy","5","1024","2","48000","-16","experiment","3","odd","9","250778","801333","2238","266893","802407","417662","2241","804615","806617","807216","803410","176803","806617","NA","802406","Sternburg Task","101","64347","104","yes","1024"
"97.1428571429","97.1428571429","618.619047619","618.619047619","black","experiment","legacy","legacy","legacy","0","uniform","1","undefined","1","left","0","104","0","0","104","104","0","104","104","104","104","0","104","0","104","10/17/21 16:14:20","The main experiment item","yes","SternburgTask.osexp","C:/Users/borna.000/Documents/PSYC/PSYC5316/Sternburg","no","mono","no","18","no","white","no","yes","768","legacy","92","11","C:/Users/borna.000/Documents/PSYC/PSYC5316/Sternburg/DH-subject-3.csv","legacy","4 6 5 8","Lentiform Loewenfeld","3.3.9","1","y","0","left","left","right","left","NA","608","16114","174560","608","NA","2","legacy","4","1024","2","48000","-16","experiment","3","odd","4","250778","807219","2238","266893","808295","417662","2241","810500","812502","813111","809297","176803","812502","NA","808293","Sternburg Task","102","64955","105","yes","1024"
"97.1698113208","97.1698113208","620.037735849","620.037735849","black","experiment","legacy","legacy","legacy","0","uniform","1","undefined","1","right","0","105","0","0","105","105","0","105","105","105","105","0","105","0","105","10/17/21 16:14:20","The main experiment item","yes","SternburgTask.osexp","C:/Users/borna.000/Documents/PSYC/PSYC5316/Sternburg","no","mono","no","18","no","white","no","yes","768","legacy","93","11","C:/Users/borna.000/Documents/PSYC/PSYC5316/Sternburg/DH-subject-3.csv","legacy","7 8 6 1","Lentiform Loewenfeld","3.3.9","0","n","0","right","left","right","right","NA","769","16114","174560","769","NA","2","legacy","4","1024","2","48000","-16","experiment","3","odd","3","250778","813119","2238","266893","814190","417662","2241","816395","818397","819167","815192","176803","818397","NA","814188","Sternburg Task","103","65724","106","yes","1024"
"97.1962616822","97.1962616822","619.822429907","619.822429907","black","experiment","legacy","legacy","legacy","0","uniform","1","undefined","1","left","0","106","0","0","106","106","0","106","106","106","106","0","106","0","106","10/17/21 16:14:20","The main experiment item","yes","SternburgTask.osexp","C:/Users/borna.000/Documents/PSYC/PSYC5316/Sternburg","no","mono","no","18","no","white","no","yes","768","legacy","94","11","C:/Users/borna.000/Documents/PSYC/PSYC5316/Sternburg/DH-subject-3.csv","legacy","9 3 1 2 5","Lentiform Loewenfeld","3.3.9","4","y","0","left","left","right","left","NA","597","16114","174560","597","NA","2","legacy","5","1024","2","48000","-16","experiment","3","odd","2","250778","819176","2238","266893","820250","417662","2241","822457","824458","825056","821254","176803","824458","NA","820247","Sternburg Task","104","66321","107","yes","1024"
"97.2222222222","97.2222222222","620.740740741","620.740740741","black","experiment","legacy","legacy","legacy","0","uniform","1","undefined","1","right","0","107","0","0","107","107","0","107","107","107","107","0","107","0","107","10/17/21 16:14:20","The main experiment item","yes","SternburgTask.osexp","C:/Users/borna.000/Documents/PSYC/PSYC5316/Sternburg","no","mono","no","18","no","white","no","yes","768","legacy","95","11","C:/Users/borna.000/Documents/PSYC/PSYC5316/Sternburg/DH-subject-3.csv","legacy","6 8 4","Lentiform Loewenfeld","3.3.9","0","n","0","right","left","right","right","NA","719","16114","174560","719","NA","2","legacy","3","1024","2","48000","-16","experiment","3","odd","1","250778","825064","2238","266893","826135","417662","2241","828340","830342","831062","827137","176803","830342","NA","826133","Sternburg Task","105","67040","108","yes","1024"
"97.247706422","97.247706422","620.486238532","620.486238532","black","experiment","legacy","legacy","legacy","0","uniform","1","undefined","1","left","0","108","0","0","108","108","0","108","108","108","108","0","108","0","108","10/17/21 16:14:20","The main experiment item","yes","SternburgTask.osexp","C:/Users/borna.000/Documents/PSYC/PSYC5316/Sternburg","no","mono","no","18","no","white","no","yes","768","legacy","96","11","C:/Users/borna.000/Documents/PSYC/PSYC5316/Sternburg/DH-subject-3.csv","legacy","5 2 9 6 1 7","Lentiform Loewenfeld","3.3.9","3","y","0","left","left","right","left","NA","593","16114","174560","593","NA","2","legacy","6","1024","2","48000","-16","experiment","3","odd","9","250778","831071","2238","266893","832141","417662","2241","834345","836347","836941","833143","176803","836347","NA","832139","Sternburg Task","106","67633","109","yes","1024"
"97.2727272727","97.2727272727","620.654545455","620.654545455","black","experiment","legacy","legacy","legacy","0","uniform","1","undefined","1","right","0","109","0","0","109","109","0","109","109","109","109","0","109","0","109","10/17/21 16:14:20","The main experiment item","yes","SternburgTask.osexp","C:/Users/borna.000/Documents/PSYC/PSYC5316/Sternburg","no","mono","no","18","no","white","no","yes","768","legacy","97","11","C:/Users/borna.000/Documents/PSYC/PSYC5316/Sternburg/DH-subject-3.csv","legacy","2 8 6 3 1","Lentiform Loewenfeld","3.3.9","0","n","0","right","left","right","right","NA","639","16114","174560","639","NA","2","legacy","5","1024","2","48000","-16","experiment","3","odd","7","250778","836951","2238","266893","838034","417662","2241","840237","842240","842880","839036","176803","842240","NA","838032","Sternburg Task","107","68272","110","yes","1024"
"97.2972972973","97.2972972973","620.09009009","620.09009009","black","experiment","legacy","legacy","legacy","0","uniform","1","undefined","1","right","0","110","0","0","110","110","0","110","110","110","110","0","110","0","110","10/17/21 16:14:20","The main experiment item","yes","SternburgTask.osexp","C:/Users/borna.000/Documents/PSYC/PSYC5316/Sternburg","no","mono","no","18","no","white","no","yes","768","legacy","98","11","C:/Users/borna.000/Documents/PSYC/PSYC5316/Sternburg/DH-subject-3.csv","legacy","6 2 9 3 8 4","Lentiform Loewenfeld","3.3.9","0","n","0","right","left","right","right","NA","558","16114","174560","558","NA","2","legacy","6","1024","2","48000","-16","experiment","3","odd","1","250778","842888","2238","266893","843963","417662","2241","846165","848166","848725","844964","176803","848166","NA","843961","Sternburg Task","108","68830","111","yes","1024"
"97.3214285714","97.3214285714","621.241071429","621.241071429","black","experiment","legacy","legacy","legacy","0","uniform","1","undefined","1","left","0","111","0","0","111","111","0","111","111","111","111","0","111","0","111","10/17/21 16:14:20","The main experiment item","yes","SternburgTask.osexp","C:/Users/borna.000/Documents/PSYC/PSYC5316/Sternburg","no","mono","no","18","no","white","no","yes","768","legacy","99","11","C:/Users/borna.000/Documents/PSYC/PSYC5316/Sternburg/DH-subject-3.csv","legacy","8","Lentiform Loewenfeld","3.3.9","1","y","0","left","left","right","left","NA","749","16114","174560","749","NA","2","legacy","1","1024","2","48000","-16","experiment","3","odd","8","250778","848734","2238","266893","849810","417662","2241","852015","854022","854772","850812","176803","854022","NA","849808","Sternburg Task","109","69579","112","yes","1024"
"97.3451327434","97.3451327434","620.699115044","620.699115044","black","experiment","legacy","legacy","legacy","0","uniform","1","undefined","1","left","0","112","0","0","112","112","0","112","112","112","112","0","112","0","112","10/17/21 16:14:20","The main experiment item","yes","SternburgTask.osexp","C:/Users/borna.000/Documents/PSYC/PSYC5316/Sternburg","no","mono","no","18","no","white","no","yes","768","legacy","100","11","C:/Users/borna.000/Documents/PSYC/PSYC5316/Sternburg/DH-subject-3.csv","legacy","7 2 3","Lentiform Loewenfeld","3.3.9","3","y","0","left","left","right","left","NA","560","16114","174560","560","NA","2","legacy","3","1024","2","48000","-16","experiment","3","odd","3","250778","854781","2238","266893","855856","417662","2241","858061","860064","860625","856857","176803","860064","NA","855854","Sternburg Task","110","70139","113","yes","1024"
