acc,accuracy,average_response_time,avg_rt,background,block,canvas_backend,clock_backend,color_backend,compensation,coordinates,correct,correct_instruction1,correct_new_keyboard_response,correct_response,count_ISI,count_correctfeedback,count_expSequence,count_experiment,count_experimentLoop,count_fixation,count_incorrect,count_instruction1,count_instruction2,count_memorySet,count_new_keyboard_response,count_new_logger,count_practiceLoop,count_probe,count_thankYou,datetime,description,disable_garbage_collection,experiment_file,experiment_path,font_bold,font_family,font_italic,font_size,font_underline,foreground,form_clicks,fullscreen,height,keyboard_backend,live_row,live_row_practiceLoop,logfile,mouse_backend,numberSet,opensesame_codename,opensesame_version,posInSet,present,repeat_cycle,response,response_instruction1,response_instruction2,response_new_keyboard_response,response_thankYou,response_time,response_time_instruction1,response_time_instruction2,response_time_new_keyboard_response,response_time_thankYou,round_decimals,sampler_backend,setSize,sound_buf_size,sound_channels,sound_freq,sound_sample_size,start,subject_nr,subject_parity,target,time_ISI,time_correctfeedback,time_expSequence,time_experiment,time_experimentLoop,time_fixation,time_incorrect,time_instruction1,time_instruction2,time_memorySet,time_new_keyboard_response,time_new_logger,time_practiceLoop,time_probe,time_thankYou,title,total_correct,total_response_time,total_responses,uniform_coordinates,width
100,100,1552,1552,black,practice,legacy,legacy,legacy,0,uniform,1,undefined,1,left,0,0,0,0,0,0,0,0,0,0,0,0,0,0,0,Thu Oct 15 19:51:10 2020,The main experiment item,yes,SternbergTask-AL.osexp,/Users/annielenoir/Desktop,no,mono,no,18,no,white,no,no,768,legacy,0,0,/Users/annielenoir/Desktop/AL-subject-1.csv,legacy,2 9 4,Lentiform Loewenfeld,3.3.3,3,y,0,left,right,NA,left,NA,1552,16676,NA,1552,NA,2,legacy,3,1024,2,48000,-16,experiment,1,odd,4,21231,NA,18611,1693,NA,18748,NA,1853,NA,19884,23376,24929,18538,23375,NA,Sternberg Task,1,1552,1,yes,1024
100,100,1081,1081,black,practice,legacy,legacy,legacy,0,uniform,1,undefined,1,left,1,1,1,0,0,1,1,0,0,1,1,1,0,1,0,Thu Oct 15 19:51:10 2020,The main experiment item,yes,SternbergTask-AL.osexp,/Users/annielenoir/Desktop,no,mono,no,18,no,white,no,no,768,legacy,1,1,/Users/annielenoir/Desktop/AL-subject-1.csv,legacy,4 3 1 7 9 8,Lentiform Loewenfeld,3.3.3,1,y,0,left,right,NA,left,NA,610,16676,NA,610,NA,2,legacy,6,1024,2,48000,-16,experiment,1,odd,4,28924,25104,26290,1693,NA,26429,NA,1853,NA,27575,31068,31679,18538,31068,NA,Sternberg Task,2,2162,2,yes,1024
100,100,1031.666667,1031.666667,black,practice,legacy,legacy,legacy,0,uniform,1,undefined,1,right,2,2,2,0,0,2,2,0,0,2,2,2,0,2,0,Thu Oct 15 19:51:10 2020,The main experiment item,yes,SternbergTask-AL.osexp,/Users/annielenoir/Desktop,no,mono,no,18,no,white,no,no,768,legacy,2,2,/Users/annielenoir/Desktop/AL-subject-1.csv,legacy,4 1 5,Lentiform Loewenfeld,3.3.3,0,n,0,right,right,NA,right,NA,933,16676,NA,933,NA,2,legacy,3,1024,2,48000,-16,experiment,1,odd,2,35608,31826,32986,1693,NA,33122,NA,1853,NA,34259,37757,38691,18538,37757,NA,Sternberg Task,3,3095,3,yes,1024
100,100,1077.5,1077.5,black,practice,legacy,legacy,legacy,0,uniform,1,undefined,1,left,3,3,3,0,0,3,3,0,0,3,3,3,0,3,0,Thu Oct 15 19:51:10 2020,The main experiment item,yes,SternbergTask-AL.osexp,/Users/annielenoir/Desktop,no,mono,no,18,no,white,no,no,768,legacy,3,3,/Users/annielenoir/Desktop/AL-subject-1.csv,legacy,6,Lentiform Loewenfeld,3.3.3,1,y,0,left,right,NA,left,NA,1215,16676,NA,1215,NA,2,legacy,1,1024,2,48000,-16,experiment,1,odd,6,42645,38845,40016,1693,NA,40156,NA,1853,NA,41294,44791,46007,18538,44791,NA,Sternberg Task,4,4310,4,yes,1024
80,80,1097.4,1097.4,black,practice,legacy,legacy,legacy,0,uniform,0,undefined,0,right,4,4,4,0,0,4,4,0,0,4,4,4,0,4,0,Thu Oct 15 19:51:10 2020,The main experiment item,yes,SternbergTask-AL.osexp,/Users/annielenoir/Desktop,no,mono,no,18,no,white,no,no,768,legacy,4,4,/Users/annielenoir/Desktop/AL-subject-1.csv,legacy,5 7 8 4 1 2,Lentiform Loewenfeld,3.3.3,0,n,0,left,right,NA,left,NA,1177,16676,NA,1177,NA,2,legacy,6,1024,2,48000,-16,experiment,1,odd,6,49943,46157,47321,1693,NA,47457,NA,1853,NA,48596,52088,53266,18538,52088,NA,Sternberg Task,4,5487,5,yes,1024
83.33333333,83.33333333,1013.166667,1013.166667,black,practice,legacy,legacy,legacy,0,uniform,1,undefined,1,left,5,5,5,0,0,5,5,0,0,5,5,5,0,5,0,Thu Oct 15 19:51:10 2020,The main experiment item,yes,SternbergTask-AL.osexp,/Users/annielenoir/Desktop,no,mono,no,18,no,white,no,no,768,legacy,5,5,/Users/annielenoir/Desktop/AL-subject-1.csv,legacy,1 5 2 9,Lentiform Loewenfeld,3.3.3,2,y,0,left,right,NA,left,NA,592,16676,NA,592,NA,2,legacy,4,1024,2,48000,-16,experiment,1,odd,5,57189,46157,54554,1693,NA,54699,53410,1853,NA,55841,59325,59918,18538,59325,NA,Sternberg Task,5,6079,6,yes,1024
85.71428571,85.71428571,929.1428571,929.1428571,black,practice,legacy,legacy,legacy,0,uniform,1,undefined,1,right,6,6,6,0,0,6,6,0,0,6,6,6,0,6,0,Thu Oct 15 19:51:10 2020,The main experiment item,yes,SternbergTask-AL.osexp,/Users/annielenoir/Desktop,no,mono,no,18,no,white,no,no,768,legacy,6,6,/Users/annielenoir/Desktop/AL-subject-1.csv,legacy,2 1,Lentiform Loewenfeld,3.3.3,0,n,0,right,right,NA,right,NA,425,16676,NA,425,NA,2,legacy,2,1024,2,48000,-16,experiment,1,odd,5,63845,60066,61214,1693,NA,61354,53410,1853,NA,62494,65990,66416,18538,65990,NA,Sternberg Task,6,6504,7,yes,1024
75,75,940,940,black,practice,legacy,legacy,legacy,0,uniform,0,undefined,0,right,7,7,7,0,0,7,7,0,0,7,7,7,0,7,0,Thu Oct 15 19:51:10 2020,The main experiment item,yes,SternbergTask-AL.osexp,/Users/annielenoir/Desktop,no,mono,no,18,no,white,no,no,768,legacy,7,7,/Users/annielenoir/Desktop/AL-subject-1.csv,legacy,3 1 9 4,Lentiform Loewenfeld,3.3.3,0,n,0,left,right,NA,left,NA,1016,16676,NA,1016,NA,2,legacy,4,1024,2,48000,-16,experiment,1,odd,6,70285,66552,67648,1693,NA,67782,53410,1853,NA,68933,72436,73452,18538,72436,NA,Sternberg Task,6,7520,8,yes,1024
77.77777778,77.77777778,886.3333333,886.3333333,black,practice,legacy,legacy,legacy,0,uniform,1,undefined,1,right,8,8,8,0,0,8,8,0,0,8,8,8,0,8,0,Thu Oct 15 19:51:10 2020,The main experiment item,yes,SternbergTask-AL.osexp,/Users/annielenoir/Desktop,no,mono,no,18,no,white,no,no,768,legacy,8,8,/Users/annielenoir/Desktop/AL-subject-1.csv,legacy,5,Lentiform Loewenfeld,3.3.3,0,n,0,right,right,NA,right,NA,457,16676,NA,457,NA,2,legacy,1,1024,2,48000,-16,experiment,1,odd,3,77365,66552,74733,1693,NA,74869,73598,1853,NA,76015,79516,79974,18538,79515,NA,Sternberg Task,7,7977,9,yes,1024
80,80,888.4,888.4,black,practice,legacy,legacy,legacy,0,uniform,1,undefined,1,left,9,9,9,0,0,9,9,0,0,9,9,9,0,9,0,Thu Oct 15 19:51:10 2020,The main experiment item,yes,SternbergTask-AL.osexp,/Users/annielenoir/Desktop,no,mono,no,18,no,white,no,no,768,legacy,9,9,/Users/annielenoir/Desktop/AL-subject-1.csv,legacy,4 8,Lentiform Loewenfeld,3.3.3,1,y,0,left,right,NA,left,NA,907,16676,NA,907,NA,2,legacy,2,1024,2,48000,-16,experiment,1,odd,4,83896,80119,81253,1693,NA,81394,73598,1853,NA,82541,86042,86950,18538,86041,NA,Sternberg Task,8,8884,10,yes,1024
81.81818182,81.81818182,877.8181818,877.8181818,black,practice,legacy,legacy,legacy,0,uniform,1,undefined,1,right,10,10,10,0,0,10,10,0,0,10,10,10,0,10,0,Thu Oct 15 19:51:10 2020,The main experiment item,yes,SternbergTask-AL.osexp,/Users/annielenoir/Desktop,no,mono,no,18,no,white,no,no,768,legacy,10,10,/Users/annielenoir/Desktop/AL-subject-1.csv,legacy,9 6 7 4 5,Lentiform Loewenfeld,3.3.3,0,n,0,right,right,NA,right,NA,772,16676,NA,772,NA,2,legacy,5,1024,2,48000,-16,experiment,1,odd,3,90867,87095,88244,1693,NA,88387,73598,1853,NA,89528,93012,93785,18538,93011,NA,Sternberg Task,9,9656,11,yes,1024
75,75,888.4166667,888.4166667,black,practice,legacy,legacy,legacy,0,uniform,0,undefined,0,left,11,11,11,0,0,11,11,0,0,11,11,11,0,11,0,Thu Oct 15 19:51:10 2020,The main experiment item,yes,SternbergTask-AL.osexp,/Users/annielenoir/Desktop,no,mono,no,18,no,white,no,no,768,legacy,11,11,/Users/annielenoir/Desktop/AL-subject-1.csv,legacy,1 7 9 8 5,Lentiform Loewenfeld,3.3.3,4,y,0,right,right,NA,right,NA,1005,16676,NA,1005,NA,2,legacy,5,1024,2,48000,-16,experiment,1,odd,8,97715,93933,95089,1693,NA,95228,73598,1853,NA,96364,99862,100868,18538,99862,NA,Sternberg Task,9,10661,12,yes,1024
69.23076923,69.23076923,885,885,black,experiment,legacy,legacy,legacy,0,uniform,0,undefined,0,left,12,12,12,0,0,12,12,0,0,12,12,12,0,12,0,Thu Oct 15 19:51:10 2020,The main experiment item,yes,SternbergTask-AL.osexp,/Users/annielenoir/Desktop,no,mono,no,18,no,white,no,no,768,legacy,0,11,/Users/annielenoir/Desktop/AL-subject-1.csv,legacy,8 9 5 7 1 6,Lentiform Loewenfeld,3.3.3,4,y,0,right,right,left,right,NA,844,16676,3794,844,NA,2,legacy,6,1024,2,48000,-16,experiment,1,odd,7,108726,93933,106097,1693,106029,106233,101017,1853,102235,107379,110871,111715,18538,110871,NA,Sternberg Task,9,11505,13,yes,1024
64.28571429,64.28571429,889,889,black,experiment,legacy,legacy,legacy,0,uniform,0,undefined,0,left,13,13,13,0,0,13,13,0,0,13,13,13,0,13,0,Thu Oct 15 19:51:10 2020,The main experiment item,yes,SternbergTask-AL.osexp,/Users/annielenoir/Desktop,no,mono,no,18,no,white,no,no,768,legacy,1,11,/Users/annielenoir/Desktop/AL-subject-1.csv,legacy,3 9 6 2,Lentiform Loewenfeld,3.3.3,4,y,0,right,right,left,right,NA,941,16676,3794,941,NA,2,legacy,4,1024,2,48000,-16,experiment,1,odd,2,115671,93933,113046,1693,106029,113183,111866,1853,102235,114317,117816,118758,18538,117816,NA,Sternberg Task,9,12446,14,yes,1024
60,60,880.7333333,880.7333333,black,experiment,legacy,legacy,legacy,0,uniform,0,undefined,0,right,14,14,14,0,0,14,14,0,0,14,14,14,0,14,0,Thu Oct 15 19:51:10 2020,The main experiment item,yes,SternbergTask-AL.osexp,/Users/annielenoir/Desktop,no,mono,no,18,no,white,no,no,768,legacy,2,11,/Users/annielenoir/Desktop/AL-subject-1.csv,legacy,2 7 5,Lentiform Loewenfeld,3.3.3,0,n,0,left,right,left,left,NA,765,16676,3794,765,NA,2,legacy,3,1024,2,48000,-16,experiment,1,odd,8,122695,93933,120072,1693,106029,120211,118909,1853,102235,121349,124838,125604,18538,124837,NA,Sternberg Task,9,13211,15,yes,1024
62.5,62.5,869.5625,869.5625,black,experiment,legacy,legacy,legacy,0,uniform,1,undefined,1,left,15,15,15,0,0,15,15,0,0,15,15,15,0,15,0,Thu Oct 15 19:51:10 2020,The main experiment item,yes,SternbergTask-AL.osexp,/Users/annielenoir/Desktop,no,mono,no,18,no,white,no,no,768,legacy,3,11,/Users/annielenoir/Desktop/AL-subject-1.csv,legacy,3 5 4 7,Lentiform Loewenfeld,3.3.3,1,y,0,left,right,left,left,NA,702,16676,3794,702,NA,2,legacy,4,1024,2,48000,-16,experiment,1,odd,3,129544,93933,126919,1693,106029,127056,125756,1853,102235,128195,131689,132392,18538,131689,NA,Sternberg Task,10,13913,16,yes,1024
64.70588235,64.70588235,880.0588235,880.0588235,black,experiment,legacy,legacy,legacy,0,uniform,1,undefined,1,right,16,16,16,0,0,16,16,0,0,16,16,16,0,16,0,Thu Oct 15 19:51:10 2020,The main experiment item,yes,SternbergTask-AL.osexp,/Users/annielenoir/Desktop,no,mono,no,18,no,white,no,no,768,legacy,4,11,/Users/annielenoir/Desktop/AL-subject-1.csv,legacy,3 4 2,Lentiform Loewenfeld,3.3.3,0,n,0,right,right,left,right,NA,1048,16676,3794,1048,NA,2,legacy,3,1024,2,48000,-16,experiment,1,odd,5,136328,132533,133700,1693,106029,133843,125756,1853,102235,134981,138471,139520,18538,138470,NA,Sternberg Task,11,14961,17,yes,1024
61.11111111,61.11111111,879.0555556,879.0555556,black,experiment,legacy,legacy,legacy,0,uniform,0,undefined,0,right,17,17,17,0,0,17,17,0,0,17,17,17,0,17,0,Thu Oct 15 19:51:10 2020,The main experiment item,yes,SternbergTask-AL.osexp,/Users/annielenoir/Desktop,no,mono,no,18,no,white,no,no,768,legacy,5,11,/Users/annielenoir/Desktop/AL-subject-1.csv,legacy,7 1 8 4 9 3,Lentiform Loewenfeld,3.3.3,0,n,0,left,right,left,left,NA,862,16676,3794,862,NA,2,legacy,6,1024,2,48000,-16,experiment,1,odd,6,143466,139666,140845,1693,106029,140982,125756,1853,102235,142118,145608,146470,18538,145608,NA,Sternberg Task,11,15823,18,yes,1024
63.15789474,63.15789474,876.2631579,876.2631579,black,experiment,legacy,legacy,legacy,0,uniform,1,undefined,1,right,18,18,18,0,0,18,18,0,0,18,18,18,0,18,0,Thu Oct 15 19:51:10 2020,The main experiment item,yes,SternbergTask-AL.osexp,/Users/annielenoir/Desktop,no,mono,no,18,no,white,no,no,768,legacy,6,11,/Users/annielenoir/Desktop/AL-subject-1.csv,legacy,1 7 5 2,Lentiform Loewenfeld,3.3.3,0,n,0,right,right,left,right,NA,826,16676,3794,826,NA,2,legacy,4,1024,2,48000,-16,experiment,1,odd,3,150433,139666,147808,1693,106029,147947,146622,1853,102235,149082,152579,153405,18538,152579,NA,Sternberg Task,12,16649,19,yes,1024
60,60,873.5,873.5,black,experiment,legacy,legacy,legacy,0,uniform,0,undefined,0,right,19,19,19,0,0,19,19,0,0,19,19,19,0,19,0,Thu Oct 15 19:51:10 2020,The main experiment item,yes,SternbergTask-AL.osexp,/Users/annielenoir/Desktop,no,mono,no,18,no,white,no,no,768,legacy,7,11,/Users/annielenoir/Desktop/AL-subject-1.csv,legacy,3 9 8 1 6 4,Lentiform Loewenfeld,3.3.3,0,n,0,left,right,left,left,NA,821,16676,3794,821,NA,2,legacy,6,1024,2,48000,-16,experiment,1,odd,7,157354,153549,154733,1693,106029,154871,146622,1853,102235,156006,159500,160322,18538,159499,NA,Sternberg Task,12,17470,20,yes,1024
61.9047619,61.9047619,873.9047619,873.9047619,black,experiment,legacy,legacy,legacy,0,uniform,1,undefined,1,right,20,20,20,0,0,20,20,0,0,20,20,20,0,20,0,Thu Oct 15 19:51:10 2020,The main experiment item,yes,SternbergTask-AL.osexp,/Users/annielenoir/Desktop,no,mono,no,18,no,white,no,no,768,legacy,8,11,/Users/annielenoir/Desktop/AL-subject-1.csv,legacy,5,Lentiform Loewenfeld,3.3.3,0,n,0,right,right,left,right,NA,882,16676,3794,882,NA,2,legacy,1,1024,2,48000,-16,experiment,1,odd,8,164275,153549,161654,1693,106029,161792,160472,1853,102235,162932,166411,167294,18538,166411,NA,Sternberg Task,13,18352,21,yes,1024
63.63636364,63.63636364,881.5,881.5,black,experiment,legacy,legacy,legacy,0,uniform,1,undefined,1,left,21,21,21,0,0,21,21,0,0,21,21,21,0,21,0,Thu Oct 15 19:51:10 2020,The main experiment item,yes,SternbergTask-AL.osexp,/Users/annielenoir/Desktop,no,mono,no,18,no,white,no,no,768,legacy,9,11,/Users/annielenoir/Desktop/AL-subject-1.csv,legacy,9 1 6 7 8,Lentiform Loewenfeld,3.3.3,1,y,0,left,right,left,left,NA,1041,16676,3794,1041,NA,2,legacy,5,1024,2,48000,-16,experiment,1,odd,9,171233,167443,168607,1693,106029,168747,160472,1853,102235,169885,173382,174424,18538,173382,NA,Sternberg Task,14,19393,22,yes,1024
65.2173913,65.2173913,885.173913,885.173913,black,experiment,legacy,legacy,legacy,0,uniform,1,undefined,1,left,22,22,22,0,0,22,22,0,0,22,22,22,0,22,0,Thu Oct 15 19:51:10 2020,The main experiment item,yes,SternbergTask-AL.osexp,/Users/annielenoir/Desktop,no,mono,no,18,no,white,no,no,768,legacy,10,11,/Users/annielenoir/Desktop/AL-subject-1.csv,legacy,7 2 3,Lentiform Loewenfeld,3.3.3,3,y,0,left,right,left,left,NA,966,16676,3794,966,NA,2,legacy,3,1024,2,48000,-16,experiment,1,odd,3,178362,174575,175736,1693,106029,175876,160472,1853,102235,177014,180507,181473,18538,180507,NA,Sternberg Task,15,20359,23,yes,1024
66.66666667,66.66666667,880.5416667,880.5416667,black,experiment,legacy,legacy,legacy,0,uniform,1,undefined,1,left,23,23,23,0,0,23,23,0,0,23,23,23,0,23,0,Thu Oct 15 19:51:10 2020,The main experiment item,yes,SternbergTask-AL.osexp,/Users/annielenoir/Desktop,no,mono,no,18,no,white,no,no,768,legacy,11,11,/Users/annielenoir/Desktop/AL-subject-1.csv,legacy,8 5 4 7 3 1,Lentiform Loewenfeld,3.3.3,2,y,0,left,right,left,left,NA,774,16676,3794,774,NA,2,legacy,6,1024,2,48000,-16,experiment,1,odd,5,185423,181622,182795,1693,106029,182934,160472,1853,102235,184070,187571,188346,18538,187571,NA,Sternberg Task,16,21133,24,yes,1024
68,68,872.68,872.68,black,experiment,legacy,legacy,legacy,0,uniform,1,undefined,1,left,24,24,24,0,0,24,24,0,0,24,24,24,0,24,0,Thu Oct 15 19:51:10 2020,The main experiment item,yes,SternbergTask-AL.osexp,/Users/annielenoir/Desktop,no,mono,no,18,no,white,no,no,768,legacy,12,11,/Users/annielenoir/Desktop/AL-subject-1.csv,legacy,6 5,Lentiform Loewenfeld,3.3.3,2,y,0,left,right,left,left,NA,684,16676,3794,684,NA,2,legacy,2,1024,2,48000,-16,experiment,1,odd,5,192279,188494,189654,1693,106029,189794,160472,1853,102235,190933,194416,195100,18538,194415,NA,Sternberg Task,17,21817,25,yes,1024
69.23076923,69.23076923,854.2307692,854.2307692,black,experiment,legacy,legacy,legacy,0,uniform,1,undefined,1,right,25,25,25,0,0,25,25,0,0,25,25,25,0,25,0,Thu Oct 15 19:51:10 2020,The main experiment item,yes,SternbergTask-AL.osexp,/Users/annielenoir/Desktop,no,mono,no,18,no,white,no,no,768,legacy,13,11,/Users/annielenoir/Desktop/AL-subject-1.csv,legacy,7 1,Lentiform Loewenfeld,3.3.3,0,n,0,right,right,left,right,NA,393,16676,3794,393,NA,2,legacy,2,1024,2,48000,-16,experiment,1,odd,8,199021,195252,196403,1693,106029,196544,160472,1853,102235,197683,201163,201557,18538,201163,NA,Sternberg Task,18,22210,26,yes,1024
70.37037037,70.37037037,866.3333333,866.3333333,black,experiment,legacy,legacy,legacy,0,uniform,1,undefined,1,left,26,26,26,0,0,26,26,0,0,26,26,26,0,26,0,Thu Oct 15 19:51:10 2020,The main experiment item,yes,SternbergTask-AL.osexp,/Users/annielenoir/Desktop,no,mono,no,18,no,white,no,no,768,legacy,14,11,/Users/annielenoir/Desktop/AL-subject-1.csv,legacy,8 1 6,Lentiform Loewenfeld,3.3.3,3,y,0,left,right,left,left,NA,1181,16676,3794,1181,NA,2,legacy,3,1024,2,48000,-16,experiment,1,odd,6,205494,201704,202834,1693,106029,202982,160472,1853,102235,204132,207641,208823,18538,207641,NA,Sternberg Task,19,23391,27,yes,1024
71.42857143,71.42857143,883.8571429,883.8571429,black,experiment,legacy,legacy,legacy,0,uniform,1,undefined,1,left,27,27,27,0,0,27,27,0,0,27,27,27,0,27,0,Thu Oct 15 19:51:10 2020,The main experiment item,yes,SternbergTask-AL.osexp,/Users/annielenoir/Desktop,no,mono,no,18,no,white,no,no,768,legacy,15,11,/Users/annielenoir/Desktop/AL-subject-1.csv,legacy,7,Lentiform Loewenfeld,3.3.3,1,y,0,left,right,left,left,NA,1357,16676,3794,1357,NA,2,legacy,1,1024,2,48000,-16,experiment,1,odd,7,212730,208968,210085,1693,106029,210226,160472,1853,102235,211377,214876,216234,18538,214876,NA,Sternberg Task,20,24748,28,yes,1024
72.4137931,72.4137931,906.6206897,906.6206897,black,experiment,legacy,legacy,legacy,0,uniform,1,undefined,1,left,28,28,28,0,0,28,28,0,0,28,28,28,0,28,0,Thu Oct 15 19:51:10 2020,The main experiment item,yes,SternbergTask-AL.osexp,/Users/annielenoir/Desktop,no,mono,no,18,no,white,no,no,768,legacy,16,11,/Users/annielenoir/Desktop/AL-subject-1.csv,legacy,9 4 2,Lentiform Loewenfeld,3.3.3,1,y,0,left,right,left,left,NA,1544,16676,3794,1544,NA,2,legacy,3,1024,2,48000,-16,experiment,1,odd,9,220146,216380,217502,1693,106029,217643,160472,1853,102235,218795,222295,223840,18538,222294,NA,Sternberg Task,21,26292,29,yes,1024
73.33333333,73.33333333,904.0666667,904.0666667,black,experiment,legacy,legacy,legacy,0,uniform,1,undefined,1,left,29,29,29,0,0,29,29,0,0,29,29,29,0,29,0,Thu Oct 15 19:51:10 2020,The main experiment item,yes,SternbergTask-AL.osexp,/Users/annielenoir/Desktop,no,mono,no,18,no,white,no,no,768,legacy,17,11,/Users/annielenoir/Desktop/AL-subject-1.csv,legacy,6 9 3 1,Lentiform Loewenfeld,3.3.3,4,y,0,left,right,left,left,NA,830,16676,3794,830,NA,2,legacy,4,1024,2,48000,-16,experiment,1,odd,1,227756,223984,225112,1693,106029,225254,160472,1853,102235,226403,229905,230736,18538,229905,NA,Sternberg Task,22,27122,30,yes,1024
74.19354839,74.19354839,903.3548387,903.3548387,black,experiment,legacy,legacy,legacy,0,uniform,1,undefined,1,right,30,30,30,0,0,30,30,0,0,30,30,30,0,30,0,Thu Oct 15 19:51:10 2020,The main experiment item,yes,SternbergTask-AL.osexp,/Users/annielenoir/Desktop,no,mono,no,18,no,white,no,no,768,legacy,18,11,/Users/annielenoir/Desktop/AL-subject-1.csv,legacy,1 5 3 2 8,Lentiform Loewenfeld,3.3.3,0,n,0,right,right,left,right,NA,882,16676,3794,882,NA,2,legacy,5,1024,2,48000,-16,experiment,1,odd,4,234649,230883,232009,1693,106029,232148,160472,1853,102235,233298,236796,237678,18538,236796,NA,Sternberg Task,23,28004,31,yes,1024
75,75,906.28125,906.28125,black,experiment,legacy,legacy,legacy,0,uniform,1,undefined,1,left,31,31,31,0,0,31,31,0,0,31,31,31,0,31,0,Thu Oct 15 19:51:10 2020,The main experiment item,yes,SternbergTask-AL.osexp,/Users/annielenoir/Desktop,no,mono,no,18,no,white,no,no,768,legacy,19,11,/Users/annielenoir/Desktop/AL-subject-1.csv,legacy,9 3 8 2 1 4,Lentiform Loewenfeld,3.3.3,3,y,0,left,right,left,left,NA,997,16676,3794,997,NA,2,legacy,6,1024,2,48000,-16,experiment,1,odd,8,241602,237823,238973,1693,106029,239111,160472,1853,102235,240252,243748,244746,18538,243748,NA,Sternberg Task,24,29001,32,yes,1024
72.72727273,72.72727273,901.3030303,901.3030303,black,experiment,legacy,legacy,legacy,0,uniform,0,undefined,0,right,32,32,32,0,0,32,32,0,0,32,32,32,0,32,0,Thu Oct 15 19:51:10 2020,The main experiment item,yes,SternbergTask-AL.osexp,/Users/annielenoir/Desktop,no,mono,no,18,no,white,no,no,768,legacy,20,11,/Users/annielenoir/Desktop/AL-subject-1.csv,legacy,8 4 3 9,Lentiform Loewenfeld,3.3.3,0,n,0,left,right,left,left,NA,742,16676,3794,742,NA,2,legacy,4,1024,2,48000,-16,experiment,1,odd,5,248680,244892,246050,1693,106029,246191,160472,1853,102235,247331,250828,251570,18538,250828,NA,Sternberg Task,24,29743,33,yes,1024
73.52941176,73.52941176,896.3235294,896.3235294,black,experiment,legacy,legacy,legacy,0,uniform,1,undefined,1,left,33,33,33,0,0,33,33,0,0,33,33,33,0,33,0,Thu Oct 15 19:51:10 2020,The main experiment item,yes,SternbergTask-AL.osexp,/Users/annielenoir/Desktop,no,mono,no,18,no,white,no,no,768,legacy,21,11,/Users/annielenoir/Desktop/AL-subject-1.csv,legacy,8 5 3 7 4 6,Lentiform Loewenfeld,3.3.3,6,y,0,left,right,left,left,NA,732,16676,3794,732,NA,2,legacy,6,1024,2,48000,-16,experiment,1,odd,6,255513,244892,252879,1693,106029,253019,251719,1853,102235,254161,257660,258393,18538,257660,NA,Sternberg Task,25,30475,34,yes,1024
74.28571429,74.28571429,888.5714286,888.5714286,black,experiment,legacy,legacy,legacy,0,uniform,1,undefined,1,left,34,34,34,0,0,34,34,0,0,34,34,34,0,34,0,Thu Oct 15 19:51:10 2020,The main experiment item,yes,SternbergTask-AL.osexp,/Users/annielenoir/Desktop,no,mono,no,18,no,white,no,no,768,legacy,22,11,/Users/annielenoir/Desktop/AL-subject-1.csv,legacy,8 9 5 6 7,Lentiform Loewenfeld,3.3.3,1,y,0,left,right,left,left,NA,625,16676,3794,625,NA,2,legacy,5,1024,2,48000,-16,experiment,1,odd,8,262334,258538,259700,1693,106029,259843,251719,1853,102235,260985,264477,265103,18538,264477,NA,Sternberg Task,26,31100,35,yes,1024
75,75,888.4166667,888.4166667,black,experiment,legacy,legacy,legacy,0,uniform,1,undefined,1,right,35,35,35,0,0,35,35,0,0,35,35,35,0,35,0,Thu Oct 15 19:51:10 2020,The main experiment item,yes,SternbergTask-AL.osexp,/Users/annielenoir/Desktop,no,mono,no,18,no,white,no,no,768,legacy,23,11,/Users/annielenoir/Desktop/AL-subject-1.csv,legacy,8 5 4 2 9 6,Lentiform Loewenfeld,3.3.3,0,n,0,right,right,left,right,NA,883,16676,3794,883,NA,2,legacy,6,1024,2,48000,-16,experiment,1,odd,3,269027,265244,266381,1693,106029,266525,251719,1853,102235,267677,271167,272051,18538,271167,NA,Sternberg Task,27,31983,36,yes,1024
72.97297297,72.97297297,890.1621622,890.1621622,black,experiment,legacy,legacy,legacy,0,uniform,0,undefined,0,right,36,36,36,0,0,36,36,0,0,36,36,36,0,36,0,Thu Oct 15 19:51:10 2020,The main experiment item,yes,SternbergTask-AL.osexp,/Users/annielenoir/Desktop,no,mono,no,18,no,white,no,no,768,legacy,24,11,/Users/annielenoir/Desktop/AL-subject-1.csv,legacy,9 8 2 7 4,Lentiform Loewenfeld,3.3.3,0,n,0,left,right,left,left,NA,953,16676,3794,953,NA,2,legacy,5,1024,2,48000,-16,experiment,1,odd,5,276000,272198,273361,1693,106029,273503,251719,1853,102235,274649,278145,279099,18538,278145,NA,Sternberg Task,27,32936,37,yes,1024
73.68421053,73.68421053,886.6052632,886.6052632,black,experiment,legacy,legacy,legacy,0,uniform,1,undefined,1,right,37,37,37,0,0,37,37,0,0,37,37,37,0,37,0,Thu Oct 15 19:51:10 2020,The main experiment item,yes,SternbergTask-AL.osexp,/Users/annielenoir/Desktop,no,mono,no,18,no,white,no,no,768,legacy,25,11,/Users/annielenoir/Desktop/AL-subject-1.csv,legacy,2 5 1 4,Lentiform Loewenfeld,3.3.3,0,n,0,right,right,left,right,NA,755,16676,3794,755,NA,2,legacy,4,1024,2,48000,-16,experiment,1,odd,6,283043,272198,280411,1693,106029,280552,279245,1853,102235,281693,285191,285946,18538,285190,NA,Sternberg Task,28,33691,38,yes,1024
74.35897436,74.35897436,893.1282051,893.1282051,black,experiment,legacy,legacy,legacy,0,uniform,1,undefined,1,right,38,38,38,0,0,38,38,0,0,38,38,38,0,38,0,Thu Oct 15 19:51:10 2020,The main experiment item,yes,SternbergTask-AL.osexp,/Users/annielenoir/Desktop,no,mono,no,18,no,white,no,no,768,legacy,26,11,/Users/annielenoir/Desktop/AL-subject-1.csv,legacy,2 8 7 9 5 3,Lentiform Loewenfeld,3.3.3,0,n,0,right,right,left,right,NA,1141,16676,3794,1141,NA,2,legacy,6,1024,2,48000,-16,experiment,1,odd,6,289892,286094,287256,1693,106029,287400,279245,1853,102235,288541,292038,293180,18538,292038,NA,Sternberg Task,29,34832,39,yes,1024
72.5,72.5,907.275,907.275,black,experiment,legacy,legacy,legacy,0,uniform,0,undefined,0,left,39,39,39,0,0,39,39,0,0,39,39,39,0,39,0,Thu Oct 15 19:51:10 2020,The main experiment item,yes,SternbergTask-AL.osexp,/Users/annielenoir/Desktop,no,mono,no,18,no,white,no,no,768,legacy,27,11,/Users/annielenoir/Desktop/AL-subject-1.csv,legacy,2 3,Lentiform Loewenfeld,3.3.3,1,y,0,right,right,left,right,NA,1459,16676,3794,1459,NA,2,legacy,2,1024,2,48000,-16,experiment,1,odd,2,297134,293324,294498,1693,106029,294642,279245,1853,102235,295783,299283,300743,18538,299283,NA,Sternberg Task,29,36291,40,yes,1024
73.17073171,73.17073171,904.6585366,904.6585366,black,experiment,legacy,legacy,legacy,0,uniform,1,undefined,1,right,40,40,40,0,0,40,40,0,0,40,40,40,0,40,0,Thu Oct 15 19:51:10 2020,The main experiment item,yes,SternbergTask-AL.osexp,/Users/annielenoir/Desktop,no,mono,no,18,no,white,no,no,768,legacy,28,11,/Users/annielenoir/Desktop/AL-subject-1.csv,legacy,7 4 2 8 1 9,Lentiform Loewenfeld,3.3.3,0,n,0,right,right,left,right,NA,800,16676,3794,800,NA,2,legacy,6,1024,2,48000,-16,experiment,1,odd,5,304668,293324,302036,1693,106029,302172,300889,1853,102235,303317,306816,307617,18538,306815,NA,Sternberg Task,30,37091,41,yes,1024
73.80952381,73.80952381,893.7142857,893.7142857,black,experiment,legacy,legacy,legacy,0,uniform,1,undefined,1,left,41,41,41,0,0,41,41,0,0,41,41,41,0,41,0,Thu Oct 15 19:51:10 2020,The main experiment item,yes,SternbergTask-AL.osexp,/Users/annielenoir/Desktop,no,mono,no,18,no,white,no,no,768,legacy,29,11,/Users/annielenoir/Desktop/AL-subject-1.csv,legacy,3 4,Lentiform Loewenfeld,3.3.3,1,y,0,left,right,left,left,NA,445,16676,3794,445,NA,2,legacy,2,1024,2,48000,-16,experiment,1,odd,3,311567,307763,308934,1693,106029,309073,300889,1853,102235,310214,313713,314159,18538,313713,NA,Sternberg Task,31,37536,42,yes,1024
74.41860465,74.41860465,890.744186,890.744186,black,experiment,legacy,legacy,legacy,0,uniform,1,undefined,1,right,42,42,42,0,0,42,42,0,0,42,42,42,0,42,0,Thu Oct 15 19:51:10 2020,The main experiment item,yes,SternbergTask-AL.osexp,/Users/annielenoir/Desktop,no,mono,no,18,no,white,no,no,768,legacy,30,11,/Users/annielenoir/Desktop/AL-subject-1.csv,legacy,7 1 5 6 3,Lentiform Loewenfeld,3.3.3,0,n,0,right,right,left,right,NA,766,16676,3794,766,NA,2,legacy,5,1024,2,48000,-16,experiment,1,odd,8,318059,314299,315429,1693,106029,315569,300889,1853,102235,316720,320212,320979,18538,320212,NA,Sternberg Task,32,38302,43,yes,1024
75,75,893.2045455,893.2045455,black,experiment,legacy,legacy,legacy,0,uniform,1,undefined,1,left,43,43,43,0,0,43,43,0,0,43,43,43,0,43,0,Thu Oct 15 19:51:10 2020,The main experiment item,yes,SternbergTask-AL.osexp,/Users/annielenoir/Desktop,no,mono,no,18,no,white,no,no,768,legacy,31,11,/Users/annielenoir/Desktop/AL-subject-1.csv,legacy,9 3 1 2 5,Lentiform Loewenfeld,3.3.3,4,y,0,left,right,left,left,NA,999,16676,3794,999,NA,2,legacy,5,1024,2,48000,-16,experiment,1,odd,2,324894,321121,322247,1693,106029,322393,300889,1853,102235,323545,327034,328034,18538,327034,NA,Sternberg Task,33,39301,44,yes,1024
75.55555556,75.55555556,890.6,890.6,black,experiment,legacy,legacy,legacy,0,uniform,1,undefined,1,right,44,44,44,0,0,44,44,0,0,44,44,44,0,44,0,Thu Oct 15 19:51:10 2020,The main experiment item,yes,SternbergTask-AL.osexp,/Users/annielenoir/Desktop,no,mono,no,18,no,white,no,no,768,legacy,32,11,/Users/annielenoir/Desktop/AL-subject-1.csv,legacy,1 7 5 2 9,Lentiform Loewenfeld,3.3.3,0,n,0,right,right,left,right,NA,776,16676,3794,776,NA,2,legacy,5,1024,2,48000,-16,experiment,1,odd,3,331985,328179,329351,1693,106029,329494,300889,1853,102235,330633,334130,334906,18538,334130,NA,Sternberg Task,34,40077,45,yes,1024
76.08695652,76.08695652,893.2391304,893.2391304,black,experiment,legacy,legacy,legacy,0,uniform,1,undefined,1,right,45,45,45,0,0,45,45,0,0,45,45,45,0,45,0,Thu Oct 15 19:51:10 2020,The main experiment item,yes,SternbergTask-AL.osexp,/Users/annielenoir/Desktop,no,mono,no,18,no,white,no,no,768,legacy,33,11,/Users/annielenoir/Desktop/AL-subject-1.csv,legacy,1 6 4 3 9 7,Lentiform Loewenfeld,3.3.3,0,n,0,right,right,left,right,NA,1012,16676,3794,1012,NA,2,legacy,6,1024,2,48000,-16,experiment,1,odd,8,338862,335056,336228,1693,106029,336370,300889,1853,102235,337512,341010,342022,18538,341010,NA,Sternberg Task,35,41089,46,yes,1024
76.59574468,76.59574468,891.3829787,891.3829787,black,experiment,legacy,legacy,legacy,0,uniform,1,undefined,1,right,46,46,46,0,0,46,46,0,0,46,46,46,0,46,0,Thu Oct 15 19:51:10 2020,The main experiment item,yes,SternbergTask-AL.osexp,/Users/annielenoir/Desktop,no,mono,no,18,no,white,no,no,768,legacy,34,11,/Users/annielenoir/Desktop/AL-subject-1.csv,legacy,6 8 4,Lentiform Loewenfeld,3.3.3,0,n,0,right,right,left,right,NA,806,16676,3794,806,NA,2,legacy,3,1024,2,48000,-16,experiment,1,odd,1,345962,342168,343329,1693,106029,343468,300889,1853,102235,344610,348110,348917,18538,348110,NA,Sternberg Task,36,41895,47,yes,1024
77.08333333,77.08333333,888.0416667,888.0416667,black,experiment,legacy,legacy,legacy,0,uniform,1,undefined,1,right,47,47,47,0,0,47,47,0,0,47,47,47,0,47,0,Thu Oct 15 19:51:10 2020,The main experiment item,yes,SternbergTask-AL.osexp,/Users/annielenoir/Desktop,no,mono,no,18,no,white,no,no,768,legacy,35,11,/Users/annielenoir/Desktop/AL-subject-1.csv,legacy,1 8 7,Lentiform Loewenfeld,3.3.3,0,n,0,right,right,left,right,NA,731,16676,3794,731,NA,2,legacy,3,1024,2,48000,-16,experiment,1,odd,4,352872,349066,350237,1693,106029,350379,300889,1853,102235,351520,355020,355751,18538,355019,NA,Sternberg Task,37,42626,48,yes,1024
77.55102041,77.55102041,898.5918367,898.5918367,black,experiment,legacy,legacy,legacy,0,uniform,1,undefined,1,left,48,48,48,0,0,48,48,0,0,48,48,48,0,48,0,Thu Oct 15 19:51:10 2020,The main experiment item,yes,SternbergTask-AL.osexp,/Users/annielenoir/Desktop,no,mono,no,18,no,white,no,no,768,legacy,36,11,/Users/annielenoir/Desktop/AL-subject-1.csv,legacy,5 2 9 6 1 7,Lentiform Loewenfeld,3.3.3,3,y,0,left,right,left,left,NA,1405,16676,3794,1405,NA,2,legacy,6,1024,2,48000,-16,experiment,1,odd,9,359689,355898,357056,1693,106029,357198,300889,1853,102235,358338,361833,363239,18538,361833,NA,Sternberg Task,38,44031,49,yes,1024
78,78,895.02,895.02,black,experiment,legacy,legacy,legacy,0,uniform,1,undefined,1,right,49,49,49,0,0,49,49,0,0,49,49,49,0,49,0,Thu Oct 15 19:51:10 2020,The main experiment item,yes,SternbergTask-AL.osexp,/Users/annielenoir/Desktop,no,mono,no,18,no,white,no,no,768,legacy,37,11,/Users/annielenoir/Desktop/AL-subject-1.csv,legacy,7 9 1 6,Lentiform Loewenfeld,3.3.3,0,n,0,right,right,left,right,NA,720,16676,3794,720,NA,2,legacy,4,1024,2,48000,-16,experiment,1,odd,4,367192,363387,364557,1693,106029,364697,300889,1853,102235,365840,369342,370063,18538,369342,NA,Sternberg Task,39,44751,50,yes,1024
76.47058824,76.47058824,905.2745098,905.2745098,black,experiment,legacy,legacy,legacy,0,uniform,0,undefined,0,right,50,50,50,0,0,50,50,0,0,50,50,50,0,50,0,Thu Oct 15 19:51:10 2020,The main experiment item,yes,SternbergTask-AL.osexp,/Users/annielenoir/Desktop,no,mono,no,18,no,white,no,no,768,legacy,38,11,/Users/annielenoir/Desktop/AL-subject-1.csv,legacy,9 7 4 5 8,Lentiform Loewenfeld,3.3.3,0,n,0,left,right,left,left,NA,1418,16676,3794,1418,NA,2,legacy,5,1024,2,48000,-16,experiment,1,odd,6,374000,370211,371365,1693,106029,371509,300889,1853,102235,372650,376144,377563,18538,376144,NA,Sternberg Task,39,46169,51,yes,1024
76.92307692,76.92307692,904.3653846,904.3653846,black,experiment,legacy,legacy,legacy,0,uniform,1,undefined,1,right,51,51,51,0,0,51,51,0,0,51,51,51,0,51,0,Thu Oct 15 19:51:10 2020,The main experiment item,yes,SternbergTask-AL.osexp,/Users/annielenoir/Desktop,no,mono,no,18,no,white,no,no,768,legacy,39,11,/Users/annielenoir/Desktop/AL-subject-1.csv,legacy,6 9 5,Lentiform Loewenfeld,3.3.3,0,n,0,right,right,left,right,NA,858,16676,3794,858,NA,2,legacy,3,1024,2,48000,-16,experiment,1,odd,8,381498,370211,378865,1693,106029,379001,377712,1853,102235,380146,383646,384505,18538,383646,NA,Sternberg Task,40,47027,52,yes,1024
77.35849057,77.35849057,905.9811321,905.9811321,black,experiment,legacy,legacy,legacy,0,uniform,1,undefined,1,right,52,52,52,0,0,52,52,0,0,52,52,52,0,52,0,Thu Oct 15 19:51:10 2020,The main experiment item,yes,SternbergTask-AL.osexp,/Users/annielenoir/Desktop,no,mono,no,18,no,white,no,no,768,legacy,40,11,/Users/annielenoir/Desktop/AL-subject-1.csv,legacy,2 3 8 5 6 7,Lentiform Loewenfeld,3.3.3,0,n,0,right,right,left,right,NA,990,16676,3794,990,NA,2,legacy,6,1024,2,48000,-16,experiment,1,odd,1,388444,384652,385811,1693,106029,385952,377712,1853,102235,387093,390592,391583,18538,390592,NA,Sternberg Task,41,48017,53,yes,1024
77.77777778,77.77777778,907.5740741,907.5740741,black,experiment,legacy,legacy,legacy,0,uniform,1,undefined,1,right,53,53,53,0,0,53,53,0,0,53,53,53,0,53,0,Thu Oct 15 19:51:10 2020,The main experiment item,yes,SternbergTask-AL.osexp,/Users/annielenoir/Desktop,no,mono,no,18,no,white,no,no,768,legacy,41,11,/Users/annielenoir/Desktop/AL-subject-1.csv,legacy,3 4 9 6 7 8,Lentiform Loewenfeld,3.3.3,0,n,0,right,right,left,right,NA,992,16676,3794,992,NA,2,legacy,6,1024,2,48000,-16,experiment,1,odd,2,395539,391735,392908,1693,106029,393046,377712,1853,102235,394188,397691,398684,18538,397691,NA,Sternberg Task,42,49009,54,yes,1024
78.18181818,78.18181818,900.5272727,900.5272727,black,experiment,legacy,legacy,legacy,0,uniform,1,undefined,1,right,54,54,54,0,0,54,54,0,0,54,54,54,0,54,0,Thu Oct 15 19:51:10 2020,The main experiment item,yes,SternbergTask-AL.osexp,/Users/annielenoir/Desktop,no,mono,no,18,no,white,no,no,768,legacy,42,11,/Users/annielenoir/Desktop/AL-subject-1.csv,legacy,9,Lentiform Loewenfeld,3.3.3,0,n,0,right,right,left,right,NA,520,16676,3794,520,NA,2,legacy,1,1024,2,48000,-16,experiment,1,odd,6,402638,398840,400002,1693,106029,400144,377712,1853,102235,401284,404778,405298,18538,404778,NA,Sternberg Task,43,49529,55,yes,1024
76.78571429,76.78571429,900.1964286,900.1964286,black,experiment,legacy,legacy,legacy,0,uniform,0,undefined,0,left,55,55,55,0,0,55,55,0,0,55,55,55,0,55,0,Thu Oct 15 19:51:10 2020,The main experiment item,yes,SternbergTask-AL.osexp,/Users/annielenoir/Desktop,no,mono,no,18,no,white,no,no,768,legacy,43,11,/Users/annielenoir/Desktop/AL-subject-1.csv,legacy,7 1 3,Lentiform Loewenfeld,3.3.3,2,y,0,right,right,left,right,NA,882,16676,3794,882,NA,2,legacy,3,1024,2,48000,-16,experiment,1,odd,1,409217,405449,406573,1693,106029,406719,377712,1853,102235,407873,411358,412241,18538,411358,NA,Sternberg Task,43,50411,56,yes,1024
75.43859649,75.43859649,897.3157895,897.3157895,black,experiment,legacy,legacy,legacy,0,uniform,0,undefined,0,left,56,56,56,0,0,56,56,0,0,56,56,56,0,56,0,Thu Oct 15 19:51:10 2020,The main experiment item,yes,SternbergTask-AL.osexp,/Users/annielenoir/Desktop,no,mono,no,18,no,white,no,no,768,legacy,44,11,/Users/annielenoir/Desktop/AL-subject-1.csv,legacy,9 6 2 4 1,Lentiform Loewenfeld,3.3.3,4,y,0,right,right,left,right,NA,736,16676,3794,736,NA,2,legacy,5,1024,2,48000,-16,experiment,1,odd,4,416207,405449,413568,1693,106029,413712,412394,1853,102235,414855,418356,419093,18538,418356,NA,Sternberg Task,43,51147,57,yes,1024
75.86206897,75.86206897,890.637931,890.637931,black,experiment,legacy,legacy,legacy,0,uniform,1,undefined,1,right,57,57,57,0,0,57,57,0,0,57,57,57,0,57,0,Thu Oct 15 19:51:10 2020,The main experiment item,yes,SternbergTask-AL.osexp,/Users/annielenoir/Desktop,no,mono,no,18,no,white,no,no,768,legacy,45,11,/Users/annielenoir/Desktop/AL-subject-1.csv,legacy,1 4 9 3,Lentiform Loewenfeld,3.3.3,0,n,0,right,right,left,right,NA,510,16676,3794,510,NA,2,legacy,4,1024,2,48000,-16,experiment,1,odd,5,423042,405449,420406,1693,106029,420549,419243,1853,102235,421693,425188,425699,18538,425188,NA,Sternberg Task,44,51657,58,yes,1024
76.27118644,76.27118644,902.7118644,902.7118644,black,experiment,legacy,legacy,legacy,0,uniform,1,undefined,1,right,58,58,58,0,0,58,58,0,0,58,58,58,0,58,0,Thu Oct 15 19:51:10 2020,The main experiment item,yes,SternbergTask-AL.osexp,/Users/annielenoir/Desktop,no,mono,no,18,no,white,no,no,768,legacy,46,11,/Users/annielenoir/Desktop/AL-subject-1.csv,legacy,6 9 4 5 3 2,Lentiform Loewenfeld,3.3.3,0,n,0,right,right,left,right,NA,1603,16676,3794,1603,NA,2,legacy,6,1024,2,48000,-16,experiment,1,odd,8,429613,425848,426978,1693,106029,427118,419243,1853,102235,428269,431759,433362,18538,431759,NA,Sternberg Task,45,53260,59,yes,1024
76.66666667,76.66666667,898.4333333,898.4333333,black,experiment,legacy,legacy,legacy,0,uniform,1,undefined,1,right,59,59,59,0,0,59,59,0,0,59,59,59,0,59,0,Thu Oct 15 19:51:10 2020,The main experiment item,yes,SternbergTask-AL.osexp,/Users/annielenoir/Desktop,no,mono,no,18,no,white,no,no,768,legacy,47,11,/Users/annielenoir/Desktop/AL-subject-1.csv,legacy,6 9 4 5 2,Lentiform Loewenfeld,3.3.3,0,n,0,right,right,left,right,NA,646,16676,3794,646,NA,2,legacy,5,1024,2,48000,-16,experiment,1,odd,1,437314,433519,434681,1693,106029,434821,419243,1853,102235,435964,439461,440108,18538,439461,NA,Sternberg Task,46,53906,60,yes,1024
77.04918033,77.04918033,895.9344262,895.9344262,black,experiment,legacy,legacy,legacy,0,uniform,1,undefined,1,right,60,60,60,0,0,60,60,0,0,60,60,60,0,60,0,Thu Oct 15 19:51:10 2020,The main experiment item,yes,SternbergTask-AL.osexp,/Users/annielenoir/Desktop,no,mono,no,18,no,white,no,no,768,legacy,48,11,/Users/annielenoir/Desktop/AL-subject-1.csv,legacy,8 2 1 4 5 9,Lentiform Loewenfeld,3.3.3,0,n,0,right,right,left,right,NA,746,16676,3794,746,NA,2,legacy,6,1024,2,48000,-16,experiment,1,odd,7,444066,440259,441435,1693,106029,441576,419243,1853,102235,442717,446211,446958,18538,446211,NA,Sternberg Task,47,54652,61,yes,1024
75.80645161,75.80645161,913.7419355,913.7419355,black,experiment,legacy,legacy,legacy,0,uniform,0,undefined,0,left,61,61,61,0,0,61,61,0,0,61,61,61,0,61,0,Thu Oct 15 19:51:10 2020,The main experiment item,yes,SternbergTask-AL.osexp,/Users/annielenoir/Desktop,no,mono,no,18,no,white,no,no,768,legacy,49,11,/Users/annielenoir/Desktop/AL-subject-1.csv,legacy,5 7 8 2 3 8,Lentiform Loewenfeld,3.3.3,5,y,0,None,right,left,None,NA,2000,16676,3794,2000,NA,2,legacy,6,1024,2,48000,-16,experiment,1,odd,3,450903,447108,448270,1693,106029,448412,419243,1853,102235,449553,453047,455047,18538,453047,NA,Sternberg Task,47,56652,62,yes,1024
76.19047619,76.19047619,910.9206349,910.9206349,black,experiment,legacy,legacy,legacy,0,uniform,1,undefined,1,right,62,62,62,0,0,62,62,0,0,62,62,62,0,62,0,Thu Oct 15 19:51:10 2020,The main experiment item,yes,SternbergTask-AL.osexp,/Users/annielenoir/Desktop,no,mono,no,18,no,white,no,no,768,legacy,50,11,/Users/annielenoir/Desktop/AL-subject-1.csv,legacy,6 3 1 7 9 8,Lentiform Loewenfeld,3.3.3,0,n,0,right,right,left,right,NA,736,16676,3794,736,NA,2,legacy,6,1024,2,48000,-16,experiment,1,odd,4,458972,447108,456333,1693,106029,456472,455196,1853,102235,457621,461117,461854,18538,461117,NA,Sternberg Task,48,57388,63,yes,1024
75,75,910.125,910.125,black,experiment,legacy,legacy,legacy,0,uniform,0,undefined,0,left,63,63,63,0,0,63,63,0,0,63,63,63,0,63,0,Thu Oct 15 19:51:10 2020,The main experiment item,yes,SternbergTask-AL.osexp,/Users/annielenoir/Desktop,no,mono,no,18,no,white,no,no,768,legacy,51,11,/Users/annielenoir/Desktop/AL-subject-1.csv,legacy,4 9 7 8 5 3,Lentiform Loewenfeld,3.3.3,4,y,0,right,right,left,right,NA,860,16676,3794,860,NA,2,legacy,6,1024,2,48000,-16,experiment,1,odd,8,465790,462001,463159,1693,106029,463298,455196,1853,102235,464441,467938,468799,18538,467938,NA,Sternberg Task,48,58248,64,yes,1024
73.84615385,73.84615385,904.7384615,904.7384615,black,experiment,legacy,legacy,legacy,0,uniform,0,undefined,0,left,64,64,64,0,0,64,64,0,0,64,64,64,0,64,0,Thu Oct 15 19:51:10 2020,The main experiment item,yes,SternbergTask-AL.osexp,/Users/annielenoir/Desktop,no,mono,no,18,no,white,no,no,768,legacy,52,11,/Users/annielenoir/Desktop/AL-subject-1.csv,legacy,9 5 3 8 4,Lentiform Loewenfeld,3.3.3,1,y,0,right,right,left,right,NA,560,16676,3794,560,NA,2,legacy,5,1024,2,48000,-16,experiment,1,odd,9,472741,462001,470112,1693,106029,470253,468949,1853,102235,471391,474886,475447,18538,474886,NA,Sternberg Task,48,58808,65,yes,1024
74.24242424,74.24242424,902.4090909,902.4090909,black,experiment,legacy,legacy,legacy,0,uniform,1,undefined,1,left,65,65,65,0,0,65,65,0,0,65,65,65,0,65,0,Thu Oct 15 19:51:10 2020,The main experiment item,yes,SternbergTask-AL.osexp,/Users/annielenoir/Desktop,no,mono,no,18,no,white,no,no,768,legacy,53,11,/Users/annielenoir/Desktop/AL-subject-1.csv,legacy,7 8 6 3 1,Lentiform Loewenfeld,3.3.3,5,y,0,left,right,left,left,NA,751,16676,3794,751,NA,2,legacy,5,1024,2,48000,-16,experiment,1,odd,1,479368,462001,476722,1693,106029,476867,475597,1853,102235,478018,481509,482261,18538,481509,NA,Sternberg Task,49,59559,66,yes,1024
74.62686567,74.62686567,904.6268657,904.6268657,black,experiment,legacy,legacy,legacy,0,uniform,1,undefined,1,left,66,66,66,0,0,66,66,0,0,66,66,66,0,66,0,Thu Oct 15 19:51:10 2020,The main experiment item,yes,SternbergTask-AL.osexp,/Users/annielenoir/Desktop,no,mono,no,18,no,white,no,no,768,legacy,54,11,/Users/annielenoir/Desktop/AL-subject-1.csv,legacy,7 1 8 5 6 2,Lentiform Loewenfeld,3.3.3,2,y,0,left,right,left,left,NA,1051,16676,3794,1051,NA,2,legacy,6,1024,2,48000,-16,experiment,1,odd,1,486215,482409,483582,1693,106029,483724,475597,1853,102235,484866,488358,489409,18538,488358,NA,Sternberg Task,50,60610,67,yes,1024
75,75,902.8235294,902.8235294,black,experiment,legacy,legacy,legacy,0,uniform,1,undefined,1,left,67,67,67,0,0,67,67,0,0,67,67,67,0,67,0,Thu Oct 15 19:51:10 2020,The main experiment item,yes,SternbergTask-AL.osexp,/Users/annielenoir/Desktop,no,mono,no,18,no,white,no,no,768,legacy,55,11,/Users/annielenoir/Desktop/AL-subject-1.csv,legacy,3 5 9 6 2 4,Lentiform Loewenfeld,3.3.3,1,y,0,left,right,left,left,NA,782,16676,3794,782,NA,2,legacy,6,1024,2,48000,-16,experiment,1,odd,3,493357,489559,490734,1693,106029,490872,475597,1853,102235,492008,495506,496289,18538,495505,NA,Sternberg Task,51,61392,68,yes,1024
75.36231884,75.36231884,906.0144928,906.0144928,black,experiment,legacy,legacy,legacy,0,uniform,1,undefined,1,right,68,68,68,0,0,68,68,0,0,68,68,68,0,68,0,Thu Oct 15 19:51:10 2020,The main experiment item,yes,SternbergTask-AL.osexp,/Users/annielenoir/Desktop,no,mono,no,18,no,white,no,no,768,legacy,56,11,/Users/annielenoir/Desktop/AL-subject-1.csv,legacy,4 2 6 9,Lentiform Loewenfeld,3.3.3,0,n,0,right,right,left,right,NA,1123,16676,3794,1123,NA,2,legacy,4,1024,2,48000,-16,experiment,1,odd,7,500241,496445,497612,1693,106029,497752,475597,1853,102235,498891,502388,503512,18538,502388,NA,Sternberg Task,52,62515,69,yes,1024
75.71428571,75.71428571,907,907,black,experiment,legacy,legacy,legacy,0,uniform,1,undefined,1,right,69,69,69,0,0,69,69,0,0,69,69,69,0,69,0,Thu Oct 15 19:51:10 2020,The main experiment item,yes,SternbergTask-AL.osexp,/Users/annielenoir/Desktop,no,mono,no,18,no,white,no,no,768,legacy,57,11,/Users/annielenoir/Desktop/AL-subject-1.csv,legacy,8 5 7 3 6,Lentiform Loewenfeld,3.3.3,0,n,0,right,right,left,right,NA,975,16676,3794,975,NA,2,legacy,5,1024,2,48000,-16,experiment,1,odd,9,507454,503662,504823,1693,106029,504962,475597,1853,102235,506111,509593,510570,18538,509593,NA,Sternberg Task,53,63490,70,yes,1024
76.05633803,76.05633803,907.3239437,907.3239437,black,experiment,legacy,legacy,legacy,0,uniform,1,undefined,1,right,70,70,70,0,0,70,70,0,0,70,70,70,0,70,0,Thu Oct 15 19:51:10 2020,The main experiment item,yes,SternbergTask-AL.osexp,/Users/annielenoir/Desktop,no,mono,no,18,no,white,no,no,768,legacy,58,11,/Users/annielenoir/Desktop/AL-subject-1.csv,legacy,6 7 5 9,Lentiform Loewenfeld,3.3.3,0,n,0,right,right,left,right,NA,930,16676,3794,930,NA,2,legacy,4,1024,2,48000,-16,experiment,1,odd,2,514496,510727,511862,1693,106029,512002,475597,1853,102235,513141,516645,517576,18538,516645,NA,Sternberg Task,54,64420,71,yes,1024
76.38888889,76.38888889,907.5138889,907.5138889,black,experiment,legacy,legacy,legacy,0,uniform,1,undefined,1,left,71,71,71,0,0,71,71,0,0,71,71,71,0,71,0,Thu Oct 15 19:51:10 2020,The main experiment item,yes,SternbergTask-AL.osexp,/Users/annielenoir/Desktop,no,mono,no,18,no,white,no,no,768,legacy,59,11,/Users/annielenoir/Desktop/AL-subject-1.csv,legacy,2 8 5 1,Lentiform Loewenfeld,3.3.3,4,y,0,left,right,left,left,NA,921,16676,3794,921,NA,2,legacy,4,1024,2,48000,-16,experiment,1,odd,1,521523,517727,518889,1693,106029,519029,475597,1853,102235,520170,523673,524595,18538,523673,NA,Sternberg Task,55,65341,72,yes,1024
75.34246575,75.34246575,905.4246575,905.4246575,black,experiment,legacy,legacy,legacy,0,uniform,0,undefined,0,left,72,72,72,0,0,72,72,0,0,72,72,72,0,72,0,Thu Oct 15 19:51:10 2020,The main experiment item,yes,SternbergTask-AL.osexp,/Users/annielenoir/Desktop,no,mono,no,18,no,white,no,no,768,legacy,60,11,/Users/annielenoir/Desktop/AL-subject-1.csv,legacy,6 7 9 3 1 2,Lentiform Loewenfeld,3.3.3,1,y,0,right,right,left,right,NA,755,16676,3794,755,NA,2,legacy,6,1024,2,48000,-16,experiment,1,odd,6,528537,524744,525909,1693,106029,526048,475597,1853,102235,527187,530681,531437,18538,530681,NA,Sternberg Task,55,66096,73,yes,1024
75.67567568,75.67567568,901.4459459,901.4459459,black,experiment,legacy,legacy,legacy,0,uniform,1,undefined,1,right,73,73,73,0,0,73,73,0,0,73,73,73,0,73,0,Thu Oct 15 19:51:10 2020,The main experiment item,yes,SternbergTask-AL.osexp,/Users/annielenoir/Desktop,no,mono,no,18,no,white,no,no,768,legacy,61,11,/Users/annielenoir/Desktop/AL-subject-1.csv,legacy,2 6 4 3 9,Lentiform Loewenfeld,3.3.3,0,n,0,right,right,left,right,NA,611,16676,3794,611,NA,2,legacy,5,1024,2,48000,-16,experiment,1,odd,1,535391,524744,532761,1693,106029,532901,531589,1853,102235,534039,537539,538151,18538,537539,NA,Sternberg Task,56,66707,74,yes,1024
76,76,902.6533333,902.6533333,black,experiment,legacy,legacy,legacy,0,uniform,1,undefined,1,left,74,74,74,0,0,74,74,0,0,74,74,74,0,74,0,Thu Oct 15 19:51:10 2020,The main experiment item,yes,SternbergTask-AL.osexp,/Users/annielenoir/Desktop,no,mono,no,18,no,white,no,no,768,legacy,62,11,/Users/annielenoir/Desktop/AL-subject-1.csv,legacy,2 6 1 7 4,Lentiform Loewenfeld,3.3.3,2,y,0,left,right,left,left,NA,992,16676,3794,992,NA,2,legacy,5,1024,2,48000,-16,experiment,1,odd,6,542103,538304,539467,1693,106029,539609,531589,1853,102235,540755,544247,545240,18538,544247,NA,Sternberg Task,57,67699,75,yes,1024
76.31578947,76.31578947,898.25,898.25,black,experiment,legacy,legacy,legacy,0,uniform,1,undefined,1,left,75,75,75,0,0,75,75,0,0,75,75,75,0,75,0,Thu Oct 15 19:51:10 2020,The main experiment item,yes,SternbergTask-AL.osexp,/Users/annielenoir/Desktop,no,mono,no,18,no,white,no,no,768,legacy,63,11,/Users/annielenoir/Desktop/AL-subject-1.csv,legacy,4 1 5,Lentiform Loewenfeld,3.3.3,2,y,0,left,right,left,left,NA,568,16676,3794,568,NA,2,legacy,3,1024,2,48000,-16,experiment,1,odd,1,549199,545392,546571,1693,106029,546711,531589,1853,102235,547849,551347,551916,18538,551347,NA,Sternberg Task,58,68267,76,yes,1024
75.32467532,75.32467532,897.3896104,897.3896104,black,experiment,legacy,legacy,legacy,0,uniform,0,undefined,0,right,76,76,76,0,0,76,76,0,0,76,76,76,0,76,0,Thu Oct 15 19:51:10 2020,The main experiment item,yes,SternbergTask-AL.osexp,/Users/annielenoir/Desktop,no,mono,no,18,no,white,no,no,768,legacy,64,11,/Users/annielenoir/Desktop/AL-subject-1.csv,legacy,2 8 9 4 1,Lentiform Loewenfeld,3.3.3,0,n,0,left,right,left,left,NA,832,16676,3794,832,NA,2,legacy,5,1024,2,48000,-16,experiment,1,odd,5,555839,552065,553197,1693,106029,553341,531589,1853,102235,554489,557977,558810,18538,557977,NA,Sternberg Task,58,69099,77,yes,1024
75.64102564,75.64102564,901.6538462,901.6538462,black,experiment,legacy,legacy,legacy,0,uniform,1,undefined,1,right,77,77,77,0,0,77,77,0,0,77,77,77,0,77,0,Thu Oct 15 19:51:10 2020,The main experiment item,yes,SternbergTask-AL.osexp,/Users/annielenoir/Desktop,no,mono,no,18,no,white,no,no,768,legacy,65,11,/Users/annielenoir/Desktop/AL-subject-1.csv,legacy,5 7 3,Lentiform Loewenfeld,3.3.3,0,n,0,right,right,left,right,NA,1230,16676,3794,1230,NA,2,legacy,3,1024,2,48000,-16,experiment,1,odd,9,562750,552065,560118,1693,106029,560258,558960,1853,102235,561399,564897,566128,18538,564897,NA,Sternberg Task,59,70329,78,yes,1024
75.94936709,75.94936709,900.5316456,900.5316456,black,experiment,legacy,legacy,legacy,0,uniform,1,undefined,1,left,78,78,78,0,0,78,78,0,0,78,78,78,0,78,0,Thu Oct 15 19:51:10 2020,The main experiment item,yes,SternbergTask-AL.osexp,/Users/annielenoir/Desktop,no,mono,no,18,no,white,no,no,768,legacy,66,11,/Users/annielenoir/Desktop/AL-subject-1.csv,legacy,8 7 3,Lentiform Loewenfeld,3.3.3,1,y,0,left,right,left,left,NA,813,16676,3794,813,NA,2,legacy,3,1024,2,48000,-16,experiment,1,odd,8,570073,566276,567448,1693,106029,567587,558960,1853,102235,568724,572220,573034,18538,572219,NA,Sternberg Task,60,71142,79,yes,1024
75,75,906.4625,906.4625,black,experiment,legacy,legacy,legacy,0,uniform,0,undefined,0,right,79,79,79,0,0,79,79,0,0,79,79,79,0,79,0,Thu Oct 15 19:51:10 2020,The main experiment item,yes,SternbergTask-AL.osexp,/Users/annielenoir/Desktop,no,mono,no,18,no,white,no,no,768,legacy,67,11,/Users/annielenoir/Desktop/AL-subject-1.csv,legacy,1 7 8 3 9,Lentiform Loewenfeld,3.3.3,0,n,0,left,right,left,left,NA,1375,16676,3794,1375,NA,2,legacy,5,1024,2,48000,-16,experiment,1,odd,2,576987,573184,574356,1693,106029,574497,558960,1853,102235,575636,579132,580508,18538,579132,NA,Sternberg Task,60,72517,80,yes,1024
74.07407407,74.07407407,903.0123457,903.0123457,black,experiment,legacy,legacy,legacy,0,uniform,0,undefined,0,left,80,80,80,0,0,80,80,0,0,80,80,80,0,80,0,Thu Oct 15 19:51:10 2020,The main experiment item,yes,SternbergTask-AL.osexp,/Users/annielenoir/Desktop,no,mono,no,18,no,white,no,no,768,legacy,68,11,/Users/annielenoir/Desktop/AL-subject-1.csv,legacy,9 8 4,Lentiform Loewenfeld,3.3.3,1,y,0,right,right,left,right,NA,627,16676,3794,627,NA,2,legacy,3,1024,2,48000,-16,experiment,1,odd,9,584449,573184,581811,1693,106029,581950,580658,1853,102235,583094,586596,587224,18538,586596,NA,Sternberg Task,60,73144,81,yes,1024
74.3902439,74.3902439,902.8414634,902.8414634,black,experiment,legacy,legacy,legacy,0,uniform,1,undefined,1,left,81,81,81,0,0,81,81,0,0,81,81,81,0,81,0,Thu Oct 15 19:51:10 2020,The main experiment item,yes,SternbergTask-AL.osexp,/Users/annielenoir/Desktop,no,mono,no,18,no,white,no,no,768,legacy,69,11,/Users/annielenoir/Desktop/AL-subject-1.csv,legacy,8,Lentiform Loewenfeld,3.3.3,1,y,0,left,right,left,left,NA,889,16676,3794,889,NA,2,legacy,1,1024,2,48000,-16,experiment,1,odd,8,591170,573184,588539,1693,106029,588680,587378,1853,102235,589819,593315,594204,18538,593315,NA,Sternberg Task,61,74033,82,yes,1024
73.4939759,73.4939759,901.3855422,901.3855422,black,experiment,legacy,legacy,legacy,0,uniform,0,undefined,0,right,82,82,82,0,0,82,82,0,0,82,82,82,0,82,0,Thu Oct 15 19:51:10 2020,The main experiment item,yes,SternbergTask-AL.osexp,/Users/annielenoir/Desktop,no,mono,no,18,no,white,no,no,768,legacy,70,11,/Users/annielenoir/Desktop/AL-subject-1.csv,legacy,4 2 7 6 1 3,Lentiform Loewenfeld,3.3.3,0,n,0,left,right,left,left,NA,782,16676,3794,782,NA,2,legacy,6,1024,2,48000,-16,experiment,1,odd,8,598149,594354,595522,1693,106029,595662,587378,1853,102235,596800,600295,601078,18538,600295,NA,Sternberg Task,61,74815,83,yes,1024
72.61904762,72.61904762,898.9285714,898.9285714,black,experiment,legacy,legacy,legacy,0,uniform,0,undefined,0,left,83,83,83,0,0,83,83,0,0,83,83,83,0,83,0,Thu Oct 15 19:51:10 2020,The main experiment item,yes,SternbergTask-AL.osexp,/Users/annielenoir/Desktop,no,mono,no,18,no,white,no,no,768,legacy,71,11,/Users/annielenoir/Desktop/AL-subject-1.csv,legacy,2 4 6 9,Lentiform Loewenfeld,3.3.3,3,y,0,right,right,left,right,NA,695,16676,3794,695,NA,2,legacy,4,1024,2,48000,-16,experiment,1,odd,6,605032,594354,602401,1693,106029,602542,601229,1853,102235,603682,607179,607875,18538,607179,NA,Sternberg Task,61,75510,84,yes,1024
72.94117647,72.94117647,897.0235294,897.0235294,black,experiment,legacy,legacy,legacy,0,uniform,1,undefined,1,left,84,84,84,0,0,84,84,0,0,84,84,84,0,84,0,Thu Oct 15 19:51:10 2020,The main experiment item,yes,SternbergTask-AL.osexp,/Users/annielenoir/Desktop,no,mono,no,18,no,white,no,no,768,legacy,72,11,/Users/annielenoir/Desktop/AL-subject-1.csv,legacy,6 8 9 3 4 9,Lentiform Loewenfeld,3.3.3,5,y,0,left,right,left,left,NA,737,16676,3794,737,NA,2,legacy,6,1024,2,48000,-16,experiment,1,odd,4,611820,594354,609187,1693,106029,609328,608027,1853,102235,610470,613964,614702,18538,613964,NA,Sternberg Task,62,76247,85,yes,1024
72.09302326,72.09302326,896.4302326,896.4302326,black,experiment,legacy,legacy,legacy,0,uniform,0,undefined,0,right,85,85,85,0,0,85,85,0,0,85,85,85,0,85,0,Thu Oct 15 19:51:10 2020,The main experiment item,yes,SternbergTask-AL.osexp,/Users/annielenoir/Desktop,no,mono,no,18,no,white,no,no,768,legacy,73,11,/Users/annielenoir/Desktop/AL-subject-1.csv,legacy,1 6 4,Lentiform Loewenfeld,3.3.3,0,n,0,left,right,left,left,NA,846,16676,3794,846,NA,2,legacy,3,1024,2,48000,-16,experiment,1,odd,7,618650,614852,616017,1693,106029,616157,608027,1853,102235,617299,620793,621640,18538,620793,NA,Sternberg Task,62,77093,86,yes,1024
72.4137931,72.4137931,892.8275862,892.8275862,black,experiment,legacy,legacy,legacy,0,uniform,1,undefined,1,left,86,86,86,0,0,86,86,0,0,86,86,86,0,86,0,Thu Oct 15 19:51:10 2020,The main experiment item,yes,SternbergTask-AL.osexp,/Users/annielenoir/Desktop,no,mono,no,18,no,white,no,no,768,legacy,74,11,/Users/annielenoir/Desktop/AL-subject-1.csv,legacy,4 6 2 5 1,Lentiform Loewenfeld,3.3.3,5,y,0,left,right,left,left,NA,583,16676,3794,583,NA,2,legacy,5,1024,2,48000,-16,experiment,1,odd,1,625595,614852,622965,1693,106029,623105,621792,1853,102235,624246,627740,628324,18538,627740,NA,Sternberg Task,63,77676,87,yes,1024
72.72727273,72.72727273,892.1590909,892.1590909,black,experiment,legacy,legacy,legacy,0,uniform,1,undefined,1,left,87,87,87,0,0,87,87,0,0,87,87,87,0,87,0,Thu Oct 15 19:51:10 2020,The main experiment item,yes,SternbergTask-AL.osexp,/Users/annielenoir/Desktop,no,mono,no,18,no,white,no,no,768,legacy,75,11,/Users/annielenoir/Desktop/AL-subject-1.csv,legacy,4 7 6 8 2 3,Lentiform Loewenfeld,3.3.3,6,y,0,left,right,left,left,NA,834,16676,3794,834,NA,2,legacy,6,1024,2,48000,-16,experiment,1,odd,3,632244,628471,629602,1693,106029,629748,621792,1853,102235,630895,634384,635219,18538,634384,NA,Sternberg Task,64,78510,88,yes,1024
71.91011236,71.91011236,904.6067416,904.6067416,black,experiment,legacy,legacy,legacy,0,uniform,0,undefined,0,left,88,88,88,0,0,88,88,0,0,88,88,88,0,88,0,Thu Oct 15 19:51:10 2020,The main experiment item,yes,SternbergTask-AL.osexp,/Users/annielenoir/Desktop,no,mono,no,18,no,white,no,no,768,legacy,76,11,/Users/annielenoir/Desktop/AL-subject-1.csv,legacy,8 3,Lentiform Loewenfeld,3.3.3,2,y,0,None,right,left,None,NA,2000,16676,3794,2000,NA,2,legacy,2,1024,2,48000,-16,experiment,1,odd,3,639175,635371,636546,1693,106029,636686,621792,1853,102235,637825,641323,643323,18538,641323,NA,Sternberg Task,64,80510,89,yes,1024
72.22222222,72.22222222,903.4777778,903.4777778,black,experiment,legacy,legacy,legacy,0,uniform,1,undefined,1,left,89,89,89,0,0,89,89,0,0,89,89,89,0,89,0,Thu Oct 15 19:51:10 2020,The main experiment item,yes,SternbergTask-AL.osexp,/Users/annielenoir/Desktop,no,mono,no,18,no,white,no,no,768,legacy,77,11,/Users/annielenoir/Desktop/AL-subject-1.csv,legacy,4 6 5 8,Lentiform Loewenfeld,3.3.3,1,y,0,left,right,left,left,NA,803,16676,3794,803,NA,2,legacy,4,1024,2,48000,-16,experiment,1,odd,4,647244,635371,644603,1693,106029,644746,643470,1853,102235,645894,649395,650199,18538,649395,NA,Sternberg Task,65,81313,90,yes,1024
72.52747253,72.52747253,903.6043956,903.6043956,black,experiment,legacy,legacy,legacy,0,uniform,1,undefined,1,right,90,90,90,0,0,90,90,0,0,90,90,90,0,90,0,Thu Oct 15 19:51:10 2020,The main experiment item,yes,SternbergTask-AL.osexp,/Users/annielenoir/Desktop,no,mono,no,18,no,white,no,no,768,legacy,78,11,/Users/annielenoir/Desktop/AL-subject-1.csv,legacy,7 6 4 8 1 2,Lentiform Loewenfeld,3.3.3,0,n,0,right,right,left,right,NA,915,16676,3794,915,NA,2,legacy,6,1024,2,48000,-16,experiment,1,odd,9,654134,650349,651501,1693,106029,651640,643470,1853,102235,652787,656280,657196,18538,656280,NA,Sternberg Task,66,82228,91,yes,1024
72.82608696,72.82608696,900.5108696,900.5108696,black,experiment,legacy,legacy,legacy,0,uniform,1,undefined,1,left,91,91,91,0,0,91,91,0,0,91,91,91,0,91,0,Thu Oct 15 19:51:10 2020,The main experiment item,yes,SternbergTask-AL.osexp,/Users/annielenoir/Desktop,no,mono,no,18,no,white,no,no,768,legacy,79,11,/Users/annielenoir/Desktop/AL-subject-1.csv,legacy,6 1 2,Lentiform Loewenfeld,3.3.3,3,y,0,left,right,left,left,NA,619,16676,3794,619,NA,2,legacy,3,1024,2,48000,-16,experiment,1,odd,2,661135,657348,658507,1693,106029,658647,643470,1853,102235,659787,663282,663902,18538,663282,NA,Sternberg Task,67,82847,92,yes,1024
73.11827957,73.11827957,896.7956989,896.7956989,black,experiment,legacy,legacy,legacy,0,uniform,1,undefined,1,left,92,92,92,0,0,92,92,0,0,92,92,92,0,92,0,Thu Oct 15 19:51:10 2020,The main experiment item,yes,SternbergTask-AL.osexp,/Users/annielenoir/Desktop,no,mono,no,18,no,white,no,no,768,legacy,80,11,/Users/annielenoir/Desktop/AL-subject-1.csv,legacy,2 5 4 8 7,Lentiform Loewenfeld,3.3.3,3,y,0,left,right,left,left,NA,555,16676,3794,555,NA,2,legacy,5,1024,2,48000,-16,experiment,1,odd,4,667864,664048,665233,1693,106029,665374,643470,1853,102235,666514,670009,670565,18538,670009,NA,Sternberg Task,68,83402,93,yes,1024
73.40425532,73.40425532,900.3297872,900.3297872,black,experiment,legacy,legacy,legacy,0,uniform,1,undefined,1,right,93,93,93,0,0,93,93,0,0,93,93,93,0,93,0,Thu Oct 15 19:51:10 2020,The main experiment item,yes,SternbergTask-AL.osexp,/Users/annielenoir/Desktop,no,mono,no,18,no,white,no,no,768,legacy,81,11,/Users/annielenoir/Desktop/AL-subject-1.csv,legacy,5 3 8 7 2 4,Lentiform Loewenfeld,3.3.3,0,n,0,right,right,left,right,NA,1229,16676,3794,1229,NA,2,legacy,6,1024,2,48000,-16,experiment,1,odd,9,674490,670712,671842,1693,106029,671985,643470,1853,102235,673137,676630,677860,18538,676630,NA,Sternberg Task,69,84631,94,yes,1024
73.68421053,73.68421053,897.0421053,897.0421053,black,experiment,legacy,legacy,legacy,0,uniform,1,undefined,1,left,94,94,94,0,0,94,94,0,0,94,94,94,0,94,0,Thu Oct 15 19:51:10 2020,The main experiment item,yes,SternbergTask-AL.osexp,/Users/annielenoir/Desktop,no,mono,no,18,no,white,no,no,768,legacy,82,11,/Users/annielenoir/Desktop/AL-subject-1.csv,legacy,3 4 9 6 2 9,Lentiform Loewenfeld,3.3.3,5,y,0,left,right,left,left,NA,588,16676,3794,588,NA,2,legacy,6,1024,2,48000,-16,experiment,1,odd,2,681804,678007,679174,1693,106029,679314,643470,1853,102235,680454,683951,684541,18538,683951,NA,Sternberg Task,70,85219,95,yes,1024
72.91666667,72.91666667,908.53125,908.53125,black,experiment,legacy,legacy,legacy,0,uniform,0,undefined,0,right,95,95,95,0,0,95,95,0,0,95,95,95,0,95,0,Thu Oct 15 19:51:10 2020,The main experiment item,yes,SternbergTask-AL.osexp,/Users/annielenoir/Desktop,no,mono,no,18,no,white,no,no,768,legacy,83,11,/Users/annielenoir/Desktop/AL-subject-1.csv,legacy,7 9,Lentiform Loewenfeld,3.3.3,0,n,0,None,right,left,None,NA,2000,16676,3794,2000,NA,2,legacy,2,1024,2,48000,-16,experiment,1,odd,1,688470,684689,685829,1693,106029,685973,643470,1853,102235,687116,690609,692609,18538,690609,NA,Sternberg Task,70,87219,96,yes,1024
73.19587629,73.19587629,910.5979381,910.5979381,black,experiment,legacy,legacy,legacy,0,uniform,1,undefined,1,left,96,96,96,0,0,96,96,0,0,96,96,96,0,96,0,Thu Oct 15 19:51:10 2020,The main experiment item,yes,SternbergTask-AL.osexp,/Users/annielenoir/Desktop,no,mono,no,18,no,white,no,no,768,legacy,84,11,/Users/annielenoir/Desktop/AL-subject-1.csv,legacy,4 1 8 7 5,Lentiform Loewenfeld,3.3.3,3,y,0,left,right,left,left,NA,1109,16676,3794,1109,NA,2,legacy,5,1024,2,48000,-16,experiment,1,odd,8,696529,684689,693893,1693,106029,694030,692754,1853,102235,695179,698676,699786,18538,698676,NA,Sternberg Task,71,88328,97,yes,1024
73.46938776,73.46938776,909.8673469,909.8673469,black,experiment,legacy,legacy,legacy,0,uniform,1,undefined,1,left,97,97,97,0,0,97,97,0,0,97,97,97,0,97,0,Thu Oct 15 19:51:10 2020,The main experiment item,yes,SternbergTask-AL.osexp,/Users/annielenoir/Desktop,no,mono,no,18,no,white,no,no,768,legacy,85,11,/Users/annielenoir/Desktop/AL-subject-1.csv,legacy,5 2 6,Lentiform Loewenfeld,3.3.3,2,y,0,left,right,left,left,NA,839,16676,3794,839,NA,2,legacy,3,1024,2,48000,-16,experiment,1,odd,2,703693,699941,701063,1693,106029,701201,692754,1853,102235,702344,705840,706680,18538,705840,NA,Sternberg Task,72,89167,98,yes,1024
73.73737374,73.73737374,908.1616162,908.1616162,black,experiment,legacy,legacy,legacy,0,uniform,1,undefined,1,right,98,98,98,0,0,98,98,0,0,98,98,98,0,98,0,Thu Oct 15 19:51:10 2020,The main experiment item,yes,SternbergTask-AL.osexp,/Users/annielenoir/Desktop,no,mono,no,18,no,white,no,no,768,legacy,86,11,/Users/annielenoir/Desktop/AL-subject-1.csv,legacy,7 8 6 1,Lentiform Loewenfeld,3.3.3,0,n,0,right,right,left,right,NA,741,16676,3794,741,NA,2,legacy,4,1024,2,48000,-16,experiment,1,odd,3,710614,706829,707993,1693,106029,708130,692754,1853,102235,709269,712761,713503,18538,712761,NA,Sternberg Task,73,89908,99,yes,1024
74,74,909.61,909.61,black,experiment,legacy,legacy,legacy,0,uniform,1,undefined,1,right,99,99,99,0,0,99,99,0,0,99,99,99,0,99,0,Thu Oct 15 19:51:10 2020,The main experiment item,yes,SternbergTask-AL.osexp,/Users/annielenoir/Desktop,no,mono,no,18,no,white,no,no,768,legacy,87,11,/Users/annielenoir/Desktop/AL-subject-1.csv,legacy,9 5 3 2 8 6,Lentiform Loewenfeld,3.3.3,0,n,0,right,right,left,right,NA,1053,16676,3794,1053,NA,2,legacy,6,1024,2,48000,-16,experiment,1,odd,7,717463,713657,714829,1693,106029,714971,692754,1853,102235,716111,719610,720664,18538,719609,NA,Sternberg Task,74,90961,100,yes,1024
74.25742574,74.25742574,911.5544554,911.5544554,black,experiment,legacy,legacy,legacy,0,uniform,1,undefined,1,left,100,100,100,0,0,100,100,0,0,100,100,100,0,100,0,Thu Oct 15 19:51:10 2020,The main experiment item,yes,SternbergTask-AL.osexp,/Users/annielenoir/Desktop,no,mono,no,18,no,white,no,no,768,legacy,88,11,/Users/annielenoir/Desktop/AL-subject-1.csv,legacy,9 5 8 1,Lentiform Loewenfeld,3.3.3,2,y,0,left,right,left,left,NA,1106,16676,3794,1106,NA,2,legacy,4,1024,2,48000,-16,experiment,1,odd,5,724628,720814,721995,1693,106029,722132,692754,1853,102235,723278,726776,727887,18538,726775,NA,Sternberg Task,75,92067,101,yes,1024
74.50980392,74.50980392,910.8235294,910.8235294,black,experiment,legacy,legacy,legacy,0,uniform,1,undefined,1,right,101,101,101,0,0,101,101,0,0,101,101,101,0,101,0,Thu Oct 15 19:51:10 2020,The main experiment item,yes,SternbergTask-AL.osexp,/Users/annielenoir/Desktop,no,mono,no,18,no,white,no,no,768,legacy,89,11,/Users/annielenoir/Desktop/AL-subject-1.csv,legacy,6 2 9 3 8 4,Lentiform Loewenfeld,3.3.3,0,n,0,right,right,left,right,NA,837,16676,3794,837,NA,2,legacy,6,1024,2,48000,-16,experiment,1,odd,1,731835,728036,729197,1693,106029,729348,692754,1853,102235,730486,733983,734822,18538,733983,NA,Sternberg Task,76,92904,102,yes,1024
74.75728155,74.75728155,917.0291262,917.0291262,black,experiment,legacy,legacy,legacy,0,uniform,1,undefined,1,left,102,102,102,0,0,102,102,0,0,102,102,102,0,102,0,Thu Oct 15 19:51:10 2020,The main experiment item,yes,SternbergTask-AL.osexp,/Users/annielenoir/Desktop,no,mono,no,18,no,white,no,no,768,legacy,90,11,/Users/annielenoir/Desktop/AL-subject-1.csv,legacy,3 5 7 1,Lentiform Loewenfeld,3.3.3,3,y,0,left,right,left,left,NA,1550,16676,3794,1550,NA,2,legacy,4,1024,2,48000,-16,experiment,1,odd,7,738762,734970,736130,1693,106029,736271,692754,1853,102235,737412,740908,742459,18538,740908,NA,Sternberg Task,77,94454,103,yes,1024
75,75,914.6057692,914.6057692,black,experiment,legacy,legacy,legacy,0,uniform,1,undefined,1,left,103,103,103,0,0,103,103,0,0,103,103,103,0,103,0,Thu Oct 15 19:51:10 2020,The main experiment item,yes,SternbergTask-AL.osexp,/Users/annielenoir/Desktop,no,mono,no,18,no,white,no,no,768,legacy,91,11,/Users/annielenoir/Desktop/AL-subject-1.csv,legacy,3 2 1 4 7,Lentiform Loewenfeld,3.3.3,2,y,0,left,right,left,left,NA,665,16676,3794,665,NA,2,legacy,5,1024,2,48000,-16,experiment,1,odd,2,746396,742608,743751,1693,106029,743896,692754,1853,102235,745044,748544,749210,18538,748544,NA,Sternberg Task,78,95119,104,yes,1024
74.28571429,74.28571429,912.4380952,912.4380952,black,experiment,legacy,legacy,legacy,0,uniform,0,undefined,0,left,104,104,104,0,0,104,104,0,0,104,104,104,0,104,0,Thu Oct 15 19:51:10 2020,The main experiment item,yes,SternbergTask-AL.osexp,/Users/annielenoir/Desktop,no,mono,no,18,no,white,no,no,768,legacy,92,11,/Users/annielenoir/Desktop/AL-subject-1.csv,legacy,7 8 4 6 9 5,Lentiform Loewenfeld,3.3.3,4,y,0,right,right,left,right,NA,687,16676,3794,687,NA,2,legacy,6,1024,2,48000,-16,experiment,1,odd,6,753150,749359,750519,1693,106029,750660,692754,1853,102235,751801,755296,755984,18538,755296,NA,Sternberg Task,78,95806,105,yes,1024
74.52830189,74.52830189,909.6792453,909.6792453,black,experiment,legacy,legacy,legacy,0,uniform,1,undefined,1,left,105,105,105,0,0,105,105,0,0,105,105,105,0,105,0,Thu Oct 15 19:51:10 2020,The main experiment item,yes,SternbergTask-AL.osexp,/Users/annielenoir/Desktop,no,mono,no,18,no,white,no,no,768,legacy,93,11,/Users/annielenoir/Desktop/AL-subject-1.csv,legacy,2 4 8 5 1 3,Lentiform Loewenfeld,3.3.3,1,y,0,left,right,left,left,NA,620,16676,3794,620,NA,2,legacy,6,1024,2,48000,-16,experiment,1,odd,2,759954,749359,757318,1693,106029,757460,756135,1853,102235,758600,762098,762719,18538,762098,NA,Sternberg Task,79,96426,106,yes,1024
74.76635514,74.76635514,905.6635514,905.6635514,black,experiment,legacy,legacy,legacy,0,uniform,1,undefined,1,left,106,106,106,0,0,106,106,0,0,106,106,106,0,106,0,Thu Oct 15 19:51:10 2020,The main experiment item,yes,SternbergTask-AL.osexp,/Users/annielenoir/Desktop,no,mono,no,18,no,white,no,no,768,legacy,94,11,/Users/annielenoir/Desktop/AL-subject-1.csv,legacy,6 9 7 4 5 1,Lentiform Loewenfeld,3.3.3,2,y,0,left,right,left,left,NA,480,16676,3794,480,NA,2,legacy,6,1024,2,48000,-16,experiment,1,odd,9,766643,762864,764005,1693,106029,764148,756135,1853,102235,765292,768782,769263,18538,768782,NA,Sternberg Task,80,96906,107,yes,1024
75,75,903.7407407,903.7407407,black,experiment,legacy,legacy,legacy,0,uniform,1,undefined,1,right,107,107,107,0,0,107,107,0,0,107,107,107,0,107,0,Thu Oct 15 19:51:10 2020,The main experiment item,yes,SternbergTask-AL.osexp,/Users/annielenoir/Desktop,no,mono,no,18,no,white,no,no,768,legacy,95,11,/Users/annielenoir/Desktop/AL-subject-1.csv,legacy,6 9 7 3 8 2,Lentiform Loewenfeld,3.3.3,0,n,0,right,right,left,right,NA,698,16676,3794,698,NA,2,legacy,6,1024,2,48000,-16,experiment,1,odd,5,773171,769415,770542,1693,106029,770683,756135,1853,102235,771830,775324,776023,18538,775324,NA,Sternberg Task,81,97604,108,yes,1024
74.31192661,74.31192661,903.0917431,903.0917431,black,experiment,legacy,legacy,legacy,0,uniform,0,undefined,0,right,108,108,108,0,0,108,108,0,0,108,108,108,0,108,0,Thu Oct 15 19:51:10 2020,The main experiment item,yes,SternbergTask-AL.osexp,/Users/annielenoir/Desktop,no,mono,no,18,no,white,no,no,768,legacy,96,11,/Users/annielenoir/Desktop/AL-subject-1.csv,legacy,1 4 3 6 5,Lentiform Loewenfeld,3.3.3,0,n,0,left,right,left,left,NA,833,16676,3794,833,NA,2,legacy,5,1024,2,48000,-16,experiment,1,odd,8,779932,776171,777300,1693,106029,777442,756135,1853,102235,778592,782083,782917,18538,782083,NA,Sternberg Task,81,98437,109,yes,1024
73.63636364,73.63636364,898.2636364,898.2636364,black,experiment,legacy,legacy,legacy,0,uniform,0,undefined,0,left,109,109,109,0,0,109,109,0,0,109,109,109,0,109,0,Thu Oct 15 19:51:10 2020,The main experiment item,yes,SternbergTask-AL.osexp,/Users/annielenoir/Desktop,no,mono,no,18,no,white,no,no,768,legacy,97,11,/Users/annielenoir/Desktop/AL-subject-1.csv,legacy,4 3 2 5 8,Lentiform Loewenfeld,3.3.3,2,y,0,right,right,left,right,NA,372,16676,3794,372,NA,2,legacy,5,1024,2,48000,-16,experiment,1,odd,3,786842,776171,784205,1693,106029,784347,783061,1853,102235,785491,788981,789354,18538,788981,NA,Sternberg Task,81,98809,110,yes,1024
72.97297297,72.97297297,908.1891892,908.1891892,black,experiment,legacy,legacy,legacy,0,uniform,0,undefined,0,left,110,110,110,0,0,110,110,0,0,110,110,110,0,110,0,Thu Oct 15 19:51:10 2020,The main experiment item,yes,SternbergTask-AL.osexp,/Users/annielenoir/Desktop,no,mono,no,18,no,white,no,no,768,legacy,98,11,/Users/annielenoir/Desktop/AL-subject-1.csv,legacy,4,Lentiform Loewenfeld,3.3.3,1,y,0,None,right,left,None,NA,2000,16676,3794,2000,NA,2,legacy,1,1024,2,48000,-16,experiment,1,odd,4,793273,776171,790632,1693,106029,790773,789505,1853,102235,791921,795417,797417,18538,795417,NA,Sternberg Task,81,100809,111,yes,1024
73.21428571,73.21428571,907.2321429,907.2321429,black,experiment,legacy,legacy,legacy,0,uniform,1,undefined,1,right,111,111,111,0,0,111,111,0,0,111,111,111,0,111,0,Thu Oct 15 19:51:10 2020,The main experiment item,yes,SternbergTask-AL.osexp,/Users/annielenoir/Desktop,no,mono,no,18,no,white,no,no,768,legacy,99,11,/Users/annielenoir/Desktop/AL-subject-1.csv,legacy,8 6 3 4 7,Lentiform Loewenfeld,3.3.3,0,n,0,right,right,left,right,NA,801,16676,3794,801,NA,2,legacy,5,1024,2,48000,-16,experiment,1,odd,1,801355,776171,798731,1693,106029,798874,797563,1853,102235,800015,803497,804299,18538,803497,NA,Sternberg Task,82,101610,112,yes,1024
73.45132743,73.45132743,905.6017699,905.6017699,black,experiment,legacy,legacy,legacy,0,uniform,1,undefined,1,left,112,112,112,0,0,112,112,0,0,112,112,112,0,112,0,Thu Oct 15 19:51:10 2020,The main experiment item,yes,SternbergTask-AL.osexp,/Users/annielenoir/Desktop,no,mono,no,18,no,white,no,no,768,legacy,100,11,/Users/annielenoir/Desktop/AL-subject-1.csv,legacy,5 7 3 6 2,Lentiform Loewenfeld,3.3.3,5,y,0,left,right,left,left,NA,723,16676,3794,723,NA,2,legacy,5,1024,2,48000,-16,experiment,1,odd,2,808246,804453,805619,1693,106029,805761,797563,1853,102235,806899,810391,811115,18538,810390,NA,Sternberg Task,83,102333,113,yes,1024
72.80701754,72.80701754,906.122807,906.122807,black,experiment,legacy,legacy,legacy,0,uniform,0,undefined,0,left,113,113,113,0,0,113,113,0,0,113,113,113,0,113,0,Thu Oct 15 19:51:10 2020,The main experiment item,yes,SternbergTask-AL.osexp,/Users/annielenoir/Desktop,no,mono,no,18,no,white,no,no,768,legacy,101,11,/Users/annielenoir/Desktop/AL-subject-1.csv,legacy,9 1 7 2,Lentiform Loewenfeld,3.3.3,2,y,0,right,right,left,right,NA,965,16676,3794,965,NA,2,legacy,4,1024,2,48000,-16,experiment,1,odd,1,815059,811264,812434,1693,106029,812575,797563,1853,102235,813713,817201,818167,18538,817201,NA,Sternberg Task,83,103298,114,yes,1024
73.04347826,73.04347826,906.2347826,906.2347826,black,experiment,legacy,legacy,legacy,0,uniform,1,undefined,1,right,114,114,114,0,0,114,114,0,0,114,114,114,0,114,0,Thu Oct 15 19:51:10 2020,The main experiment item,yes,SternbergTask-AL.osexp,/Users/annielenoir/Desktop,no,mono,no,18,no,white,no,no,768,legacy,102,11,/Users/annielenoir/Desktop/AL-subject-1.csv,legacy,5 2,Lentiform Loewenfeld,3.3.3,0,n,0,right,right,left,right,NA,919,16676,3794,919,NA,2,legacy,2,1024,2,48000,-16,experiment,1,odd,7,822121,811264,819499,1693,106029,819636,818317,1853,102235,820772,824266,825186,18538,824266,NA,Sternberg Task,84,104217,115,yes,1024
73.27586207,73.27586207,903.9913793,903.9913793,black,experiment,legacy,legacy,legacy,0,uniform,1,undefined,1,right,115,115,115,0,0,115,115,0,0,115,115,115,0,115,0,Thu Oct 15 19:51:10 2020,The main experiment item,yes,SternbergTask-AL.osexp,/Users/annielenoir/Desktop,no,mono,no,18,no,white,no,no,768,legacy,103,11,/Users/annielenoir/Desktop/AL-subject-1.csv,legacy,3 9 1,Lentiform Loewenfeld,3.3.3,0,n,0,right,right,left,right,NA,646,16676,3794,646,NA,2,legacy,3,1024,2,48000,-16,experiment,1,odd,7,829125,825336,826505,1693,106029,826642,818317,1853,102235,827778,831269,831916,18538,831269,NA,Sternberg Task,85,104863,116,yes,1024
72.64957265,72.64957265,901.2222222,901.2222222,black,experiment,legacy,legacy,legacy,0,uniform,0,undefined,0,left,116,116,116,0,0,116,116,0,0,116,116,116,0,116,0,Thu Oct 15 19:51:10 2020,The main experiment item,yes,SternbergTask-AL.osexp,/Users/annielenoir/Desktop,no,mono,no,18,no,white,no,no,768,legacy,104,11,/Users/annielenoir/Desktop/AL-subject-1.csv,legacy,3 9 7 6 4,Lentiform Loewenfeld,3.3.3,3,y,0,right,right,left,right,NA,580,16676,3794,580,NA,2,legacy,5,1024,2,48000,-16,experiment,1,odd,7,835856,832060,833229,1693,106029,833368,818317,1853,102235,834508,837998,838579,18538,837998,NA,Sternberg Task,85,105443,117,yes,1024
72.88135593,72.88135593,901.7033898,901.7033898,black,experiment,legacy,legacy,legacy,0,uniform,1,undefined,1,right,117,117,117,0,0,117,117,0,0,117,117,117,0,117,0,Thu Oct 15 19:51:10 2020,The main experiment item,yes,SternbergTask-AL.osexp,/Users/annielenoir/Desktop,no,mono,no,18,no,white,no,no,768,legacy,105,11,/Users/annielenoir/Desktop/AL-subject-1.csv,legacy,8 4 3 5,Lentiform Loewenfeld,3.3.3,0,n,0,right,right,left,right,NA,958,16676,3794,958,NA,2,legacy,4,1024,2,48000,-16,experiment,1,odd,6,842500,832060,839861,1693,106029,840003,838724,1853,102235,841154,844638,845597,18538,844638,NA,Sternberg Task,86,106401,118,yes,1024
73.1092437,73.1092437,902.2268908,902.2268908,black,experiment,legacy,legacy,legacy,0,uniform,1,undefined,1,right,118,118,118,0,0,118,118,0,0,118,118,118,0,118,0,Thu Oct 15 19:51:10 2020,The main experiment item,yes,SternbergTask-AL.osexp,/Users/annielenoir/Desktop,no,mono,no,18,no,white,no,no,768,legacy,106,11,/Users/annielenoir/Desktop/AL-subject-1.csv,legacy,5 3 2 6 9 8,Lentiform Loewenfeld,3.3.3,0,n,0,right,right,left,right,NA,964,16676,3794,964,NA,2,legacy,6,1024,2,48000,-16,experiment,1,odd,4,849537,845745,846913,1693,106029,847051,838724,1853,102235,848188,851680,852645,18538,851680,NA,Sternberg Task,87,107365,119,yes,1024
73.33333333,73.33333333,903.6916667,903.6916667,black,experiment,legacy,legacy,legacy,0,uniform,1,undefined,1,left,119,119,119,0,0,119,119,0,0,119,119,119,0,119,0,Thu Oct 15 19:51:10 2020,The main experiment item,yes,SternbergTask-AL.osexp,/Users/annielenoir/Desktop,no,mono,no,18,no,white,no,no,768,legacy,107,11,/Users/annielenoir/Desktop/AL-subject-1.csv,legacy,1 4 9 3 2 5,Lentiform Loewenfeld,3.3.3,3,y,0,left,right,left,left,NA,1078,16676,3794,1078,NA,2,legacy,6,1024,2,48000,-16,experiment,1,odd,9,856595,852794,853974,1693,106029,854110,838724,1853,102235,855246,858739,859818,18538,858739,NA,Sternberg Task,88,108443,120,yes,1024
72.72727273,72.72727273,912.7520661,912.7520661,black,experiment,legacy,legacy,legacy,0,uniform,0,undefined,0,left,120,120,120,0,0,120,120,0,0,120,120,120,0,120,0,Thu Oct 15 19:51:10 2020,The main experiment item,yes,SternbergTask-AL.osexp,/Users/annielenoir/Desktop,no,mono,no,18,no,white,no,no,768,legacy,108,11,/Users/annielenoir/Desktop/AL-subject-1.csv,legacy,7 4 2 6 3 5,Lentiform Loewenfeld,3.3.3,6,y,0,None,right,left,None,NA,2000,16676,3794,2000,NA,2,legacy,6,1024,2,48000,-16,experiment,1,odd,5,863762,859967,861133,1693,106029,861269,838724,1853,102235,862406,865907,867907,18538,865907,NA,Sternberg Task,88,110443,121,yes,1024
72.95081967,72.95081967,912.7786885,912.7786885,black,experiment,legacy,legacy,legacy,0,uniform,1,undefined,1,right,121,121,121,0,0,121,121,0,0,121,121,121,0,121,0,Thu Oct 15 19:51:10 2020,The main experiment item,yes,SternbergTask-AL.osexp,/Users/annielenoir/Desktop,no,mono,no,18,no,white,no,no,768,legacy,109,11,/Users/annielenoir/Desktop/AL-subject-1.csv,legacy,4 1,Lentiform Loewenfeld,3.3.3,0,n,0,right,right,left,right,NA,916,16676,3794,916,NA,2,legacy,2,1024,2,48000,-16,experiment,1,odd,6,871821,859967,869190,1693,106029,869325,868051,1853,102235,870474,873965,874882,18538,873965,NA,Sternberg Task,89,111359,122,yes,1024
72.35772358,72.35772358,912.9349593,912.9349593,black,experiment,legacy,legacy,legacy,0,uniform,0,undefined,0,left,122,122,122,0,0,122,122,0,0,122,122,122,0,122,0,Thu Oct 15 19:51:10 2020,The main experiment item,yes,SternbergTask-AL.osexp,/Users/annielenoir/Desktop,no,mono,no,18,no,white,no,no,768,legacy,110,11,/Users/annielenoir/Desktop/AL-subject-1.csv,legacy,6 7 8 5,Lentiform Loewenfeld,3.3.3,3,y,0,right,right,left,right,NA,932,16676,3794,932,NA,2,legacy,4,1024,2,48000,-16,experiment,1,odd,8,878804,875026,876178,1693,106029,876313,868051,1853,102235,877456,880949,881890,18538,880949,NA,Sternberg Task,89,112291,123,yes,1024
71.77419355,71.77419355,921.7016129,921.7016129,black,experiment,legacy,legacy,legacy,0,uniform,0,undefined,0,right,123,123,123,0,0,123,123,0,0,123,123,123,0,123,0,Thu Oct 15 19:51:10 2020,The main experiment item,yes,SternbergTask-AL.osexp,/Users/annielenoir/Desktop,no,mono,no,18,no,white,no,no,768,legacy,111,11,/Users/annielenoir/Desktop/AL-subject-1.csv,legacy,8 9,Lentiform Loewenfeld,3.3.3,0,n,0,None,right,left,None,NA,2000,16676,3794,2000,NA,2,legacy,2,1024,2,48000,-16,experiment,1,odd,5,885828,875026,883195,1693,106029,883332,882037,1853,102235,884477,887978,889978,18538,887978,NA,Sternberg Task,89,114291,124,yes,1024
72,72,920.656,920.656,black,experiment,legacy,legacy,legacy,0,uniform,1,undefined,1,left,124,124,124,0,0,124,124,0,0,124,124,124,0,124,0,Thu Oct 15 19:51:10 2020,The main experiment item,yes,SternbergTask-AL.osexp,/Users/annielenoir/Desktop,no,mono,no,18,no,white,no,no,768,legacy,112,11,/Users/annielenoir/Desktop/AL-subject-1.csv,legacy,2 3 7 4,Lentiform Loewenfeld,3.3.3,1,y,0,left,right,left,left,NA,791,16676,3794,791,NA,2,legacy,4,1024,2,48000,-16,experiment,1,odd,2,893904,875026,891256,1693,106029,891401,890124,1853,102235,892550,896051,896843,18538,896051,NA,Sternberg Task,90,115082,125,yes,1024
72.22222222,72.22222222,920.6666667,920.6666667,black,experiment,legacy,legacy,legacy,0,uniform,1,undefined,1,right,125,125,125,0,0,125,125,0,0,125,125,125,0,125,0,Thu Oct 15 19:51:10 2020,The main experiment item,yes,SternbergTask-AL.osexp,/Users/annielenoir/Desktop,no,mono,no,18,no,white,no,no,768,legacy,113,11,/Users/annielenoir/Desktop/AL-subject-1.csv,legacy,2 8 6 3 1,Lentiform Loewenfeld,3.3.3,0,n,0,right,right,left,right,NA,922,16676,3794,922,NA,2,legacy,5,1024,2,48000,-16,experiment,1,odd,7,900772,896991,898148,1693,106029,898282,890124,1853,102235,899424,902916,903841,18538,902916,NA,Sternberg Task,91,116004,126,yes,1024
71.65354331,71.65354331,922.8582677,922.8582677,black,experiment,legacy,legacy,legacy,0,uniform,0,undefined,0,left,126,126,126,0,0,126,126,0,0,126,126,126,0,126,0,Thu Oct 15 19:51:10 2020,The main experiment item,yes,SternbergTask-AL.osexp,/Users/annielenoir/Desktop,no,mono,no,18,no,white,no,no,768,legacy,114,11,/Users/annielenoir/Desktop/AL-subject-1.csv,legacy,8 5 1 3 9,Lentiform Loewenfeld,3.3.3,4,y,0,right,right,left,right,NA,1199,16676,3794,1199,NA,2,legacy,5,1024,2,48000,-16,experiment,1,odd,3,907768,903988,905145,1693,106029,905283,890124,1853,102235,906420,909911,911111,18538,909911,NA,Sternberg Task,91,117203,127,yes,1024
71.09375,71.09375,922.28125,922.28125,black,experiment,legacy,legacy,legacy,0,uniform,0,undefined,0,left,127,127,127,0,0,127,127,0,0,127,127,127,0,127,0,Thu Oct 15 19:51:10 2020,The main experiment item,yes,SternbergTask-AL.osexp,/Users/annielenoir/Desktop,no,mono,no,18,no,white,no,no,768,legacy,115,11,/Users/annielenoir/Desktop/AL-subject-1.csv,legacy,8 9 6 1,Lentiform Loewenfeld,3.3.3,2,y,0,right,right,left,right,NA,849,16676,3794,849,NA,2,legacy,4,1024,2,48000,-16,experiment,1,odd,9,915035,903988,912423,1693,106029,912557,911258,1853,102235,913690,917180,918030,18538,917180,NA,Sternberg Task,91,118052,128,yes,1024
71.31782946,71.31782946,921.0155039,921.0155039,black,experiment,legacy,legacy,legacy,0,uniform,1,undefined,1,right,128,128,128,0,0,128,128,0,0,128,128,128,0,128,0,Thu Oct 15 19:51:10 2020,The main experiment item,yes,SternbergTask-AL.osexp,/Users/annielenoir/Desktop,no,mono,no,18,no,white,no,no,768,legacy,116,11,/Users/annielenoir/Desktop/AL-subject-1.csv,legacy,6 8,Lentiform Loewenfeld,3.3.3,0,n,0,right,right,left,right,NA,759,16676,3794,759,NA,2,legacy,2,1024,2,48000,-16,experiment,1,odd,9,921960,903988,919336,1693,106029,919475,918178,1853,102235,920612,924103,924863,18538,924103,NA,Sternberg Task,92,118811,129,yes,1024
70.76923077,70.76923077,929.3153846,929.3153846,black,experiment,legacy,legacy,legacy,0,uniform,0,undefined,0,right,129,129,129,0,0,129,129,0,0,129,129,129,0,129,0,Thu Oct 15 19:51:10 2020,The main experiment item,yes,SternbergTask-AL.osexp,/Users/annielenoir/Desktop,no,mono,no,18,no,white,no,no,768,legacy,117,11,/Users/annielenoir/Desktop/AL-subject-1.csv,legacy,1,Lentiform Loewenfeld,3.3.3,0,n,0,None,right,left,None,NA,2000,16676,3794,2000,NA,2,legacy,1,1024,2,48000,-16,experiment,1,odd,7,928817,925013,926194,1693,106029,926331,918178,1853,102235,927469,930967,932967,18538,930966,NA,Sternberg Task,92,120811,130,yes,1024
70.22900763,70.22900763,937.4885496,937.4885496,black,experiment,legacy,legacy,legacy,0,uniform,0,undefined,0,right,130,130,130,0,0,130,130,0,0,130,130,130,0,130,0,Thu Oct 15 19:51:10 2020,The main experiment item,yes,SternbergTask-AL.osexp,/Users/annielenoir/Desktop,no,mono,no,18,no,white,no,no,768,legacy,118,11,/Users/annielenoir/Desktop/AL-subject-1.csv,legacy,1 3 2 6 9,Lentiform Loewenfeld,3.3.3,0,n,0,None,right,left,None,NA,2000,16676,3794,2000,NA,2,legacy,5,1024,2,48000,-16,experiment,1,odd,5,936903,925013,934248,1693,106029,934399,933113,1853,102235,935550,939067,941067,18538,939067,NA,Sternberg Task,92,122811,131,yes,1024
69.6969697,69.6969697,945.5378788,945.5378788,black,experiment,legacy,legacy,legacy,0,uniform,0,undefined,0,right,131,131,131,0,0,131,131,0,0,131,131,131,0,131,0,Thu Oct 15 19:51:10 2020,The main experiment item,yes,SternbergTask-AL.osexp,/Users/annielenoir/Desktop,no,mono,no,18,no,white,no,no,768,legacy,119,11,/Users/annielenoir/Desktop/AL-subject-1.csv,legacy,7 3 2 8,Lentiform Loewenfeld,3.3.3,0,n,0,None,right,left,None,NA,2000,16676,3794,2000,NA,2,legacy,4,1024,2,48000,-16,experiment,1,odd,4,945127,925013,942438,1693,106029,942628,941265,1853,102235,943778,947271,949271,18538,947271,NA,Sternberg Task,92,124811,132,yes,1024
69.92481203,69.92481203,944.8345865,944.8345865,black,experiment,legacy,legacy,legacy,0,uniform,1,undefined,1,left,132,132,132,0,0,132,132,0,0,132,132,132,0,132,0,Thu Oct 15 19:51:10 2020,The main experiment item,yes,SternbergTask-AL.osexp,/Users/annielenoir/Desktop,no,mono,no,18,no,white,no,no,768,legacy,120,11,/Users/annielenoir/Desktop/AL-subject-1.csv,legacy,6 2,Lentiform Loewenfeld,3.3.3,1,y,0,left,right,left,left,NA,852,16676,3794,852,NA,2,legacy,2,1024,2,48000,-16,experiment,1,odd,6,953193,925013,950563,1693,106029,950700,949418,1853,102235,951846,955338,956192,18538,955338,NA,Sternberg Task,93,125663,133,yes,1024
69.40298507,69.40298507,952.7089552,952.7089552,black,experiment,legacy,legacy,legacy,0,uniform,0,undefined,0,right,133,133,133,0,0,133,133,0,0,133,133,133,0,133,0,Thu Oct 15 19:51:10 2020,The main experiment item,yes,SternbergTask-AL.osexp,/Users/annielenoir/Desktop,no,mono,no,18,no,white,no,no,768,legacy,121,11,/Users/annielenoir/Desktop/AL-subject-1.csv,legacy,5 9 2 3,Lentiform Loewenfeld,3.3.3,0,n,0,None,right,left,None,NA,2000,16676,3794,2000,NA,2,legacy,4,1024,2,48000,-16,experiment,1,odd,8,960112,956337,957488,1693,106029,957623,949418,1853,102235,958766,962256,964256,18538,962256,NA,Sternberg Task,93,127663,134,yes,1024
69.62962963,69.62962963,952.6888889,952.6888889,black,experiment,legacy,legacy,legacy,0,uniform,1,undefined,1,left,134,134,134,0,0,134,134,0,0,134,134,134,0,134,0,Thu Oct 15 19:51:10 2020,The main experiment item,yes,SternbergTask-AL.osexp,/Users/annielenoir/Desktop,no,mono,no,18,no,white,no,no,768,legacy,122,11,/Users/annielenoir/Desktop/AL-subject-1.csv,legacy,7 6,Lentiform Loewenfeld,3.3.3,2,y,0,left,right,left,left,NA,950,16676,3794,950,NA,2,legacy,2,1024,2,48000,-16,experiment,1,odd,6,968161,956337,965531,1693,106029,965666,964401,1853,102235,966811,970306,971257,18538,970306,NA,Sternberg Task,94,128613,135,yes,1024
69.11764706,69.11764706,960.3897059,960.3897059,black,experiment,legacy,legacy,legacy,0,uniform,0,undefined,0,right,135,135,135,0,0,135,135,0,0,135,135,135,0,135,0,Thu Oct 15 19:51:10 2020,The main experiment item,yes,SternbergTask-AL.osexp,/Users/annielenoir/Desktop,no,mono,no,18,no,white,no,no,768,legacy,123,11,/Users/annielenoir/Desktop/AL-subject-1.csv,legacy,2 8 9,Lentiform Loewenfeld,3.3.3,0,n,0,None,right,left,None,NA,2000,16676,3794,2000,NA,2,legacy,3,1024,2,48000,-16,experiment,1,odd,6,975168,971403,972540,1693,106029,972675,964401,1853,102235,973821,977320,979320,18538,977320,NA,Sternberg Task,94,130613,136,yes,1024
68.61313869,68.61313869,967.9781022,967.9781022,black,experiment,legacy,legacy,legacy,0,uniform,0,undefined,0,right,136,136,136,0,0,136,136,0,0,136,136,136,0,136,0,Thu Oct 15 19:51:10 2020,The main experiment item,yes,SternbergTask-AL.osexp,/Users/annielenoir/Desktop,no,mono,no,18,no,white,no,no,768,legacy,124,11,/Users/annielenoir/Desktop/AL-subject-1.csv,legacy,4 8 1 2,Lentiform Loewenfeld,3.3.3,0,n,0,None,right,left,None,NA,2000,16676,3794,2000,NA,2,legacy,4,1024,2,48000,-16,experiment,1,odd,7,983257,971403,980596,1693,106029,980731,979464,1853,102235,981881,985412,987412,18538,985411,NA,Sternberg Task,94,132613,137,yes,1024
68.11594203,68.11594203,975.4565217,975.4565217,black,experiment,legacy,legacy,legacy,0,uniform,0,undefined,0,right,137,137,137,0,0,137,137,0,0,137,137,137,0,137,0,Thu Oct 15 19:51:10 2020,The main experiment item,yes,SternbergTask-AL.osexp,/Users/annielenoir/Desktop,no,mono,no,18,no,white,no,no,768,legacy,125,11,/Users/annielenoir/Desktop/AL-subject-1.csv,legacy,1 4 9 2 5,Lentiform Loewenfeld,3.3.3,0,n,0,None,right,left,None,NA,2000,16676,3794,2000,NA,2,legacy,5,1024,2,48000,-16,experiment,1,odd,7,991388,971403,988751,1693,106029,988890,987567,1853,102235,990037,993534,995535,18538,993533,NA,Sternberg Task,94,134613,138,yes,1024