"acc","accuracy","average_response_time","avg_rt","background","block","canvas_backend","clock_backend","color_backend","compensation","coordinates","correct","correct_instruction1","correct_keyboard_response","correct_response","count_ISI","count_correctFeedback","count_expSequence","count_experiment","count_experimentLoop","count_fixation","count_incorrectFeedback","count_instruction1","count_instructions2","count_keyboard_response","count_logger","count_memorySet","count_practiceLoop","count_probe","count_thankYou","datetime","description","disable_garbage_collection","experiment_file","experiment_path","font_bold","font_family","font_italic","font_size","font_underline","foreground","form_clicks","fullscreen","height","keyboard_backend","live_row","live_row_practiceLoop","logfile","mouse_backend","numberSet","opensesame_codename","opensesame_version","posInSet","present","repeat_cycle","response","response_instruction1","response_instructions2","response_keyboard_response","response_thankYou","response_time","response_time_instruction1","response_time_instructions2","response_time_keyboard_response","response_time_thankYou","round_decimals","sampler_backend","setSize","sound_buf_size","sound_channels","sound_freq","sound_sample_size","start","subject_nr","subject_parity","target","time_ISI","time_correctFeedback","time_expSequence","time_experiment","time_experimentLoop","time_fixation","time_incorrectFeedback","time_instruction1","time_instructions2","time_keyboard_response","time_logger","time_memorySet","time_practiceLoop","time_probe","time_thankYou","title","total_correct","total_response_time","total_responses","uniform_coordinates","width"
"0","0","2000","2000","black","practice","legacy","legacy","legacy","0","uniform","0","undefined","0","left","0","0","0","0","0","0","0","0","0","0","0","0","0","0","0","Sun Oct 24 17:53:45 2021","The main experiment item","yes","Sternbergtask.osexp","/Users/samonemarks/Desktop","no","mono","no","18","no","white","no","yes","768","legacy","0","0","/Users/samonemarks/Desktop/SM-subject-4.csv","legacy","4 8","Lentiform Loewenfeld","3.3.9","1","y","0","None","right","NA","None","NA","2000","72748","NA","2000","NA","2","legacy","2","1024","2","48000","-16","experiment","4","even","4","80290","NA","78078","4926","NA","78082","NA","4977","NA","82292","84292","79087","77757","82292","NA","Sternberg task","0","2000","1","yes","1024"
"0","0","2000","2000","black","practice","legacy","legacy","legacy","0","uniform","0","undefined","0","right","1","1","1","0","0","1","1","0","0","1","1","1","0","1","0","Sun Oct 24 17:53:45 2021","The main experiment item","yes","Sternbergtask.osexp","/Users/samonemarks/Desktop","no","mono","no","18","no","white","no","yes","768","legacy","1","1","/Users/samonemarks/Desktop/SM-subject-4.csv","legacy","5","Lentiform Loewenfeld","3.3.9","0","n","0","None","right","NA","None","NA","2000","72748","NA","2000","NA","2","legacy","1","1024","2","48000","-16","experiment","4","even","3","87605","NA","85397","4926","NA","85399","84322","4977","NA","89609","91609","86401","77757","89609","NA","Sternberg task","0","4000","2","yes","1024"
"0","0","2000","2000","black","practice","legacy","legacy","legacy","0","uniform","0","undefined","0","right","2","2","2","0","0","2","2","0","0","2","2","2","0","2","0","Sun Oct 24 17:53:45 2021","The main experiment item","yes","Sternbergtask.osexp","/Users/samonemarks/Desktop","no","mono","no","18","no","white","no","yes","768","legacy","2","2","/Users/samonemarks/Desktop/SM-subject-4.csv","legacy","2 1","Lentiform Loewenfeld","3.3.9","0","n","0","None","right","NA","None","NA","2000","72748","NA","2000","NA","2","legacy","2","1024","2","48000","-16","experiment","4","even","5","94877","NA","92667","4926","NA","92671","91615","4977","NA","96882","98882","93674","77757","96881","NA","Sternberg task","0","6000","3","yes","1024"
"0","0","2000","2000","black","practice","legacy","legacy","legacy","0","uniform","0","undefined","0","right","3","3","3","0","0","3","3","0","0","3","3","3","0","3","0","Sun Oct 24 17:53:45 2021","The main experiment item","yes","Sternbergtask.osexp","/Users/samonemarks/Desktop","no","mono","no","18","no","white","no","yes","768","legacy","3","3","/Users/samonemarks/Desktop/SM-subject-4.csv","legacy","9 6 7 4 5","Lentiform Loewenfeld","3.3.9","0","n","0","None","right","NA","None","NA","2000","72748","NA","2000","NA","2","legacy","5","1024","2","48000","-16","experiment","4","even","3","102146","NA","99938","4926","NA","99940","98886","4977","NA","104149","106149","100942","77757","104149","NA","Sternberg task","0","8000","4","yes","1024"
"0","0","2000","2000","black","practice","legacy","legacy","legacy","0","uniform","0","undefined","0","right","4","4","4","0","0","4","4","0","0","4","4","4","0","4","0","Sun Oct 24 17:53:45 2021","The main experiment item","yes","Sternbergtask.osexp","/Users/samonemarks/Desktop","no","mono","no","18","no","white","no","yes","768","legacy","4","4","/Users/samonemarks/Desktop/SM-subject-4.csv","legacy","4 1 5","Lentiform Loewenfeld","3.3.9","0","n","0","None","right","NA","None","NA","2000","72748","NA","2000","NA","2","legacy","3","1024","2","48000","-16","experiment","4","even","2","109413","NA","107205","4926","NA","107208","106154","4977","NA","111417","113417","108210","77757","111417","NA","Sternberg task","0","10000","5","yes","1024"
"0","0","2000","2000","black","practice","legacy","legacy","legacy","0","uniform","0","undefined","0","right","5","5","5","0","0","5","5","0","0","5","5","5","0","5","0","Sun Oct 24 17:53:45 2021","The main experiment item","yes","Sternbergtask.osexp","/Users/samonemarks/Desktop","no","mono","no","18","no","white","no","yes","768","legacy","5","5","/Users/samonemarks/Desktop/SM-subject-4.csv","legacy","3 1 9 4","Lentiform Loewenfeld","3.3.9","0","n","0","None","right","NA","None","NA","2000","72748","NA","2000","NA","2","legacy","4","1024","2","48000","-16","experiment","4","even","6","116686","NA","114476","4926","NA","114479","113422","4977","NA","118688","120688","115482","77757","118688","NA","Sternberg task","0","12000","6","yes","1024"
"0","0","2000","2000","black","practice","legacy","legacy","legacy","0","uniform","0","undefined","0","left","6","6","6","0","0","6","6","0","0","6","6","6","0","6","0","Sun Oct 24 17:53:45 2021","The main experiment item","yes","Sternbergtask.osexp","/Users/samonemarks/Desktop","no","mono","no","18","no","white","no","yes","768","legacy","6","6","/Users/samonemarks/Desktop/SM-subject-4.csv","legacy","4 3 1 7 9 8","Lentiform Loewenfeld","3.3.9","1","y","0","None","right","NA","None","NA","2000","72748","NA","2000","NA","2","legacy","6","1024","2","48000","-16","experiment","4","even","4","123954","NA","121747","4926","NA","121749","120693","4977","NA","125958","127958","122751","77757","125958","NA","Sternberg task","0","14000","7","yes","1024"
"0","0","2000","2000","black","practice","legacy","legacy","legacy","0","uniform","0","undefined","0","right","7","7","7","0","0","7","7","0","0","7","7","7","0","7","0","Sun Oct 24 17:53:45 2021","The main experiment item","yes","Sternbergtask.osexp","/Users/samonemarks/Desktop","no","mono","no","18","no","white","no","yes","768","legacy","7","7","/Users/samonemarks/Desktop/SM-subject-4.csv","legacy","5 7 8 4 1 2","Lentiform Loewenfeld","3.3.9","0","n","0","None","right","NA","None","NA","2000","72748","NA","2000","NA","2","legacy","6","1024","2","48000","-16","experiment","4","even","6","131223","NA","129015","4926","NA","129017","127962","4977","NA","133225","135225","130020","77757","133225","NA","Sternberg task","0","16000","8","yes","1024"
"0","0","2000","2000","black","practice","legacy","legacy","legacy","0","uniform","0","undefined","0","left","8","8","8","0","0","8","8","0","0","8","8","8","0","8","0","Sun Oct 24 17:53:45 2021","The main experiment item","yes","Sternbergtask.osexp","/Users/samonemarks/Desktop","no","mono","no","18","no","white","no","yes","768","legacy","8","8","/Users/samonemarks/Desktop/SM-subject-4.csv","legacy","1 5 2 9","Lentiform Loewenfeld","3.3.9","2","y","0","None","right","NA","None","NA","2000","72748","NA","2000","NA","2","legacy","4","1024","2","48000","-16","experiment","4","even","5","138489","NA","136282","4926","NA","136284","135230","4977","NA","140492","142492","137286","77757","140492","NA","Sternberg task","0","18000","9","yes","1024"
"0","0","2000","2000","black","practice","legacy","legacy","legacy","0","uniform","0","undefined","0","left","9","9","9","0","0","9","9","0","0","9","9","9","0","9","0","Sun Oct 24 17:53:45 2021","The main experiment item","yes","Sternbergtask.osexp","/Users/samonemarks/Desktop","no","mono","no","18","no","white","no","yes","768","legacy","9","9","/Users/samonemarks/Desktop/SM-subject-4.csv","legacy","2 9 4","Lentiform Loewenfeld","3.3.9","3","y","0","None","right","NA","None","NA","2000","72748","NA","2000","NA","2","legacy","3","1024","2","48000","-16","experiment","4","even","4","145763","NA","143547","4926","NA","143550","142496","4977","NA","147768","149768","144557","77757","147768","NA","Sternberg task","0","20000","10","yes","1024"
"9.090909090909092","9.090909090909092","1941.090909090909","1941.090909090909","black","practice","legacy","legacy","legacy","0","uniform","1","undefined","1","left","10","10","10","0","0","10","10","0","0","10","10","10","0","10","0","Sun Oct 24 17:53:45 2021","The main experiment item","yes","Sternbergtask.osexp","/Users/samonemarks/Desktop","no","mono","no","18","no","white","no","yes","768","legacy","10","10","/Users/samonemarks/Desktop/SM-subject-4.csv","legacy","1 7 9 8 5","Lentiform Loewenfeld","3.3.9","4","y","0","left","right","NA","left","NA","1352","72748","NA","1352","NA","2","legacy","5","1024","2","48000","-16","experiment","4","even","8","153032","NA","150825","4926","NA","150827","149773","4977","NA","155050","156402","151829","77757","155050","NA","Sternberg task","1","21352","11","yes","1024"
"16.666666666666668","16.666666666666668","1830.25","1830.25","black","practice","legacy","legacy","legacy","0","uniform","1","undefined","1","left","11","11","11","0","0","11","11","0","0","11","11","11","0","11","0","Sun Oct 24 17:53:45 2021","The main experiment item","yes","Sternbergtask.osexp","/Users/samonemarks/Desktop","no","mono","no","18","no","white","no","yes","768","legacy","11","11","/Users/samonemarks/Desktop/SM-subject-4.csv","legacy","6","Lentiform Loewenfeld","3.3.9","1","y","0","left","right","NA","left","NA","611","72748","NA","611","NA","2","legacy","1","1024","2","48000","-16","experiment","4","even","6","159668","156407","157459","4926","NA","157462","149773","4977","NA","161671","162283","158464","77757","161670","NA","Sternberg task","2","21963","12","yes","1024"
"23.076923076923077","23.076923076923077","1785.076923076923","1785.076923076923","black","experiment","legacy","legacy","legacy","0","uniform","1","undefined","1","right","12","12","12","0","0","12","12","0","0","12","12","12","0","12","0","Sun Oct 24 17:53:45 2021","The main experiment item","yes","Sternbergtask.osexp","/Users/samonemarks/Desktop","no","mono","no","18","no","white","no","yes","768","legacy","0","11","/Users/samonemarks/Desktop/SM-subject-4.csv","legacy","3 4 2","Lentiform Loewenfeld","3.3.9","0","n","0","right","right","left","right","NA","1243","72748","30397","1243","NA","2","legacy","3","1024","2","48000","-16","experiment","4","even","5","195979","162286","193768","4926","193712","193771","149773","4977","163314","197981","199224","194774","77757","197981","NA","Sternberg task","3","23206","13","yes","1024"
"28.571428571428573","28.571428571428573","1733.2142857142858","1733.2142857142858","black","experiment","legacy","legacy","legacy","0","uniform","1","undefined","1","right","13","13","13","0","0","13","13","0","0","13","13","13","0","13","0","Sun Oct 24 17:53:45 2021","The main experiment item","yes","Sternbergtask.osexp","/Users/samonemarks/Desktop","no","mono","no","18","no","white","no","yes","768","legacy","1","11","/Users/samonemarks/Desktop/SM-subject-4.csv","legacy","7 1","Lentiform Loewenfeld","3.3.9","0","n","0","right","right","left","right","NA","1059","72748","30397","1059","NA","2","legacy","2","1024","2","48000","-16","experiment","4","even","8","202489","199230","200282","4926","193712","200284","149773","4977","163314","204492","205551","201286","77757","204491","NA","Sternberg task","4","24265","14","yes","1024"
"26.666666666666668","26.666666666666668","1707.2","1707.2","black","experiment","legacy","legacy","legacy","0","uniform","0","undefined","0","right","14","14","14","0","0","14","14","0","0","14","14","14","0","14","0","Sun Oct 24 17:53:45 2021","The main experiment item","yes","Sternbergtask.osexp","/Users/samonemarks/Desktop","no","mono","no","18","no","white","no","yes","768","legacy","2","11","/Users/samonemarks/Desktop/SM-subject-4.csv","legacy","2 8 9 4 1","Lentiform Loewenfeld","3.3.9","0","n","0","left","right","left","left","NA","1343","72748","30397","1343","NA","2","legacy","5","1024","2","48000","-16","experiment","4","even","5","208818","205556","206609","4926","193712","206611","149773","4977","163314","210820","212163","207614","77757","210820","NA","Sternberg task","4","25608","15","yes","1024"
"31.25","31.25","1645.625","1645.625","black","experiment","legacy","legacy","legacy","0","uniform","1","undefined","1","right","15","15","15","0","0","15","15","0","0","15","15","15","0","15","0","Sun Oct 24 17:53:45 2021","The main experiment item","yes","Sternbergtask.osexp","/Users/samonemarks/Desktop","no","mono","no","18","no","white","no","yes","768","legacy","3","11","/Users/samonemarks/Desktop/SM-subject-4.csv","legacy","1 7 5 2 9","Lentiform Loewenfeld","3.3.9","0","n","0","right","right","left","right","NA","722","72748","30397","722","NA","2","legacy","5","1024","2","48000","-16","experiment","4","even","3","215430","205556","213222","4926","193712","213224","212169","4977","163314","217433","218156","214226","77757","217433","NA","Sternberg task","5","26330","16","yes","1024"
"29.41176470588235","29.41176470588235","1599.7058823529412","1599.7058823529412","black","experiment","legacy","legacy","legacy","0","uniform","0","undefined","0","right","16","16","16","0","0","16","16","0","0","16","16","16","0","16","0","Sun Oct 24 17:53:45 2021","The main experiment item","yes","Sternbergtask.osexp","/Users/samonemarks/Desktop","no","mono","no","18","no","white","no","yes","768","legacy","4","11","/Users/samonemarks/Desktop/SM-subject-4.csv","legacy","1 3 2 6 9","Lentiform Loewenfeld","3.3.9","0","n","0","left","right","left","left","NA","865","72748","30397","865","NA","2","legacy","5","1024","2","48000","-16","experiment","4","even","5","221420","218160","219212","4926","193712","219214","212169","4977","163314","223422","224288","220217","77757","223422","NA","Sternberg task","5","27195","17","yes","1024"
"33.333333333333336","33.333333333333336","1560.8333333333333","1560.8333333333333","black","experiment","legacy","legacy","legacy","0","uniform","1","undefined","1","right","17","17","17","0","0","17","17","0","0","17","17","17","0","17","0","Sun Oct 24 17:53:45 2021","The main experiment item","yes","Sternbergtask.osexp","/Users/samonemarks/Desktop","no","mono","no","18","no","white","no","yes","768","legacy","5","11","/Users/samonemarks/Desktop/SM-subject-4.csv","legacy","4 1","Lentiform Loewenfeld","3.3.9","0","n","0","right","right","left","right","NA","900","72748","30397","900","NA","2","legacy","2","1024","2","48000","-16","experiment","4","even","6","227551","218160","225345","4926","193712","225347","224292","4977","163314","229553","230453","226349","77757","229553","NA","Sternberg task","6","28095","18","yes","1024"
"36.8421052631579","36.8421052631579","1516.3684210526317","1516.3684210526317","black","experiment","legacy","legacy","legacy","0","uniform","1","undefined","1","right","18","18","18","0","0","18","18","0","0","18","18","18","0","18","0","Sun Oct 24 17:53:45 2021","The main experiment item","yes","Sternbergtask.osexp","/Users/samonemarks/Desktop","no","mono","no","18","no","white","no","yes","768","legacy","6","11","/Users/samonemarks/Desktop/SM-subject-4.csv","legacy","3 9 8 1 6 4","Lentiform Loewenfeld","3.3.9","0","n","0","right","right","left","right","NA","716","72748","30397","716","NA","2","legacy","6","1024","2","48000","-16","experiment","4","even","7","233718","230458","231510","4926","193712","231513","224292","4977","163314","235720","236437","232515","77757","235720","NA","Sternberg task","7","28811","19","yes","1024"
"40","40","1464.15","1464.15","black","experiment","legacy","legacy","legacy","0","uniform","1","undefined","1","right","19","19","19","0","0","19","19","0","0","19","19","19","0","19","0","Sun Oct 24 17:53:45 2021","The main experiment item","yes","Sternbergtask.osexp","/Users/samonemarks/Desktop","no","mono","no","18","no","white","no","yes","768","legacy","7","11","/Users/samonemarks/Desktop/SM-subject-4.csv","legacy","5 3 8 7 2 4","Lentiform Loewenfeld","3.3.9","0","n","0","right","right","left","right","NA","472","72748","30397","472","NA","2","legacy","6","1024","2","48000","-16","experiment","4","even","9","239701","236442","237494","4926","193712","237496","224292","4977","163314","241704","242176","238498","77757","241704","NA","Sternberg task","8","29283","20","yes","1024"
"42.857142857142854","42.857142857142854","1447.3809523809523","1447.3809523809523","black","experiment","legacy","legacy","legacy","0","uniform","1","undefined","1","left","20","20","20","0","0","20","20","0","0","20","20","20","0","20","0","Sun Oct 24 17:53:45 2021","The main experiment item","yes","Sternbergtask.osexp","/Users/samonemarks/Desktop","no","mono","no","18","no","white","no","yes","768","legacy","8","11","/Users/samonemarks/Desktop/SM-subject-4.csv","legacy","8 5 4 7 3 1","Lentiform Loewenfeld","3.3.9","2","y","0","left","right","left","left","NA","1112","72748","30397","1112","NA","2","legacy","6","1024","2","48000","-16","experiment","4","even","5","245440","242182","243233","4926","193712","243235","224292","4977","163314","247443","248556","244237","77757","247443","NA","Sternberg task","9","30395","21","yes","1024"
"45.45454545454545","45.45454545454545","1413.5454545454545","1413.5454545454545","black","experiment","legacy","legacy","legacy","0","uniform","1","undefined","1","right","21","21","21","0","0","21","21","0","0","21","21","21","0","21","0","Sun Oct 24 17:53:45 2021","The main experiment item","yes","Sternbergtask.osexp","/Users/samonemarks/Desktop","no","mono","no","18","no","white","no","yes","768","legacy","9","11","/Users/samonemarks/Desktop/SM-subject-4.csv","legacy","7 4 2 8 1 9","Lentiform Loewenfeld","3.3.9","0","n","0","right","right","left","right","NA","703","72748","30397","703","NA","2","legacy","6","1024","2","48000","-16","experiment","4","even","5","251820","248561","249612","4926","193712","249615","224292","4977","163314","253823","254526","250617","77757","253823","NA","Sternberg task","10","31098","22","yes","1024"
"43.47826086956522","43.47826086956522","1396.8260869565217","1396.8260869565217","black","experiment","legacy","legacy","legacy","0","uniform","0","undefined","0","left","22","22","22","0","0","22","22","0","0","22","22","22","0","22","0","Sun Oct 24 17:53:45 2021","The main experiment item","yes","Sternbergtask.osexp","/Users/samonemarks/Desktop","no","mono","no","18","no","white","no","yes","768","legacy","10","11","/Users/samonemarks/Desktop/SM-subject-4.csv","legacy","3 9 6 2","Lentiform Loewenfeld","3.3.9","4","y","0","right","right","left","right","NA","1029","72748","30397","1029","NA","2","legacy","4","1024","2","48000","-16","experiment","4","even","2","257790","254531","255583","4926","193712","255585","224292","4977","163314","259793","260822","256587","77757","259793","NA","Sternberg task","10","32127","23","yes","1024"
"45.833333333333336","45.833333333333336","1370.5","1370.5","black","experiment","legacy","legacy","legacy","0","uniform","1","undefined","1","right","23","23","23","0","0","23","23","0","0","23","23","23","0","23","0","Sun Oct 24 17:53:45 2021","The main experiment item","yes","Sternbergtask.osexp","/Users/samonemarks/Desktop","no","mono","no","18","no","white","no","yes","768","legacy","11","11","/Users/samonemarks/Desktop/SM-subject-4.csv","legacy","7 6 4 8 1 2","Lentiform Loewenfeld","3.3.9","0","n","0","right","right","left","right","NA","765","72748","30397","765","NA","2","legacy","6","1024","2","48000","-16","experiment","4","even","9","264087","254531","261880","4926","193712","261882","260827","4977","163314","266090","266856","262884","77757","266090","NA","Sternberg task","11","32892","24","yes","1024"
"48","48","1333.92","1333.92","black","experiment","legacy","legacy","legacy","0","uniform","1","undefined","1","left","24","24","24","0","0","24","24","0","0","24","24","24","0","24","0","Sun Oct 24 17:53:45 2021","The main experiment item","yes","Sternbergtask.osexp","/Users/samonemarks/Desktop","no","mono","no","18","no","white","no","yes","768","legacy","12","11","/Users/samonemarks/Desktop/SM-subject-4.csv","legacy","8 1 6","Lentiform Loewenfeld","3.3.9","3","y","0","left","right","left","left","NA","456","72748","30397","456","NA","2","legacy","3","1024","2","48000","-16","experiment","4","even","6","270121","266860","267912","4926","193712","267914","260827","4977","163314","272123","272580","268917","77757","272123","NA","Sternberg task","12","33348","25","yes","1024"
"50","50","1305.923076923077","1305.923076923077","black","experiment","legacy","legacy","legacy","0","uniform","1","undefined","1","left","25","25","25","0","0","25","25","0","0","25","25","25","0","25","0","Sun Oct 24 17:53:45 2021","The main experiment item","yes","Sternbergtask.osexp","/Users/samonemarks/Desktop","no","mono","no","18","no","white","no","yes","768","legacy","13","11","/Users/samonemarks/Desktop/SM-subject-4.csv","legacy","6 7 9 3 1 2","Lentiform Loewenfeld","3.3.9","1","y","0","left","right","left","left","NA","606","72748","30397","606","NA","2","legacy","6","1024","2","48000","-16","experiment","4","even","6","275844","272585","273637","4926","193712","273639","260827","4977","163314","277847","278454","274641","77757","277847","NA","Sternberg task","13","33954","26","yes","1024"
"48.148148148148145","48.148148148148145","1283.7777777777778","1283.7777777777778","black","experiment","legacy","legacy","legacy","0","uniform","0","undefined","0","right","26","26","26","0","0","26","26","0","0","26","26","26","0","26","0","Sun Oct 24 17:53:45 2021","The main experiment item","yes","Sternbergtask.osexp","/Users/samonemarks/Desktop","no","mono","no","18","no","white","no","yes","768","legacy","14","11","/Users/samonemarks/Desktop/SM-subject-4.csv","legacy","4 2 7 6 1 3","Lentiform Loewenfeld","3.3.9","0","n","0","left","right","left","left","NA","708","72748","30397","708","NA","2","legacy","6","1024","2","48000","-16","experiment","4","even","8","281720","278458","279511","4926","193712","279514","260827","4977","163314","283722","284431","280516","77757","283722","NA","Sternberg task","13","34662","27","yes","1024"
"50","50","1269.1785714285713","1269.1785714285713","black","experiment","legacy","legacy","legacy","0","uniform","1","undefined","1","right","27","27","27","0","0","27","27","0","0","27","27","27","0","27","0","Sun Oct 24 17:53:45 2021","The main experiment item","yes","Sternbergtask.osexp","/Users/samonemarks/Desktop","no","mono","no","18","no","white","no","yes","768","legacy","15","11","/Users/samonemarks/Desktop/SM-subject-4.csv","legacy","6 9 4 5 2","Lentiform Loewenfeld","3.3.9","0","n","0","right","right","left","right","NA","875","72748","30397","875","NA","2","legacy","5","1024","2","48000","-16","experiment","4","even","1","287696","278458","285488","4926","193712","285491","284436","4977","163314","289699","290575","286493","77757","289698","NA","Sternberg task","14","35537","28","yes","1024"
"51.724137931034484","51.724137931034484","1249.6206896551723","1249.6206896551723","black","experiment","legacy","legacy","legacy","0","uniform","1","undefined","1","right","28","28","28","0","0","28","28","0","0","28","28","28","0","28","0","Sun Oct 24 17:53:45 2021","The main experiment item","yes","Sternbergtask.osexp","/Users/samonemarks/Desktop","no","mono","no","18","no","white","no","yes","768","legacy","16","11","/Users/samonemarks/Desktop/SM-subject-4.csv","legacy","7 9","Lentiform Loewenfeld","3.3.9","0","n","0","right","right","left","right","NA","702","72748","30397","702","NA","2","legacy","2","1024","2","48000","-16","experiment","4","even","1","293841","290580","291631","4926","193712","291634","284436","4977","163314","295843","296545","292636","77757","295843","NA","Sternberg task","15","36239","29","yes","1024"
"50","50","1228.4","1228.4","black","experiment","legacy","legacy","legacy","0","uniform","0","undefined","0","left","29","29","29","0","0","29","29","0","0","29","29","29","0","29","0","Sun Oct 24 17:53:45 2021","The main experiment item","yes","Sternbergtask.osexp","/Users/samonemarks/Desktop","no","mono","no","18","no","white","no","yes","768","legacy","17","11","/Users/samonemarks/Desktop/SM-subject-4.csv","legacy","9 6 2 4 1","Lentiform Loewenfeld","3.3.9","4","y","0","right","right","left","right","NA","613","72748","30397","613","NA","2","legacy","5","1024","2","48000","-16","experiment","4","even","4","299809","296550","297602","4926","193712","297604","284436","4977","163314","301812","302426","298606","77757","301812","NA","Sternberg task","15","36852","30","yes","1024"
"51.61290322580645","51.61290322580645","1213.3548387096773","1213.3548387096773","black","experiment","legacy","legacy","legacy","0","uniform","1","undefined","1","left","30","30","30","0","0","30","30","0","0","30","30","30","0","30","0","Sun Oct 24 17:53:45 2021","The main experiment item","yes","Sternbergtask.osexp","/Users/samonemarks/Desktop","no","mono","no","18","no","white","no","yes","768","legacy","18","11","/Users/samonemarks/Desktop/SM-subject-4.csv","legacy","4 1 5","Lentiform Loewenfeld","3.3.9","2","y","0","left","right","left","left","NA","762","72748","30397","762","NA","2","legacy","3","1024","2","48000","-16","experiment","4","even","1","305687","296550","303480","4926","193712","303482","302430","4977","163314","307691","308453","304484","77757","307690","NA","Sternberg task","16","37614","31","yes","1024"
"53.125","53.125","1193.5","1193.5","black","experiment","legacy","legacy","legacy","0","uniform","1","undefined","1","left","31","31","31","0","0","31","31","0","0","31","31","31","0","31","0","Sun Oct 24 17:53:45 2021","The main experiment item","yes","Sternbergtask.osexp","/Users/samonemarks/Desktop","no","mono","no","18","no","white","no","yes","768","legacy","19","11","/Users/samonemarks/Desktop/SM-subject-4.csv","legacy","4 1 8 7 5","Lentiform Loewenfeld","3.3.9","3","y","0","left","right","left","left","NA","578","72748","30397","578","NA","2","legacy","5","1024","2","48000","-16","experiment","4","even","8","311718","308458","309511","4926","193712","309513","302430","4977","163314","313721","314300","310515","77757","313721","NA","Sternberg task","17","38192","32","yes","1024"
"51.515151515151516","51.515151515151516","1179.6363636363637","1179.6363636363637","black","experiment","legacy","legacy","legacy","0","uniform","0","undefined","0","right","32","32","32","0","0","32","32","0","0","32","32","32","0","32","0","Sun Oct 24 17:53:45 2021","The main experiment item","yes","Sternbergtask.osexp","/Users/samonemarks/Desktop","no","mono","no","18","no","white","no","yes","768","legacy","20","11","/Users/samonemarks/Desktop/SM-subject-4.csv","legacy","6 9 5","Lentiform Loewenfeld","3.3.9","0","n","0","left","right","left","left","NA","736","72748","30397","736","NA","2","legacy","3","1024","2","48000","-16","experiment","4","even","8","317580","314305","315372","4926","193712","315374","302430","4977","163314","319582","320319","316377","77757","319582","NA","Sternberg task","17","38928","33","yes","1024"
"52.94117647058823","52.94117647058823","1163","1163","black","experiment","legacy","legacy","legacy","0","uniform","1","undefined","1","right","33","33","33","0","0","33","33","0","0","33","33","33","0","33","0","Sun Oct 24 17:53:45 2021","The main experiment item","yes","Sternbergtask.osexp","/Users/samonemarks/Desktop","no","mono","no","18","no","white","no","yes","768","legacy","21","11","/Users/samonemarks/Desktop/SM-subject-4.csv","legacy","7 8 6 1","Lentiform Loewenfeld","3.3.9","0","n","0","right","right","left","right","NA","614","72748","30397","614","NA","2","legacy","4","1024","2","48000","-16","experiment","4","even","3","323585","314305","321377","4926","193712","321379","320324","4977","163314","325588","326203","322381","77757","325588","NA","Sternberg task","18","39542","34","yes","1024"
"54.285714285714285","54.285714285714285","1150.142857142857","1150.142857142857","black","experiment","legacy","legacy","legacy","0","uniform","1","undefined","1","right","34","34","34","0","0","34","34","0","0","34","34","34","0","34","0","Sun Oct 24 17:53:45 2021","The main experiment item","yes","Sternbergtask.osexp","/Users/samonemarks/Desktop","no","mono","no","18","no","white","no","yes","768","legacy","22","11","/Users/samonemarks/Desktop/SM-subject-4.csv","legacy","8 6 3 4 7","Lentiform Loewenfeld","3.3.9","0","n","0","right","right","left","right","NA","713","72748","30397","713","NA","2","legacy","5","1024","2","48000","-16","experiment","4","even","1","329468","326208","327260","4926","193712","327262","320324","4977","163314","331471","332185","328264","77757","331470","NA","Sternberg task","19","40255","35","yes","1024"
"55.55555555555556","55.55555555555556","1137.388888888889","1137.388888888889","black","experiment","legacy","legacy","legacy","0","uniform","1","undefined","1","left","35","35","35","0","0","35","35","0","0","35","35","35","0","35","0","Sun Oct 24 17:53:45 2021","The main experiment item","yes","Sternbergtask.osexp","/Users/samonemarks/Desktop","no","mono","no","18","no","white","no","yes","768","legacy","23","11","/Users/samonemarks/Desktop/SM-subject-4.csv","legacy","9 4 2","Lentiform Loewenfeld","3.3.9","1","y","0","left","right","left","left","NA","691","72748","30397","691","NA","2","legacy","3","1024","2","48000","-16","experiment","4","even","9","335449","332189","333241","4926","193712","333243","320324","4977","163314","337452","338143","334246","77757","337452","NA","Sternberg task","20","40946","36","yes","1024"
"56.75675675675676","56.75675675675676","1128.4864864864865","1128.4864864864865","black","experiment","legacy","legacy","legacy","0","uniform","1","undefined","1","right","36","36","36","0","0","36","36","0","0","36","36","36","0","36","0","Sun Oct 24 17:53:45 2021","The main experiment item","yes","Sternbergtask.osexp","/Users/samonemarks/Desktop","no","mono","no","18","no","white","no","yes","768","legacy","24","11","/Users/samonemarks/Desktop/SM-subject-4.csv","legacy","1 4 9 2 5","Lentiform Loewenfeld","3.3.9","0","n","0","right","right","left","right","NA","808","72748","30397","808","NA","2","legacy","5","1024","2","48000","-16","experiment","4","even","7","341407","338148","339200","4926","193712","339202","320324","4977","163314","343410","344219","340204","77757","343410","NA","Sternberg task","21","41754","37","yes","1024"
"55.26315789473684","55.26315789473684","1116.0526315789473","1116.0526315789473","black","experiment","legacy","legacy","legacy","0","uniform","0","undefined","0","right","37","37","37","0","0","37","37","0","0","37","37","37","0","37","0","Sun Oct 24 17:53:45 2021","The main experiment item","yes","Sternbergtask.osexp","/Users/samonemarks/Desktop","no","mono","no","18","no","white","no","yes","768","legacy","25","11","/Users/samonemarks/Desktop/SM-subject-4.csv","legacy","2 5 1 4","Lentiform Loewenfeld","3.3.9","0","n","0","left","right","left","left","NA","656","72748","30397","656","NA","2","legacy","4","1024","2","48000","-16","experiment","4","even","6","347482","344223","345276","4926","193712","345278","320324","4977","163314","349485","350142","346280","77757","349484","NA","Sternberg task","21","42410","38","yes","1024"
"53.84615384615385","53.84615384615385","1112.5641025641025","1112.5641025641025","black","experiment","legacy","legacy","legacy","0","uniform","0","undefined","0","left","38","38","38","0","0","38","38","0","0","38","38","38","0","38","0","Sun Oct 24 17:53:45 2021","The main experiment item","yes","Sternbergtask.osexp","/Users/samonemarks/Desktop","no","mono","no","18","no","white","no","yes","768","legacy","26","11","/Users/samonemarks/Desktop/SM-subject-4.csv","legacy","2 8 5 1","Lentiform Loewenfeld","3.3.9","4","y","0","right","right","left","right","NA","980","72748","30397","980","NA","2","legacy","4","1024","2","48000","-16","experiment","4","even","1","353407","344223","351198","4926","193712","351201","350146","4977","163314","355409","356390","352203","77757","355409","NA","Sternberg task","21","43390","39","yes","1024"
"55","55","1110.3","1110.3","black","experiment","legacy","legacy","legacy","0","uniform","1","undefined","1","right","39","39","39","0","0","39","39","0","0","39","39","39","0","39","0","Sun Oct 24 17:53:45 2021","The main experiment item","yes","Sternbergtask.osexp","/Users/samonemarks/Desktop","no","mono","no","18","no","white","no","yes","768","legacy","27","11","/Users/samonemarks/Desktop/SM-subject-4.csv","legacy","2 8 6 3 1","Lentiform Loewenfeld","3.3.9","0","n","0","right","right","left","right","NA","1022","72748","30397","1022","NA","2","legacy","5","1024","2","48000","-16","experiment","4","even","7","359653","344223","357446","4926","193712","357448","356394","4977","163314","361656","362679","358450","77757","361656","NA","Sternberg task","22","44412","40","yes","1024"
"53.65853658536585","53.65853658536585","1108.2926829268292","1108.2926829268292","black","experiment","legacy","legacy","legacy","0","uniform","0","undefined","0","left","40","40","40","0","0","40","40","0","0","40","40","40","0","40","0","Sun Oct 24 17:53:45 2021","The main experiment item","yes","Sternbergtask.osexp","/Users/samonemarks/Desktop","no","mono","no","18","no","white","no","yes","768","legacy","28","11","/Users/samonemarks/Desktop/SM-subject-4.csv","legacy","9 3 8 2 1 4","Lentiform Loewenfeld","3.3.9","3","y","0","right","right","left","right","NA","1028","72748","30397","1028","NA","2","legacy","6","1024","2","48000","-16","experiment","4","even","8","365946","362684","363737","4926","193712","363740","356394","4977","163314","367948","368977","364742","77757","367948","NA","Sternberg task","22","45440","41","yes","1024"
"54.76190476190476","54.76190476190476","1103.1666666666667","1103.1666666666667","black","experiment","legacy","legacy","legacy","0","uniform","1","undefined","1","right","41","41","41","0","0","41","41","0","0","41","41","41","0","41","0","Sun Oct 24 17:53:45 2021","The main experiment item","yes","Sternbergtask.osexp","/Users/samonemarks/Desktop","no","mono","no","18","no","white","no","yes","768","legacy","29","11","/Users/samonemarks/Desktop/SM-subject-4.csv","legacy","2 8 7 9 5 3","Lentiform Loewenfeld","3.3.9","0","n","0","right","right","left","right","NA","893","72748","30397","893","NA","2","legacy","6","1024","2","48000","-16","experiment","4","even","6","372241","362684","370034","4926","193712","370036","368982","4977","163314","374244","375138","371038","77757","374243","NA","Sternberg task","23","46333","42","yes","1024"
"55.81395348837209","55.81395348837209","1101.8139534883721","1101.8139534883721","black","experiment","legacy","legacy","legacy","0","uniform","1","undefined","1","right","42","42","42","0","0","42","42","0","0","42","42","42","0","42","0","Sun Oct 24 17:53:45 2021","The main experiment item","yes","Sternbergtask.osexp","/Users/samonemarks/Desktop","no","mono","no","18","no","white","no","yes","768","legacy","30","11","/Users/samonemarks/Desktop/SM-subject-4.csv","legacy","2 7 5","Lentiform Loewenfeld","3.3.9","0","n","0","right","right","left","right","NA","1045","72748","30397","1045","NA","2","legacy","3","1024","2","48000","-16","experiment","4","even","8","378402","375141","376193","4926","193712","376196","368982","4977","163314","380404","381450","377198","77757","380404","NA","Sternberg task","24","47378","43","yes","1024"
"56.81818181818182","56.81818181818182","1094.909090909091","1094.909090909091","black","experiment","legacy","legacy","legacy","0","uniform","1","undefined","1","right","43","43","43","0","0","43","43","0","0","43","43","43","0","43","0","Sun Oct 24 17:53:45 2021","The main experiment item","yes","Sternbergtask.osexp","/Users/samonemarks/Desktop","no","mono","no","18","no","white","no","yes","768","legacy","31","11","/Users/samonemarks/Desktop/SM-subject-4.csv","legacy","7 1 5 6 3","Lentiform Loewenfeld","3.3.9","0","n","0","right","right","left","right","NA","798","72748","30397","798","NA","2","legacy","5","1024","2","48000","-16","experiment","4","even","8","384714","381455","382507","4926","193712","382509","368982","4977","163314","386717","387516","383511","77757","386717","NA","Sternberg task","25","48176","44","yes","1024"
"55.55555555555556","55.55555555555556","1088.1333333333334","1088.1333333333334","black","experiment","legacy","legacy","legacy","0","uniform","0","undefined","0","right","44","44","44","0","0","44","44","0","0","44","44","44","0","44","0","Sun Oct 24 17:53:45 2021","The main experiment item","yes","Sternbergtask.osexp","/Users/samonemarks/Desktop","no","mono","no","18","no","white","no","yes","768","legacy","32","11","/Users/samonemarks/Desktop/SM-subject-4.csv","legacy","1 5 3 2 8","Lentiform Loewenfeld","3.3.9","0","n","0","left","right","left","left","NA","790","72748","30397","790","NA","2","legacy","5","1024","2","48000","-16","experiment","4","even","4","390781","387521","388572","4926","193712","388575","368982","4977","163314","392783","393574","389577","77757","392783","NA","Sternberg task","25","48966","45","yes","1024"
"56.52173913043478","56.52173913043478","1082.2391304347825","1082.2391304347825","black","experiment","legacy","legacy","legacy","0","uniform","1","undefined","1","left","45","45","45","0","0","45","45","0","0","45","45","45","0","45","0","Sun Oct 24 17:53:45 2021","The main experiment item","yes","Sternbergtask.osexp","/Users/samonemarks/Desktop","no","mono","no","18","no","white","no","yes","768","legacy","33","11","/Users/samonemarks/Desktop/SM-subject-4.csv","legacy","2 3","Lentiform Loewenfeld","3.3.9","1","y","0","left","right","left","left","NA","817","72748","30397","817","NA","2","legacy","2","1024","2","48000","-16","experiment","4","even","2","396837","387521","394630","4926","193712","394632","393579","4977","163314","398840","399657","395635","77757","398840","NA","Sternberg task","26","49783","46","yes","1024"
"57.4468085106383","57.4468085106383","1079.531914893617","1079.531914893617","black","experiment","legacy","legacy","legacy","0","uniform","1","undefined","1","right","46","46","46","0","0","46","46","0","0","46","46","46","0","46","0","Sun Oct 24 17:53:45 2021","The main experiment item","yes","Sternbergtask.osexp","/Users/samonemarks/Desktop","no","mono","no","18","no","white","no","yes","768","legacy","34","11","/Users/samonemarks/Desktop/SM-subject-4.csv","legacy","6 8","Lentiform Loewenfeld","3.3.9","0","n","0","right","right","left","right","NA","955","72748","30397","955","NA","2","legacy","2","1024","2","48000","-16","experiment","4","even","9","402920","399662","400713","4926","193712","400715","393579","4977","163314","404923","405879","401717","77757","404923","NA","Sternberg task","27","50738","47","yes","1024"
"56.25","56.25","1078.7083333333333","1078.7083333333333","black","experiment","legacy","legacy","legacy","0","uniform","0","undefined","0","left","47","47","47","0","0","47","47","0","0","47","47","47","0","47","0","Sun Oct 24 17:53:45 2021","The main experiment item","yes","Sternbergtask.osexp","/Users/samonemarks/Desktop","no","mono","no","18","no","white","no","yes","768","legacy","35","11","/Users/samonemarks/Desktop/SM-subject-4.csv","legacy","4 6 2 5 1","Lentiform Loewenfeld","3.3.9","5","y","0","right","right","left","right","NA","1040","72748","30397","1040","NA","2","legacy","5","1024","2","48000","-16","experiment","4","even","1","409142","405884","406936","4926","193712","406938","393579","4977","163314","411145","412186","407940","77757","411145","NA","Sternberg task","27","51778","48","yes","1024"
"57.142857142857146","57.142857142857146","1074.2857142857142","1074.2857142857142","black","experiment","legacy","legacy","legacy","0","uniform","1","undefined","1","right","48","48","48","0","0","48","48","0","0","48","48","48","0","48","0","Sun Oct 24 17:53:45 2021","The main experiment item","yes","Sternbergtask.osexp","/Users/samonemarks/Desktop","no","mono","no","18","no","white","no","yes","768","legacy","36","11","/Users/samonemarks/Desktop/SM-subject-4.csv","legacy","1","Lentiform Loewenfeld","3.3.9","0","n","0","right","right","left","right","NA","862","72748","30397","862","NA","2","legacy","1","1024","2","48000","-16","experiment","4","even","7","415448","405884","413241","4926","193712","413243","412189","4977","163314","417451","418314","414246","77757","417451","NA","Sternberg task","28","52640","49","yes","1024"
"56","56","1073.74","1073.74","black","experiment","legacy","legacy","legacy","0","uniform","0","undefined","0","left","49","49","49","0","0","49","49","0","0","49","49","49","0","49","0","Sun Oct 24 17:53:45 2021","The main experiment item","yes","Sternbergtask.osexp","/Users/samonemarks/Desktop","no","mono","no","18","no","white","no","yes","768","legacy","37","11","/Users/samonemarks/Desktop/SM-subject-4.csv","legacy","3 4","Lentiform Loewenfeld","3.3.9","1","y","0","right","right","left","right","NA","1047","72748","30397","1047","NA","2","legacy","2","1024","2","48000","-16","experiment","4","even","3","421579","418318","419371","4926","193712","419374","412189","4977","163314","423582","424629","420376","77757","423582","NA","Sternberg task","28","53687","50","yes","1024"
"56.86274509803921","56.86274509803921","1066.1764705882354","1066.1764705882354","black","experiment","legacy","legacy","legacy","0","uniform","1","undefined","1","right","50","50","50","0","0","50","50","0","0","50","50","50","0","50","0","Sun Oct 24 17:53:45 2021","The main experiment item","yes","Sternbergtask.osexp","/Users/samonemarks/Desktop","no","mono","no","18","no","white","no","yes","768","legacy","38","11","/Users/samonemarks/Desktop/SM-subject-4.csv","legacy","9","Lentiform Loewenfeld","3.3.9","0","n","0","right","right","left","right","NA","688","72748","30397","688","NA","2","legacy","1","1024","2","48000","-16","experiment","4","even","6","427893","418318","425685","4926","193712","425688","424634","4977","163314","429895","430583","426690","77757","429895","NA","Sternberg task","29","54375","51","yes","1024"
"55.76923076923077","55.76923076923077","1071.7115384615386","1071.7115384615386","black","experiment","legacy","legacy","legacy","0","uniform","0","undefined","0","left","51","51","51","0","0","51","51","0","0","51","51","51","0","51","0","Sun Oct 24 17:53:45 2021","The main experiment item","yes","Sternbergtask.osexp","/Users/samonemarks/Desktop","no","mono","no","18","no","white","no","yes","768","legacy","39","11","/Users/samonemarks/Desktop/SM-subject-4.csv","legacy","5 2 9 6 1 7","Lentiform Loewenfeld","3.3.9","3","y","0","right","right","left","right","NA","1354","72748","30397","1354","NA","2","legacy","6","1024","2","48000","-16","experiment","4","even","9","433848","430588","431640","4926","193712","431643","424634","4977","163314","435850","437204","432645","77757","435850","NA","Sternberg task","29","55729","52","yes","1024"
"56.60377358490566","56.60377358490566","1064.4150943396226","1064.4150943396226","black","experiment","legacy","legacy","legacy","0","uniform","1","undefined","1","left","52","52","52","0","0","52","52","0","0","52","52","52","0","52","0","Sun Oct 24 17:53:45 2021","The main experiment item","yes","Sternbergtask.osexp","/Users/samonemarks/Desktop","no","mono","no","18","no","white","no","yes","768","legacy","40","11","/Users/samonemarks/Desktop/SM-subject-4.csv","legacy","8 9 5 7 1 6","Lentiform Loewenfeld","3.3.9","4","y","0","left","right","left","left","NA","685","72748","30397","685","NA","2","legacy","6","1024","2","48000","-16","experiment","4","even","7","440470","430588","438261","4926","193712","438264","437209","4977","163314","442473","443159","439266","77757","442473","NA","Sternberg task","30","56414","53","yes","1024"
"57.407407407407405","57.407407407407405","1065.2777777777778","1065.2777777777778","black","experiment","legacy","legacy","legacy","0","uniform","1","undefined","1","right","53","53","53","0","0","53","53","0","0","53","53","53","0","53","0","Sun Oct 24 17:53:45 2021","The main experiment item","yes","Sternbergtask.osexp","/Users/samonemarks/Desktop","no","mono","no","18","no","white","no","yes","768","legacy","41","11","/Users/samonemarks/Desktop/SM-subject-4.csv","legacy","1 7 5 2","Lentiform Loewenfeld","3.3.9","0","n","0","right","right","left","right","NA","1111","72748","30397","1111","NA","2","legacy","4","1024","2","48000","-16","experiment","4","even","3","446423","443164","444216","4926","193712","444218","437209","4977","163314","448426","449538","445220","77757","448426","NA","Sternberg task","31","57525","54","yes","1024"
"58.18181818181818","58.18181818181818","1063.3090909090909","1063.3090909090909","black","experiment","legacy","legacy","legacy","0","uniform","1","undefined","1","right","54","54","54","0","0","54","54","0","0","54","54","54","0","54","0","Sun Oct 24 17:53:45 2021","The main experiment item","yes","Sternbergtask.osexp","/Users/samonemarks/Desktop","no","mono","no","18","no","white","no","yes","768","legacy","42","11","/Users/samonemarks/Desktop/SM-subject-4.csv","legacy","7 9 1 6","Lentiform Loewenfeld","3.3.9","0","n","0","right","right","left","right","NA","957","72748","30397","957","NA","2","legacy","4","1024","2","48000","-16","experiment","4","even","4","452813","449543","450605","4926","193712","450608","437209","4977","163314","454816","455774","451610","77757","454816","NA","Sternberg task","32","58482","55","yes","1024"
"57.142857142857146","57.142857142857146","1060.0714285714287","1060.0714285714287","black","experiment","legacy","legacy","legacy","0","uniform","0","undefined","0","left","55","55","55","0","0","55","55","0","0","55","55","55","0","55","0","Sun Oct 24 17:53:45 2021","The main experiment item","yes","Sternbergtask.osexp","/Users/samonemarks/Desktop","no","mono","no","18","no","white","no","yes","768","legacy","43","11","/Users/samonemarks/Desktop/SM-subject-4.csv","legacy","6 1 2","Lentiform Loewenfeld","3.3.9","3","y","0","right","right","left","right","NA","882","72748","30397","882","NA","2","legacy","3","1024","2","48000","-16","experiment","4","even","2","459037","455778","456829","4926","193712","456832","437209","4977","163314","461040","461924","457834","77757","461040","NA","Sternberg task","32","59364","56","yes","1024"
"57.89473684210526","57.89473684210526","1060.7368421052631","1060.7368421052631","black","experiment","legacy","legacy","legacy","0","uniform","1","undefined","1","right","56","56","56","0","0","56","56","0","0","56","56","56","0","56","0","Sun Oct 24 17:53:45 2021","The main experiment item","yes","Sternbergtask.osexp","/Users/samonemarks/Desktop","no","mono","no","18","no","white","no","yes","768","legacy","44","11","/Users/samonemarks/Desktop/SM-subject-4.csv","legacy","4 8 1 2","Lentiform Loewenfeld","3.3.9","0","n","0","right","right","left","right","NA","1098","72748","30397","1098","NA","2","legacy","4","1024","2","48000","-16","experiment","4","even","7","465188","455778","462979","4926","193712","462982","461928","4977","163314","467190","468289","463984","77757","467190","NA","Sternberg task","33","60462","57","yes","1024"
"58.62068965517241","58.62068965517241","1059.2241379310344","1059.2241379310344","black","experiment","legacy","legacy","legacy","0","uniform","1","undefined","1","right","57","57","57","0","0","57","57","0","0","57","57","57","0","57","0","Sun Oct 24 17:53:45 2021","The main experiment item","yes","Sternbergtask.osexp","/Users/samonemarks/Desktop","no","mono","no","18","no","white","no","yes","768","legacy","45","11","/Users/samonemarks/Desktop/SM-subject-4.csv","legacy","6 7 5 9","Lentiform Loewenfeld","3.3.9","0","n","0","right","right","left","right","NA","973","72748","30397","973","NA","2","legacy","4","1024","2","48000","-16","experiment","4","even","2","471553","468294","469345","4926","193712","469348","461928","4977","163314","473557","474531","470350","77757","473556","NA","Sternberg task","34","61435","58","yes","1024"
"59.32203389830509","59.32203389830509","1064.457627118644","1064.457627118644","black","experiment","legacy","legacy","legacy","0","uniform","1","undefined","1","left","58","58","58","0","0","58","58","0","0","58","58","58","0","58","0","Sun Oct 24 17:53:45 2021","The main experiment item","yes","Sternbergtask.osexp","/Users/samonemarks/Desktop","no","mono","no","18","no","white","no","yes","768","legacy","46","11","/Users/samonemarks/Desktop/SM-subject-4.csv","legacy","3 5 4 7","Lentiform Loewenfeld","3.3.9","1","y","0","left","right","left","left","NA","1368","72748","30397","1368","NA","2","legacy","4","1024","2","48000","-16","experiment","4","even","3","477797","474536","475588","4926","193712","475591","461928","4977","163314","479799","481168","476593","77757","479799","NA","Sternberg task","35","62803","59","yes","1024"
"60","60","1066","1066","black","experiment","legacy","legacy","legacy","0","uniform","1","undefined","1","left","59","59","59","0","0","59","59","0","0","59","59","59","0","59","0","Sun Oct 24 17:53:45 2021","The main experiment item","yes","Sternbergtask.osexp","/Users/samonemarks/Desktop","no","mono","no","18","no","white","no","yes","768","legacy","47","11","/Users/samonemarks/Desktop/SM-subject-4.csv","legacy","7 1 8 5 6 2","Lentiform Loewenfeld","3.3.9","2","y","0","left","right","left","left","NA","1157","72748","30397","1157","NA","2","legacy","6","1024","2","48000","-16","experiment","4","even","1","484434","481174","482227","4926","193712","482229","461928","4977","163314","486437","487594","483231","77757","486437","NA","Sternberg task","36","63960","60","yes","1024"
"60.65573770491803","60.65573770491803","1063.032786885246","1063.032786885246","black","experiment","legacy","legacy","legacy","0","uniform","1","undefined","1","right","60","60","60","0","0","60","60","0","0","60","60","60","0","60","0","Sun Oct 24 17:53:45 2021","The main experiment item","yes","Sternbergtask.osexp","/Users/samonemarks/Desktop","no","mono","no","18","no","white","no","yes","768","legacy","48","11","/Users/samonemarks/Desktop/SM-subject-4.csv","legacy","8 5 7 3 6","Lentiform Loewenfeld","3.3.9","0","n","0","right","right","left","right","NA","885","72748","30397","885","NA","2","legacy","5","1024","2","48000","-16","experiment","4","even","9","490860","487599","488651","4926","193712","488654","461928","4977","163314","492862","493748","489656","77757","492862","NA","Sternberg task","37","64845","61","yes","1024"
"59.67741935483871","59.67741935483871","1063.8387096774193","1063.8387096774193","black","experiment","legacy","legacy","legacy","0","uniform","0","undefined","0","left","61","61","61","0","0","61","61","0","0","61","61","61","0","61","0","Sun Oct 24 17:53:45 2021","The main experiment item","yes","Sternbergtask.osexp","/Users/samonemarks/Desktop","no","mono","no","18","no","white","no","yes","768","legacy","49","11","/Users/samonemarks/Desktop/SM-subject-4.csv","legacy","3 5 7 1","Lentiform Loewenfeld","3.3.9","3","y","0","right","right","left","right","NA","1113","72748","30397","1113","NA","2","legacy","4","1024","2","48000","-16","experiment","4","even","7","497013","493754","494806","4926","193712","494808","461928","4977","163314","499016","500130","495810","77757","499016","NA","Sternberg task","37","65958","62","yes","1024"
"60.317460317460316","60.317460317460316","1060.1746031746031","1060.1746031746031","black","experiment","legacy","legacy","legacy","0","uniform","1","undefined","1","right","62","62","62","0","0","62","62","0","0","62","62","62","0","62","0","Sun Oct 24 17:53:45 2021","The main experiment item","yes","Sternbergtask.osexp","/Users/samonemarks/Desktop","no","mono","no","18","no","white","no","yes","768","legacy","50","11","/Users/samonemarks/Desktop/SM-subject-4.csv","legacy","9 7 4 5 8","Lentiform Loewenfeld","3.3.9","0","n","0","right","right","left","right","NA","833","72748","30397","833","NA","2","legacy","5","1024","2","48000","-16","experiment","4","even","6","503395","493754","501186","4926","193712","501189","500135","4977","163314","505397","506231","502191","77757","505397","NA","Sternberg task","38","66791","63","yes","1024"
"60.9375","60.9375","1053.8125","1053.8125","black","experiment","legacy","legacy","legacy","0","uniform","1","undefined","1","right","63","63","63","0","0","63","63","0","0","63","63","63","0","63","0","Sun Oct 24 17:53:45 2021","The main experiment item","yes","Sternbergtask.osexp","/Users/samonemarks/Desktop","no","mono","no","18","no","white","no","yes","768","legacy","51","11","/Users/samonemarks/Desktop/SM-subject-4.csv","legacy","5 2","Lentiform Loewenfeld","3.3.9","0","n","0","right","right","left","right","NA","653","72748","30397","653","NA","2","legacy","2","1024","2","48000","-16","experiment","4","even","7","509496","506236","507287","4926","193712","507290","500135","4977","163314","511499","512153","508293","77757","511499","NA","Sternberg task","39","67444","64","yes","1024"
"61.53846153846154","61.53846153846154","1050.2923076923078","1050.2923076923078","black","experiment","legacy","legacy","legacy","0","uniform","1","undefined","1","right","64","64","64","0","0","64","64","0","0","64","64","64","0","64","0","Sun Oct 24 17:53:45 2021","The main experiment item","yes","Sternbergtask.osexp","/Users/samonemarks/Desktop","no","mono","no","18","no","white","no","yes","768","legacy","52","11","/Users/samonemarks/Desktop/SM-subject-4.csv","legacy","5 7 3","Lentiform Loewenfeld","3.3.9","0","n","0","right","right","left","right","NA","825","72748","30397","825","NA","2","legacy","3","1024","2","48000","-16","experiment","4","even","9","515417","512158","513210","4926","193712","513212","500135","4977","163314","517420","518246","514214","77757","517420","NA","Sternberg task","40","68269","65","yes","1024"
"62.121212121212125","62.121212121212125","1045.9242424242425","1045.9242424242425","black","experiment","legacy","legacy","legacy","0","uniform","1","undefined","1","left","65","65","65","0","0","65","65","0","0","65","65","65","0","65","0","Sun Oct 24 17:53:45 2021","The main experiment item","yes","Sternbergtask.osexp","/Users/samonemarks/Desktop","no","mono","no","18","no","white","no","yes","768","legacy","53","11","/Users/samonemarks/Desktop/SM-subject-4.csv","legacy","1 4 9 3 2 5","Lentiform Loewenfeld","3.3.9","3","y","0","left","right","left","left","NA","762","72748","30397","762","NA","2","legacy","6","1024","2","48000","-16","experiment","4","even","9","521510","518250","519303","4926","193712","519305","500135","4977","163314","523513","524276","520307","77757","523513","NA","Sternberg task","41","69031","66","yes","1024"
"62.6865671641791","62.6865671641791","1039.955223880597","1039.955223880597","black","experiment","legacy","legacy","legacy","0","uniform","1","undefined","1","right","66","66","66","0","0","66","66","0","0","66","66","66","0","66","0","Sun Oct 24 17:53:45 2021","The main experiment item","yes","Sternbergtask.osexp","/Users/samonemarks/Desktop","no","mono","no","18","no","white","no","yes","768","legacy","54","11","/Users/samonemarks/Desktop/SM-subject-4.csv","legacy","1 6 4","Lentiform Loewenfeld","3.3.9","0","n","0","right","right","left","right","NA","646","72748","30397","646","NA","2","legacy","3","1024","2","48000","-16","experiment","4","even","7","527541","524280","525333","4926","193712","525335","500135","4977","163314","529543","530190","526338","77757","529543","NA","Sternberg task","42","69677","67","yes","1024"
"63.23529411764706","63.23529411764706","1044.7941176470588","1044.7941176470588","black","experiment","legacy","legacy","legacy","0","uniform","1","undefined","1","left","67","67","67","0","0","67","67","0","0","67","67","67","0","67","0","Sun Oct 24 17:53:45 2021","The main experiment item","yes","Sternbergtask.osexp","/Users/samonemarks/Desktop","no","mono","no","18","no","white","no","yes","768","legacy","55","11","/Users/samonemarks/Desktop/SM-subject-4.csv","legacy","8 5 3 7 4 6","Lentiform Loewenfeld","3.3.9","6","y","0","left","right","left","left","NA","1369","72748","30397","1369","NA","2","legacy","6","1024","2","48000","-16","experiment","4","even","6","533455","530195","531248","4926","193712","531250","500135","4977","163314","535458","536828","532252","77757","535458","NA","Sternberg task","43","71046","68","yes","1024"
"63.768115942028984","63.768115942028984","1039.0579710144928","1039.0579710144928","black","experiment","legacy","legacy","legacy","0","uniform","1","undefined","1","right","68","68","68","0","0","68","68","0","0","68","68","68","0","68","0","Sun Oct 24 17:53:45 2021","The main experiment item","yes","Sternbergtask.osexp","/Users/samonemarks/Desktop","no","mono","no","18","no","white","no","yes","768","legacy","56","11","/Users/samonemarks/Desktop/SM-subject-4.csv","legacy","1 4 3 6 5","Lentiform Loewenfeld","3.3.9","0","n","0","right","right","left","right","NA","649","72748","30397","649","NA","2","legacy","5","1024","2","48000","-16","experiment","4","even","8","540093","536833","537885","4926","193712","537888","500135","4977","163314","542096","542746","538890","77757","542096","NA","Sternberg task","44","71695","69","yes","1024"
"64.28571428571429","64.28571428571429","1036.8","1036.8","black","experiment","legacy","legacy","legacy","0","uniform","1","undefined","1","left","69","69","69","0","0","69","69","0","0","69","69","69","0","69","0","Sun Oct 24 17:53:45 2021","The main experiment item","yes","Sternbergtask.osexp","/Users/samonemarks/Desktop","no","mono","no","18","no","white","no","yes","768","legacy","57","11","/Users/samonemarks/Desktop/SM-subject-4.csv","legacy","2 5 4 8 7","Lentiform Loewenfeld","3.3.9","3","y","0","left","right","left","left","NA","881","72748","30397","881","NA","2","legacy","5","1024","2","48000","-16","experiment","4","even","4","546008","542749","543801","4926","193712","543803","500135","4977","163314","548012","548894","544805","77757","548012","NA","Sternberg task","45","72576","70","yes","1024"
"64.78873239436619","64.78873239436619","1033.5352112676057","1033.5352112676057","black","experiment","legacy","legacy","legacy","0","uniform","1","undefined","1","left","70","70","70","0","0","70","70","0","0","70","70","70","0","70","0","Sun Oct 24 17:53:45 2021","The main experiment item","yes","Sternbergtask.osexp","/Users/samonemarks/Desktop","no","mono","no","18","no","white","no","yes","768","legacy","58","11","/Users/samonemarks/Desktop/SM-subject-4.csv","legacy","9 8 4","Lentiform Loewenfeld","3.3.9","1","y","0","left","right","left","left","NA","805","72748","30397","805","NA","2","legacy","3","1024","2","48000","-16","experiment","4","even","9","552158","548899","549950","4926","193712","549952","500135","4977","163314","554160","554966","550955","77757","554160","NA","Sternberg task","46","73381","71","yes","1024"
"65.27777777777777","65.27777777777777","1030.1666666666667","1030.1666666666667","black","experiment","legacy","legacy","legacy","0","uniform","1","undefined","1","right","71","71","71","0","0","71","71","0","0","71","71","71","0","71","0","Sun Oct 24 17:53:45 2021","The main experiment item","yes","Sternbergtask.osexp","/Users/samonemarks/Desktop","no","mono","no","18","no","white","no","yes","768","legacy","59","11","/Users/samonemarks/Desktop/SM-subject-4.csv","legacy","9 8 2 7 4","Lentiform Loewenfeld","3.3.9","0","n","0","right","right","left","right","NA","791","72748","30397","791","NA","2","legacy","5","1024","2","48000","-16","experiment","4","even","5","558230","554970","556022","4926","193712","556024","500135","4977","163314","560233","561025","557026","77757","560233","NA","Sternberg task","47","74172","72","yes","1024"
"65.75342465753425","65.75342465753425","1029.9041095890411","1029.9041095890411","black","experiment","legacy","legacy","legacy","0","uniform","1","undefined","1","left","72","72","72","0","0","72","72","0","0","72","72","72","0","72","0","Sun Oct 24 17:53:45 2021","The main experiment item","yes","Sternbergtask.osexp","/Users/samonemarks/Desktop","no","mono","no","18","no","white","no","yes","768","legacy","60","11","/Users/samonemarks/Desktop/SM-subject-4.csv","legacy","7 8 6 3 1","Lentiform Loewenfeld","3.3.9","5","y","0","left","right","left","left","NA","1011","72748","30397","1011","NA","2","legacy","5","1024","2","48000","-16","experiment","4","even","1","564288","561029","562081","4926","193712","562083","500135","4977","163314","566290","567302","563085","77757","566290","NA","Sternberg task","48","75183","73","yes","1024"
"66.21621621621621","66.21621621621621","1026.3783783783783","1026.3783783783783","black","experiment","legacy","legacy","legacy","0","uniform","1","undefined","1","left","73","73","73","0","0","73","73","0","0","73","73","73","0","73","0","Sun Oct 24 17:53:45 2021","The main experiment item","yes","Sternbergtask.osexp","/Users/samonemarks/Desktop","no","mono","no","18","no","white","no","yes","768","legacy","61","11","/Users/samonemarks/Desktop/SM-subject-4.csv","legacy","7 6","Lentiform Loewenfeld","3.3.9","2","y","0","left","right","left","left","NA","769","72748","30397","769","NA","2","legacy","2","1024","2","48000","-16","experiment","4","even","6","570565","567307","568358","4926","193712","568360","500135","4977","163314","572568","573338","569362","77757","572568","NA","Sternberg task","49","75952","74","yes","1024"
"66.66666666666667","66.66666666666667","1021.8666666666667","1021.8666666666667","black","experiment","legacy","legacy","legacy","0","uniform","1","undefined","1","left","74","74","74","0","0","74","74","0","0","74","74","74","0","74","0","Sun Oct 24 17:53:45 2021","The main experiment item","yes","Sternbergtask.osexp","/Users/samonemarks/Desktop","no","mono","no","18","no","white","no","yes","768","legacy","62","11","/Users/samonemarks/Desktop/SM-subject-4.csv","legacy","6 2","Lentiform Loewenfeld","3.3.9","1","y","0","left","right","left","left","NA","688","72748","30397","688","NA","2","legacy","2","1024","2","48000","-16","experiment","4","even","6","576603","573343","574395","4926","193712","574397","500135","4977","163314","578606","579295","575400","77757","578606","NA","Sternberg task","50","76640","75","yes","1024"
"67.10526315789474","67.10526315789474","1018.8947368421053","1018.8947368421053","black","experiment","legacy","legacy","legacy","0","uniform","1","undefined","1","left","75","75","75","0","0","75","75","0","0","75","75","75","0","75","0","Sun Oct 24 17:53:45 2021","The main experiment item","yes","Sternbergtask.osexp","/Users/samonemarks/Desktop","no","mono","no","18","no","white","no","yes","768","legacy","63","11","/Users/samonemarks/Desktop/SM-subject-4.csv","legacy","2 4 6 9","Lentiform Loewenfeld","3.3.9","3","y","0","left","right","left","left","NA","796","72748","30397","796","NA","2","legacy","4","1024","2","48000","-16","experiment","4","even","6","582558","579299","580351","4926","193712","580353","500135","4977","163314","584561","585359","581355","77757","584561","NA","Sternberg task","51","77436","76","yes","1024"
"67.53246753246754","67.53246753246754","1016.3506493506494","1016.3506493506494","black","experiment","legacy","legacy","legacy","0","uniform","1","undefined","1","left","76","76","76","0","0","76","76","0","0","76","76","76","0","76","0","Sun Oct 24 17:53:45 2021","The main experiment item","yes","Sternbergtask.osexp","/Users/samonemarks/Desktop","no","mono","no","18","no","white","no","yes","768","legacy","64","11","/Users/samonemarks/Desktop/SM-subject-4.csv","legacy","6 9 3 1","Lentiform Loewenfeld","3.3.9","4","y","0","left","right","left","left","NA","823","72748","30397","823","NA","2","legacy","4","1024","2","48000","-16","experiment","4","even","1","588623","585363","586416","4926","193712","586418","500135","4977","163314","590625","591449","587420","77757","590625","NA","Sternberg task","52","78259","77","yes","1024"
"67.94871794871794","67.94871794871794","1013.974358974359","1013.974358974359","black","experiment","legacy","legacy","legacy","0","uniform","1","undefined","1","right","77","77","77","0","0","77","77","0","0","77","77","77","0","77","0","Sun Oct 24 17:53:45 2021","The main experiment item","yes","Sternbergtask.osexp","/Users/samonemarks/Desktop","no","mono","no","18","no","white","no","yes","768","legacy","65","11","/Users/samonemarks/Desktop/SM-subject-4.csv","legacy","7 1 8 4 9 3","Lentiform Loewenfeld","3.3.9","0","n","0","right","right","left","right","NA","831","72748","30397","831","NA","2","legacy","6","1024","2","48000","-16","experiment","4","even","6","594713","591454","592506","4926","193712","592508","500135","4977","163314","596717","597549","593510","77757","596717","NA","Sternberg task","53","79090","78","yes","1024"
"68.35443037974683","68.35443037974683","1012.9240506329114","1012.9240506329114","black","experiment","legacy","legacy","legacy","0","uniform","1","undefined","1","right","78","78","78","0","0","78","78","0","0","78","78","78","0","78","0","Sun Oct 24 17:53:45 2021","The main experiment item","yes","Sternbergtask.osexp","/Users/samonemarks/Desktop","no","mono","no","18","no","white","no","yes","768","legacy","66","11","/Users/samonemarks/Desktop/SM-subject-4.csv","legacy","2 6 4 3 9","Lentiform Loewenfeld","3.3.9","0","n","0","right","right","left","right","NA","931","72748","30397","931","NA","2","legacy","5","1024","2","48000","-16","experiment","4","even","1","600813","597554","598606","4926","193712","598608","500135","4977","163314","602816","603747","599610","77757","602816","NA","Sternberg task","54","80021","79","yes","1024"
"67.5","67.5","1010.175","1010.175","black","experiment","legacy","legacy","legacy","0","uniform","0","undefined","0","left","79","79","79","0","0","79","79","0","0","79","79","79","0","79","0","Sun Oct 24 17:53:45 2021","The main experiment item","yes","Sternbergtask.osexp","/Users/samonemarks/Desktop","no","mono","no","18","no","white","no","yes","768","legacy","67","11","/Users/samonemarks/Desktop/SM-subject-4.csv","legacy","2 6 1 7 4","Lentiform Loewenfeld","3.3.9","2","y","0","right","right","left","right","NA","793","72748","30397","793","NA","2","legacy","5","1024","2","48000","-16","experiment","4","even","6","607011","603752","604804","4926","193712","604806","500135","4977","163314","609014","609808","605808","77757","609014","NA","Sternberg task","54","80814","80","yes","1024"
"67.90123456790124","67.90123456790124","1005.679012345679","1005.679012345679","black","experiment","legacy","legacy","legacy","0","uniform","1","undefined","1","right","80","80","80","0","0","80","80","0","0","80","80","80","0","80","0","Sun Oct 24 17:53:45 2021","The main experiment item","yes","Sternbergtask.osexp","/Users/samonemarks/Desktop","no","mono","no","18","no","white","no","yes","768","legacy","68","11","/Users/samonemarks/Desktop/SM-subject-4.csv","legacy","3 9 1","Lentiform Loewenfeld","3.3.9","0","n","0","right","right","left","right","NA","646","72748","30397","646","NA","2","legacy","3","1024","2","48000","-16","experiment","4","even","7","613072","603752","610865","4926","193712","610867","609813","4977","163314","615075","615722","611869","77757","615075","NA","Sternberg task","55","81460","81","yes","1024"
"68.29268292682927","68.29268292682927","1004","1004","black","experiment","legacy","legacy","legacy","0","uniform","1","undefined","1","left","81","81","81","0","0","81","81","0","0","81","81","81","0","81","0","Sun Oct 24 17:53:45 2021","The main experiment item","yes","Sternbergtask.osexp","/Users/samonemarks/Desktop","no","mono","no","18","no","white","no","yes","768","legacy","69","11","/Users/samonemarks/Desktop/SM-subject-4.csv","legacy","7 8 4 6 9 5","Lentiform Loewenfeld","3.3.9","4","y","0","left","right","left","left","NA","868","72748","30397","868","NA","2","legacy","6","1024","2","48000","-16","experiment","4","even","6","618986","615726","616779","4926","193712","616781","609813","4977","163314","620989","621858","617783","77757","620989","NA","Sternberg task","56","82328","82","yes","1024"
"68.67469879518072","68.67469879518072","1001.5542168674699","1001.5542168674699","black","experiment","legacy","legacy","legacy","0","uniform","1","undefined","1","left","82","82","82","0","0","82","82","0","0","82","82","82","0","82","0","Sun Oct 24 17:53:45 2021","The main experiment item","yes","Sternbergtask.osexp","/Users/samonemarks/Desktop","no","mono","no","18","no","white","no","yes","768","legacy","70","11","/Users/samonemarks/Desktop/SM-subject-4.csv","legacy","9 5 8 1","Lentiform Loewenfeld","3.3.9","2","y","0","left","right","left","left","NA","801","72748","30397","801","NA","2","legacy","4","1024","2","48000","-16","experiment","4","even","5","625123","621863","622915","4926","193712","622918","609813","4977","163314","627128","627930","623920","77757","627128","NA","Sternberg task","57","83129","83","yes","1024"
"69.04761904761905","69.04761904761905","998.6785714285714","998.6785714285714","black","experiment","legacy","legacy","legacy","0","uniform","1","undefined","1","right","83","83","83","0","0","83","83","0","0","83","83","83","0","83","0","Sun Oct 24 17:53:45 2021","The main experiment item","yes","Sternbergtask.osexp","/Users/samonemarks/Desktop","no","mono","no","18","no","white","no","yes","768","legacy","71","11","/Users/samonemarks/Desktop/SM-subject-4.csv","legacy","8 5 4 2 9 6","Lentiform Loewenfeld","3.3.9","0","n","0","right","right","left","right","NA","760","72748","30397","760","NA","2","legacy","6","1024","2","48000","-16","experiment","4","even","3","631194","627935","628987","4926","193712","628989","609813","4977","163314","633203","633964","629991","77757","633203","NA","Sternberg task","58","83889","84","yes","1024"
"69.41176470588235","69.41176470588235","1001.0235294117647","1001.0235294117647","black","experiment","legacy","legacy","legacy","0","uniform","1","undefined","1","right","84","84","84","0","0","84","84","0","0","84","84","84","0","84","0","Sun Oct 24 17:53:45 2021","The main experiment item","yes","Sternbergtask.osexp","/Users/samonemarks/Desktop","no","mono","no","18","no","white","no","yes","768","legacy","72","11","/Users/samonemarks/Desktop/SM-subject-4.csv","legacy","1 6 4 3 9 7","Lentiform Loewenfeld","3.3.9","0","n","0","right","right","left","right","NA","1198","72748","30397","1198","NA","2","legacy","6","1024","2","48000","-16","experiment","4","even","8","637228","633968","635020","4926","193712","635022","609813","4977","163314","639230","640430","636024","77757","639230","NA","Sternberg task","59","85087","85","yes","1024"
"69.76744186046511","69.76744186046511","999.0813953488372","999.0813953488372","black","experiment","legacy","legacy","legacy","0","uniform","1","undefined","1","left","85","85","85","0","0","85","85","0","0","85","85","85","0","85","0","Sun Oct 24 17:53:45 2021","The main experiment item","yes","Sternbergtask.osexp","/Users/samonemarks/Desktop","no","mono","no","18","no","white","no","yes","768","legacy","73","11","/Users/samonemarks/Desktop/SM-subject-4.csv","legacy","8 5 1 3 9","Lentiform Loewenfeld","3.3.9","4","y","0","left","right","left","left","NA","834","72748","30397","834","NA","2","legacy","5","1024","2","48000","-16","experiment","4","even","3","643695","640435","641487","4926","193712","641490","609813","4977","163314","645699","646534","642492","77757","645699","NA","Sternberg task","60","85921","86","yes","1024"
"70.11494252873563","70.11494252873563","996.7586206896551","996.7586206896551","black","experiment","legacy","legacy","legacy","0","uniform","1","undefined","1","right","86","86","86","0","0","86","86","0","0","86","86","86","0","86","0","Sun Oct 24 17:53:45 2021","The main experiment item","yes","Sternbergtask.osexp","/Users/samonemarks/Desktop","no","mono","no","18","no","white","no","yes","768","legacy","74","11","/Users/samonemarks/Desktop/SM-subject-4.csv","legacy","6 9 4 5 3 2","Lentiform Loewenfeld","3.3.9","0","n","0","right","right","left","right","NA","797","72748","30397","797","NA","2","legacy","6","1024","2","48000","-16","experiment","4","even","8","649800","646539","647591","4926","193712","647594","609813","4977","163314","651802","652600","648596","77757","651802","NA","Sternberg task","61","86718","87","yes","1024"
"70.45454545454545","70.45454545454545","994.8409090909091","994.8409090909091","black","experiment","legacy","legacy","legacy","0","uniform","1","undefined","1","left","87","87","87","0","0","87","87","0","0","87","87","87","0","87","0","Sun Oct 24 17:53:45 2021","The main experiment item","yes","Sternbergtask.osexp","/Users/samonemarks/Desktop","no","mono","no","18","no","white","no","yes","768","legacy","75","11","/Users/samonemarks/Desktop/SM-subject-4.csv","legacy","4 9 7 8 5 3","Lentiform Loewenfeld","3.3.9","4","y","0","left","right","left","left","NA","828","72748","30397","828","NA","2","legacy","6","1024","2","48000","-16","experiment","4","even","8","655866","652605","653659","4926","193712","653661","609813","4977","163314","657869","658698","654663","77757","657868","NA","Sternberg task","62","87546","88","yes","1024"
"70.78651685393258","70.78651685393258","990.314606741573","990.314606741573","black","experiment","legacy","legacy","legacy","0","uniform","1","undefined","1","left","88","88","88","0","0","88","88","0","0","88","88","88","0","88","0","Sun Oct 24 17:53:45 2021","The main experiment item","yes","Sternbergtask.osexp","/Users/samonemarks/Desktop","no","mono","no","18","no","white","no","yes","768","legacy","76","11","/Users/samonemarks/Desktop/SM-subject-4.csv","legacy","4","Lentiform Loewenfeld","3.3.9","1","y","0","left","right","left","left","NA","592","72748","30397","592","NA","2","legacy","1","1024","2","48000","-16","experiment","4","even","4","661962","658703","659755","4926","193712","659757","609813","4977","163314","663965","664558","660759","77757","663965","NA","Sternberg task","63","88138","89","yes","1024"
"71.11111111111111","71.11111111111111","990.5777777777778","990.5777777777778","black","experiment","legacy","legacy","legacy","0","uniform","1","undefined","1","left","89","89","89","0","0","89","89","0","0","89","89","89","0","89","0","Sun Oct 24 17:53:45 2021","The main experiment item","yes","Sternbergtask.osexp","/Users/samonemarks/Desktop","no","mono","no","18","no","white","no","yes","768","legacy","77","11","/Users/samonemarks/Desktop/SM-subject-4.csv","legacy","9 5 3 8 4","Lentiform Loewenfeld","3.3.9","1","y","0","left","right","left","left","NA","1014","72748","30397","1014","NA","2","legacy","5","1024","2","48000","-16","experiment","4","even","9","667822","664563","665615","4926","193712","665617","609813","4977","163314","669824","670839","666619","77757","669824","NA","Sternberg task","64","89152","90","yes","1024"
"71.42857142857143","71.42857142857143","988.2637362637363","988.2637362637363","black","experiment","legacy","legacy","legacy","0","uniform","1","undefined","1","right","90","90","90","0","0","90","90","0","0","90","90","90","0","90","0","Sun Oct 24 17:53:45 2021","The main experiment item","yes","Sternbergtask.osexp","/Users/samonemarks/Desktop","no","mono","no","18","no","white","no","yes","768","legacy","78","11","/Users/samonemarks/Desktop/SM-subject-4.csv","legacy","6 9 7 3 8 2","Lentiform Loewenfeld","3.3.9","0","n","0","right","right","left","right","NA","780","72748","30397","780","NA","2","legacy","6","1024","2","48000","-16","experiment","4","even","5","674105","670843","671896","4926","193712","671899","609813","4977","163314","676108","676889","672901","77757","676108","NA","Sternberg task","65","89932","91","yes","1024"
"71.73913043478261","71.73913043478261","984.5326086956521","984.5326086956521","black","experiment","legacy","legacy","legacy","0","uniform","1","undefined","1","right","91","91","91","0","0","91","91","0","0","91","91","91","0","91","0","Sun Oct 24 17:53:45 2021","The main experiment item","yes","Sternbergtask.osexp","/Users/samonemarks/Desktop","no","mono","no","18","no","white","no","yes","768","legacy","79","11","/Users/samonemarks/Desktop/SM-subject-4.csv","legacy","1 7 8 3 9","Lentiform Loewenfeld","3.3.9","0","n","0","right","right","left","right","NA","645","72748","30397","645","NA","2","legacy","5","1024","2","48000","-16","experiment","4","even","2","680154","676894","677946","4926","193712","677949","609813","4977","163314","682157","682804","678951","77757","682157","NA","Sternberg task","66","90577","92","yes","1024"
"72.04301075268818","72.04301075268818","980.1290322580645","980.1290322580645","black","experiment","legacy","legacy","legacy","0","uniform","1","undefined","1","left","92","92","92","0","0","92","92","0","0","92","92","92","0","92","0","Sun Oct 24 17:53:45 2021","The main experiment item","yes","Sternbergtask.osexp","/Users/samonemarks/Desktop","no","mono","no","18","no","white","no","yes","768","legacy","80","11","/Users/samonemarks/Desktop/SM-subject-4.csv","legacy","7","Lentiform Loewenfeld","3.3.9","1","y","0","left","right","left","left","NA","575","72748","30397","575","NA","2","legacy","1","1024","2","48000","-16","experiment","4","even","7","686069","682808","683860","4926","193712","683863","609813","4977","163314","688071","688647","684865","77757","688071","NA","Sternberg task","67","91152","93","yes","1024"
"72.34042553191489","72.34042553191489","978.6914893617021","978.6914893617021","black","experiment","legacy","legacy","legacy","0","uniform","1","undefined","1","left","93","93","93","0","0","93","93","0","0","93","93","93","0","93","0","Sun Oct 24 17:53:45 2021","The main experiment item","yes","Sternbergtask.osexp","/Users/samonemarks/Desktop","no","mono","no","18","no","white","no","yes","768","legacy","81","11","/Users/samonemarks/Desktop/SM-subject-4.csv","legacy","8 7 3","Lentiform Loewenfeld","3.3.9","1","y","0","left","right","left","left","NA","845","72748","30397","845","NA","2","legacy","3","1024","2","48000","-16","experiment","4","even","8","691911","688652","689703","4926","193712","689706","609813","4977","163314","693914","694760","690708","77757","693914","NA","Sternberg task","68","91997","94","yes","1024"
"72.63157894736842","72.63157894736842","976.7578947368421","976.7578947368421","black","experiment","legacy","legacy","legacy","0","uniform","1","undefined","1","left","94","94","94","0","0","94","94","0","0","94","94","94","0","94","0","Sun Oct 24 17:53:45 2021","The main experiment item","yes","Sternbergtask.osexp","/Users/samonemarks/Desktop","no","mono","no","18","no","white","no","yes","768","legacy","82","11","/Users/samonemarks/Desktop/SM-subject-4.csv","legacy","4 3 2 5 8","Lentiform Loewenfeld","3.3.9","2","y","0","left","right","left","left","NA","795","72748","30397","795","NA","2","legacy","5","1024","2","48000","-16","experiment","4","even","3","698024","694765","695816","4926","193712","695819","609813","4977","163314","700026","700822","696821","77757","700026","NA","Sternberg task","69","92792","95","yes","1024"
"72.91666666666667","72.91666666666667","972.6145833333334","972.6145833333334","black","experiment","legacy","legacy","legacy","0","uniform","1","undefined","1","left","95","95","95","0","0","95","95","0","0","95","95","95","0","95","0","Sun Oct 24 17:53:45 2021","The main experiment item","yes","Sternbergtask.osexp","/Users/samonemarks/Desktop","no","mono","no","18","no","white","no","yes","768","legacy","83","11","/Users/samonemarks/Desktop/SM-subject-4.csv","legacy","5 7 8 2 3 8","Lentiform Loewenfeld","3.3.9","5","y","0","left","right","left","left","NA","579","72748","30397","579","NA","2","legacy","6","1024","2","48000","-16","experiment","4","even","3","704088","700827","701881","4926","193712","701883","609813","4977","163314","706091","706671","702885","77757","706090","NA","Sternberg task","70","93371","96","yes","1024"
"73.19587628865979","73.19587628865979","968.7422680412371","968.7422680412371","black","experiment","legacy","legacy","legacy","0","uniform","1","undefined","1","left","96","96","96","0","0","96","96","0","0","96","96","96","0","96","0","Sun Oct 24 17:53:45 2021","The main experiment item","yes","Sternbergtask.osexp","/Users/samonemarks/Desktop","no","mono","no","18","no","white","no","yes","768","legacy","84","11","/Users/samonemarks/Desktop/SM-subject-4.csv","legacy","7 2 3","Lentiform Loewenfeld","3.3.9","3","y","0","left","right","left","left","NA","597","72748","30397","597","NA","2","legacy","3","1024","2","48000","-16","experiment","4","even","3","709934","706675","707726","4926","193712","707729","609813","4977","163314","711936","712534","708731","77757","711936","NA","Sternberg task","71","93968","97","yes","1024"
"73.46938775510205","73.46938775510205","964.7551020408164","964.7551020408164","black","experiment","legacy","legacy","legacy","0","uniform","1","undefined","1","left","97","97","97","0","0","97","97","0","0","97","97","97","0","97","0","Sun Oct 24 17:53:45 2021","The main experiment item","yes","Sternbergtask.osexp","/Users/samonemarks/Desktop","no","mono","no","18","no","white","no","yes","768","legacy","85","11","/Users/samonemarks/Desktop/SM-subject-4.csv","legacy","7 1 3","Lentiform Loewenfeld","3.3.9","2","y","0","left","right","left","left","NA","578","72748","30397","578","NA","2","legacy","3","1024","2","48000","-16","experiment","4","even","1","715797","712538","713590","4926","193712","713592","609813","4977","163314","717800","718380","714594","77757","717800","NA","Sternberg task","72","94546","98","yes","1024"
"73.73737373737374","73.73737373737374","961.2929292929293","961.2929292929293","black","experiment","legacy","legacy","legacy","0","uniform","1","undefined","1","right","98","98","98","0","0","98","98","0","0","98","98","98","0","98","0","Sun Oct 24 17:53:45 2021","The main experiment item","yes","Sternbergtask.osexp","/Users/samonemarks/Desktop","no","mono","no","18","no","white","no","yes","768","legacy","86","11","/Users/samonemarks/Desktop/SM-subject-4.csv","legacy","5 3 2 6 9 8","Lentiform Loewenfeld","3.3.9","0","n","0","right","right","left","right","NA","622","72748","30397","622","NA","2","legacy","6","1024","2","48000","-16","experiment","4","even","4","721646","718384","719438","4926","193712","719440","609813","4977","163314","723648","724272","720442","77757","723648","NA","Sternberg task","73","95168","99","yes","1024"
"74","74","959.28","959.28","black","experiment","legacy","legacy","legacy","0","uniform","1","undefined","1","right","99","99","99","0","0","99","99","0","0","99","99","99","0","99","0","Sun Oct 24 17:53:45 2021","The main experiment item","yes","Sternbergtask.osexp","/Users/samonemarks/Desktop","no","mono","no","18","no","white","no","yes","768","legacy","87","11","/Users/samonemarks/Desktop/SM-subject-4.csv","legacy","1 4 9 3","Lentiform Loewenfeld","3.3.9","0","n","0","right","right","left","right","NA","760","72748","30397","760","NA","2","legacy","4","1024","2","48000","-16","experiment","4","even","5","727536","724276","725328","4926","193712","725331","609813","4977","163314","729539","730300","726333","77757","729539","NA","Sternberg task","74","95928","100","yes","1024"
"74.25742574257426","74.25742574257426","956.3960396039604","956.3960396039604","black","experiment","legacy","legacy","legacy","0","uniform","1","undefined","1","left","100","100","100","0","0","100","100","0","0","100","100","100","0","100","0","Sun Oct 24 17:53:45 2021","The main experiment item","yes","Sternbergtask.osexp","/Users/samonemarks/Desktop","no","mono","no","18","no","white","no","yes","768","legacy","88","11","/Users/samonemarks/Desktop/SM-subject-4.csv","legacy","3 5 9 6 2 4","Lentiform Loewenfeld","3.3.9","1","y","0","left","right","left","left","NA","668","72748","30397","668","NA","2","legacy","6","1024","2","48000","-16","experiment","4","even","3","733565","730304","731356","4926","193712","731359","609813","4977","163314","735567","736236","732361","77757","735567","NA","Sternberg task","75","96596","101","yes","1024"
"74.50980392156863","74.50980392156863","959.6862745098039","959.6862745098039","black","experiment","legacy","legacy","legacy","0","uniform","1","undefined","1","left","101","101","101","0","0","101","101","0","0","101","101","101","0","101","0","Sun Oct 24 17:53:45 2021","The main experiment item","yes","Sternbergtask.osexp","/Users/samonemarks/Desktop","no","mono","no","18","no","white","no","yes","768","legacy","89","11","/Users/samonemarks/Desktop/SM-subject-4.csv","legacy","4 7 6 8 2 3","Lentiform Loewenfeld","3.3.9","6","y","0","left","right","left","left","NA","1292","72748","30397","1292","NA","2","legacy","6","1024","2","48000","-16","experiment","4","even","3","739499","736240","737291","4926","193712","737294","609813","4977","163314","741502","742795","738296","77757","741502","NA","Sternberg task","76","97888","102","yes","1024"
"74.75728155339806","74.75728155339806","957.5145631067961","957.5145631067961","black","experiment","legacy","legacy","legacy","0","uniform","1","undefined","1","right","102","102","102","0","0","102","102","0","0","102","102","102","0","102","0","Sun Oct 24 17:53:45 2021","The main experiment item","yes","Sternbergtask.osexp","/Users/samonemarks/Desktop","no","mono","no","18","no","white","no","yes","768","legacy","90","11","/Users/samonemarks/Desktop/SM-subject-4.csv","legacy","3 4 9 6 7 8","Lentiform Loewenfeld","3.3.9","0","n","0","right","right","left","right","NA","736","72748","30397","736","NA","2","legacy","6","1024","2","48000","-16","experiment","4","even","2","746061","742800","743852","4926","193712","743855","609813","4977","163314","748063","748800","744857","77757","748063","NA","Sternberg task","77","98624","103","yes","1024"
"75","75","955.5961538461538","955.5961538461538","black","experiment","legacy","legacy","legacy","0","uniform","1","undefined","1","left","103","103","103","0","0","103","103","0","0","103","103","103","0","103","0","Sun Oct 24 17:53:45 2021","The main experiment item","yes","Sternbergtask.osexp","/Users/samonemarks/Desktop","no","mono","no","18","no","white","no","yes","768","legacy","91","11","/Users/samonemarks/Desktop/SM-subject-4.csv","legacy","9 3 1 2 5","Lentiform Loewenfeld","3.3.9","4","y","0","left","right","left","left","NA","758","72748","30397","758","NA","2","legacy","5","1024","2","48000","-16","experiment","4","even","2","752064","748805","749856","4926","193712","749858","609813","4977","163314","754067","754826","750861","77757","754067","NA","Sternberg task","78","99382","104","yes","1024"
"75.23809523809524","75.23809523809524","952.1428571428571","952.1428571428571","black","experiment","legacy","legacy","legacy","0","uniform","1","undefined","1","right","104","104","104","0","0","104","104","0","0","104","104","104","0","104","0","Sun Oct 24 17:53:45 2021","The main experiment item","yes","Sternbergtask.osexp","/Users/samonemarks/Desktop","no","mono","no","18","no","white","no","yes","768","legacy","92","11","/Users/samonemarks/Desktop/SM-subject-4.csv","legacy","5 9 2 3","Lentiform Loewenfeld","3.3.9","0","n","0","right","right","left","right","NA","593","72748","30397","593","NA","2","legacy","4","1024","2","48000","-16","experiment","4","even","8","758089","754830","755881","4926","193712","755884","609813","4977","163314","760092","760686","756886","77757","760091","NA","Sternberg task","79","99975","105","yes","1024"
"75.47169811320755","75.47169811320755","949.0471698113207","949.0471698113207","black","experiment","legacy","legacy","legacy","0","uniform","1","undefined","1","right","105","105","105","0","0","105","105","0","0","105","105","105","0","105","0","Sun Oct 24 17:53:45 2021","The main experiment item","yes","Sternbergtask.osexp","/Users/samonemarks/Desktop","no","mono","no","18","no","white","no","yes","768","legacy","93","11","/Users/samonemarks/Desktop/SM-subject-4.csv","legacy","8 4 3 5","Lentiform Loewenfeld","3.3.9","0","n","0","right","right","left","right","NA","624","72748","30397","624","NA","2","legacy","4","1024","2","48000","-16","experiment","4","even","6","763951","760691","761743","4926","193712","761745","609813","4977","163314","765954","766579","762748","77757","765954","NA","Sternberg task","80","100599","106","yes","1024"
"75.70093457943925","75.70093457943925","944.7943925233645","944.7943925233645","black","experiment","legacy","legacy","legacy","0","uniform","1","undefined","1","left","106","106","106","0","0","106","106","0","0","106","106","106","0","106","0","Sun Oct 24 17:53:45 2021","The main experiment item","yes","Sternbergtask.osexp","/Users/samonemarks/Desktop","no","mono","no","18","no","white","no","yes","768","legacy","94","11","/Users/samonemarks/Desktop/SM-subject-4.csv","legacy","2 4 8 5 1 3","Lentiform Loewenfeld","3.3.9","1","y","0","left","right","left","left","NA","494","72748","30397","494","NA","2","legacy","6","1024","2","48000","-16","experiment","4","even","2","769842","766583","767635","4926","193712","767637","609813","4977","163314","771844","772339","768639","77757","771844","NA","Sternberg task","81","101093","107","yes","1024"
"75.92592592592592","75.92592592592592","941.675925925926","941.675925925926","black","experiment","legacy","legacy","legacy","0","uniform","1","undefined","1","right","107","107","107","0","0","107","107","0","0","107","107","107","0","107","0","Sun Oct 24 17:53:45 2021","The main experiment item","yes","Sternbergtask.osexp","/Users/samonemarks/Desktop","no","mono","no","18","no","white","no","yes","768","legacy","95","11","/Users/samonemarks/Desktop/SM-subject-4.csv","legacy","5","Lentiform Loewenfeld","3.3.9","0","n","0","right","right","left","right","NA","608","72748","30397","608","NA","2","legacy","1","1024","2","48000","-16","experiment","4","even","8","775602","772343","773395","4926","193712","773397","609813","4977","163314","777605","778215","774399","77757","777605","NA","Sternberg task","82","101701","108","yes","1024"
"76.14678899082568","76.14678899082568","941.4036697247707","941.4036697247707","black","experiment","legacy","legacy","legacy","0","uniform","1","undefined","1","right","108","108","108","0","0","108","108","0","0","108","108","108","0","108","0","Sun Oct 24 17:53:45 2021","The main experiment item","yes","Sternbergtask.osexp","/Users/samonemarks/Desktop","no","mono","no","18","no","white","no","yes","768","legacy","96","11","/Users/samonemarks/Desktop/SM-subject-4.csv","legacy","6 3 1 7 9 8","Lentiform Loewenfeld","3.3.9","0","n","0","right","right","left","right","NA","912","72748","30397","912","NA","2","legacy","6","1024","2","48000","-16","experiment","4","even","4","781480","778220","779272","4926","193712","779274","609813","4977","163314","783483","784396","780277","77757","783483","NA","Sternberg task","83","102613","109","yes","1024"
"76.36363636363636","76.36363636363636","938.9636363636364","938.9636363636364","black","experiment","legacy","legacy","legacy","0","uniform","1","undefined","1","right","109","109","109","0","0","109","109","0","0","109","109","109","0","109","0","Sun Oct 24 17:53:45 2021","The main experiment item","yes","Sternbergtask.osexp","/Users/samonemarks/Desktop","no","mono","no","18","no","white","no","yes","768","legacy","97","11","/Users/samonemarks/Desktop/SM-subject-4.csv","legacy","8 4 3 9","Lentiform Loewenfeld","3.3.9","0","n","0","right","right","left","right","NA","673","72748","30397","673","NA","2","legacy","4","1024","2","48000","-16","experiment","4","even","5","787660","784400","785453","4926","193712","785455","609813","4977","163314","789663","790337","786457","77757","789663","NA","Sternberg task","84","103286","110","yes","1024"
"76.57657657657657","76.57657657657657","938.6936936936937","938.6936936936937","black","experiment","legacy","legacy","legacy","0","uniform","1","undefined","1","left","110","110","110","0","0","110","110","0","0","110","110","110","0","110","0","Sun Oct 24 17:53:45 2021","The main experiment item","yes","Sternbergtask.osexp","/Users/samonemarks/Desktop","no","mono","no","18","no","white","no","yes","768","legacy","98","11","/Users/samonemarks/Desktop/SM-subject-4.csv","legacy","3 2 1 4 7","Lentiform Loewenfeld","3.3.9","2","y","0","left","right","left","left","NA","909","72748","30397","909","NA","2","legacy","5","1024","2","48000","-16","experiment","4","even","2","793603","790342","791394","4926","193712","791397","609813","4977","163314","795605","796515","792399","77757","795605","NA","Sternberg task","85","104195","111","yes","1024"
"76.78571428571429","76.78571428571429","939.6875","939.6875","black","experiment","legacy","legacy","legacy","0","uniform","1","undefined","1","left","111","111","111","0","0","111","111","0","0","111","111","111","0","111","0","Sun Oct 24 17:53:45 2021","The main experiment item","yes","Sternbergtask.osexp","/Users/samonemarks/Desktop","no","mono","no","18","no","white","no","yes","768","legacy","99","11","/Users/samonemarks/Desktop/SM-subject-4.csv","legacy","7 4 2 6 3 5","Lentiform Loewenfeld","3.3.9","6","y","0","left","right","left","left","NA","1050","72748","30397","1050","NA","2","legacy","6","1024","2","48000","-16","experiment","4","even","5","799779","796520","797571","4926","193712","797574","609813","4977","163314","801782","802833","798576","77757","801782","NA","Sternberg task","86","105245","112","yes","1024"
"76.99115044247787","76.99115044247787","937.6725663716815","937.6725663716815","black","experiment","legacy","legacy","legacy","0","uniform","1","undefined","1","right","112","112","112","0","0","112","112","0","0","112","112","112","0","112","0","Sun Oct 24 17:53:45 2021","The main experiment item","yes","Sternbergtask.osexp","/Users/samonemarks/Desktop","no","mono","no","18","no","white","no","yes","768","legacy","100","11","/Users/samonemarks/Desktop/SM-subject-4.csv","legacy","9 5 3 2 8 6","Lentiform Loewenfeld","3.3.9","0","n","0","right","right","left","right","NA","712","72748","30397","712","NA","2","legacy","6","1024","2","48000","-16","experiment","4","even","7","806100","802838","803891","4926","193712","803894","609813","4977","163314","808102","808815","804896","77757","808102","NA","Sternberg task","87","105957","113","yes","1024"
"77.19298245614036","77.19298245614036","936.0526315789474","936.0526315789474","black","experiment","legacy","legacy","legacy","0","uniform","1","undefined","1","left","113","113","113","0","0","113","113","0","0","113","113","113","0","113","0","Sun Oct 24 17:53:45 2021","The main experiment item","yes","Sternbergtask.osexp","/Users/samonemarks/Desktop","no","mono","no","18","no","white","no","yes","768","legacy","101","11","/Users/samonemarks/Desktop/SM-subject-4.csv","legacy","8 3","Lentiform Loewenfeld","3.3.9","2","y","0","left","right","left","left","NA","753","72748","30397","753","NA","2","legacy","2","1024","2","48000","-16","experiment","4","even","3","812078","808820","809871","4926","193712","809873","609813","4977","163314","814081","814835","810875","77757","814081","NA","Sternberg task","88","106710","114","yes","1024"
"77.3913043478261","77.3913043478261","933.7826086956521","933.7826086956521","black","experiment","legacy","legacy","legacy","0","uniform","1","undefined","1","left","114","114","114","0","0","114","114","0","0","114","114","114","0","114","0","Sun Oct 24 17:53:45 2021","The main experiment item","yes","Sternbergtask.osexp","/Users/samonemarks/Desktop","no","mono","no","18","no","white","no","yes","768","legacy","102","11","/Users/samonemarks/Desktop/SM-subject-4.csv","legacy","6 9 7 4 5 1","Lentiform Loewenfeld","3.3.9","2","y","0","left","right","left","left","NA","675","72748","30397","675","NA","2","legacy","6","1024","2","48000","-16","experiment","4","even","9","818099","814839","815892","4926","193712","815894","609813","4977","163314","820102","820779","816896","77757","820102","NA","Sternberg task","89","107385","115","yes","1024"
"77.58620689655173","77.58620689655173","931.0603448275862","931.0603448275862","black","experiment","legacy","legacy","legacy","0","uniform","1","undefined","1","left","115","115","115","0","0","115","115","0","0","115","115","115","0","115","0","Sun Oct 24 17:53:45 2021","The main experiment item","yes","Sternbergtask.osexp","/Users/samonemarks/Desktop","no","mono","no","18","no","white","no","yes","768","legacy","103","11","/Users/samonemarks/Desktop/SM-subject-4.csv","legacy","8 9 6 1","Lentiform Loewenfeld","3.3.9","2","y","0","left","right","left","left","NA","618","72748","30397","618","NA","2","legacy","4","1024","2","48000","-16","experiment","4","even","9","824046","820784","821835","4926","193712","821838","609813","4977","163314","826049","826669","822841","77757","826049","NA","Sternberg task","90","108003","116","yes","1024"
"77.77777777777777","77.77777777777777","928.034188034188","928.034188034188","black","experiment","legacy","legacy","legacy","0","uniform","1","undefined","1","right","116","116","116","0","0","116","116","0","0","116","116","116","0","116","0","Sun Oct 24 17:53:45 2021","The main experiment item","yes","Sternbergtask.osexp","/Users/samonemarks/Desktop","no","mono","no","18","no","white","no","yes","768","legacy","104","11","/Users/samonemarks/Desktop/SM-subject-4.csv","legacy","8 9","Lentiform Loewenfeld","3.3.9","0","n","0","right","right","left","right","NA","577","72748","30397","577","NA","2","legacy","2","1024","2","48000","-16","experiment","4","even","5","829934","826674","827726","4926","193712","827728","609813","4977","163314","831938","832516","828731","77757","831937","NA","Sternberg task","91","108580","117","yes","1024"
"77.96610169491525","77.96610169491525","925.957627118644","925.957627118644","black","experiment","legacy","legacy","legacy","0","uniform","1","undefined","1","right","117","117","117","0","0","117","117","0","0","117","117","117","0","117","0","Sun Oct 24 17:53:45 2021","The main experiment item","yes","Sternbergtask.osexp","/Users/samonemarks/Desktop","no","mono","no","18","no","white","no","yes","768","legacy","105","11","/Users/samonemarks/Desktop/SM-subject-4.csv","legacy","4 2 6 9","Lentiform Loewenfeld","3.3.9","0","n","0","right","right","left","right","NA","683","72748","30397","683","NA","2","legacy","4","1024","2","48000","-16","experiment","4","even","7","835784","832521","833573","4926","193712","833575","609813","4977","163314","837789","838473","834578","77757","837789","NA","Sternberg task","92","109263","118","yes","1024"
