"acc","accuracy","average_response_time","avg_rt","background","block","canvas_backend","clock_backend","color_backend","compensation","coordinates","correct","correct_Instruction_1","correct_Keyboard_Response","correct_response","count_Correct_Feedback","count_Experimental_Loop","count_Fixation","count_ISI","count_Incorrect_Feedback","count_Instruction_1","count_Instructions_2","count_Instructions_3_Thanks","count_Keyboard_Response","count_Logger","count_Memory_Set","count_Practice_Loop","count_Probe","count_expSequence","count_experiment","count_new_sketchpad","datetime","description","disable_garbage_collection","experiment_file","experiment_path","font_bold","font_family","font_italic","font_size","font_underline","foreground","form_clicks","fullscreen","height","keyboard_backend","live_row","live_row_Practice_Loop","logfile","mouse_backend","numberSet","opensesame_codename","opensesame_version","posInSet","present","repeat_cycle","response","response_Incorrect_Feedback","response_Instruction_1","response_Instructions_2","response_Instructions_3_Thanks","response_Keyboard_Response","response_new_sketchpad","response_time","response_time_Incorrect_Feedback","response_time_Instruction_1","response_time_Instructions_2","response_time_Instructions_3_Thanks","response_time_Keyboard_Response","response_time_new_sketchpad","round_decimals","sampler_backend","setSize","sound_buf_size","sound_channels","sound_freq","sound_sample_size","start","subject_nr","subject_parity","target","time_Correct_Feedback","time_Experimental_Loop","time_Fixation","time_ISI","time_Incorrect_Feedback","time_Instruction_1","time_Instructions_2","time_Instructions_3_Thanks","time_Keyboard_Response","time_Logger","time_Memory_Set","time_Practice_Loop","time_Probe","time_expSequence","time_experiment","time_new_sketchpad","title","total_correct","total_response_time","total_responses","uniform_coordinates","width"
"0","0","476","476","black","practice","legacy","legacy","legacy","0","uniform","0","undefined","0","left","0","0","0","0","0","0","0","0","0","0","0","0","0","0","0","NA","Sun Oct 25 20:38:15 2020","The main experiment item","yes","SternbergTask (1).osexp","/Users/jacobspurling/Downloads","no","mono","no","18","no","white","no","yes","768","legacy","0","0","/Users/jacobspurling/Desktop/TP-subject-4.csv","legacy","6","Lentiform Loewenfeld","3.3.5","1","y","0","right","NA","right","NA","NA","right","NA","476","NA","2856","NA","NA","476","NA","2","legacy","1","1024","2","48000","-16","experiment","4","even","6","NA","NA","7798","10035","NA","4466","NA","NA","12056","12534","8815","7345","12056","7786","4447","NA","Sternberg Task","0","476","1","yes","1024"
"50","50","393","393","black","practice","legacy","legacy","legacy","0","uniform","1","undefined","1","right","1","0","1","1","1","0","0","0","1","1","1","0","1","1","0","NA","Sun Oct 25 20:38:15 2020","The main experiment item","yes","SternbergTask (1).osexp","/Users/jacobspurling/Downloads","no","mono","no","18","no","white","no","yes","768","legacy","1","1","/Users/jacobspurling/Desktop/TP-subject-4.csv","legacy","5","Lentiform Loewenfeld","3.3.5","0","n","0","right","right","right","NA","NA","right","NA","310","662","2856","NA","NA","310","NA","2","legacy","1","1024","2","48000","-16","experiment","4","even","3","NA","NA","13433","15671","12601","4466","NA","NA","17691","18002","14451","7345","17691","13419","4447","NA","Sternberg Task","1","786","2","yes","1024"
"66.66666666666667","66.66666666666667","328.6666666666667","328.6666666666667","black","practice","legacy","legacy","legacy","0","uniform","1","undefined","1","right","2","0","2","2","2","0","0","0","2","2","2","0","2","2","0","NA","Sun Oct 25 20:38:15 2020","The main experiment item","yes","SternbergTask (1).osexp","/Users/jacobspurling/Downloads","no","mono","no","18","no","white","no","yes","768","legacy","2","2","/Users/jacobspurling/Desktop/TP-subject-4.csv","legacy","5 7 8 4 1 2","Lentiform Loewenfeld","3.3.5","0","n","0","right","right","right","NA","NA","right","NA","200","662","2856","NA","NA","200","NA","2","legacy","6","1024","2","48000","-16","experiment","4","even","6","18029","NA","19146","21383","12601","4466","NA","NA","23404","23605","20163","7345","23404","19126","4447","NA","Sternberg Task","2","986","3","yes","1024"
"75","75","292","292","black","practice","legacy","legacy","legacy","0","uniform","1","undefined","1","right","3","0","3","3","3","0","0","0","3","3","3","0","3","3","0","NA","Sun Oct 25 20:38:15 2020","The main experiment item","yes","SternbergTask (1).osexp","/Users/jacobspurling/Downloads","no","mono","no","18","no","white","no","yes","768","legacy","3","3","/Users/jacobspurling/Desktop/TP-subject-4.csv","legacy","3 1 9 4","Lentiform Loewenfeld","3.3.5","0","n","0","right","right","right","NA","NA","right","NA","182","662","2856","NA","NA","182","NA","2","legacy","4","1024","2","48000","-16","experiment","4","even","6","23632","NA","24742","26982","12601","4466","NA","NA","29000","29183","25760","7345","29000","24725","4447","NA","Sternberg Task","3","1168","4","yes","1024"
"60","60","251.4","251.4","black","practice","legacy","legacy","legacy","0","uniform","0","undefined","0","left","4","0","4","4","4","0","0","0","4","4","4","0","4","4","0","NA","Sun Oct 25 20:38:15 2020","The main experiment item","yes","SternbergTask (1).osexp","/Users/jacobspurling/Downloads","no","mono","no","18","no","white","no","yes","768","legacy","4","4","/Users/jacobspurling/Desktop/TP-subject-4.csv","legacy","4 3 1 7 9 8","Lentiform Loewenfeld","3.3.5","1","y","0","right","right","right","NA","NA","right","NA","89","662","2856","NA","NA","89","NA","2","legacy","6","1024","2","48000","-16","experiment","4","even","4","29209","NA","30320","32560","12601","4466","NA","NA","34579","34670","31340","7345","34579","30303","4447","NA","Sternberg Task","3","1257","5","yes","1024"
"50","50","212","212","black","practice","legacy","legacy","legacy","0","uniform","0","undefined","0","left","5","0","5","5","5","0","0","0","5","5","5","0","5","5","0","NA","Sun Oct 25 20:38:15 2020","The main experiment item","yes","SternbergTask (1).osexp","/Users/jacobspurling/Downloads","no","mono","no","18","no","white","no","yes","768","legacy","5","5","/Users/jacobspurling/Desktop/TP-subject-4.csv","legacy","1 5 2 9","Lentiform Loewenfeld","3.3.5","2","y","0","right","right","right","NA","NA","right","NA","15","201","2856","NA","NA","15","NA","2","legacy","4","1024","2","48000","-16","experiment","4","even","5","29209","NA","35005","37243","34695","4466","NA","NA","39265","39281","36022","7345","39265","34994","4447","NA","Sternberg Task","3","1272","6","yes","1024"
"42.857142857142854","42.857142857142854","199","199","black","practice","legacy","legacy","legacy","0","uniform","0","undefined","0","left","6","0","6","6","6","0","0","0","6","6","6","0","6","6","0","NA","Sun Oct 25 20:38:15 2020","The main experiment item","yes","SternbergTask (1).osexp","/Users/jacobspurling/Downloads","no","mono","no","18","no","white","no","yes","768","legacy","6","6","/Users/jacobspurling/Desktop/TP-subject-4.csv","legacy","1 7 9 8 5","Lentiform Loewenfeld","3.3.5","4","y","0","right","right","right","NA","NA","right","NA","121","243","2856","NA","NA","121","NA","2","legacy","5","1024","2","48000","-16","experiment","4","even","8","29209","NA","39656","41896","39295","4466","NA","NA","43915","44037","40675","7345","43915","39641","4447","NA","Sternberg Task","3","1393","7","yes","1024"
"50","50","178.75","178.75","black","practice","legacy","legacy","legacy","0","uniform","1","undefined","1","right","7","0","7","7","7","0","0","0","7","7","7","0","7","7","0","NA","Sun Oct 25 20:38:15 2020","The main experiment item","yes","SternbergTask (1).osexp","/Users/jacobspurling/Downloads","no","mono","no","18","no","white","no","yes","768","legacy","7","7","/Users/jacobspurling/Desktop/TP-subject-4.csv","legacy","2 1","Lentiform Loewenfeld","3.3.5","0","n","0","right","right","right","NA","NA","right","NA","37","255","2856","NA","NA","37","NA","2","legacy","2","1024","2","48000","-16","experiment","4","even","5","29209","NA","44429","46667","44063","4466","NA","NA","48686","48725","45447","7345","48686","44416","4447","NA","Sternberg Task","4","1430","8","yes","1024"
"55.55555555555556","55.55555555555556","181.77777777777777","181.77777777777777","black","practice","legacy","legacy","legacy","0","uniform","1","undefined","1","right","8","0","8","8","8","0","0","0","8","8","8","0","8","8","0","NA","Sun Oct 25 20:38:15 2020","The main experiment item","yes","SternbergTask (1).osexp","/Users/jacobspurling/Downloads","no","mono","no","18","no","white","no","yes","768","legacy","8","8","/Users/jacobspurling/Desktop/TP-subject-4.csv","legacy","4 1 5","Lentiform Loewenfeld","3.3.5","0","n","0","right","right","right","NA","NA","right","NA","206","255","2856","NA","NA","206","NA","2","legacy","3","1024","2","48000","-16","experiment","4","even","2","48751","NA","49860","52098","44063","4466","NA","NA","54117","54324","50878","7345","54117","49843","4447","NA","Sternberg Task","5","1636","9","yes","1024"
"50","50","176.6","176.6","black","practice","legacy","legacy","legacy","0","uniform","0","undefined","0","left","9","0","9","9","9","0","0","0","9","9","9","0","9","9","0","NA","Sun Oct 25 20:38:15 2020","The main experiment item","yes","SternbergTask (1).osexp","/Users/jacobspurling/Downloads","no","mono","no","18","no","white","no","yes","768","legacy","9","9","/Users/jacobspurling/Desktop/TP-subject-4.csv","legacy","4 8","Lentiform Loewenfeld","3.3.5","1","y","0","right","right","right","NA","NA","right","NA","130","255","2856","NA","NA","130","NA","2","legacy","2","1024","2","48000","-16","experiment","4","even","4","54350","NA","55473","57714","44063","4466","NA","NA","59737","59869","56492","7345","59737","55457","4447","NA","Sternberg Task","5","1766","10","yes","1024"
"45.45454545454545","45.45454545454545","173.8181818181818","173.8181818181818","black","practice","legacy","legacy","legacy","0","uniform","0","undefined","0","left","10","0","10","10","10","0","0","0","10","10","10","0","10","10","0","NA","Sun Oct 25 20:38:15 2020","The main experiment item","yes","SternbergTask (1).osexp","/Users/jacobspurling/Downloads","no","mono","no","18","no","white","no","yes","768","legacy","10","10","/Users/jacobspurling/Desktop/TP-subject-4.csv","legacy","2 9 4","Lentiform Loewenfeld","3.3.5","3","y","0","right","right","right","NA","NA","right","NA","146","219","2856","NA","NA","146","NA","2","legacy","3","1024","2","48000","-16","experiment","4","even","4","54350","NA","60223","62469","59896","4466","NA","NA","64494","64641","61242","7345","64493","60211","4447","NA","Sternberg Task","5","1912","11","yes","1024"
"50","50","160.58333333333334","160.58333333333334","black","practice","legacy","legacy","legacy","0","uniform","1","undefined","1","right","11","0","11","11","11","0","0","0","11","11","11","0","11","11","0","NA","Sun Oct 25 20:38:15 2020","The main experiment item","yes","SternbergTask (1).osexp","/Users/jacobspurling/Downloads","no","mono","no","18","no","white","no","yes","768","legacy","11","11","/Users/jacobspurling/Desktop/TP-subject-4.csv","legacy","9 6 7 4 5","Lentiform Loewenfeld","3.3.5","0","n","0","right","right","right","NA","NA","right","NA","15","261","2856","NA","NA","15","NA","2","legacy","5","1024","2","48000","-16","experiment","4","even","3","54350","NA","65036","67274","64667","4466","NA","NA","69294","69310","66055","7345","69294","65023","4447","NA","Sternberg Task","6","1927","12","yes","1024"
"53.84615384615385","53.84615384615385","178.23076923076923","178.23076923076923","black","experiment","legacy","legacy","legacy","0","uniform","1","undefined","1","left","12","0","12","12","12","0","0","0","12","12","12","0","12","12","0","NA","Sun Oct 25 20:38:15 2020","The main experiment item","yes","SternbergTask (1).osexp","/Users/jacobspurling/Downloads","no","mono","no","18","no","white","no","yes","768","legacy","0","11","/Users/jacobspurling/Desktop/TP-subject-4.csv","legacy","8 5 4 7 3 1","Lentiform Loewenfeld","3.3.5","2","y","0","left","right","right","right","NA","left","NA","390","261","2856","1943","NA","390","NA","2","legacy","6","1024","2","48000","-16","experiment","4","even","5","69324","72329","72437","74668","64667","4466","70384","NA","76682","77073","73452","7345","76682","72422","4447","NA","Sternberg Task","7","2317","13","yes","1024"
"57.142857142857146","57.142857142857146","241","241","black","experiment","legacy","legacy","legacy","0","uniform","1","undefined","1","left","13","0","13","13","13","0","0","0","13","13","13","0","13","13","0","NA","Sun Oct 25 20:38:15 2020","The main experiment item","yes","SternbergTask (1).osexp","/Users/jacobspurling/Downloads","no","mono","no","18","no","white","no","yes","768","legacy","1","11","/Users/jacobspurling/Desktop/TP-subject-4.csv","legacy","3 9 6 2","Lentiform Loewenfeld","3.3.5","4","y","0","left","right","right","right","NA","left","NA","1057","261","2856","1943","NA","1057","NA","2","legacy","4","1024","2","48000","-16","experiment","4","even","2","77100","72329","78206","80436","64667","4466","70384","NA","82450","83508","79221","7345","82449","78194","4447","NA","Sternberg Task","8","3374","14","yes","1024"
"60","60","277.93333333333334","277.93333333333334","black","experiment","legacy","legacy","legacy","0","uniform","1","undefined","1","right","14","0","14","14","14","0","0","0","14","14","14","0","14","14","0","NA","Sun Oct 25 20:38:15 2020","The main experiment item","yes","SternbergTask (1).osexp","/Users/jacobspurling/Downloads","no","mono","no","18","no","white","no","yes","768","legacy","2","11","/Users/jacobspurling/Desktop/TP-subject-4.csv","legacy","3 4 2","Lentiform Loewenfeld","3.3.5","0","n","0","right","right","right","right","NA","right","NA","795","261","2856","1943","NA","795","NA","2","legacy","3","1024","2","48000","-16","experiment","4","even","5","83522","72329","84637","86868","64667","4466","70384","NA","88881","89678","85651","7345","88881","84624","4447","NA","Sternberg Task","9","4169","15","yes","1024"
"62.5","62.5","290.8125","290.8125","black","experiment","legacy","legacy","legacy","0","uniform","1","undefined","1","left","15","0","15","15","15","0","0","0","15","15","15","0","15","15","0","NA","Sun Oct 25 20:38:15 2020","The main experiment item","yes","SternbergTask (1).osexp","/Users/jacobspurling/Downloads","no","mono","no","18","no","white","no","yes","768","legacy","3","11","/Users/jacobspurling/Desktop/TP-subject-4.csv","legacy","8 3","Lentiform Loewenfeld","3.3.5","2","y","0","left","right","right","right","NA","left","NA","484","261","2856","1943","NA","484","NA","2","legacy","2","1024","2","48000","-16","experiment","4","even","3","89704","72329","90812","93042","64667","4466","70384","NA","95055","95540","91826","7345","95055","90799","4447","NA","Sternberg Task","10","4653","16","yes","1024"
"64.70588235294117","64.70588235294117","317.05882352941177","317.05882352941177","black","experiment","legacy","legacy","legacy","0","uniform","1","undefined","1","right","16","0","16","16","16","0","0","0","16","16","16","0","16","16","0","NA","Sun Oct 25 20:38:15 2020","The main experiment item","yes","SternbergTask (1).osexp","/Users/jacobspurling/Downloads","no","mono","no","18","no","white","no","yes","768","legacy","4","11","/Users/jacobspurling/Desktop/TP-subject-4.csv","legacy","1 7 5 2 9","Lentiform Loewenfeld","3.3.5","0","n","0","right","right","right","right","NA","right","NA","737","261","2856","1943","NA","737","NA","2","legacy","5","1024","2","48000","-16","experiment","4","even","3","95570","72329","96678","98908","64667","4466","70384","NA","100921","101660","97692","7345","100921","96666","4447","NA","Sternberg Task","11","5390","17","yes","1024"
"66.66666666666667","66.66666666666667","320.6111111111111","320.6111111111111","black","experiment","legacy","legacy","legacy","0","uniform","1","undefined","1","left","17","0","17","17","17","0","0","0","17","17","17","0","17","17","0","NA","Sun Oct 25 20:38:15 2020","The main experiment item","yes","SternbergTask (1).osexp","/Users/jacobspurling/Downloads","no","mono","no","18","no","white","no","yes","768","legacy","5","11","/Users/jacobspurling/Desktop/TP-subject-4.csv","legacy","5 7 3 6 2","Lentiform Loewenfeld","3.3.5","5","y","0","left","right","right","right","NA","left","NA","381","261","2856","1943","NA","381","NA","2","legacy","5","1024","2","48000","-16","experiment","4","even","2","101686","72329","102796","105026","64667","4466","70384","NA","107040","107422","103811","7345","107040","102784","4447","NA","Sternberg Task","12","5771","18","yes","1024"
"68.42105263157895","68.42105263157895","323.89473684210526","323.89473684210526","black","experiment","legacy","legacy","legacy","0","uniform","1","undefined","1","left","18","0","18","18","18","0","0","0","18","18","18","0","18","18","0","NA","Sun Oct 25 20:38:15 2020","The main experiment item","yes","SternbergTask (1).osexp","/Users/jacobspurling/Downloads","no","mono","no","18","no","white","no","yes","768","legacy","6","11","/Users/jacobspurling/Desktop/TP-subject-4.csv","legacy","6 2","Lentiform Loewenfeld","3.3.5","1","y","0","left","right","right","right","NA","left","NA","383","261","2856","1943","NA","383","NA","2","legacy","2","1024","2","48000","-16","experiment","4","even","6","107448","72329","108557","110791","64667","4466","70384","NA","112806","113191","109572","7345","112805","108545","4447","NA","Sternberg Task","13","6154","19","yes","1024"
"70","70","334.15","334.15","black","experiment","legacy","legacy","legacy","0","uniform","1","undefined","1","left","19","0","19","19","19","0","0","0","19","19","19","0","19","19","0","NA","Sun Oct 25 20:38:15 2020","The main experiment item","yes","SternbergTask (1).osexp","/Users/jacobspurling/Downloads","no","mono","no","18","no","white","no","yes","768","legacy","7","11","/Users/jacobspurling/Desktop/TP-subject-4.csv","legacy","4 6 2 5 1","Lentiform Loewenfeld","3.3.5","5","y","0","left","right","right","right","NA","left","NA","529","261","2856","1943","NA","529","NA","2","legacy","5","1024","2","48000","-16","experiment","4","even","1","113217","72329","114332","116564","64667","4466","70384","NA","118579","119109","115346","7345","118579","114319","4447","NA","Sternberg Task","14","6683","20","yes","1024"
"71.42857142857143","71.42857142857143","343.5238095238095","343.5238095238095","black","experiment","legacy","legacy","legacy","0","uniform","1","undefined","1","left","20","0","20","20","20","0","0","0","20","20","20","0","20","20","0","NA","Sun Oct 25 20:38:15 2020","The main experiment item","yes","SternbergTask (1).osexp","/Users/jacobspurling/Downloads","no","mono","no","18","no","white","no","yes","768","legacy","8","11","/Users/jacobspurling/Desktop/TP-subject-4.csv","legacy","3 5 4 7","Lentiform Loewenfeld","3.3.5","1","y","0","left","right","right","right","NA","left","NA","531","261","2856","1943","NA","531","NA","2","legacy","4","1024","2","48000","-16","experiment","4","even","3","119136","72329","120253","122484","64667","4466","70384","NA","124497","125030","121267","7345","124497","120240","4447","NA","Sternberg Task","15","7214","21","yes","1024"
"72.72727272727273","72.72727272727273","385.09090909090907","385.09090909090907","black","experiment","legacy","legacy","legacy","0","uniform","1","undefined","1","left","21","0","21","21","21","0","0","0","21","21","21","0","21","21","0","NA","Sun Oct 25 20:38:15 2020","The main experiment item","yes","SternbergTask (1).osexp","/Users/jacobspurling/Downloads","no","mono","no","18","no","white","no","yes","768","legacy","9","11","/Users/jacobspurling/Desktop/TP-subject-4.csv","legacy","4","Lentiform Loewenfeld","3.3.5","1","y","0","left","right","right","right","NA","left","NA","1258","261","2856","1943","NA","1258","NA","2","legacy","1","1024","2","48000","-16","experiment","4","even","4","125057","72329","126172","128403","64667","4466","70384","NA","130420","131679","127187","7345","130420","126160","4447","NA","Sternberg Task","16","8472","22","yes","1024"
"73.91304347826087","73.91304347826087","401.7391304347826","401.7391304347826","black","experiment","legacy","legacy","legacy","0","uniform","1","undefined","1","left","22","0","22","22","22","0","0","0","22","22","22","0","22","22","0","NA","Sun Oct 25 20:38:15 2020","The main experiment item","yes","SternbergTask (1).osexp","/Users/jacobspurling/Downloads","no","mono","no","18","no","white","no","yes","768","legacy","10","11","/Users/jacobspurling/Desktop/TP-subject-4.csv","legacy","9 5 8 1","Lentiform Loewenfeld","3.3.5","2","y","0","left","right","right","right","NA","left","NA","768","261","2856","1943","NA","768","NA","2","legacy","4","1024","2","48000","-16","experiment","4","even","5","131706","72329","132813","135043","64667","4466","70384","NA","137065","137834","133828","7345","137065","132801","4447","NA","Sternberg Task","17","9240","23","yes","1024"
"75","75","405.8333333333333","405.8333333333333","black","experiment","legacy","legacy","legacy","0","uniform","1","undefined","1","right","23","0","23","23","23","0","0","0","23","23","23","0","23","23","0","NA","Sun Oct 25 20:38:15 2020","The main experiment item","yes","SternbergTask (1).osexp","/Users/jacobspurling/Downloads","no","mono","no","18","no","white","no","yes","768","legacy","11","11","/Users/jacobspurling/Desktop/TP-subject-4.csv","legacy","3 4 9 6 7 8","Lentiform Loewenfeld","3.3.5","0","n","0","right","right","right","right","NA","right","NA","500","261","2856","1943","NA","500","NA","2","legacy","6","1024","2","48000","-16","experiment","4","even","2","137860","72329","138972","141203","64667","4466","70384","NA","143217","143719","139987","7345","143217","138960","4447","NA","Sternberg Task","18","9740","24","yes","1024"
"76","76","418.56","418.56","black","experiment","legacy","legacy","legacy","0","uniform","1","undefined","1","right","24","0","24","24","24","0","0","0","24","24","24","0","24","24","0","NA","Sun Oct 25 20:38:15 2020","The main experiment item","yes","SternbergTask (1).osexp","/Users/jacobspurling/Downloads","no","mono","no","18","no","white","no","yes","768","legacy","12","11","/Users/jacobspurling/Desktop/TP-subject-4.csv","legacy","1 6 4","Lentiform Loewenfeld","3.3.5","0","n","0","right","right","right","right","NA","right","NA","724","261","2856","1943","NA","724","NA","2","legacy","3","1024","2","48000","-16","experiment","4","even","7","143745","72329","144856","147087","64667","4466","70384","NA","149100","149826","145870","7345","149100","144843","4447","NA","Sternberg Task","19","10464","25","yes","1024"
"76.92307692307692","76.92307692307692","423.61538461538464","423.61538461538464","black","experiment","legacy","legacy","legacy","0","uniform","1","undefined","1","right","25","0","25","25","25","0","0","0","25","25","25","0","25","25","0","NA","Sun Oct 25 20:38:15 2020","The main experiment item","yes","SternbergTask (1).osexp","/Users/jacobspurling/Downloads","no","mono","no","18","no","white","no","yes","768","legacy","13","11","/Users/jacobspurling/Desktop/TP-subject-4.csv","legacy","8 5 4 2 9 6","Lentiform Loewenfeld","3.3.5","0","n","0","right","right","right","right","NA","right","NA","550","261","2856","1943","NA","550","NA","2","legacy","6","1024","2","48000","-16","experiment","4","even","3","149852","72329","150960","153192","64667","4466","70384","NA","155206","155758","151975","7345","155206","150948","4447","NA","Sternberg Task","20","11014","26","yes","1024"
"77.77777777777777","77.77777777777777","425.4074074074074","425.4074074074074","black","experiment","legacy","legacy","legacy","0","uniform","1","undefined","1","right","26","0","26","26","26","0","0","0","26","26","26","0","26","26","0","NA","Sun Oct 25 20:38:15 2020","The main experiment item","yes","SternbergTask (1).osexp","/Users/jacobspurling/Downloads","no","mono","no","18","no","white","no","yes","768","legacy","14","11","/Users/jacobspurling/Desktop/TP-subject-4.csv","legacy","8 5 7 3 6","Lentiform Loewenfeld","3.3.5","0","n","0","right","right","right","right","NA","right","NA","472","261","2856","1943","NA","472","NA","2","legacy","5","1024","2","48000","-16","experiment","4","even","9","155784","72329","156894","159125","64667","4466","70384","NA","161138","161612","157909","7345","161138","156882","4447","NA","Sternberg Task","21","11486","27","yes","1024"
"78.57142857142857","78.57142857142857","440.75","440.75","black","experiment","legacy","legacy","legacy","0","uniform","1","undefined","1","right","27","0","27","27","27","0","0","0","27","27","27","0","27","27","0","NA","Sun Oct 25 20:38:15 2020","The main experiment item","yes","SternbergTask (1).osexp","/Users/jacobspurling/Downloads","no","mono","no","18","no","white","no","yes","768","legacy","15","11","/Users/jacobspurling/Desktop/TP-subject-4.csv","legacy","1 7 5 2","Lentiform Loewenfeld","3.3.5","0","n","0","right","right","right","right","NA","right","NA","855","261","2856","1943","NA","855","NA","2","legacy","4","1024","2","48000","-16","experiment","4","even","3","161637","72329","162748","164979","64667","4466","70384","NA","166993","167849","163762","7345","166993","162735","4447","NA","Sternberg Task","22","12341","28","yes","1024"
"79.3103448275862","79.3103448275862","442.0344827586207","442.0344827586207","black","experiment","legacy","legacy","legacy","0","uniform","1","undefined","1","right","28","0","28","28","28","0","0","0","28","28","28","0","28","28","0","NA","Sun Oct 25 20:38:15 2020","The main experiment item","yes","SternbergTask (1).osexp","/Users/jacobspurling/Downloads","no","mono","no","18","no","white","no","yes","768","legacy","16","11","/Users/jacobspurling/Desktop/TP-subject-4.csv","legacy","2 6 4 3 9","Lentiform Loewenfeld","3.3.5","0","n","0","right","right","right","right","NA","right","NA","478","261","2856","1943","NA","478","NA","2","legacy","5","1024","2","48000","-16","experiment","4","even","1","167875","72329","168984","171213","64667","4466","70384","NA","173226","173706","169998","7345","173226","168971","4447","NA","Sternberg Task","23","12819","29","yes","1024"
"80","80","450.7","450.7","black","experiment","legacy","legacy","legacy","0","uniform","1","undefined","1","left","29","0","29","29","29","0","0","0","29","29","29","0","29","29","0","NA","Sun Oct 25 20:38:15 2020","The main experiment item","yes","SternbergTask (1).osexp","/Users/jacobspurling/Downloads","no","mono","no","18","no","white","no","yes","768","legacy","17","11","/Users/jacobspurling/Desktop/TP-subject-4.csv","legacy","8 5 1 3 9","Lentiform Loewenfeld","3.3.5","4","y","0","left","right","right","right","NA","left","NA","702","261","2856","1943","NA","702","NA","2","legacy","5","1024","2","48000","-16","experiment","4","even","3","173731","72329","174838","177072","64667","4466","70384","NA","179086","179789","175853","7345","179086","174826","4447","NA","Sternberg Task","24","13521","30","yes","1024"
"77.41935483870968","77.41935483870968","466.61290322580646","466.61290322580646","black","experiment","legacy","legacy","legacy","0","uniform","0","undefined","0","left","30","0","30","30","30","0","0","0","30","30","30","0","30","30","0","NA","Sun Oct 25 20:38:15 2020","The main experiment item","yes","SternbergTask (1).osexp","/Users/jacobspurling/Downloads","no","mono","no","18","no","white","no","yes","768","legacy","18","11","/Users/jacobspurling/Desktop/TP-subject-4.csv","legacy","7 1 8 5 6 2","Lentiform Loewenfeld","3.3.5","2","y","0","right","right","right","right","NA","right","NA","944","261","2856","1943","NA","944","NA","2","legacy","6","1024","2","48000","-16","experiment","4","even","1","179816","72329","180944","183177","64667","4466","70384","NA","185191","186136","181961","7345","185191","180930","4447","NA","Sternberg Task","24","14465","31","yes","1024"
"78.125","78.125","465.25","465.25","black","experiment","legacy","legacy","legacy","0","uniform","1","undefined","1","right","31","0","31","31","31","0","0","0","31","31","31","0","31","31","0","NA","Sun Oct 25 20:38:15 2020","The main experiment item","yes","SternbergTask (1).osexp","/Users/jacobspurling/Downloads","no","mono","no","18","no","white","no","yes","768","legacy","19","11","/Users/jacobspurling/Desktop/TP-subject-4.csv","legacy","1","Lentiform Loewenfeld","3.3.5","0","n","0","right","right","right","right","NA","right","NA","423","3175","2856","1943","NA","423","NA","2","legacy","1","1024","2","48000","-16","experiment","4","even","7","179816","72329","189453","191684","186163","4466","70384","NA","193701","194125","190468","7345","193701","189439","4447","NA","Sternberg Task","25","14888","32","yes","1024"
"78.78787878787878","78.78787878787878","466.8484848484849","466.8484848484849","black","experiment","legacy","legacy","legacy","0","uniform","1","undefined","1","right","32","0","32","32","32","0","0","0","32","32","32","0","32","32","0","NA","Sun Oct 25 20:38:15 2020","The main experiment item","yes","SternbergTask (1).osexp","/Users/jacobspurling/Downloads","no","mono","no","18","no","white","no","yes","768","legacy","20","11","/Users/jacobspurling/Desktop/TP-subject-4.csv","legacy","4 2 6 9","Lentiform Loewenfeld","3.3.5","0","n","0","right","right","right","right","NA","right","NA","518","3175","2856","1943","NA","518","NA","2","legacy","4","1024","2","48000","-16","experiment","4","even","7","194149","72329","195256","197486","186163","4466","70384","NA","199499","200019","196269","7345","199499","195241","4447","NA","Sternberg Task","26","15406","33","yes","1024"
"79.41176470588235","79.41176470588235","469.05882352941177","469.05882352941177","black","experiment","legacy","legacy","legacy","0","uniform","1","undefined","1","right","33","0","33","33","33","0","0","0","33","33","33","0","33","33","0","NA","Sun Oct 25 20:38:15 2020","The main experiment item","yes","SternbergTask (1).osexp","/Users/jacobspurling/Downloads","no","mono","no","18","no","white","no","yes","768","legacy","21","11","/Users/jacobspurling/Desktop/TP-subject-4.csv","legacy","1 5 3 2 8","Lentiform Loewenfeld","3.3.5","0","n","0","right","right","right","right","NA","right","NA","542","3175","2856","1943","NA","542","NA","2","legacy","5","1024","2","48000","-16","experiment","4","even","4","200047","72329","201153","203387","186163","4466","70384","NA","205402","205945","202168","7345","205402","201140","4447","NA","Sternberg Task","27","15948","34","yes","1024"
"80","80","469.54285714285714","469.54285714285714","black","experiment","legacy","legacy","legacy","0","uniform","1","undefined","1","right","34","0","34","34","34","0","0","0","34","34","34","0","34","34","0","NA","Sun Oct 25 20:38:15 2020","The main experiment item","yes","SternbergTask (1).osexp","/Users/jacobspurling/Downloads","no","mono","no","18","no","white","no","yes","768","legacy","22","11","/Users/jacobspurling/Desktop/TP-subject-4.csv","legacy","4 1","Lentiform Loewenfeld","3.3.5","0","n","0","right","right","right","right","NA","right","NA","486","3175","2856","1943","NA","486","NA","2","legacy","2","1024","2","48000","-16","experiment","4","even","6","205973","72329","207080","209311","186163","4466","70384","NA","211325","211813","208094","7345","211325","207068","4447","NA","Sternberg Task","28","16434","35","yes","1024"
"80.55555555555556","80.55555555555556","481.5","481.5","black","experiment","legacy","legacy","legacy","0","uniform","1","undefined","1","right","35","0","35","35","35","0","0","0","35","35","35","0","35","35","0","NA","Sun Oct 25 20:38:15 2020","The main experiment item","yes","SternbergTask (1).osexp","/Users/jacobspurling/Downloads","no","mono","no","18","no","white","no","yes","768","legacy","23","11","/Users/jacobspurling/Desktop/TP-subject-4.csv","legacy","1 4 9 3","Lentiform Loewenfeld","3.3.5","0","n","0","right","right","right","right","NA","right","NA","900","3175","2856","1943","NA","900","NA","2","legacy","4","1024","2","48000","-16","experiment","4","even","5","211840","72329","212954","215185","186163","4466","70384","NA","217202","218105","213969","7345","217201","212942","4447","NA","Sternberg Task","29","17334","36","yes","1024"
"81.08108108108108","81.08108108108108","483.86486486486484","483.86486486486484","black","experiment","legacy","legacy","legacy","0","uniform","1","undefined","1","right","36","0","36","36","36","0","0","0","36","36","36","0","36","36","0","NA","Sun Oct 25 20:38:15 2020","The main experiment item","yes","SternbergTask (1).osexp","/Users/jacobspurling/Downloads","no","mono","no","18","no","white","no","yes","768","legacy","24","11","/Users/jacobspurling/Desktop/TP-subject-4.csv","legacy","7 6 4 8 1 2","Lentiform Loewenfeld","3.3.5","0","n","0","right","right","right","right","NA","right","NA","569","3175","2856","1943","NA","569","NA","2","legacy","6","1024","2","48000","-16","experiment","4","even","9","218131","72329","219252","221484","186163","4466","70384","NA","223497","224067","220266","7345","223497","219236","4447","NA","Sternberg Task","30","17903","37","yes","1024"
"81.57894736842105","81.57894736842105","481.7894736842105","481.7894736842105","black","experiment","legacy","legacy","legacy","0","uniform","1","undefined","1","right","37","0","37","37","37","0","0","0","37","37","37","0","37","37","0","NA","Sun Oct 25 20:38:15 2020","The main experiment item","yes","SternbergTask (1).osexp","/Users/jacobspurling/Downloads","no","mono","no","18","no","white","no","yes","768","legacy","25","11","/Users/jacobspurling/Desktop/TP-subject-4.csv","legacy","8 9","Lentiform Loewenfeld","3.3.5","0","n","0","right","right","right","right","NA","right","NA","405","3175","2856","1943","NA","405","NA","2","legacy","2","1024","2","48000","-16","experiment","4","even","5","224093","72329","225206","227438","186163","4466","70384","NA","229451","229858","226221","7345","229451","225193","4447","NA","Sternberg Task","31","18308","38","yes","1024"
"79.48717948717949","79.48717948717949","492.02564102564105","492.02564102564105","black","experiment","legacy","legacy","legacy","0","uniform","0","undefined","0","left","38","0","38","38","38","0","0","0","38","38","38","0","38","38","0","NA","Sun Oct 25 20:38:15 2020","The main experiment item","yes","SternbergTask (1).osexp","/Users/jacobspurling/Downloads","no","mono","no","18","no","white","no","yes","768","legacy","26","11","/Users/jacobspurling/Desktop/TP-subject-4.csv","legacy","7 4 2 6 3 5","Lentiform Loewenfeld","3.3.5","6","y","0","right","right","right","right","NA","right","NA","881","3175","2856","1943","NA","881","NA","2","legacy","6","1024","2","48000","-16","experiment","4","even","5","229884","72329","230992","233221","186163","4466","70384","NA","235235","236118","232005","7345","235234","230980","4447","NA","Sternberg Task","31","19189","39","yes","1024"
"77.5","77.5","491.375","491.375","black","experiment","legacy","legacy","legacy","0","uniform","0","undefined","0","left","39","0","39","39","39","0","0","0","39","39","39","0","39","39","0","NA","Sun Oct 25 20:38:15 2020","The main experiment item","yes","SternbergTask (1).osexp","/Users/jacobspurling/Downloads","no","mono","no","18","no","white","no","yes","768","legacy","27","11","/Users/jacobspurling/Desktop/TP-subject-4.csv","legacy","8","Lentiform Loewenfeld","3.3.5","1","y","0","right","right","right","right","NA","right","NA","466","671","2856","1943","NA","466","NA","2","legacy","1","1024","2","48000","-16","experiment","4","even","8","229884","72329","236932","239164","236144","4466","70384","NA","241178","241646","237947","7345","241178","236920","4447","NA","Sternberg Task","31","19655","40","yes","1024"
"78.04878048780488","78.04878048780488","490.8292682926829","490.8292682926829","black","experiment","legacy","legacy","legacy","0","uniform","1","undefined","1","right","40","0","40","40","40","0","0","0","40","40","40","0","40","40","0","NA","Sun Oct 25 20:38:15 2020","The main experiment item","yes","SternbergTask (1).osexp","/Users/jacobspurling/Downloads","no","mono","no","18","no","white","no","yes","768","legacy","28","11","/Users/jacobspurling/Desktop/TP-subject-4.csv","legacy","9 5 3 2 8 6","Lentiform Loewenfeld","3.3.5","0","n","0","right","right","right","right","NA","right","NA","469","571","2856","1943","NA","469","NA","2","legacy","6","1024","2","48000","-16","experiment","4","even","7","229884","72329","242342","244574","241661","4466","70384","NA","246589","247060","243356","7345","246588","242330","4447","NA","Sternberg Task","32","20124","41","yes","1024"
"78.57142857142857","78.57142857142857","493.26190476190476","493.26190476190476","black","experiment","legacy","legacy","legacy","0","uniform","1","undefined","1","left","41","0","41","41","41","0","0","0","41","41","41","0","41","41","0","NA","Sun Oct 25 20:38:15 2020","The main experiment item","yes","SternbergTask (1).osexp","/Users/jacobspurling/Downloads","no","mono","no","18","no","white","no","yes","768","legacy","29","11","/Users/jacobspurling/Desktop/TP-subject-4.csv","legacy","6 9 7 4 5 1","Lentiform Loewenfeld","3.3.5","2","y","0","left","right","right","right","NA","left","NA","593","571","2856","1943","NA","593","NA","2","legacy","6","1024","2","48000","-16","experiment","4","even","9","247087","72329","248195","250422","241661","4466","70384","NA","252436","253031","249209","7345","252436","248183","4447","NA","Sternberg Task","33","20717","42","yes","1024"
"79.06976744186046","79.06976744186046","493.72093023255815","493.72093023255815","black","experiment","legacy","legacy","legacy","0","uniform","1","undefined","1","left","42","0","42","42","42","0","0","0","42","42","42","0","42","42","0","NA","Sun Oct 25 20:38:15 2020","The main experiment item","yes","SternbergTask (1).osexp","/Users/jacobspurling/Downloads","no","mono","no","18","no","white","no","yes","768","legacy","30","11","/Users/jacobspurling/Desktop/TP-subject-4.csv","legacy","3 5 9 6 2 4","Lentiform Loewenfeld","3.3.5","1","y","0","left","right","right","right","NA","left","NA","513","571","2856","1943","NA","513","NA","2","legacy","6","1024","2","48000","-16","experiment","4","even","3","253057","72329","254163","256394","241661","4466","70384","NA","258409","258924","255178","7345","258409","254151","4447","NA","Sternberg Task","34","21230","43","yes","1024"
"79.54545454545455","79.54545454545455","495.54545454545456","495.54545454545456","black","experiment","legacy","legacy","legacy","0","uniform","1","undefined","1","right","43","0","43","43","43","0","0","0","43","43","43","0","43","43","0","NA","Sun Oct 25 20:38:15 2020","The main experiment item","yes","SternbergTask (1).osexp","/Users/jacobspurling/Downloads","no","mono","no","18","no","white","no","yes","768","legacy","31","11","/Users/jacobspurling/Desktop/TP-subject-4.csv","legacy","6 2 9 3 8 4","Lentiform Loewenfeld","3.3.5","0","n","0","right","right","right","right","NA","right","NA","574","571","2856","1943","NA","574","NA","2","legacy","6","1024","2","48000","-16","experiment","4","even","1","258949","72329","260055","262288","241661","4466","70384","NA","264302","264878","261072","7345","264302","260042","4447","NA","Sternberg Task","35","21804","44","yes","1024"
"77.77777777777777","77.77777777777777","497.1777777777778","497.1777777777778","black","experiment","legacy","legacy","legacy","0","uniform","0","undefined","0","right","44","0","44","44","44","0","0","0","44","44","44","0","44","44","0","NA","Sun Oct 25 20:38:15 2020","The main experiment item","yes","SternbergTask (1).osexp","/Users/jacobspurling/Downloads","no","mono","no","18","no","white","no","yes","768","legacy","32","11","/Users/jacobspurling/Desktop/TP-subject-4.csv","legacy","5 3 2 6 9 8","Lentiform Loewenfeld","3.3.5","0","n","0","left","right","right","right","NA","left","NA","569","571","2856","1943","NA","569","NA","2","legacy","6","1024","2","48000","-16","experiment","4","even","4","264904","72329","266011","268244","241661","4466","70384","NA","270259","270830","267028","7345","270259","265999","4447","NA","Sternberg Task","35","22373","45","yes","1024"
"76.08695652173913","76.08695652173913","501.4347826086956","501.4347826086956","black","experiment","legacy","legacy","legacy","0","uniform","0","undefined","0","left","45","0","45","45","45","0","0","0","45","45","45","0","45","45","0","NA","Sun Oct 25 20:38:15 2020","The main experiment item","yes","SternbergTask (1).osexp","/Users/jacobspurling/Downloads","no","mono","no","18","no","white","no","yes","768","legacy","33","11","/Users/jacobspurling/Desktop/TP-subject-4.csv","legacy","5 7 8 2 3 8","Lentiform Loewenfeld","3.3.5","5","y","0","right","right","right","right","NA","right","NA","693","807","2856","1943","NA","693","NA","2","legacy","6","1024","2","48000","-16","experiment","4","even","3","264904","72329","271774","274004","270858","4466","70384","NA","276018","276712","272789","7345","276018","271762","4447","NA","Sternberg Task","35","23066","46","yes","1024"
"76.59574468085107","76.59574468085107","501.82978723404256","501.82978723404256","black","experiment","legacy","legacy","legacy","0","uniform","1","undefined","1","right","46","0","46","46","46","0","0","0","46","46","46","0","46","46","0","NA","Sun Oct 25 20:38:15 2020","The main experiment item","yes","SternbergTask (1).osexp","/Users/jacobspurling/Downloads","no","mono","no","18","no","white","no","yes","768","legacy","34","11","/Users/jacobspurling/Desktop/TP-subject-4.csv","legacy","7 1 5 6 3","Lentiform Loewenfeld","3.3.5","0","n","0","right","right","right","right","NA","right","NA","520","542","2856","1943","NA","520","NA","2","legacy","5","1024","2","48000","-16","experiment","4","even","8","264904","72329","277389","279622","276739","4466","70384","NA","281636","282157","278404","7345","281636","277377","4447","NA","Sternberg Task","36","23586","47","yes","1024"
"77.08333333333333","77.08333333333333","502.6666666666667","502.6666666666667","black","experiment","legacy","legacy","legacy","0","uniform","1","undefined","1","right","47","0","47","47","47","0","0","0","47","47","47","0","47","47","0","NA","Sun Oct 25 20:38:15 2020","The main experiment item","yes","SternbergTask (1).osexp","/Users/jacobspurling/Downloads","no","mono","no","18","no","white","no","yes","768","legacy","35","11","/Users/jacobspurling/Desktop/TP-subject-4.csv","legacy","6 9 4 5 2","Lentiform Loewenfeld","3.3.5","0","n","0","right","right","right","right","NA","right","NA","542","542","2856","1943","NA","542","NA","2","legacy","5","1024","2","48000","-16","experiment","4","even","1","282183","72329","283306","285539","276739","4466","70384","NA","287552","288096","284321","7345","287552","283290","4447","NA","Sternberg Task","37","24128","48","yes","1024"
"77.55102040816327","77.55102040816327","501.2040816326531","501.2040816326531","black","experiment","legacy","legacy","legacy","0","uniform","1","undefined","1","left","48","0","48","48","48","0","0","0","48","48","48","0","48","48","0","NA","Sun Oct 25 20:38:15 2020","The main experiment item","yes","SternbergTask (1).osexp","/Users/jacobspurling/Downloads","no","mono","no","18","no","white","no","yes","768","legacy","36","11","/Users/jacobspurling/Desktop/TP-subject-4.csv","legacy","4 1 5","Lentiform Loewenfeld","3.3.5","2","y","0","left","right","right","right","NA","left","NA","431","542","2856","1943","NA","431","NA","2","legacy","3","1024","2","48000","-16","experiment","4","even","1","288122","72329","289229","291463","276739","4466","70384","NA","293476","293909","290245","7345","293476","289217","4447","NA","Sternberg Task","38","24559","49","yes","1024"
"78","78","500.3","500.3","black","experiment","legacy","legacy","legacy","0","uniform","1","undefined","1","left","49","0","49","49","49","0","0","0","49","49","49","0","49","49","0","NA","Sun Oct 25 20:38:15 2020","The main experiment item","yes","SternbergTask (1).osexp","/Users/jacobspurling/Downloads","no","mono","no","18","no","white","no","yes","768","legacy","37","11","/Users/jacobspurling/Desktop/TP-subject-4.csv","legacy","6 9 3 1","Lentiform Loewenfeld","3.3.5","4","y","0","left","right","right","right","NA","left","NA","456","542","2856","1943","NA","456","NA","2","legacy","4","1024","2","48000","-16","experiment","4","even","1","293935","72329","295049","297281","276739","4466","70384","NA","299294","299751","296064","7345","299294","295035","4447","NA","Sternberg Task","39","25015","50","yes","1024"
"78.43137254901961","78.43137254901961","501.11764705882354","501.11764705882354","black","experiment","legacy","legacy","legacy","0","uniform","1","undefined","1","left","50","0","50","50","50","0","0","0","50","50","50","0","50","50","0","NA","Sun Oct 25 20:38:15 2020","The main experiment item","yes","SternbergTask (1).osexp","/Users/jacobspurling/Downloads","no","mono","no","18","no","white","no","yes","768","legacy","38","11","/Users/jacobspurling/Desktop/TP-subject-4.csv","legacy","2 5 4 8 7","Lentiform Loewenfeld","3.3.5","3","y","0","left","right","right","right","NA","left","NA","542","542","2856","1943","NA","542","NA","2","legacy","5","1024","2","48000","-16","experiment","4","even","4","299778","72329","300888","303120","276739","4466","70384","NA","305136","305680","301903","7345","305136","300872","4447","NA","Sternberg Task","40","25557","51","yes","1024"
"78.84615384615384","78.84615384615384","499.7692307692308","499.7692307692308","black","experiment","legacy","legacy","legacy","0","uniform","1","undefined","1","left","51","0","51","51","51","0","0","0","51","51","51","0","51","51","0","NA","Sun Oct 25 20:38:15 2020","The main experiment item","yes","SternbergTask (1).osexp","/Users/jacobspurling/Downloads","no","mono","no","18","no","white","no","yes","768","legacy","39","11","/Users/jacobspurling/Desktop/TP-subject-4.csv","legacy","2 3","Lentiform Loewenfeld","3.3.5","1","y","0","left","right","right","right","NA","left","NA","431","542","2856","1943","NA","431","NA","2","legacy","2","1024","2","48000","-16","experiment","4","even","2","305706","72329","306817","309052","276739","4466","70384","NA","311065","311498","307835","7345","311065","306804","4447","NA","Sternberg Task","41","25988","52","yes","1024"
"79.24528301886792","79.24528301886792","502.39622641509436","502.39622641509436","black","experiment","legacy","legacy","legacy","0","uniform","1","undefined","1","left","52","0","52","52","52","0","0","0","52","52","52","0","52","52","0","NA","Sun Oct 25 20:38:15 2020","The main experiment item","yes","SternbergTask (1).osexp","/Users/jacobspurling/Downloads","no","mono","no","18","no","white","no","yes","768","legacy","40","11","/Users/jacobspurling/Desktop/TP-subject-4.csv","legacy","6 7 8 5","Lentiform Loewenfeld","3.3.5","3","y","0","left","right","right","right","NA","left","NA","639","542","2856","1943","NA","639","NA","2","legacy","4","1024","2","48000","-16","experiment","4","even","8","311524","72329","312634","314864","276739","4466","70384","NA","316878","317519","313648","7345","316878","312620","4447","NA","Sternberg Task","42","26627","53","yes","1024"
"79.62962962962963","79.62962962962963","505.0740740740741","505.0740740740741","black","experiment","legacy","legacy","legacy","0","uniform","1","undefined","1","right","53","0","53","53","53","0","0","0","53","53","53","0","53","53","0","NA","Sun Oct 25 20:38:15 2020","The main experiment item","yes","SternbergTask (1).osexp","/Users/jacobspurling/Downloads","no","mono","no","18","no","white","no","yes","768","legacy","41","11","/Users/jacobspurling/Desktop/TP-subject-4.csv","legacy","8 4 3 5","Lentiform Loewenfeld","3.3.5","0","n","0","right","right","right","right","NA","right","NA","647","542","2856","1943","NA","647","NA","2","legacy","4","1024","2","48000","-16","experiment","4","even","6","317548","72329","318654","320884","276739","4466","70384","NA","322897","323546","319668","7345","322897","318642","4447","NA","Sternberg Task","43","27274","54","yes","1024"
"78.18181818181819","78.18181818181819","532.2545454545455","532.2545454545455","black","experiment","legacy","legacy","legacy","0","uniform","0","undefined","0","right","54","0","54","54","54","0","0","0","54","54","54","0","54","54","0","NA","Sun Oct 25 20:38:15 2020","The main experiment item","yes","SternbergTask (1).osexp","/Users/jacobspurling/Downloads","no","mono","no","18","no","white","no","yes","768","legacy","42","11","/Users/jacobspurling/Desktop/TP-subject-4.csv","legacy","6 9 4 5 3 2","Lentiform Loewenfeld","3.3.5","0","n","0","None","right","right","right","NA","None","NA","2000","542","2856","1943","NA","2000","NA","2","legacy","6","1024","2","48000","-16","experiment","4","even","8","323571","72329","324686","326918","276739","4466","70384","NA","328933","330933","325700","7345","328933","324674","4447","NA","Sternberg Task","43","29274","55","yes","1024"
"78.57142857142857","78.57142857142857","533.5","533.5","black","experiment","legacy","legacy","legacy","0","uniform","1","undefined","1","left","55","0","55","55","55","0","0","0","55","55","55","0","55","55","0","NA","Sun Oct 25 20:38:15 2020","The main experiment item","yes","SternbergTask (1).osexp","/Users/jacobspurling/Downloads","no","mono","no","18","no","white","no","yes","768","legacy","43","11","/Users/jacobspurling/Desktop/TP-subject-4.csv","legacy","9 3 1 2 5","Lentiform Loewenfeld","3.3.5","4","y","0","left","right","right","right","NA","left","NA","602","7515","2856","1943","NA","602","NA","2","legacy","5","1024","2","48000","-16","experiment","4","even","2","323571","72329","338582","340818","330960","4466","70384","NA","342832","343436","339600","7345","342832","338570","4447","NA","Sternberg Task","44","29876","56","yes","1024"
"78.94736842105263","78.94736842105263","531.0175438596491","531.0175438596491","black","experiment","legacy","legacy","legacy","0","uniform","1","undefined","1","left","56","0","56","56","56","0","0","0","56","56","56","0","56","56","0","NA","Sun Oct 25 20:38:15 2020","The main experiment item","yes","SternbergTask (1).osexp","/Users/jacobspurling/Downloads","no","mono","no","18","no","white","no","yes","768","legacy","44","11","/Users/jacobspurling/Desktop/TP-subject-4.csv","legacy","7","Lentiform Loewenfeld","3.3.5","1","y","0","left","right","right","right","NA","left","NA","392","7515","2856","1943","NA","392","NA","2","legacy","1","1024","2","48000","-16","experiment","4","even","7","343451","72329","344563","346797","330960","4466","70384","NA","348810","349203","345580","7345","348810","344551","4447","NA","Sternberg Task","45","30268","57","yes","1024"
"79.3103448275862","79.3103448275862","533.7068965517242","533.7068965517242","black","experiment","legacy","legacy","legacy","0","uniform","1","undefined","1","left","57","0","57","57","57","0","0","0","57","57","57","0","57","57","0","NA","Sun Oct 25 20:38:15 2020","The main experiment item","yes","SternbergTask (1).osexp","/Users/jacobspurling/Downloads","no","mono","no","18","no","white","no","yes","768","legacy","45","11","/Users/jacobspurling/Desktop/TP-subject-4.csv","legacy","3 2 1 4 7","Lentiform Loewenfeld","3.3.5","2","y","0","left","right","right","right","NA","left","NA","687","7515","2856","1943","NA","687","NA","2","legacy","5","1024","2","48000","-16","experiment","4","even","2","349229","72329","350336","352568","330960","4466","70384","NA","354581","355270","351351","7345","354581","350324","4447","NA","Sternberg Task","46","30955","58","yes","1024"
"79.66101694915254","79.66101694915254","533.457627118644","533.457627118644","black","experiment","legacy","legacy","legacy","0","uniform","1","undefined","1","left","58","0","58","58","58","0","0","0","58","58","58","0","58","58","0","NA","Sun Oct 25 20:38:15 2020","The main experiment item","yes","SternbergTask (1).osexp","/Users/jacobspurling/Downloads","no","mono","no","18","no","white","no","yes","768","legacy","46","11","/Users/jacobspurling/Desktop/TP-subject-4.csv","legacy","2 4 8 5 1 3","Lentiform Loewenfeld","3.3.5","1","y","0","left","right","right","right","NA","left","NA","519","7515","2856","1943","NA","519","NA","2","legacy","6","1024","2","48000","-16","experiment","4","even","2","355295","72329","356416","358647","330960","4466","70384","NA","360662","361182","357430","7345","360662","356402","4447","NA","Sternberg Task","47","31474","59","yes","1024"
"80","80","534.3166666666667","534.3166666666667","black","experiment","legacy","legacy","legacy","0","uniform","1","undefined","1","left","59","0","59","59","59","0","0","0","59","59","59","0","59","59","0","NA","Sun Oct 25 20:38:15 2020","The main experiment item","yes","SternbergTask (1).osexp","/Users/jacobspurling/Downloads","no","mono","no","18","no","white","no","yes","768","legacy","47","11","/Users/jacobspurling/Desktop/TP-subject-4.csv","legacy","2 8 5 1","Lentiform Loewenfeld","3.3.5","4","y","0","left","right","right","right","NA","left","NA","585","7515","2856","1943","NA","585","NA","2","legacy","4","1024","2","48000","-16","experiment","4","even","1","361209","72329","362320","364552","330960","4466","70384","NA","366566","367153","363335","7345","366565","362305","4447","NA","Sternberg Task","48","32059","60","yes","1024"
"80.32786885245902","80.32786885245902","533.1803278688525","533.1803278688525","black","experiment","legacy","legacy","legacy","0","uniform","1","undefined","1","right","60","0","60","60","60","0","0","0","60","60","60","0","60","60","0","NA","Sun Oct 25 20:38:15 2020","The main experiment item","yes","SternbergTask (1).osexp","/Users/jacobspurling/Downloads","no","mono","no","18","no","white","no","yes","768","legacy","48","11","/Users/jacobspurling/Desktop/TP-subject-4.csv","legacy","7 1","Lentiform Loewenfeld","3.3.5","0","n","0","right","right","right","right","NA","right","NA","465","7515","2856","1943","NA","465","NA","2","legacy","2","1024","2","48000","-16","experiment","4","even","8","367179","72329","368288","370515","330960","4466","70384","NA","372530","372997","369303","7345","372529","368276","4447","NA","Sternberg Task","49","32524","61","yes","1024"
"80.64516129032258","80.64516129032258","535.2096774193549","535.2096774193549","black","experiment","legacy","legacy","legacy","0","uniform","1","undefined","1","left","61","0","61","61","61","0","0","0","61","61","61","0","61","61","0","NA","Sun Oct 25 20:38:15 2020","The main experiment item","yes","SternbergTask (1).osexp","/Users/jacobspurling/Downloads","no","mono","no","18","no","white","no","yes","768","legacy","49","11","/Users/jacobspurling/Desktop/TP-subject-4.csv","legacy","3 4 9 6 2 9","Lentiform Loewenfeld","3.3.5","5","y","0","left","right","right","right","NA","left","NA","659","7515","2856","1943","NA","659","NA","2","legacy","6","1024","2","48000","-16","experiment","4","even","2","373023","72329","374133","376365","330960","4466","70384","NA","378378","379039","375148","7345","378378","374121","4447","NA","Sternberg Task","50","33183","62","yes","1024"
"80.95238095238095","80.95238095238095","535.8888888888889","535.8888888888889","black","experiment","legacy","legacy","legacy","0","uniform","1","undefined","1","right","62","0","62","62","62","0","0","0","62","62","62","0","62","62","0","NA","Sun Oct 25 20:38:15 2020","The main experiment item","yes","SternbergTask (1).osexp","/Users/jacobspurling/Downloads","no","mono","no","18","no","white","no","yes","768","legacy","50","11","/Users/jacobspurling/Desktop/TP-subject-4.csv","legacy","7 9 1 6","Lentiform Loewenfeld","3.3.5","0","n","0","right","right","right","right","NA","right","NA","578","7515","2856","1943","NA","578","NA","2","legacy","4","1024","2","48000","-16","experiment","4","even","4","379065","72329","380170","382405","330960","4466","70384","NA","384419","384999","381188","7345","384419","380158","4447","NA","Sternberg Task","51","33761","63","yes","1024"
"81.25","81.25","535.484375","535.484375","black","experiment","legacy","legacy","legacy","0","uniform","1","undefined","1","left","63","0","63","63","63","0","0","0","63","63","63","0","63","63","0","NA","Sun Oct 25 20:38:15 2020","The main experiment item","yes","SternbergTask (1).osexp","/Users/jacobspurling/Downloads","no","mono","no","18","no","white","no","yes","768","legacy","51","11","/Users/jacobspurling/Desktop/TP-subject-4.csv","legacy","8 7 3","Lentiform Loewenfeld","3.3.5","1","y","0","left","right","right","right","NA","left","NA","510","7515","2856","1943","NA","510","NA","2","legacy","3","1024","2","48000","-16","experiment","4","even","8","385024","72329","386134","388364","330960","4466","70384","NA","390377","390889","387148","7345","390377","386121","4447","NA","Sternberg Task","52","34271","64","yes","1024"
"81.53846153846153","81.53846153846153","534.0615384615385","534.0615384615385","black","experiment","legacy","legacy","legacy","0","uniform","1","undefined","1","left","64","0","64","64","64","0","0","0","64","64","64","0","64","64","0","NA","Sun Oct 25 20:38:15 2020","The main experiment item","yes","SternbergTask (1).osexp","/Users/jacobspurling/Downloads","no","mono","no","18","no","white","no","yes","768","legacy","52","11","/Users/jacobspurling/Desktop/TP-subject-4.csv","legacy","3 5 7 1","Lentiform Loewenfeld","3.3.5","3","y","0","left","right","right","right","NA","left","NA","443","7515","2856","1943","NA","443","NA","2","legacy","4","1024","2","48000","-16","experiment","4","even","7","390916","72329","392024","394256","330960","4466","70384","NA","396270","396715","393038","7345","396269","392011","4447","NA","Sternberg Task","53","34714","65","yes","1024"
"81.81818181818181","81.81818181818181","532.3484848484849","532.3484848484849","black","experiment","legacy","legacy","legacy","0","uniform","1","undefined","1","left","65","0","65","65","65","0","0","0","65","65","65","0","65","65","0","NA","Sun Oct 25 20:38:15 2020","The main experiment item","yes","SternbergTask (1).osexp","/Users/jacobspurling/Downloads","no","mono","no","18","no","white","no","yes","768","legacy","53","11","/Users/jacobspurling/Desktop/TP-subject-4.csv","legacy","6 7 9 3 1 2","Lentiform Loewenfeld","3.3.5","1","y","0","left","right","right","right","NA","left","NA","421","7515","2856","1943","NA","421","NA","2","legacy","6","1024","2","48000","-16","experiment","4","even","6","396742","72329","397847","400078","330960","4466","70384","NA","402091","402515","398862","7345","402091","397834","4447","NA","Sternberg Task","54","35135","66","yes","1024"
"82.08955223880596","82.08955223880596","532.0149253731344","532.0149253731344","black","experiment","legacy","legacy","legacy","0","uniform","1","undefined","1","right","66","0","66","66","66","0","0","0","66","66","66","0","66","66","0","NA","Sun Oct 25 20:38:15 2020","The main experiment item","yes","SternbergTask (1).osexp","/Users/jacobspurling/Downloads","no","mono","no","18","no","white","no","yes","768","legacy","54","11","/Users/jacobspurling/Desktop/TP-subject-4.csv","legacy","1 4 3 6 5","Lentiform Loewenfeld","3.3.5","0","n","0","right","right","right","right","NA","right","NA","510","7515","2856","1943","NA","510","NA","2","legacy","5","1024","2","48000","-16","experiment","4","even","8","402541","72329","403647","405879","330960","4466","70384","NA","407892","408404","404661","7345","407892","403634","4447","NA","Sternberg Task","55","35645","67","yes","1024"
"82.3529411764706","82.3529411764706","532.4117647058823","532.4117647058823","black","experiment","legacy","legacy","legacy","0","uniform","1","undefined","1","left","67","0","67","67","67","0","0","0","67","67","67","0","67","67","0","NA","Sun Oct 25 20:38:15 2020","The main experiment item","yes","SternbergTask (1).osexp","/Users/jacobspurling/Downloads","no","mono","no","18","no","white","no","yes","768","legacy","55","11","/Users/jacobspurling/Desktop/TP-subject-4.csv","legacy","5 2 6","Lentiform Loewenfeld","3.3.5","2","y","0","left","right","right","right","NA","left","NA","559","7515","2856","1943","NA","559","NA","2","legacy","3","1024","2","48000","-16","experiment","4","even","2","408432","72329","409544","411777","330960","4466","70384","NA","413791","414352","410559","7345","413791","409531","4447","NA","Sternberg Task","56","36204","68","yes","1024"
"82.6086956521739","82.6086956521739","530.8405797101449","530.8405797101449","black","experiment","legacy","legacy","legacy","0","uniform","1","undefined","1","left","68","0","68","68","68","0","0","0","68","68","68","0","68","68","0","NA","Sun Oct 25 20:38:15 2020","The main experiment item","yes","SternbergTask (1).osexp","/Users/jacobspurling/Downloads","no","mono","no","18","no","white","no","yes","768","legacy","56","11","/Users/jacobspurling/Desktop/TP-subject-4.csv","legacy","9 4 2","Lentiform Loewenfeld","3.3.5","1","y","0","left","right","right","right","NA","left","NA","424","7515","2856","1943","NA","424","NA","2","legacy","3","1024","2","48000","-16","experiment","4","even","9","414378","72329","415485","417721","330960","4466","70384","NA","419734","420160","416503","7345","419734","415473","4447","NA","Sternberg Task","57","36628","69","yes","1024"
"82.85714285714286","82.85714285714286","531.6285714285714","531.6285714285714","black","experiment","legacy","legacy","legacy","0","uniform","1","undefined","1","right","69","0","69","69","69","0","0","0","69","69","69","0","69","69","0","NA","Sun Oct 25 20:38:15 2020","The main experiment item","yes","SternbergTask (1).osexp","/Users/jacobspurling/Downloads","no","mono","no","18","no","white","no","yes","768","legacy","57","11","/Users/jacobspurling/Desktop/TP-subject-4.csv","legacy","1 4 9 2 5","Lentiform Loewenfeld","3.3.5","0","n","0","right","right","right","right","NA","right","NA","586","7515","2856","1943","NA","586","NA","2","legacy","5","1024","2","48000","-16","experiment","4","even","7","420183","72329","421292","423527","330960","4466","70384","NA","425540","426128","422309","7345","425540","421279","4447","NA","Sternberg Task","58","37214","70","yes","1024"
"83.09859154929578","83.09859154929578","530.9154929577464","530.9154929577464","black","experiment","legacy","legacy","legacy","0","uniform","1","undefined","1","right","70","0","70","70","70","0","0","0","70","70","70","0","70","70","0","NA","Sun Oct 25 20:38:15 2020","The main experiment item","yes","SternbergTask (1).osexp","/Users/jacobspurling/Downloads","no","mono","no","18","no","white","no","yes","768","legacy","58","11","/Users/jacobspurling/Desktop/TP-subject-4.csv","legacy","4 8 1 2","Lentiform Loewenfeld","3.3.5","0","n","0","right","right","right","right","NA","right","NA","481","7515","2856","1943","NA","481","NA","2","legacy","4","1024","2","48000","-16","experiment","4","even","7","426153","72329","427260","429493","330960","4466","70384","NA","431508","431991","428276","7345","431508","427248","4447","NA","Sternberg Task","59","37695","71","yes","1024"
"83.33333333333333","83.33333333333333","532.7638888888889","532.7638888888889","black","experiment","legacy","legacy","legacy","0","uniform","1","undefined","1","right","71","0","71","71","71","0","0","0","71","71","71","0","71","71","0","NA","Sun Oct 25 20:38:15 2020","The main experiment item","yes","SternbergTask (1).osexp","/Users/jacobspurling/Downloads","no","mono","no","18","no","white","no","yes","768","legacy","59","11","/Users/jacobspurling/Desktop/TP-subject-4.csv","legacy","5 3 8 7 2 4","Lentiform Loewenfeld","3.3.5","0","n","0","right","right","right","right","NA","right","NA","664","7515","2856","1943","NA","664","NA","2","legacy","6","1024","2","48000","-16","experiment","4","even","9","432012","72329","433121","435354","330960","4466","70384","NA","437370","438036","434138","7345","437370","433108","4447","NA","Sternberg Task","60","38359","72","yes","1024"
"83.56164383561644","83.56164383561644","543.931506849315","543.931506849315","black","experiment","legacy","legacy","legacy","0","uniform","1","undefined","1","right","72","0","72","72","72","0","0","0","72","72","72","0","72","72","0","NA","Sun Oct 25 20:38:15 2020","The main experiment item","yes","SternbergTask (1).osexp","/Users/jacobspurling/Downloads","no","mono","no","18","no","white","no","yes","768","legacy","60","11","/Users/jacobspurling/Desktop/TP-subject-4.csv","legacy","2 8 7 9 5 3","Lentiform Loewenfeld","3.3.5","0","n","0","right","right","right","right","NA","right","NA","1348","7515","2856","1943","NA","1348","NA","2","legacy","6","1024","2","48000","-16","experiment","4","even","6","438061","72329","439172","441403","330960","4466","70384","NA","443417","444767","440186","7345","443417","439160","4447","NA","Sternberg Task","61","39707","73","yes","1024"
"83.78378378378379","83.78378378378379","543.5135135135135","543.5135135135135","black","experiment","legacy","legacy","legacy","0","uniform","1","undefined","1","left","73","0","73","73","73","0","0","0","73","73","73","0","73","73","0","NA","Sun Oct 25 20:38:15 2020","The main experiment item","yes","SternbergTask (1).osexp","/Users/jacobspurling/Downloads","no","mono","no","18","no","white","no","yes","768","legacy","61","11","/Users/jacobspurling/Desktop/TP-subject-4.csv","legacy","9 6 2 4 1","Lentiform Loewenfeld","3.3.5","4","y","0","left","right","right","right","NA","left","NA","513","7515","2856","1943","NA","513","NA","2","legacy","5","1024","2","48000","-16","experiment","4","even","4","444794","72329","445900","448130","330960","4466","70384","NA","450144","450658","446914","7345","450143","445888","4447","NA","Sternberg Task","62","40220","74","yes","1024"
"84","84","547.4266666666666","547.4266666666666","black","experiment","legacy","legacy","legacy","0","uniform","1","undefined","1","right","74","0","74","74","74","0","0","0","74","74","74","0","74","74","0","NA","Sun Oct 25 20:38:15 2020","The main experiment item","yes","SternbergTask (1).osexp","/Users/jacobspurling/Downloads","no","mono","no","18","no","white","no","yes","768","legacy","62","11","/Users/jacobspurling/Desktop/TP-subject-4.csv","legacy","2 3 8 5 6 7","Lentiform Loewenfeld","3.3.5","0","n","0","right","right","right","right","NA","right","NA","837","7515","2856","1943","NA","837","NA","2","legacy","6","1024","2","48000","-16","experiment","4","even","1","450685","72329","451793","454024","330960","4466","70384","NA","456039","456878","452807","7345","456039","451781","4447","NA","Sternberg Task","63","41057","75","yes","1024"
"84.21052631578948","84.21052631578948","554.4605263157895","554.4605263157895","black","experiment","legacy","legacy","legacy","0","uniform","1","undefined","1","right","75","0","75","75","75","0","0","0","75","75","75","0","75","75","0","NA","Sun Oct 25 20:38:15 2020","The main experiment item","yes","SternbergTask (1).osexp","/Users/jacobspurling/Downloads","no","mono","no","18","no","white","no","yes","768","legacy","63","11","/Users/jacobspurling/Desktop/TP-subject-4.csv","legacy","6 9 7 3 8 2","Lentiform Loewenfeld","3.3.5","0","n","0","right","right","right","right","NA","right","NA","1082","7515","2856","1943","NA","1082","NA","2","legacy","6","1024","2","48000","-16","experiment","4","even","5","456904","72329","458008","460241","330960","4466","70384","NA","462254","463338","459023","7345","462254","457997","4447","NA","Sternberg Task","64","42139","76","yes","1024"
"84.41558441558442","84.41558441558442","554.4415584415584","554.4415584415584","black","experiment","legacy","legacy","legacy","0","uniform","1","undefined","1","right","76","0","76","76","76","0","0","0","76","76","76","0","76","76","0","NA","Sun Oct 25 20:38:15 2020","The main experiment item","yes","SternbergTask (1).osexp","/Users/jacobspurling/Downloads","no","mono","no","18","no","white","no","yes","768","legacy","64","11","/Users/jacobspurling/Desktop/TP-subject-4.csv","legacy","4 2 7 6 1 3","Lentiform Loewenfeld","3.3.5","0","n","0","right","right","right","right","NA","right","NA","553","7515","2856","1943","NA","553","NA","2","legacy","6","1024","2","48000","-16","experiment","4","even","8","463364","72329","464478","466712","330960","4466","70384","NA","468727","469282","465495","7345","468727","464465","4447","NA","Sternberg Task","65","42692","77","yes","1024"
"84.61538461538461","84.61538461538461","555.6538461538462","555.6538461538462","black","experiment","legacy","legacy","legacy","0","uniform","1","undefined","1","left","77","0","77","77","77","0","0","0","77","77","77","0","77","77","0","NA","Sun Oct 25 20:38:15 2020","The main experiment item","yes","SternbergTask (1).osexp","/Users/jacobspurling/Downloads","no","mono","no","18","no","white","no","yes","768","legacy","65","11","/Users/jacobspurling/Desktop/TP-subject-4.csv","legacy","6 1 2","Lentiform Loewenfeld","3.3.5","3","y","0","left","right","right","right","NA","left","NA","649","7515","2856","1943","NA","649","NA","2","legacy","3","1024","2","48000","-16","experiment","4","even","2","469307","72329","470422","472653","330960","4466","70384","NA","474669","475320","471437","7345","474669","470405","4447","NA","Sternberg Task","66","43341","78","yes","1024"
"84.81012658227849","84.81012658227849","565.4810126582279","565.4810126582279","black","experiment","legacy","legacy","legacy","0","uniform","1","undefined","1","right","78","0","78","78","78","0","0","0","78","78","78","0","78","78","0","NA","Sun Oct 25 20:38:15 2020","The main experiment item","yes","SternbergTask (1).osexp","/Users/jacobspurling/Downloads","no","mono","no","18","no","white","no","yes","768","legacy","66","11","/Users/jacobspurling/Desktop/TP-subject-4.csv","legacy","9 8 2 7 4","Lentiform Loewenfeld","3.3.5","0","n","0","right","right","right","right","NA","right","NA","1332","7515","2856","1943","NA","1332","NA","2","legacy","5","1024","2","48000","-16","experiment","4","even","5","475349","72329","476460","478695","330960","4466","70384","NA","480709","482043","477477","7345","480708","476447","4447","NA","Sternberg Task","67","44673","79","yes","1024"
"85","85","564.85","564.85","black","experiment","legacy","legacy","legacy","0","uniform","1","undefined","1","left","79","0","79","79","79","0","0","0","79","79","79","0","79","79","0","NA","Sun Oct 25 20:38:15 2020","The main experiment item","yes","SternbergTask (1).osexp","/Users/jacobspurling/Downloads","no","mono","no","18","no","white","no","yes","768","legacy","67","11","/Users/jacobspurling/Desktop/TP-subject-4.csv","legacy","9 1 7 2","Lentiform Loewenfeld","3.3.5","2","y","0","left","right","right","right","NA","left","NA","515","7515","2856","1943","NA","515","NA","2","legacy","4","1024","2","48000","-16","experiment","4","even","1","482069","72329","483178","485409","330960","4466","70384","NA","487422","487939","484192","7345","487422","483163","4447","NA","Sternberg Task","68","45188","80","yes","1024"
"83.95061728395062","83.95061728395062","565.9382716049382","565.9382716049382","black","experiment","legacy","legacy","legacy","0","uniform","0","undefined","0","left","80","0","80","80","80","0","0","0","80","80","80","0","80","80","0","NA","Sun Oct 25 20:38:15 2020","The main experiment item","yes","SternbergTask (1).osexp","/Users/jacobspurling/Downloads","no","mono","no","18","no","white","no","yes","768","legacy","68","11","/Users/jacobspurling/Desktop/TP-subject-4.csv","legacy","1 4 9 3 2 5","Lentiform Loewenfeld","3.3.5","3","y","0","right","right","right","right","NA","right","NA","653","7515","2856","1943","NA","653","NA","2","legacy","6","1024","2","48000","-16","experiment","4","even","9","487964","72329","489072","491303","330960","4466","70384","NA","493317","493971","490086","7345","493317","489060","4447","NA","Sternberg Task","68","45841","81","yes","1024"
"84.14634146341463","84.14634146341463","567.3048780487804","567.3048780487804","black","experiment","legacy","legacy","legacy","0","uniform","1","undefined","1","right","81","0","81","81","81","0","0","0","81","81","81","0","81","81","0","NA","Sun Oct 25 20:38:15 2020","The main experiment item","yes","SternbergTask (1).osexp","/Users/jacobspurling/Downloads","no","mono","no","18","no","white","no","yes","768","legacy","69","11","/Users/jacobspurling/Desktop/TP-subject-4.csv","legacy","8 2 1 4 5 9","Lentiform Loewenfeld","3.3.5","0","n","0","right","right","right","right","NA","right","NA","678","36476","2856","1943","NA","678","NA","2","legacy","6","1024","2","48000","-16","experiment","4","even","7","487964","72329","530586","532817","493998","4466","70384","NA","534831","535511","531601","7345","534830","530572","4447","NA","Sternberg Task","69","46519","82","yes","1024"
"84.33734939759036","84.33734939759036","566.9518072289156","566.9518072289156","black","experiment","legacy","legacy","legacy","0","uniform","1","undefined","1","right","82","0","82","82","82","0","0","0","82","82","82","0","82","82","0","NA","Sun Oct 25 20:38:15 2020","The main experiment item","yes","SternbergTask (1).osexp","/Users/jacobspurling/Downloads","no","mono","no","18","no","white","no","yes","768","legacy","70","11","/Users/jacobspurling/Desktop/TP-subject-4.csv","legacy","7 3 2 8","Lentiform Loewenfeld","3.3.5","0","n","0","right","right","right","right","NA","right","NA","538","36476","2856","1943","NA","538","NA","2","legacy","4","1024","2","48000","-16","experiment","4","even","4","535536","72329","536645","538876","493998","4466","70384","NA","540892","541432","537659","7345","540892","536632","4447","NA","Sternberg Task","70","47057","83","yes","1024"
"84.52380952380952","84.52380952380952","566.2380952380952","566.2380952380952","black","experiment","legacy","legacy","legacy","0","uniform","1","undefined","1","right","83","0","83","83","83","0","0","0","83","83","83","0","83","83","0","NA","Sun Oct 25 20:38:15 2020","The main experiment item","yes","SternbergTask (1).osexp","/Users/jacobspurling/Downloads","no","mono","no","18","no","white","no","yes","768","legacy","71","11","/Users/jacobspurling/Desktop/TP-subject-4.csv","legacy","3 9 1","Lentiform Loewenfeld","3.3.5","0","n","0","right","right","right","right","NA","right","NA","507","36476","2856","1943","NA","507","NA","2","legacy","3","1024","2","48000","-16","experiment","4","even","7","541458","72329","542569","544803","493998","4466","70384","NA","546816","547325","543585","7345","546816","542556","4447","NA","Sternberg Task","71","47564","84","yes","1024"
"84.70588235294117","84.70588235294117","566.4235294117647","566.4235294117647","black","experiment","legacy","legacy","legacy","0","uniform","1","undefined","1","right","84","0","84","84","84","0","0","0","84","84","84","0","84","84","0","NA","Sun Oct 25 20:38:15 2020","The main experiment item","yes","SternbergTask (1).osexp","/Users/jacobspurling/Downloads","no","mono","no","18","no","white","no","yes","768","legacy","72","11","/Users/jacobspurling/Desktop/TP-subject-4.csv","legacy","2 8 9","Lentiform Loewenfeld","3.3.5","0","n","0","right","right","right","right","NA","right","NA","582","36476","2856","1943","NA","582","NA","2","legacy","3","1024","2","48000","-16","experiment","4","even","6","547351","72329","548469","550702","493998","4466","70384","NA","552715","553298","549485","7345","552715","548452","4447","NA","Sternberg Task","72","48146","85","yes","1024"
"84.88372093023256","84.88372093023256","564.9186046511628","564.9186046511628","black","experiment","legacy","legacy","legacy","0","uniform","1","undefined","1","left","85","0","85","85","85","0","0","0","85","85","85","0","85","85","0","NA","Sun Oct 25 20:38:15 2020","The main experiment item","yes","SternbergTask (1).osexp","/Users/jacobspurling/Downloads","no","mono","no","18","no","white","no","yes","768","legacy","73","11","/Users/jacobspurling/Desktop/TP-subject-4.csv","legacy","8 9 6 1","Lentiform Loewenfeld","3.3.5","2","y","0","left","right","right","right","NA","left","NA","437","36476","2856","1943","NA","437","NA","2","legacy","4","1024","2","48000","-16","experiment","4","even","9","553324","72329","554430","556662","493998","4466","70384","NA","558675","559114","555445","7345","558675","554418","4447","NA","Sternberg Task","73","48583","86","yes","1024"
"85.05747126436782","85.05747126436782","562.8275862068965","562.8275862068965","black","experiment","legacy","legacy","legacy","0","uniform","1","undefined","1","left","86","0","86","86","86","0","0","0","86","86","86","0","86","86","0","NA","Sun Oct 25 20:38:15 2020","The main experiment item","yes","SternbergTask (1).osexp","/Users/jacobspurling/Downloads","no","mono","no","18","no","white","no","yes","768","legacy","74","11","/Users/jacobspurling/Desktop/TP-subject-4.csv","legacy","7 2 3","Lentiform Loewenfeld","3.3.5","3","y","0","left","right","right","right","NA","left","NA","383","36476","2856","1943","NA","383","NA","2","legacy","3","1024","2","48000","-16","experiment","4","even","3","559140","72329","560251","562482","493998","4466","70384","NA","564497","564882","561264","7345","564496","560238","4447","NA","Sternberg Task","74","48966","87","yes","1024"
"85.22727272727273","85.22727272727273","562.0227272727273","562.0227272727273","black","experiment","legacy","legacy","legacy","0","uniform","1","undefined","1","left","87","0","87","87","87","0","0","0","87","87","87","0","87","87","0","NA","Sun Oct 25 20:38:15 2020","The main experiment item","yes","SternbergTask (1).osexp","/Users/jacobspurling/Downloads","no","mono","no","18","no","white","no","yes","768","legacy","75","11","/Users/jacobspurling/Desktop/TP-subject-4.csv","legacy","9 5 3 8 4","Lentiform Loewenfeld","3.3.5","1","y","0","left","right","right","right","NA","left","NA","492","36476","2856","1943","NA","492","NA","2","legacy","5","1024","2","48000","-16","experiment","4","even","9","564909","72329","566020","568253","493998","4466","70384","NA","570268","570762","567037","7345","570268","566007","4447","NA","Sternberg Task","75","49458","88","yes","1024"
"84.26966292134831","84.26966292134831","561.7640449438202","561.7640449438202","black","experiment","legacy","legacy","legacy","0","uniform","0","undefined","0","left","88","0","88","88","88","0","0","0","88","88","88","0","88","88","0","NA","Sun Oct 25 20:38:15 2020","The main experiment item","yes","SternbergTask (1).osexp","/Users/jacobspurling/Downloads","no","mono","no","18","no","white","no","yes","768","legacy","76","11","/Users/jacobspurling/Desktop/TP-subject-4.csv","legacy","2 4 6 9","Lentiform Loewenfeld","3.3.5","3","y","0","right","right","right","right","NA","right","NA","539","36476","2856","1943","NA","539","NA","2","legacy","4","1024","2","48000","-16","experiment","4","even","6","570788","72329","571896","574128","493998","4466","70384","NA","576141","576682","572912","7345","576141","571884","4447","NA","Sternberg Task","75","49997","89","yes","1024"
"84.44444444444444","84.44444444444444","562.8222222222222","562.8222222222222","black","experiment","legacy","legacy","legacy","0","uniform","1","undefined","1","left","89","0","89","89","89","0","0","0","89","89","89","0","89","89","0","NA","Sun Oct 25 20:38:15 2020","The main experiment item","yes","SternbergTask (1).osexp","/Users/jacobspurling/Downloads","no","mono","no","18","no","white","no","yes","768","legacy","77","11","/Users/jacobspurling/Desktop/TP-subject-4.csv","legacy","7 8 4 6 9 5","Lentiform Loewenfeld","3.3.5","4","y","0","left","right","right","right","NA","left","NA","657","35111","2856","1943","NA","657","NA","2","legacy","6","1024","2","48000","-16","experiment","4","even","6","570788","72329","611932","614163","576708","4466","70384","NA","616176","616836","612947","7345","616176","611917","4447","NA","Sternberg Task","76","50654","90","yes","1024"
"84.61538461538461","84.61538461538461","563.1318681318681","563.1318681318681","black","experiment","legacy","legacy","legacy","0","uniform","1","undefined","1","right","90","0","90","90","90","0","0","0","90","90","90","0","90","90","0","NA","Sun Oct 25 20:38:15 2020","The main experiment item","yes","SternbergTask (1).osexp","/Users/jacobspurling/Downloads","no","mono","no","18","no","white","no","yes","768","legacy","78","11","/Users/jacobspurling/Desktop/TP-subject-4.csv","legacy","1 3 2 6 9","Lentiform Loewenfeld","3.3.5","0","n","0","right","right","right","right","NA","right","NA","591","35111","2856","1943","NA","591","NA","2","legacy","5","1024","2","48000","-16","experiment","4","even","5","616862","72329","617976","620207","576708","4466","70384","NA","622223","622816","618991","7345","622223","617959","4447","NA","Sternberg Task","77","51245","91","yes","1024"
"84.78260869565217","84.78260869565217","562.3369565217391","562.3369565217391","black","experiment","legacy","legacy","legacy","0","uniform","1","undefined","1","left","91","0","91","91","91","0","0","0","91","91","91","0","91","91","0","NA","Sun Oct 25 20:38:15 2020","The main experiment item","yes","SternbergTask (1).osexp","/Users/jacobspurling/Downloads","no","mono","no","18","no","white","no","yes","768","legacy","79","11","/Users/jacobspurling/Desktop/TP-subject-4.csv","legacy","8 5 3 7 4 6","Lentiform Loewenfeld","3.3.5","6","y","0","left","right","right","right","NA","left","NA","490","35111","2856","1943","NA","490","NA","2","legacy","6","1024","2","48000","-16","experiment","4","even","6","622842","72329","623954","626185","576708","4466","70384","NA","628200","628692","624968","7345","628200","623942","4447","NA","Sternberg Task","78","51735","92","yes","1024"
"84.94623655913979","84.94623655913979","561.8064516129032","561.8064516129032","black","experiment","legacy","legacy","legacy","0","uniform","1","undefined","1","left","92","0","92","92","92","0","0","0","92","92","92","0","92","92","0","NA","Sun Oct 25 20:38:15 2020","The main experiment item","yes","SternbergTask (1).osexp","/Users/jacobspurling/Downloads","no","mono","no","18","no","white","no","yes","768","legacy","80","11","/Users/jacobspurling/Desktop/TP-subject-4.csv","legacy","2 6 1 7 4","Lentiform Loewenfeld","3.3.5","2","y","0","left","right","right","right","NA","left","NA","513","35111","2856","1943","NA","513","NA","2","legacy","5","1024","2","48000","-16","experiment","4","even","6","628718","72329","629825","632055","576708","4466","70384","NA","634072","634587","630839","7345","634072","629812","4447","NA","Sternberg Task","79","52248","93","yes","1024"
"85.1063829787234","85.1063829787234","560.531914893617","560.531914893617","black","experiment","legacy","legacy","legacy","0","uniform","1","undefined","1","left","93","0","93","93","93","0","0","0","93","93","93","0","93","93","0","NA","Sun Oct 25 20:38:15 2020","The main experiment item","yes","SternbergTask (1).osexp","/Users/jacobspurling/Downloads","no","mono","no","18","no","white","no","yes","768","legacy","81","11","/Users/jacobspurling/Desktop/TP-subject-4.csv","legacy","7 8 6 3 1","Lentiform Loewenfeld","3.3.5","5","y","0","left","right","right","right","NA","left","NA","442","35111","2856","1943","NA","442","NA","2","legacy","5","1024","2","48000","-16","experiment","4","even","1","634614","72329","635720","637950","576708","4466","70384","NA","639963","640408","636734","7345","639963","635708","4447","NA","Sternberg Task","80","52690","94","yes","1024"
"84.21052631578948","84.21052631578948","561.4947368421052","561.4947368421052","black","experiment","legacy","legacy","legacy","0","uniform","0","undefined","0","left","94","0","94","94","94","0","0","0","94","94","94","0","94","94","0","NA","Sun Oct 25 20:38:15 2020","The main experiment item","yes","SternbergTask (1).osexp","/Users/jacobspurling/Downloads","no","mono","no","18","no","white","no","yes","768","legacy","82","11","/Users/jacobspurling/Desktop/TP-subject-4.csv","legacy","4 7 6 8 2 3","Lentiform Loewenfeld","3.3.5","6","y","0","right","right","right","right","NA","right","NA","652","35111","2856","1943","NA","652","NA","2","legacy","6","1024","2","48000","-16","experiment","4","even","3","640434","72329","641544","643775","576708","4466","70384","NA","645788","646442","642558","7345","645788","641531","4447","NA","Sternberg Task","80","53342","95","yes","1024"
"84.375","84.375","563.09375","563.09375","black","experiment","legacy","legacy","legacy","0","uniform","1","undefined","1","right","95","0","95","95","95","0","0","0","95","95","95","0","95","95","0","NA","Sun Oct 25 20:38:15 2020","The main experiment item","yes","SternbergTask (1).osexp","/Users/jacobspurling/Downloads","no","mono","no","18","no","white","no","yes","768","legacy","83","11","/Users/jacobspurling/Desktop/TP-subject-4.csv","legacy","9 7 4 5 8","Lentiform Loewenfeld","3.3.5","0","n","0","right","left","right","right","NA","right","NA","715","714","2856","1943","NA","715","NA","2","legacy","5","1024","2","48000","-16","experiment","4","even","6","640434","72329","647293","649525","646467","4466","70384","NA","651538","652255","648308","7345","651538","647280","4447","NA","Sternberg Task","81","54057","96","yes","1024"
"84.5360824742268","84.5360824742268","562.9175257731958","562.9175257731958","black","experiment","legacy","legacy","legacy","0","uniform","1","undefined","1","right","96","0","96","96","96","0","0","0","96","96","96","0","96","96","0","NA","Sun Oct 25 20:38:15 2020","The main experiment item","yes","SternbergTask (1).osexp","/Users/jacobspurling/Downloads","no","mono","no","18","no","white","no","yes","768","legacy","84","11","/Users/jacobspurling/Desktop/TP-subject-4.csv","legacy","6 8","Lentiform Loewenfeld","3.3.5","0","n","0","right","left","right","right","NA","right","NA","546","714","2856","1943","NA","546","NA","2","legacy","2","1024","2","48000","-16","experiment","4","even","9","652283","72329","653390","655622","646467","4466","70384","NA","657636","658184","654405","7345","657635","653375","4447","NA","Sternberg Task","82","54603","97","yes","1024"
"84.6938775510204","84.6938775510204","563.4387755102041","563.4387755102041","black","experiment","legacy","legacy","legacy","0","uniform","1","undefined","1","right","97","0","97","97","97","0","0","0","97","97","97","0","97","97","0","NA","Sun Oct 25 20:38:15 2020","The main experiment item","yes","SternbergTask (1).osexp","/Users/jacobspurling/Downloads","no","mono","no","18","no","white","no","yes","768","legacy","85","11","/Users/jacobspurling/Desktop/TP-subject-4.csv","legacy","7 4 2 8 1 9","Lentiform Loewenfeld","3.3.5","0","n","0","right","left","right","right","NA","right","NA","614","714","2856","1943","NA","614","NA","2","legacy","6","1024","2","48000","-16","experiment","4","even","5","658210","72329","659319","661551","646467","4466","70384","NA","663564","664180","660334","7345","663564","659306","4447","NA","Sternberg Task","83","55217","98","yes","1024"
"84.84848484848484","84.84848484848484","562.4949494949495","562.4949494949495","black","experiment","legacy","legacy","legacy","0","uniform","1","undefined","1","left","98","0","98","98","98","0","0","0","98","98","98","0","98","98","0","NA","Sun Oct 25 20:38:15 2020","The main experiment item","yes","SternbergTask (1).osexp","/Users/jacobspurling/Downloads","no","mono","no","18","no","white","no","yes","768","legacy","86","11","/Users/jacobspurling/Desktop/TP-subject-4.csv","legacy","7 1 3","Lentiform Loewenfeld","3.3.5","2","y","0","left","left","right","right","NA","left","NA","470","714","2856","1943","NA","470","NA","2","legacy","3","1024","2","48000","-16","experiment","4","even","1","664205","72329","665314","667549","646467","4466","70384","NA","669567","670039","666332","7345","669566","665299","4447","NA","Sternberg Task","84","55687","99","yes","1024"
"85","85","563.03","563.03","black","experiment","legacy","legacy","legacy","0","uniform","1","undefined","1","right","99","0","99","99","99","0","0","0","99","99","99","0","99","99","0","NA","Sun Oct 25 20:38:15 2020","The main experiment item","yes","SternbergTask (1).osexp","/Users/jacobspurling/Downloads","no","mono","no","18","no","white","no","yes","768","legacy","87","11","/Users/jacobspurling/Desktop/TP-subject-4.csv","legacy","6 9 5","Lentiform Loewenfeld","3.3.5","0","n","0","right","left","right","right","NA","right","NA","616","714","2856","1943","NA","616","NA","2","legacy","3","1024","2","48000","-16","experiment","4","even","8","670064","72329","671172","673403","646467","4466","70384","NA","675419","676037","672187","7345","675419","671160","4447","NA","Sternberg Task","85","56303","100","yes","1024"
"85.14851485148515","85.14851485148515","569.1881188118812","569.1881188118812","black","experiment","legacy","legacy","legacy","0","uniform","1","undefined","1","left","100","0","100","100","100","0","0","0","100","100","100","0","100","100","0","NA","Sun Oct 25 20:38:15 2020","The main experiment item","yes","SternbergTask (1).osexp","/Users/jacobspurling/Downloads","no","mono","no","18","no","white","no","yes","768","legacy","88","11","/Users/jacobspurling/Desktop/TP-subject-4.csv","legacy","4 3 2 5 8","Lentiform Loewenfeld","3.3.5","2","y","0","left","left","right","right","NA","left","NA","1185","714","2856","1943","NA","1185","NA","2","legacy","5","1024","2","48000","-16","experiment","4","even","3","676063","72329","677170","679404","646467","4466","70384","NA","681420","682607","678187","7345","681420","677157","4447","NA","Sternberg Task","86","57488","101","yes","1024"
"85.29411764705883","85.29411764705883","569.1372549019608","569.1372549019608","black","experiment","legacy","legacy","legacy","0","uniform","1","undefined","1","left","101","0","101","101","101","0","0","0","101","101","101","0","101","101","0","NA","Sun Oct 25 20:38:15 2020","The main experiment item","yes","SternbergTask (1).osexp","/Users/jacobspurling/Downloads","no","mono","no","18","no","white","no","yes","768","legacy","89","11","/Users/jacobspurling/Desktop/TP-subject-4.csv","legacy","4 6 5 8","Lentiform Loewenfeld","3.3.5","1","y","0","left","left","right","right","NA","left","NA","564","714","2856","1943","NA","564","NA","2","legacy","4","1024","2","48000","-16","experiment","4","even","4","682633","72329","683745","685976","646467","4466","70384","NA","687989","688555","684759","7345","687989","683733","4447","NA","Sternberg Task","87","58052","102","yes","1024"
"85.4368932038835","85.4368932038835","567.495145631068","567.495145631068","black","experiment","legacy","legacy","legacy","0","uniform","1","undefined","1","left","102","0","102","102","102","0","0","0","102","102","102","0","102","102","0","NA","Sun Oct 25 20:38:15 2020","The main experiment item","yes","SternbergTask (1).osexp","/Users/jacobspurling/Downloads","no","mono","no","18","no","white","no","yes","768","legacy","90","11","/Users/jacobspurling/Desktop/TP-subject-4.csv","legacy","2 3 7 4","Lentiform Loewenfeld","3.3.5","1","y","0","left","left","right","right","NA","left","NA","400","714","2856","1943","NA","400","NA","2","legacy","4","1024","2","48000","-16","experiment","4","even","2","688582","72329","689686","691921","646467","4466","70384","NA","693936","694339","690703","7345","693936","689674","4447","NA","Sternberg Task","88","58452","103","yes","1024"
"84.61538461538461","84.61538461538461","567.6730769230769","567.6730769230769","black","experiment","legacy","legacy","legacy","0","uniform","0","undefined","0","left","103","0","103","103","103","0","0","0","103","103","103","0","103","103","0","NA","Sun Oct 25 20:38:15 2020","The main experiment item","yes","SternbergTask (1).osexp","/Users/jacobspurling/Downloads","no","mono","no","18","no","white","no","yes","768","legacy","91","11","/Users/jacobspurling/Desktop/TP-subject-4.csv","legacy","8 9 5 7 1 6","Lentiform Loewenfeld","3.3.5","4","y","0","right","left","right","right","NA","right","NA","586","714","2856","1943","NA","586","NA","2","legacy","6","1024","2","48000","-16","experiment","4","even","7","694366","72329","695479","697713","646467","4466","70384","NA","699726","700314","696496","7345","699726","695463","4447","NA","Sternberg Task","88","59038","104","yes","1024"
"84.76190476190476","84.76190476190476","568.4380952380952","568.4380952380952","black","experiment","legacy","legacy","legacy","0","uniform","1","undefined","1","right","104","0","104","104","104","0","0","0","104","104","104","0","104","104","0","NA","Sun Oct 25 20:38:15 2020","The main experiment item","yes","SternbergTask (1).osexp","/Users/jacobspurling/Downloads","no","mono","no","18","no","white","no","yes","768","legacy","92","11","/Users/jacobspurling/Desktop/TP-subject-4.csv","legacy","2 5 1 4","Lentiform Loewenfeld","3.3.5","0","n","0","right","left","right","right","NA","right","NA","648","734","2856","1943","NA","648","NA","2","legacy","4","1024","2","48000","-16","experiment","4","even","6","694366","72329","701181","703414","700339","4466","70384","NA","705427","706078","702196","7345","705427","701169","4447","NA","Sternberg Task","89","59686","105","yes","1024"
"84.90566037735849","84.90566037735849","567.188679245283","567.188679245283","black","experiment","legacy","legacy","legacy","0","uniform","1","undefined","1","left","105","0","105","105","105","0","0","0","105","105","105","0","105","105","0","NA","Sun Oct 25 20:38:15 2020","The main experiment item","yes","SternbergTask (1).osexp","/Users/jacobspurling/Downloads","no","mono","no","18","no","white","no","yes","768","legacy","93","11","/Users/jacobspurling/Desktop/TP-subject-4.csv","legacy","7 6","Lentiform Loewenfeld","3.3.5","2","y","0","left","left","right","right","NA","left","NA","436","734","2856","1943","NA","436","NA","2","legacy","2","1024","2","48000","-16","experiment","4","even","6","706104","72329","707211","709443","700339","4466","70384","NA","711460","711899","708226","7345","711459","707199","4447","NA","Sternberg Task","90","60122","106","yes","1024"
"85.04672897196262","85.04672897196262","568.0373831775701","568.0373831775701","black","experiment","legacy","legacy","legacy","0","uniform","1","undefined","1","right","106","0","106","106","106","0","0","0","106","106","106","0","106","106","0","NA","Sun Oct 25 20:38:15 2020","The main experiment item","yes","SternbergTask (1).osexp","/Users/jacobspurling/Downloads","no","mono","no","18","no","white","no","yes","768","legacy","94","11","/Users/jacobspurling/Desktop/TP-subject-4.csv","legacy","6 7 5 9","Lentiform Loewenfeld","3.3.5","0","n","0","right","left","right","right","NA","right","NA","658","734","2856","1943","NA","658","NA","2","legacy","4","1024","2","48000","-16","experiment","4","even","2","711925","72329","713045","715279","700339","4466","70384","NA","717293","717953","714062","7345","717293","713029","4447","NA","Sternberg Task","91","60780","107","yes","1024"
"85.18518518518519","85.18518518518519","567.6203703703703","567.6203703703703","black","experiment","legacy","legacy","legacy","0","uniform","1","undefined","1","left","107","0","107","107","107","0","0","0","107","107","107","0","107","107","0","NA","Sun Oct 25 20:38:15 2020","The main experiment item","yes","SternbergTask (1).osexp","/Users/jacobspurling/Downloads","no","mono","no","18","no","white","no","yes","768","legacy","95","11","/Users/jacobspurling/Desktop/TP-subject-4.csv","legacy","4 1 8 7 5","Lentiform Loewenfeld","3.3.5","3","y","0","left","left","right","right","NA","left","NA","523","734","2856","1943","NA","523","NA","2","legacy","5","1024","2","48000","-16","experiment","4","even","8","717982","72329","719091","721323","700339","4466","70384","NA","723338","723864","720106","7345","723338","719076","4447","NA","Sternberg Task","92","61303","108","yes","1024"
"85.3211009174312","85.3211009174312","568.5321100917431","568.5321100917431","black","experiment","legacy","legacy","legacy","0","uniform","1","undefined","1","left","108","0","108","108","108","0","0","0","108","108","108","0","108","108","0","NA","Sun Oct 25 20:38:15 2020","The main experiment item","yes","SternbergTask (1).osexp","/Users/jacobspurling/Downloads","no","mono","no","18","no","white","no","yes","768","legacy","96","11","/Users/jacobspurling/Desktop/TP-subject-4.csv","legacy","6 8 9 3 4 9","Lentiform Loewenfeld","3.3.5","5","y","0","left","left","right","right","NA","left","NA","667","734","2856","1943","NA","667","NA","2","legacy","6","1024","2","48000","-16","experiment","4","even","4","723893","72329","724999","727229","700339","4466","70384","NA","729243","729912","726013","7345","729243","724986","4447","NA","Sternberg Task","93","61970","109","yes","1024"
"85.45454545454545","85.45454545454545","568.8454545454546","568.8454545454546","black","experiment","legacy","legacy","legacy","0","uniform","1","undefined","1","right","109","0","109","109","109","0","0","0","109","109","109","0","109","109","0","NA","Sun Oct 25 20:38:15 2020","The main experiment item","yes","SternbergTask (1).osexp","/Users/jacobspurling/Downloads","no","mono","no","18","no","white","no","yes","768","legacy","97","11","/Users/jacobspurling/Desktop/TP-subject-4.csv","legacy","6 8 4","Lentiform Loewenfeld","3.3.5","0","n","0","right","left","right","right","NA","right","NA","603","734","2856","1943","NA","603","NA","2","legacy","3","1024","2","48000","-16","experiment","4","even","1","729938","72329","731049","733280","700339","4466","70384","NA","735293","735898","732064","7345","735293","731034","4447","NA","Sternberg Task","94","62573","110","yes","1024"
"85.58558558558559","85.58558558558559","576.0540540540541","576.0540540540541","black","experiment","legacy","legacy","legacy","0","uniform","1","undefined","1","left","110","0","110","110","110","0","0","0","110","110","110","0","110","110","0","NA","Sun Oct 25 20:38:15 2020","The main experiment item","yes","SternbergTask (1).osexp","/Users/jacobspurling/Downloads","no","mono","no","18","no","white","no","yes","768","legacy","98","11","/Users/jacobspurling/Desktop/TP-subject-4.csv","legacy","3 9 7 6 4","Lentiform Loewenfeld","3.3.5","3","y","0","left","left","right","right","NA","left","NA","1369","734","2856","1943","NA","1369","NA","2","legacy","5","1024","2","48000","-16","experiment","4","even","7","735924","72329","737031","739262","700339","4466","70384","NA","741276","742647","738047","7345","741275","737017","4447","NA","Sternberg Task","95","63942","111","yes","1024"
"85.71428571428571","85.71428571428571","578.0803571428571","578.0803571428571","black","experiment","legacy","legacy","legacy","0","uniform","1","undefined","1","right","111","0","111","111","111","0","0","0","111","111","111","0","111","111","0","NA","Sun Oct 25 20:38:15 2020","The main experiment item","yes","SternbergTask (1).osexp","/Users/jacobspurling/Downloads","no","mono","no","18","no","white","no","yes","768","legacy","99","11","/Users/jacobspurling/Desktop/TP-subject-4.csv","legacy","8 6 3 4 7","Lentiform Loewenfeld","3.3.5","0","n","0","right","left","right","right","NA","right","NA","803","734","2856","1943","NA","803","NA","2","legacy","5","1024","2","48000","-16","experiment","4","even","1","742673","72329","743783","746014","700339","4466","70384","NA","748027","748832","744798","7345","748027","743771","4447","NA","Sternberg Task","96","64745","112","yes","1024"
"85.84070796460178","85.84070796460178","579.929203539823","579.929203539823","black","experiment","legacy","legacy","legacy","0","uniform","1","undefined","1","right","112","0","112","112","112","0","0","0","112","112","112","0","112","112","0","NA","Sun Oct 25 20:38:15 2020","The main experiment item","yes","SternbergTask (1).osexp","/Users/jacobspurling/Downloads","no","mono","no","18","no","white","no","yes","768","legacy","100","11","/Users/jacobspurling/Desktop/TP-subject-4.csv","legacy","8 4 3 9","Lentiform Loewenfeld","3.3.5","0","n","0","right","left","right","right","NA","right","NA","787","734","2856","1943","NA","787","NA","2","legacy","4","1024","2","48000","-16","experiment","4","even","5","748858","72329","749977","752210","700339","4466","70384","NA","754223","755012","750992","7345","754223","749961","4447","NA","Sternberg Task","97","65532","113","yes","1024"
