"acc","accuracy","average_response_time","avg_rt","background","block","canvas_backend","clock_backend","color_backend","correct","correct_Instruction1","correct_new_keyboard_response","correct_response","count_ISI","count_Instruction1","count_ThankYou","count_correctFeedback","count_expSequence","count_experiment","count_experimentLoop","count_fixation","count_incorrectFeedback","count_instructions2","count_memorySet","count_new_keyboard_response","count_new_logger","count_practiceloop","count_probe","datetime","description","disable_garbage_collection","experiment_file","experiment_path","font_bold","font_family","font_italic","font_size","font_underline","foreground","form_clicks","fullscreen","height","keyboard_backend","live_row","live_row_practiceloop","logfile","mouse_backend","numberSet","opensesame_codename","opensesame_version","posInSet","present","repeat_cycle","response","response_Instruction1","response_ThankYou","response_instructions2","response_new_keyboard_response","response_time","response_time_Instruction1","response_time_ThankYou","response_time_instructions2","response_time_new_keyboard_response","round_decimals","sampler_backend","setSize","sound_buf_size","sound_channels","sound_freq","sound_sample_size","start","subject_nr","subject_parity","target","time_ISI","time_Instruction1","time_ThankYou","time_correctFeedback","time_expSequence","time_experiment","time_experimentLoop","time_fixation","time_incorrectFeedback","time_instructions2","time_memorySet","time_new_keyboard_response","time_new_logger","time_practiceloop","time_probe","title","total_correct","total_response_time","total_responses","width"
"0","0","2000","2000","#3d3846","practice","legacy","legacy","legacy","0","undefined","0","left","0","0","0","0","0","0","0","0","0","0","0","0","0","0","0","Sun Oct 15 17:45:32 2023","The main experiment item","True","Sternberg Task Elizabeth McGibbon .osexp","/Users/izzymcgibbon/Desktop/College/Tarleton State /2023 /Fall /Stats /3.0 ","False","mono","False","18","no","white","no","yes","768","legacy","0","0","/Users/izzymcgibbon/Desktop/College/Tarleton State /2023 /Fall /Stats /3.0 /EWMsubject-3.csv","legacy","1 7 9 8 5","Melodramatic Milgram","4.0.5","4","y","0","None","right","NA","NA","None","2000.0","40297","NA","NA","2000","2","legacy","5","1024","2","48000","-16","experiment","3","odd","8","47768","4034","NA","NA","45556","3881","NA","45562","NA","NA","46565","49771","51771","44365","49771","New experiment","0","2000.0","1","1024"
"50","50","1637","1637","#3d3846","practice","legacy","legacy","legacy","1","undefined","1","left","1","0","0","1","1","0","0","1","1","0","1","1","1","0","1","Sun Oct 15 17:45:32 2023","The main experiment item","True","Sternberg Task Elizabeth McGibbon .osexp","/Users/izzymcgibbon/Desktop/College/Tarleton State /2023 /Fall /Stats /3.0 ","False","mono","False","18","no","white","no","yes","768","legacy","1","1","/Users/izzymcgibbon/Desktop/College/Tarleton State /2023 /Fall /Stats /3.0 /EWMsubject-3.csv","legacy","2 9 4","Melodramatic Milgram","4.0.5","3","y","0","left","right","NA","NA","left","1275.0","40297","NA","NA","1275","2","legacy","3","1024","2","48000","-16","experiment","3","odd","4","55067","4034","NA","NA","52858","3881","NA","52859","51806","NA","53862","57090","58366","44365","57090","New experiment","1","3275.0","2","1024"
"33","33","1475","1475","#3d3846","practice","legacy","legacy","legacy","0","undefined","0","right","2","0","0","2","2","0","0","2","2","0","2","2","2","0","2","Sun Oct 15 17:45:32 2023","The main experiment item","True","Sternberg Task Elizabeth McGibbon .osexp","/Users/izzymcgibbon/Desktop/College/Tarleton State /2023 /Fall /Stats /3.0 ","False","mono","False","18","no","white","no","yes","768","legacy","2","2","/Users/izzymcgibbon/Desktop/College/Tarleton State /2023 /Fall /Stats /3.0 /EWMsubject-3.csv","legacy","4 1 5","Melodramatic Milgram","4.0.5","0","n","0","left","right","NA","NA","left","1152.0","40297","NA","NA","1152","2","legacy","3","1024","2","48000","-16","experiment","3","odd","2","61631","4034","NA","58369","59422","3881","NA","59424","51806","NA","60426","63634","64787","44365","63633","New experiment","1","4427.0","3","1024"
"50","50","1324","1324","#3d3846","practice","legacy","legacy","legacy","1","undefined","1","right","3","0","0","3","3","0","0","3","3","0","3","3","3","0","3","Sun Oct 15 17:45:32 2023","The main experiment item","True","Sternberg Task Elizabeth McGibbon .osexp","/Users/izzymcgibbon/Desktop/College/Tarleton State /2023 /Fall /Stats /3.0 ","False","mono","False","18","no","white","no","yes","768","legacy","3","3","/Users/izzymcgibbon/Desktop/College/Tarleton State /2023 /Fall /Stats /3.0 /EWMsubject-3.csv","legacy","5","Melodramatic Milgram","4.0.5","0","n","0","right","right","NA","NA","right","872.0","40297","NA","NA","872","2","legacy","1","1024","2","48000","-16","experiment","3","odd","3","68048","4034","NA","58369","65840","3881","NA","65842","64791","NA","66844","70051","70924","44365","70051","New experiment","2","5299.0","4","1024"
"40","40","1274","1274","#3d3846","practice","legacy","legacy","legacy","0","undefined","0","left","4","0","0","4","4","0","0","4","4","0","4","4","4","0","4","Sun Oct 15 17:45:32 2023","The main experiment item","True","Sternberg Task Elizabeth McGibbon .osexp","/Users/izzymcgibbon/Desktop/College/Tarleton State /2023 /Fall /Stats /3.0 ","False","mono","False","18","no","white","no","yes","768","legacy","4","4","/Users/izzymcgibbon/Desktop/College/Tarleton State /2023 /Fall /Stats /3.0 /EWMsubject-3.csv","legacy","1 5 2 9","Melodramatic Milgram","4.0.5","2","y","0","right","right","NA","NA","right","1072.0","40297","NA","NA","1072","2","legacy","4","1024","2","48000","-16","experiment","3","odd","5","74187","4034","NA","70927","71978","3881","NA","71980","64791","NA","72983","76189","77262","44365","76189","New experiment","2","6371.0","5","1024"
"33","33","1212","1212","#3d3846","practice","legacy","legacy","legacy","0","undefined","0","left","5","0","0","5","5","0","0","5","5","0","5","5","5","0","5","Sun Oct 15 17:45:32 2023","The main experiment item","True","Sternberg Task Elizabeth McGibbon .osexp","/Users/izzymcgibbon/Desktop/College/Tarleton State /2023 /Fall /Stats /3.0 ","False","mono","False","18","no","white","no","yes","768","legacy","5","5","/Users/izzymcgibbon/Desktop/College/Tarleton State /2023 /Fall /Stats /3.0 /EWMsubject-3.csv","legacy","4 8","Melodramatic Milgram","4.0.5","1","y","0","right","right","NA","NA","right","901.0","40297","NA","NA","901","2","legacy","2","1024","2","48000","-16","experiment","3","odd","4","80523","4034","NA","70927","78315","3881","NA","78317","77266","NA","79320","82526","83427","44365","82526","New experiment","2","7272.0","6","1024"
"28","28","1324","1324","#3d3846","practice","legacy","legacy","legacy","0","undefined","0","left","6","0","0","6","6","0","0","6","6","0","6","6","6","0","6","Sun Oct 15 17:45:32 2023","The main experiment item","True","Sternberg Task Elizabeth McGibbon .osexp","/Users/izzymcgibbon/Desktop/College/Tarleton State /2023 /Fall /Stats /3.0 ","False","mono","False","18","no","white","no","yes","768","legacy","6","6","/Users/izzymcgibbon/Desktop/College/Tarleton State /2023 /Fall /Stats /3.0 /EWMsubject-3.csv","legacy","6","Melodramatic Milgram","4.0.5","1","y","0","None","right","NA","NA","None","2001.0","40297","NA","NA","2001","2","legacy","1","1024","2","48000","-16","experiment","3","odd","6","86701","4034","NA","70927","84493","3881","NA","84495","83430","NA","85498","88704","90705","44365","88704","New experiment","2","9273.0","7","1024"
"25","25","1337","1337","#3d3846","practice","legacy","legacy","legacy","0","undefined","0","right","7","0","0","7","7","0","0","7","7","0","7","7","7","0","7","Sun Oct 15 17:45:32 2023","The main experiment item","True","Sternberg Task Elizabeth McGibbon .osexp","/Users/izzymcgibbon/Desktop/College/Tarleton State /2023 /Fall /Stats /3.0 ","False","mono","False","18","no","white","no","yes","768","legacy","7","7","/Users/izzymcgibbon/Desktop/College/Tarleton State /2023 /Fall /Stats /3.0 /EWMsubject-3.csv","legacy","3 1 9 4","Melodramatic Milgram","4.0.5","0","n","0","left","right","NA","NA","left","1428.0","40297","NA","NA","1428","2","legacy","4","1024","2","48000","-16","experiment","3","odd","6","93956","4034","NA","70927","91750","3881","NA","91752","90709","NA","92754","95959","97388","44365","95959","New experiment","2","10701.0","8","1024"
"22","22","1372","1372","#3d3846","practice","legacy","legacy","legacy","0","undefined","0","right","8","0","0","8","8","0","0","8","8","0","8","8","8","0","8","Sun Oct 15 17:45:32 2023","The main experiment item","True","Sternberg Task Elizabeth McGibbon .osexp","/Users/izzymcgibbon/Desktop/College/Tarleton State /2023 /Fall /Stats /3.0 ","False","mono","False","18","no","white","no","yes","768","legacy","8","8","/Users/izzymcgibbon/Desktop/College/Tarleton State /2023 /Fall /Stats /3.0 /EWMsubject-3.csv","legacy","5 7 8 4 1 2","Melodramatic Milgram","4.0.5","0","n","0","left","right","NA","NA","left","1650.0","40297","NA","NA","1650","2","legacy","6","1024","2","48000","-16","experiment","3","odd","6","100644","4034","NA","70927","98436","3881","NA","98439","97391","NA","99441","102648","104299","44365","102647","New experiment","2","12351.0","9","1024"
"30","30","1358","1358","#3d3846","practice","legacy","legacy","legacy","1","undefined","1","right","9","0","0","9","9","0","0","9","9","0","9","9","9","0","9","Sun Oct 15 17:45:32 2023","The main experiment item","True","Sternberg Task Elizabeth McGibbon .osexp","/Users/izzymcgibbon/Desktop/College/Tarleton State /2023 /Fall /Stats /3.0 ","False","mono","False","18","no","white","no","yes","768","legacy","9","9","/Users/izzymcgibbon/Desktop/College/Tarleton State /2023 /Fall /Stats /3.0 /EWMsubject-3.csv","legacy","2 1","Melodramatic Milgram","4.0.5","0","n","0","right","right","NA","NA","right","1233.0","40297","NA","NA","1233","2","legacy","2","1024","2","48000","-16","experiment","3","odd","5","107560","4034","NA","70927","105352","3881","NA","105354","104302","NA","106356","109563","110796","44365","109563","New experiment","3","13584.0","10","1024"
"27","27","1285","1285","#3d3846","practice","legacy","legacy","legacy","0","undefined","0","left","10","0","0","10","10","0","0","10","10","0","10","10","10","0","10","Sun Oct 15 17:45:32 2023","The main experiment item","True","Sternberg Task Elizabeth McGibbon .osexp","/Users/izzymcgibbon/Desktop/College/Tarleton State /2023 /Fall /Stats /3.0 ","False","mono","False","18","no","white","no","yes","768","legacy","10","10","/Users/izzymcgibbon/Desktop/College/Tarleton State /2023 /Fall /Stats /3.0 /EWMsubject-3.csv","legacy","4 3 1 7 9 8","Melodramatic Milgram","4.0.5","1","y","0","right","right","NA","NA","right","553.0","40297","NA","NA","553","2","legacy","6","1024","2","48000","-16","experiment","3","odd","4","114058","4034","NA","110800","111850","3881","NA","111852","104302","NA","112855","116060","116614","44365","116060","New experiment","3","14137.0","11","1024"
"25","25","1250","1250","#3d3846","practice","legacy","legacy","legacy","0","undefined","0","right","11","0","0","11","11","0","0","11","11","0","11","11","11","0","11","Sun Oct 15 17:45:32 2023","The main experiment item","True","Sternberg Task Elizabeth McGibbon .osexp","/Users/izzymcgibbon/Desktop/College/Tarleton State /2023 /Fall /Stats /3.0 ","False","mono","False","18","no","white","no","yes","768","legacy","11","11","/Users/izzymcgibbon/Desktop/College/Tarleton State /2023 /Fall /Stats /3.0 /EWMsubject-3.csv","legacy","9 6 7 4 5","Melodramatic Milgram","4.0.5","0","n","0","left","right","NA","NA","left","865.0","40297","NA","NA","865","2","legacy","5","1024","2","48000","-16","experiment","3","odd","3","119877","4034","NA","110800","117669","3881","NA","117671","116617","NA","118673","121880","122746","44365","121879","New experiment","3","15002.0","12","1024"
"30","30","1187","1187","#3d3846","experiment","legacy","legacy","legacy","1","undefined","1","left","12","0","0","12","12","0","0","12","12","0","12","12","12","0","12","Sun Oct 15 17:45:32 2023","The main experiment item","True","Sternberg Task Elizabeth McGibbon .osexp","/Users/izzymcgibbon/Desktop/College/Tarleton State /2023 /Fall /Stats /3.0 ","False","mono","False","18","no","white","no","yes","768","legacy","0","11","/Users/izzymcgibbon/Desktop/College/Tarleton State /2023 /Fall /Stats /3.0 /EWMsubject-3.csv","legacy","5 7 3 6 2","Melodramatic Milgram","4.0.5","5","y","0","left","right","NA","","left","432.0","40297","NA","28911","432","2","legacy","5","1024","2","48000","-16","experiment","3","odd","2","159384","4034","NA","110800","157176","3881","157102","157178","122751","123754","158181","161387","161820","44365","161387","New experiment","4","15434.0","13","1024"
"35","35","1152","1152","#3d3846","experiment","legacy","legacy","legacy","1","undefined","1","left","13","0","0","13","13","0","0","13","13","0","13","13","13","0","13","Sun Oct 15 17:45:32 2023","The main experiment item","True","Sternberg Task Elizabeth McGibbon .osexp","/Users/izzymcgibbon/Desktop/College/Tarleton State /2023 /Fall /Stats /3.0 ","False","mono","False","18","no","white","no","yes","768","legacy","1","11","/Users/izzymcgibbon/Desktop/College/Tarleton State /2023 /Fall /Stats /3.0 /EWMsubject-3.csv","legacy","4","Melodramatic Milgram","4.0.5","1","y","0","left","right","NA","","left","694.0","40297","NA","28911","694","2","legacy","1","1024","2","48000","-16","experiment","3","odd","4","165082","4034","NA","161824","162873","3881","157102","162875","122751","123754","163877","167085","167780","44365","167084","New experiment","5","16128.0","14","1024"
"40","40","1123","1123","#3d3846","experiment","legacy","legacy","legacy","1","undefined","1","left","14","0","0","14","14","0","0","14","14","0","14","14","14","0","14","Sun Oct 15 17:45:32 2023","The main experiment item","True","Sternberg Task Elizabeth McGibbon .osexp","/Users/izzymcgibbon/Desktop/College/Tarleton State /2023 /Fall /Stats /3.0 ","False","mono","False","18","no","white","no","yes","768","legacy","2","11","/Users/izzymcgibbon/Desktop/College/Tarleton State /2023 /Fall /Stats /3.0 /EWMsubject-3.csv","legacy","2 5 4 8 7","Melodramatic Milgram","4.0.5","3","y","0","left","right","NA","","left","725.0","40297","NA","28911","725","2","legacy","5","1024","2","48000","-16","experiment","3","odd","4","171041","4034","NA","167783","168833","3881","157102","168835","122751","123754","169837","173043","173769","44365","173043","New experiment","6","16853.0","15","1024"
"43","43","1081","1081","#3d3846","experiment","legacy","legacy","legacy","1","undefined","1","right","15","0","0","15","15","0","0","15","15","0","15","15","15","0","15","Sun Oct 15 17:45:32 2023","The main experiment item","True","Sternberg Task Elizabeth McGibbon .osexp","/Users/izzymcgibbon/Desktop/College/Tarleton State /2023 /Fall /Stats /3.0 ","False","mono","False","18","no","white","no","yes","768","legacy","3","11","/Users/izzymcgibbon/Desktop/College/Tarleton State /2023 /Fall /Stats /3.0 /EWMsubject-3.csv","legacy","3 9 8 1 6 4","Melodramatic Milgram","4.0.5","0","n","0","right","right","NA","","right","450.0","40297","NA","28911","450","2","legacy","6","1024","2","48000","-16","experiment","3","odd","7","177029","4034","NA","173772","174822","3881","157102","174824","122751","123754","175827","179032","179483","44365","179032","New experiment","7","17303.0","16","1024"
"47","47","1054","1054","#3d3846","experiment","legacy","legacy","legacy","1","undefined","1","right","16","0","0","16","16","0","0","16","16","0","16","16","16","0","16","Sun Oct 15 17:45:32 2023","The main experiment item","True","Sternberg Task Elizabeth McGibbon .osexp","/Users/izzymcgibbon/Desktop/College/Tarleton State /2023 /Fall /Stats /3.0 ","False","mono","False","18","no","white","no","yes","768","legacy","4","11","/Users/izzymcgibbon/Desktop/College/Tarleton State /2023 /Fall /Stats /3.0 /EWMsubject-3.csv","legacy","7 1 5 6 3","Melodramatic Milgram","4.0.5","0","n","0","right","right","NA","","right","619.0","40297","NA","28911","619","2","legacy","5","1024","2","48000","-16","experiment","3","odd","8","182749","4034","NA","179491","180541","3881","157102","180543","122751","123754","181545","184751","185370","44365","184751","New experiment","8","17922.0","17","1024"
"50","50","1033","1033","#3d3846","experiment","legacy","legacy","legacy","1","undefined","1","left","17","0","0","17","17","0","0","17","17","0","17","17","17","0","17","Sun Oct 15 17:45:32 2023","The main experiment item","True","Sternberg Task Elizabeth McGibbon .osexp","/Users/izzymcgibbon/Desktop/College/Tarleton State /2023 /Fall /Stats /3.0 ","False","mono","False","18","no","white","no","yes","768","legacy","5","11","/Users/izzymcgibbon/Desktop/College/Tarleton State /2023 /Fall /Stats /3.0 /EWMsubject-3.csv","legacy","7 2 3","Melodramatic Milgram","4.0.5","3","y","0","left","right","NA","","left","684.0","40297","NA","28911","684","2","legacy","3","1024","2","48000","-16","experiment","3","odd","3","188631","4034","NA","185374","186424","3881","157102","186426","122751","123754","187428","190634","191319","44365","190633","New experiment","9","18606.0","18","1024"
"52","52","1016","1016","#3d3846","experiment","legacy","legacy","legacy","1","undefined","1","left","18","0","0","18","18","0","0","18","18","0","18","18","18","0","18","Sun Oct 15 17:45:32 2023","The main experiment item","True","Sternberg Task Elizabeth McGibbon .osexp","/Users/izzymcgibbon/Desktop/College/Tarleton State /2023 /Fall /Stats /3.0 ","False","mono","False","18","no","white","no","yes","768","legacy","6","11","/Users/izzymcgibbon/Desktop/College/Tarleton State /2023 /Fall /Stats /3.0 /EWMsubject-3.csv","legacy","6 7 8 5","Melodramatic Milgram","4.0.5","3","y","0","left","right","NA","","left","703.0","40297","NA","28911","703","2","legacy","4","1024","2","48000","-16","experiment","3","odd","8","194591","4034","NA","191322","192383","3881","157102","192385","122751","123754","193387","196594","197298","44365","196593","New experiment","10","19309.0","19","1024"
"55","55","1000","1000","#3d3846","experiment","legacy","legacy","legacy","1","undefined","1","right","19","0","0","19","19","0","0","19","19","0","19","19","19","0","19","Sun Oct 15 17:45:32 2023","The main experiment item","True","Sternberg Task Elizabeth McGibbon .osexp","/Users/izzymcgibbon/Desktop/College/Tarleton State /2023 /Fall /Stats /3.0 ","False","mono","False","18","no","white","no","yes","768","legacy","7","11","/Users/izzymcgibbon/Desktop/College/Tarleton State /2023 /Fall /Stats /3.0 /EWMsubject-3.csv","legacy","1 4 9 2 5","Melodramatic Milgram","4.0.5","0","n","0","right","right","NA","","right","710.0","40297","NA","28911","710","2","legacy","5","1024","2","48000","-16","experiment","3","odd","7","200548","4034","NA","197301","198342","3881","157102","198344","122751","123754","199346","202550","203260","44365","202550","New experiment","11","20019.0","20","1024"
"57","57","985","985","#3d3846","experiment","legacy","legacy","legacy","1","undefined","1","left","20","0","0","20","20","0","0","20","20","0","20","20","20","0","20","Sun Oct 15 17:45:32 2023","The main experiment item","True","Sternberg Task Elizabeth McGibbon .osexp","/Users/izzymcgibbon/Desktop/College/Tarleton State /2023 /Fall /Stats /3.0 ","False","mono","False","18","no","white","no","yes","768","legacy","8","11","/Users/izzymcgibbon/Desktop/College/Tarleton State /2023 /Fall /Stats /3.0 /EWMsubject-3.csv","legacy","3 9 7 6 4","Melodramatic Milgram","4.0.5","3","y","0","left","right","NA","","left","681.0","40297","NA","28911","681","2","legacy","5","1024","2","48000","-16","experiment","3","odd","7","206517","4034","NA","203264","204309","3881","157102","204311","122751","123754","205313","208520","209202","44365","208519","New experiment","12","20700.0","21","1024"
"59","59","974","974","#3d3846","experiment","legacy","legacy","legacy","1","undefined","1","left","21","0","0","21","21","0","0","21","21","0","21","21","21","0","21","Sun Oct 15 17:45:32 2023","The main experiment item","True","Sternberg Task Elizabeth McGibbon .osexp","/Users/izzymcgibbon/Desktop/College/Tarleton State /2023 /Fall /Stats /3.0 ","False","mono","False","18","no","white","no","yes","768","legacy","9","11","/Users/izzymcgibbon/Desktop/College/Tarleton State /2023 /Fall /Stats /3.0 /EWMsubject-3.csv","legacy","5 2 6","Melodramatic Milgram","4.0.5","2","y","0","left","right","NA","","left","749.0","40297","NA","28911","749","2","legacy","3","1024","2","48000","-16","experiment","3","odd","2","212462","4034","NA","209206","210256","3881","157102","210257","122751","123754","211260","214465","215215","44365","214465","New experiment","13","21449.0","22","1024"
"56","56","962","962","#3d3846","experiment","legacy","legacy","legacy","0","undefined","0","right","22","0","0","22","22","0","0","22","22","0","22","22","22","0","22","Sun Oct 15 17:45:32 2023","The main experiment item","True","Sternberg Task Elizabeth McGibbon .osexp","/Users/izzymcgibbon/Desktop/College/Tarleton State /2023 /Fall /Stats /3.0 ","False","mono","False","18","no","white","no","yes","768","legacy","10","11","/Users/izzymcgibbon/Desktop/College/Tarleton State /2023 /Fall /Stats /3.0 /EWMsubject-3.csv","legacy","6 3 1 7 9 8","Melodramatic Milgram","4.0.5","0","n","0","left","right","NA","","left","695.0","40297","NA","28911","695","2","legacy","6","1024","2","48000","-16","experiment","3","odd","4","218476","4034","NA","215219","216269","3881","157102","216271","122751","123754","217273","220479","221175","44365","220479","New experiment","13","22144.0","23","1024"
"54","54","965","965","#3d3846","experiment","legacy","legacy","legacy","0","undefined","0","right","23","0","0","23","23","0","0","23","23","0","23","23","23","0","23","Sun Oct 15 17:45:32 2023","The main experiment item","True","Sternberg Task Elizabeth McGibbon .osexp","/Users/izzymcgibbon/Desktop/College/Tarleton State /2023 /Fall /Stats /3.0 ","False","mono","False","18","no","white","no","yes","768","legacy","11","11","/Users/izzymcgibbon/Desktop/College/Tarleton State /2023 /Fall /Stats /3.0 /EWMsubject-3.csv","legacy","1 7 5 2","Melodramatic Milgram","4.0.5","0","n","0","left","right","NA","","left","1032.0","40297","NA","28911","1032","2","legacy","4","1024","2","48000","-16","experiment","3","odd","3","224435","4034","NA","215219","222229","3881","157102","222230","221179","123754","223232","226439","227472","44365","226439","New experiment","13","23176.0","24","1024"
"56","56","950","950","#3d3846","experiment","legacy","legacy","legacy","1","undefined","1","left","24","0","0","24","24","0","0","24","24","0","24","24","24","0","24","Sun Oct 15 17:45:32 2023","The main experiment item","True","Sternberg Task Elizabeth McGibbon .osexp","/Users/izzymcgibbon/Desktop/College/Tarleton State /2023 /Fall /Stats /3.0 ","False","mono","False","18","no","white","no","yes","768","legacy","12","11","/Users/izzymcgibbon/Desktop/College/Tarleton State /2023 /Fall /Stats /3.0 /EWMsubject-3.csv","legacy","9 3 8 2 1 4","Melodramatic Milgram","4.0.5","3","y","0","left","right","NA","","left","577.0","40297","NA","28911","577","2","legacy","6","1024","2","48000","-16","experiment","3","odd","8","230741","4034","NA","215219","228535","3881","157102","228537","227475","123754","229539","232745","233323","44365","232744","New experiment","14","23753.0","25","1024"
"53","53","945","945","#3d3846","experiment","legacy","legacy","legacy","0","undefined","0","right","25","0","0","25","25","0","0","25","25","0","25","25","25","0","25","Sun Oct 15 17:45:32 2023","The main experiment item","True","Sternberg Task Elizabeth McGibbon .osexp","/Users/izzymcgibbon/Desktop/College/Tarleton State /2023 /Fall /Stats /3.0 ","False","mono","False","18","no","white","no","yes","768","legacy","13","11","/Users/izzymcgibbon/Desktop/College/Tarleton State /2023 /Fall /Stats /3.0 /EWMsubject-3.csv","legacy","7 3 2 8","Melodramatic Milgram","4.0.5","0","n","0","left","right","NA","","left","839.0","40297","NA","28911","839","2","legacy","4","1024","2","48000","-16","experiment","3","odd","4","236574","4034","NA","233326","234367","3881","157102","234369","227475","123754","235371","238577","239417","44365","238576","New experiment","14","24592.0","26","1024"
"51","51","984","984","#3d3846","experiment","legacy","legacy","legacy","0","undefined","0","left","26","0","0","26","26","0","0","26","26","0","26","26","26","0","26","Sun Oct 15 17:45:32 2023","The main experiment item","True","Sternberg Task Elizabeth McGibbon .osexp","/Users/izzymcgibbon/Desktop/College/Tarleton State /2023 /Fall /Stats /3.0 ","False","mono","False","18","no","white","no","yes","768","legacy","14","11","/Users/izzymcgibbon/Desktop/College/Tarleton State /2023 /Fall /Stats /3.0 /EWMsubject-3.csv","legacy","3 5 9 6 2 4","Melodramatic Milgram","4.0.5","1","y","0","None","right","NA","","None","2000.0","40297","NA","28911","2000","2","legacy","6","1024","2","48000","-16","experiment","3","odd","3","242674","4034","NA","233326","240466","3881","157102","240468","239421","123754","241471","244677","246677","44365","244677","New experiment","14","26592.0","27","1024"
"53","53","954","954","#3d3846","experiment","legacy","legacy","legacy","1","undefined","1","left","27","0","0","27","27","0","0","27","27","0","27","27","27","0","27","Sun Oct 15 17:45:32 2023","The main experiment item","True","Sternberg Task Elizabeth McGibbon .osexp","/Users/izzymcgibbon/Desktop/College/Tarleton State /2023 /Fall /Stats /3.0 ","False","mono","False","18","no","white","no","yes","768","legacy","15","11","/Users/izzymcgibbon/Desktop/College/Tarleton State /2023 /Fall /Stats /3.0 /EWMsubject-3.csv","legacy","9 4 2","Melodramatic Milgram","4.0.5","1","y","0","left","right","NA","","left","144.0","40297","NA","28911","144","2","legacy","3","1024","2","48000","-16","experiment","3","odd","9","249937","4034","NA","233326","247731","3881","157102","247733","246681","123754","248735","251942","252087","44365","251942","New experiment","15","26736.0","28","1024"
"55","55","943","943","#3d3846","experiment","legacy","legacy","legacy","1","undefined","1","left","28","0","0","28","28","0","0","28","28","0","28","28","28","0","28","Sun Oct 15 17:45:32 2023","The main experiment item","True","Sternberg Task Elizabeth McGibbon .osexp","/Users/izzymcgibbon/Desktop/College/Tarleton State /2023 /Fall /Stats /3.0 ","False","mono","False","18","no","white","no","yes","768","legacy","16","11","/Users/izzymcgibbon/Desktop/College/Tarleton State /2023 /Fall /Stats /3.0 /EWMsubject-3.csv","legacy","8 5 4 7 3 1","Melodramatic Milgram","4.0.5","2","y","0","left","right","NA","","left","632.0","40297","NA","28911","632","2","legacy","6","1024","2","48000","-16","experiment","3","odd","5","255350","4034","NA","252090","253141","3881","157102","253143","246681","123754","254145","257352","257985","44365","257352","New experiment","16","27368.0","29","1024"
"53","53","978","978","#3d3846","experiment","legacy","legacy","legacy","0","undefined","0","left","29","0","0","29","29","0","0","29","29","0","29","29","29","0","29","Sun Oct 15 17:45:32 2023","The main experiment item","True","Sternberg Task Elizabeth McGibbon .osexp","/Users/izzymcgibbon/Desktop/College/Tarleton State /2023 /Fall /Stats /3.0 ","False","mono","False","18","no","white","no","yes","768","legacy","17","11","/Users/izzymcgibbon/Desktop/College/Tarleton State /2023 /Fall /Stats /3.0 /EWMsubject-3.csv","legacy","8 9 5 6 7","Melodramatic Milgram","4.0.5","1","y","0","None","right","NA","","None","2000.0","40297","NA","28911","2000","2","legacy","5","1024","2","48000","-16","experiment","3","odd","8","261246","4034","NA","257989","259039","3881","157102","259042","246681","123754","260044","263249","265249","44365","263249","New experiment","16","29368.0","30","1024"
"51","51","1008","1008","#3d3846","experiment","legacy","legacy","legacy","0","undefined","0","left","30","0","0","30","30","0","0","30","30","0","30","30","30","0","30","Sun Oct 15 17:45:32 2023","The main experiment item","True","Sternberg Task Elizabeth McGibbon .osexp","/Users/izzymcgibbon/Desktop/College/Tarleton State /2023 /Fall /Stats /3.0 ","False","mono","False","18","no","white","no","yes","768","legacy","18","11","/Users/izzymcgibbon/Desktop/College/Tarleton State /2023 /Fall /Stats /3.0 /EWMsubject-3.csv","legacy","6 5","Melodramatic Milgram","4.0.5","2","y","0","right","right","NA","","right","1886.0","40297","NA","28911","1886","2","legacy","2","1024","2","48000","-16","experiment","3","odd","5","268520","4034","NA","257989","266314","3881","157102","266316","265253","123754","267318","270523","272410","44365","270523","New experiment","16","31254.0","31","1024"
"53","53","980","980","#3d3846","experiment","legacy","legacy","legacy","1","undefined","1","left","31","0","0","31","31","0","0","31","31","0","31","31","31","0","31","Sun Oct 15 17:45:32 2023","The main experiment item","True","Sternberg Task Elizabeth McGibbon .osexp","/Users/izzymcgibbon/Desktop/College/Tarleton State /2023 /Fall /Stats /3.0 ","False","mono","False","18","no","white","no","yes","768","legacy","19","11","/Users/izzymcgibbon/Desktop/College/Tarleton State /2023 /Fall /Stats /3.0 /EWMsubject-3.csv","legacy","9 6 2 4 1","Melodramatic Milgram","4.0.5","4","y","0","left","right","NA","","left","122.0","40297","NA","28911","122","2","legacy","5","1024","2","48000","-16","experiment","3","odd","4","275679","4034","NA","257989","273457","3881","157102","273462","272413","123754","274468","277690","277812","44365","277690","New experiment","17","31376.0","32","1024"
"54","54","969","969","#3d3846","experiment","legacy","legacy","legacy","1","undefined","1","left","32","0","0","32","32","0","0","32","32","0","32","32","32","0","32","Sun Oct 15 17:45:32 2023","The main experiment item","True","Sternberg Task Elizabeth McGibbon .osexp","/Users/izzymcgibbon/Desktop/College/Tarleton State /2023 /Fall /Stats /3.0 ","False","mono","False","18","no","white","no","yes","768","legacy","20","11","/Users/izzymcgibbon/Desktop/College/Tarleton State /2023 /Fall /Stats /3.0 /EWMsubject-3.csv","legacy","1 4 9 3 2 5","Melodramatic Milgram","4.0.5","3","y","0","left","right","NA","","left","624.0","40297","NA","28911","624","2","legacy","6","1024","2","48000","-16","experiment","3","odd","9","281073","4034","NA","277816","278860","3881","157102","278865","272413","123754","279871","283077","283702","44365","283077","New experiment","18","32000.0","33","1024"
"55","55","960","960","#3d3846","experiment","legacy","legacy","legacy","1","undefined","1","left","33","0","0","33","33","0","0","33","33","0","33","33","33","0","33","Sun Oct 15 17:45:32 2023","The main experiment item","True","Sternberg Task Elizabeth McGibbon .osexp","/Users/izzymcgibbon/Desktop/College/Tarleton State /2023 /Fall /Stats /3.0 ","False","mono","False","18","no","white","no","yes","768","legacy","21","11","/Users/izzymcgibbon/Desktop/College/Tarleton State /2023 /Fall /Stats /3.0 /EWMsubject-3.csv","legacy","6 9 3 1","Melodramatic Milgram","4.0.5","4","y","0","left","right","NA","","left","646.0","40297","NA","28911","646","2","legacy","4","1024","2","48000","-16","experiment","3","odd","1","286962","4034","NA","283704","284754","3881","157102","284756","272413","123754","285758","288964","289611","44365","288964","New experiment","19","32646.0","34","1024"
"57","57","951","951","#3d3846","experiment","legacy","legacy","legacy","1","undefined","1","right","34","0","0","34","34","0","0","34","34","0","34","34","34","0","34","Sun Oct 15 17:45:32 2023","The main experiment item","True","Sternberg Task Elizabeth McGibbon .osexp","/Users/izzymcgibbon/Desktop/College/Tarleton State /2023 /Fall /Stats /3.0 ","False","mono","False","18","no","white","no","yes","768","legacy","22","11","/Users/izzymcgibbon/Desktop/College/Tarleton State /2023 /Fall /Stats /3.0 /EWMsubject-3.csv","legacy","6 9 5","Melodramatic Milgram","4.0.5","0","n","0","right","right","NA","","right","672.0","40297","NA","28911","672","2","legacy","3","1024","2","48000","-16","experiment","3","odd","8","292871","4034","NA","289614","290664","3881","157102","290666","272413","123754","291669","294875","295548","44365","294874","New experiment","20","33318.0","35","1024"
"58","58","953","953","#3d3846","experiment","legacy","legacy","legacy","1","undefined","1","left","35","0","0","35","35","0","0","35","35","0","35","35","35","0","35","Sun Oct 15 17:45:32 2023","The main experiment item","True","Sternberg Task Elizabeth McGibbon .osexp","/Users/izzymcgibbon/Desktop/College/Tarleton State /2023 /Fall /Stats /3.0 ","False","mono","False","18","no","white","no","yes","768","legacy","23","11","/Users/izzymcgibbon/Desktop/College/Tarleton State /2023 /Fall /Stats /3.0 /EWMsubject-3.csv","legacy","7 1 3","Melodramatic Milgram","4.0.5","2","y","0","left","right","NA","","left","1002.0","40297","NA","28911","1002","2","legacy","3","1024","2","48000","-16","experiment","3","odd","1","298810","4034","NA","295552","296602","3881","157102","296604","272413","123754","297607","300812","301815","44365","300812","New experiment","21","34320.0","36","1024"
"59","59","943","943","#3d3846","experiment","legacy","legacy","legacy","1","undefined","1","right","36","0","0","36","36","0","0","36","36","0","36","36","36","0","36","Sun Oct 15 17:45:32 2023","The main experiment item","True","Sternberg Task Elizabeth McGibbon .osexp","/Users/izzymcgibbon/Desktop/College/Tarleton State /2023 /Fall /Stats /3.0 ","False","mono","False","18","no","white","no","yes","768","legacy","24","11","/Users/izzymcgibbon/Desktop/College/Tarleton State /2023 /Fall /Stats /3.0 /EWMsubject-3.csv","legacy","9 7 4 5 8","Melodramatic Milgram","4.0.5","0","n","0","right","right","NA","","right","606.0","40297","NA","28911","606","2","legacy","5","1024","2","48000","-16","experiment","3","odd","6","305088","4034","NA","301819","302879","3881","157102","302881","272413","123754","303885","307090","307697","44365","307090","New experiment","22","34926.0","37","1024"
"60","60","934","934","#3d3846","experiment","legacy","legacy","legacy","1","undefined","1","left","37","0","0","37","37","0","0","37","37","0","37","37","37","0","37","Sun Oct 15 17:45:32 2023","The main experiment item","True","Sternberg Task Elizabeth McGibbon .osexp","/Users/izzymcgibbon/Desktop/College/Tarleton State /2023 /Fall /Stats /3.0 ","False","mono","False","18","no","white","no","yes","768","legacy","25","11","/Users/izzymcgibbon/Desktop/College/Tarleton State /2023 /Fall /Stats /3.0 /EWMsubject-3.csv","legacy","9 5 8 1","Melodramatic Milgram","4.0.5","2","y","0","left","right","NA","","left","575.0","40297","NA","28911","575","2","legacy","4","1024","2","48000","-16","experiment","3","odd","5","310952","4034","NA","307700","308741","3881","157102","308743","272413","123754","309746","312955","313531","44365","312955","New experiment","23","35501.0","38","1024"
"61","61","927","927","#3d3846","experiment","legacy","legacy","legacy","1","undefined","1","left","38","0","0","38","38","0","0","38","38","0","38","38","38","0","38","Sun Oct 15 17:45:32 2023","The main experiment item","True","Sternberg Task Elizabeth McGibbon .osexp","/Users/izzymcgibbon/Desktop/College/Tarleton State /2023 /Fall /Stats /3.0 ","False","mono","False","18","no","white","no","yes","768","legacy","26","11","/Users/izzymcgibbon/Desktop/College/Tarleton State /2023 /Fall /Stats /3.0 /EWMsubject-3.csv","legacy","8 9 6 1","Melodramatic Milgram","4.0.5","2","y","0","left","right","NA","","left","666.0","40297","NA","28911","666","2","legacy","4","1024","2","48000","-16","experiment","3","odd","9","316786","4034","NA","313535","314579","3881","157102","314581","272413","123754","315584","318788","319455","44365","318788","New experiment","24","36167.0","39","1024"
"62","62","922","922","#3d3846","experiment","legacy","legacy","legacy","1","undefined","1","left","39","0","0","39","39","0","0","39","39","0","39","39","39","0","39","Sun Oct 15 17:45:32 2023","The main experiment item","True","Sternberg Task Elizabeth McGibbon .osexp","/Users/izzymcgibbon/Desktop/College/Tarleton State /2023 /Fall /Stats /3.0 ","False","mono","False","18","no","white","no","yes","768","legacy","27","11","/Users/izzymcgibbon/Desktop/College/Tarleton State /2023 /Fall /Stats /3.0 /EWMsubject-3.csv","legacy","2 3 7 4","Melodramatic Milgram","4.0.5","1","y","0","left","right","NA","","left","725.0","40297","NA","28911","725","2","legacy","4","1024","2","48000","-16","experiment","3","odd","2","322715","4034","NA","319458","320507","3881","157102","320509","272413","123754","321511","324717","325443","44365","324717","New experiment","25","36892.0","40","1024"
"63","63","913","913","#3d3846","experiment","legacy","legacy","legacy","1","undefined","1","right","40","0","0","40","40","0","0","40","40","0","40","40","40","0","40","Sun Oct 15 17:45:32 2023","The main experiment item","True","Sternberg Task Elizabeth McGibbon .osexp","/Users/izzymcgibbon/Desktop/College/Tarleton State /2023 /Fall /Stats /3.0 ","False","mono","False","18","no","white","no","yes","768","legacy","28","11","/Users/izzymcgibbon/Desktop/College/Tarleton State /2023 /Fall /Stats /3.0 /EWMsubject-3.csv","legacy","7 4 2 8 1 9","Melodramatic Milgram","4.0.5","0","n","0","right","right","NA","","right","558.0","40297","NA","28911","558","2","legacy","6","1024","2","48000","-16","experiment","3","odd","5","328701","4034","NA","325447","326495","3881","157102","326497","272413","123754","327499","330704","331263","44365","330704","New experiment","26","37450.0","41","1024"
"64","64","909","909","#3d3846","experiment","legacy","legacy","legacy","1","undefined","1","right","41","0","0","41","41","0","0","41","41","0","41","41","41","0","41","Sun Oct 15 17:45:32 2023","The main experiment item","True","Sternberg Task Elizabeth McGibbon .osexp","/Users/izzymcgibbon/Desktop/College/Tarleton State /2023 /Fall /Stats /3.0 ","False","mono","False","18","no","white","no","yes","768","legacy","29","11","/Users/izzymcgibbon/Desktop/College/Tarleton State /2023 /Fall /Stats /3.0 /EWMsubject-3.csv","legacy","8 4 3 5","Melodramatic Milgram","4.0.5","0","n","0","right","right","NA","","right","738.0","40297","NA","28911","738","2","legacy","4","1024","2","48000","-16","experiment","3","odd","6","334525","4034","NA","331266","332317","3881","157102","332319","272413","123754","333322","336527","337266","44365","336527","New experiment","27","38188.0","42","1024"
"65","65","901","901","#3d3846","experiment","legacy","legacy","legacy","1","undefined","1","left","42","0","0","42","42","0","0","42","42","0","42","42","42","0","42","Sun Oct 15 17:45:32 2023","The main experiment item","True","Sternberg Task Elizabeth McGibbon .osexp","/Users/izzymcgibbon/Desktop/College/Tarleton State /2023 /Fall /Stats /3.0 ","False","mono","False","18","no","white","no","yes","768","legacy","30","11","/Users/izzymcgibbon/Desktop/College/Tarleton State /2023 /Fall /Stats /3.0 /EWMsubject-3.csv","legacy","3 4","Melodramatic Milgram","4.0.5","1","y","0","left","right","NA","","left","592.0","40297","NA","28911","592","2","legacy","2","1024","2","48000","-16","experiment","3","odd","3","340538","4034","NA","337270","338331","3881","157102","338333","272413","123754","339335","342540","343133","44365","342540","New experiment","28","38780.0","43","1024"
"65","65","899","899","#3d3846","experiment","legacy","legacy","legacy","1","undefined","1","right","43","0","0","43","43","0","0","43","43","0","43","43","43","0","43","Sun Oct 15 17:45:32 2023","The main experiment item","True","Sternberg Task Elizabeth McGibbon .osexp","/Users/izzymcgibbon/Desktop/College/Tarleton State /2023 /Fall /Stats /3.0 ","False","mono","False","18","no","white","no","yes","768","legacy","31","11","/Users/izzymcgibbon/Desktop/College/Tarleton State /2023 /Fall /Stats /3.0 /EWMsubject-3.csv","legacy","2 3 8 5 6 7","Melodramatic Milgram","4.0.5","0","n","0","right","right","NA","","right","780.0","40297","NA","28911","780","2","legacy","6","1024","2","48000","-16","experiment","3","odd","1","346384","4034","NA","343137","344178","3881","157102","344180","272413","123754","345182","348386","349167","44365","348386","New experiment","29","39560.0","44","1024"
"66","66","895","895","#3d3846","experiment","legacy","legacy","legacy","1","undefined","1","right","44","0","0","44","44","0","0","44","44","0","44","44","44","0","44","Sun Oct 15 17:45:32 2023","The main experiment item","True","Sternberg Task Elizabeth McGibbon .osexp","/Users/izzymcgibbon/Desktop/College/Tarleton State /2023 /Fall /Stats /3.0 ","False","mono","False","18","no","white","no","yes","768","legacy","32","11","/Users/izzymcgibbon/Desktop/College/Tarleton State /2023 /Fall /Stats /3.0 /EWMsubject-3.csv","legacy","1 3 2 6 9","Melodramatic Milgram","4.0.5","0","n","0","right","right","NA","","right","724.0","40297","NA","28911","724","2","legacy","5","1024","2","48000","-16","experiment","3","odd","5","352423","4034","NA","349171","350216","3881","157102","350218","272413","123754","351220","354425","355150","44365","354425","New experiment","30","40284.0","45","1024"
"67","67","890","890","#3d3846","experiment","legacy","legacy","legacy","1","undefined","1","left","45","0","0","45","45","0","0","45","45","0","45","45","45","0","45","Sun Oct 15 17:45:32 2023","The main experiment item","True","Sternberg Task Elizabeth McGibbon .osexp","/Users/izzymcgibbon/Desktop/College/Tarleton State /2023 /Fall /Stats /3.0 ","False","mono","False","18","no","white","no","yes","768","legacy","33","11","/Users/izzymcgibbon/Desktop/College/Tarleton State /2023 /Fall /Stats /3.0 /EWMsubject-3.csv","legacy","9 5 3 8 4","Melodramatic Milgram","4.0.5","1","y","0","left","right","NA","","left","667.0","40297","NA","28911","667","2","legacy","5","1024","2","48000","-16","experiment","3","odd","9","358412","4034","NA","355154","356205","3881","157102","356206","272413","123754","357209","360414","361082","44365","360414","New experiment","31","40951.0","46","1024"
"68","68","886","886","#3d3846","experiment","legacy","legacy","legacy","1","undefined","1","right","46","0","0","46","46","0","0","46","46","0","46","46","46","0","46","Sun Oct 15 17:45:32 2023","The main experiment item","True","Sternberg Task Elizabeth McGibbon .osexp","/Users/izzymcgibbon/Desktop/College/Tarleton State /2023 /Fall /Stats /3.0 ","False","mono","False","18","no","white","no","yes","768","legacy","34","11","/Users/izzymcgibbon/Desktop/College/Tarleton State /2023 /Fall /Stats /3.0 /EWMsubject-3.csv","legacy","4 1","Melodramatic Milgram","4.0.5","0","n","0","right","right","NA","","right","699.0","40297","NA","28911","699","2","legacy","2","1024","2","48000","-16","experiment","3","odd","6","364343","4034","NA","361085","362135","3881","157102","362137","272413","123754","363140","366345","367045","44365","366345","New experiment","32","41650.0","47","1024"
"68","68","879","879","#3d3846","experiment","legacy","legacy","legacy","1","undefined","1","right","47","0","0","47","47","0","0","47","47","0","47","47","47","0","47","Sun Oct 15 17:45:32 2023","The main experiment item","True","Sternberg Task Elizabeth McGibbon .osexp","/Users/izzymcgibbon/Desktop/College/Tarleton State /2023 /Fall /Stats /3.0 ","False","mono","False","18","no","white","no","yes","768","legacy","35","11","/Users/izzymcgibbon/Desktop/College/Tarleton State /2023 /Fall /Stats /3.0 /EWMsubject-3.csv","legacy","1 4 9 3","Melodramatic Milgram","4.0.5","0","n","0","right","right","NA","","right","565.0","40297","NA","28911","565","2","legacy","4","1024","2","48000","-16","experiment","3","odd","5","370308","4034","NA","367049","368100","3881","157102","368102","272413","123754","369104","372311","372876","44365","372310","New experiment","33","42215.0","48","1024"
"69","69","871","871","#3d3846","experiment","legacy","legacy","legacy","1","undefined","1","right","48","0","0","48","48","0","0","48","48","0","48","48","48","0","48","Sun Oct 15 17:45:32 2023","The main experiment item","True","Sternberg Task Elizabeth McGibbon .osexp","/Users/izzymcgibbon/Desktop/College/Tarleton State /2023 /Fall /Stats /3.0 ","False","mono","False","18","no","white","no","yes","768","legacy","36","11","/Users/izzymcgibbon/Desktop/College/Tarleton State /2023 /Fall /Stats /3.0 /EWMsubject-3.csv","legacy","1 6 4","Melodramatic Milgram","4.0.5","0","n","0","right","right","NA","","right","483.0","40297","NA","28911","483","2","legacy","3","1024","2","48000","-16","experiment","3","odd","7","376150","4034","NA","372881","373942","3881","157102","373944","272413","123754","374947","378154","378638","44365","378154","New experiment","34","42698.0","49","1024"
"68","68","868","868","#3d3846","experiment","legacy","legacy","legacy","0","undefined","0","left","49","0","0","49","49","0","0","49","49","0","49","49","49","0","49","Sun Oct 15 17:45:32 2023","The main experiment item","True","Sternberg Task Elizabeth McGibbon .osexp","/Users/izzymcgibbon/Desktop/College/Tarleton State /2023 /Fall /Stats /3.0 ","False","mono","False","18","no","white","no","yes","768","legacy","37","11","/Users/izzymcgibbon/Desktop/College/Tarleton State /2023 /Fall /Stats /3.0 /EWMsubject-3.csv","legacy","8 5 1 3 9","Melodramatic Milgram","4.0.5","4","y","0","right","right","NA","","right","712.0","40297","NA","28911","712","2","legacy","5","1024","2","48000","-16","experiment","3","odd","3","381888","4034","NA","378641","379682","3881","157102","379684","272413","123754","380686","383892","384605","44365","383892","New experiment","34","43410.0","50","1024"
"66","66","890","890","#3d3846","experiment","legacy","legacy","legacy","0","undefined","0","right","50","0","0","50","50","0","0","50","50","0","50","50","50","0","50","Sun Oct 15 17:45:32 2023","The main experiment item","True","Sternberg Task Elizabeth McGibbon .osexp","/Users/izzymcgibbon/Desktop/College/Tarleton State /2023 /Fall /Stats /3.0 ","False","mono","False","18","no","white","no","yes","768","legacy","38","11","/Users/izzymcgibbon/Desktop/College/Tarleton State /2023 /Fall /Stats /3.0 /EWMsubject-3.csv","legacy","1 6 4 3 9 7","Melodramatic Milgram","4.0.5","0","n","0","None","right","NA","","None","2000.0","40297","NA","28911","2000","2","legacy","6","1024","2","48000","-16","experiment","3","odd","8","387861","4034","NA","378641","385654","3881","157102","385656","384609","123754","386659","389864","391864","44365","389864","New experiment","34","45410.0","51","1024"
"65","65","911","911","#3d3846","experiment","legacy","legacy","legacy","0","undefined","0","right","51","0","0","51","51","0","0","51","51","0","51","51","51","0","51","Sun Oct 15 17:45:32 2023","The main experiment item","True","Sternberg Task Elizabeth McGibbon .osexp","/Users/izzymcgibbon/Desktop/College/Tarleton State /2023 /Fall /Stats /3.0 ","False","mono","False","18","no","white","no","yes","768","legacy","39","11","/Users/izzymcgibbon/Desktop/College/Tarleton State /2023 /Fall /Stats /3.0 /EWMsubject-3.csv","legacy","9 5 3 2 8 6","Melodramatic Milgram","4.0.5","0","n","0","None","right","NA","","None","2000.0","40297","NA","28911","2000","2","legacy","6","1024","2","48000","-16","experiment","3","odd","7","395126","4034","NA","378641","392918","3881","157102","392920","391868","123754","393923","397128","399128","44365","397128","New experiment","34","47410.0","52","1024"
"66","66","903","903","#3d3846","experiment","legacy","legacy","legacy","1","undefined","1","left","52","0","0","52","52","0","0","52","52","0","52","52","52","0","52","Sun Oct 15 17:45:32 2023","The main experiment item","True","Sternberg Task Elizabeth McGibbon .osexp","/Users/izzymcgibbon/Desktop/College/Tarleton State /2023 /Fall /Stats /3.0 ","False","mono","False","18","no","white","no","yes","768","legacy","40","11","/Users/izzymcgibbon/Desktop/College/Tarleton State /2023 /Fall /Stats /3.0 /EWMsubject-3.csv","legacy","7 1 8 5 6 2","Melodramatic Milgram","4.0.5","2","y","0","left","right","NA","","left","474.0","40297","NA","28911","474","2","legacy","6","1024","2","48000","-16","experiment","3","odd","1","402388","4034","NA","378641","400182","3881","157102","400184","399132","123754","401186","404391","404866","44365","404391","New experiment","35","47884.0","53","1024"
"66","66","891","891","#3d3846","experiment","legacy","legacy","legacy","1","undefined","1","right","53","0","0","53","53","0","0","53","53","0","53","53","53","0","53","Sun Oct 15 17:45:32 2023","The main experiment item","True","Sternberg Task Elizabeth McGibbon .osexp","/Users/izzymcgibbon/Desktop/College/Tarleton State /2023 /Fall /Stats /3.0 ","False","mono","False","18","no","white","no","yes","768","legacy","41","11","/Users/izzymcgibbon/Desktop/College/Tarleton State /2023 /Fall /Stats /3.0 /EWMsubject-3.csv","legacy","1 7 5 2 9","Melodramatic Milgram","4.0.5","0","n","0","right","right","NA","","right","264.0","40297","NA","28911","264","2","legacy","5","1024","2","48000","-16","experiment","3","odd","3","408126","4034","NA","404869","405919","3881","157102","405921","399132","123754","406923","410130","410395","44365","410130","New experiment","36","48148.0","54","1024"
"67","67","888","888","#3d3846","experiment","legacy","legacy","legacy","1","undefined","1","right","54","0","0","54","54","0","0","54","54","0","54","54","54","0","54","Sun Oct 15 17:45:32 2023","The main experiment item","True","Sternberg Task Elizabeth McGibbon .osexp","/Users/izzymcgibbon/Desktop/College/Tarleton State /2023 /Fall /Stats /3.0 ","False","mono","False","18","no","white","no","yes","768","legacy","42","11","/Users/izzymcgibbon/Desktop/College/Tarleton State /2023 /Fall /Stats /3.0 /EWMsubject-3.csv","legacy","1 8 7","Melodramatic Milgram","4.0.5","0","n","0","right","right","NA","","right","707.0","40297","NA","28911","707","2","legacy","3","1024","2","48000","-16","experiment","3","odd","4","413668","4034","NA","410399","411460","3881","157102","411462","399132","123754","412464","415671","416379","44365","415671","New experiment","37","48855.0","55","1024"
"66","66","889","889","#3d3846","experiment","legacy","legacy","legacy","0","undefined","0","right","55","0","0","55","55","0","0","55","55","0","55","55","55","0","55","Sun Oct 15 17:45:32 2023","The main experiment item","True","Sternberg Task Elizabeth McGibbon .osexp","/Users/izzymcgibbon/Desktop/College/Tarleton State /2023 /Fall /Stats /3.0 ","False","mono","False","18","no","white","no","yes","768","legacy","43","11","/Users/izzymcgibbon/Desktop/College/Tarleton State /2023 /Fall /Stats /3.0 /EWMsubject-3.csv","legacy","5 3 2 6 9 8","Melodramatic Milgram","4.0.5","0","n","0","left","right","NA","","left","959.0","40297","NA","28911","959","2","legacy","6","1024","2","48000","-16","experiment","3","odd","4","419630","4034","NA","416382","417424","3881","157102","417426","399132","123754","418428","421632","422591","44365","421632","New experiment","37","49814.0","56","1024"
"66","66","876","876","#3d3846","experiment","legacy","legacy","legacy","1","undefined","1","right","56","0","0","56","56","0","0","56","56","0","56","56","56","0","56","Sun Oct 15 17:45:32 2023","The main experiment item","True","Sternberg Task Elizabeth McGibbon .osexp","/Users/izzymcgibbon/Desktop/College/Tarleton State /2023 /Fall /Stats /3.0 ","False","mono","False","18","no","white","no","yes","768","legacy","44","11","/Users/izzymcgibbon/Desktop/College/Tarleton State /2023 /Fall /Stats /3.0 /EWMsubject-3.csv","legacy","7 1 8 4 9 3","Melodramatic Milgram","4.0.5","0","n","0","right","right","NA","","right","155.0","40297","NA","28911","155","2","legacy","6","1024","2","48000","-16","experiment","3","odd","6","425854","4034","NA","416382","423641","3881","157102","423644","422595","123754","424649","427859","428015","44365","427859","New experiment","38","49969.0","57","1024"
"65","65","866","866","#3d3846","experiment","legacy","legacy","legacy","0","undefined","0","right","57","0","0","57","57","0","0","57","57","0","57","57","57","0","57","Sun Oct 15 17:45:32 2023","The main experiment item","True","Sternberg Task Elizabeth McGibbon .osexp","/Users/izzymcgibbon/Desktop/College/Tarleton State /2023 /Fall /Stats /3.0 ","False","mono","False","18","no","white","no","yes","768","legacy","45","11","/Users/izzymcgibbon/Desktop/College/Tarleton State /2023 /Fall /Stats /3.0 /EWMsubject-3.csv","legacy","1","Melodramatic Milgram","4.0.5","0","n","0","left","right","NA","","left","304.0","40297","NA","28911","304","2","legacy","1","1024","2","48000","-16","experiment","3","odd","7","431283","4034","NA","428019","429068","3881","157102","429071","422595","123754","430077","433292","433597","44365","433292","New experiment","38","50273.0","58","1024"
"66","66","855","855","#3d3846","experiment","legacy","legacy","legacy","1","undefined","1","right","58","0","0","58","58","0","0","58","58","0","58","58","58","0","58","Sun Oct 15 17:45:32 2023","The main experiment item","True","Sternberg Task Elizabeth McGibbon .osexp","/Users/izzymcgibbon/Desktop/College/Tarleton State /2023 /Fall /Stats /3.0 ","False","mono","False","18","no","white","no","yes","768","legacy","46","11","/Users/izzymcgibbon/Desktop/College/Tarleton State /2023 /Fall /Stats /3.0 /EWMsubject-3.csv","legacy","8 5 7 3 6","Melodramatic Milgram","4.0.5","0","n","0","right","right","NA","","right","190.0","40297","NA","28911","190","2","legacy","5","1024","2","48000","-16","experiment","3","odd","9","436870","4034","NA","428019","434656","3881","157102","434661","433601","123754","435666","438876","439067","44365","438876","New experiment","39","50463.0","59","1024"
"66","66","846","846","#3d3846","experiment","legacy","legacy","legacy","1","undefined","1","right","59","0","0","59","59","0","0","59","59","0","59","59","59","0","59","Sun Oct 15 17:45:32 2023","The main experiment item","True","Sternberg Task Elizabeth McGibbon .osexp","/Users/izzymcgibbon/Desktop/College/Tarleton State /2023 /Fall /Stats /3.0 ","False","mono","False","18","no","white","no","yes","768","legacy","47","11","/Users/izzymcgibbon/Desktop/College/Tarleton State /2023 /Fall /Stats /3.0 /EWMsubject-3.csv","legacy","3 4 9 6 7 8","Melodramatic Milgram","4.0.5","0","n","0","right","right","NA","","right","315.0","40297","NA","28911","315","2","legacy","6","1024","2","48000","-16","experiment","3","odd","2","442338","4034","NA","439072","440123","3881","157102","440126","433601","123754","441131","444344","444660","44365","444344","New experiment","40","50778.0","60","1024"
"65","65","835","835","#3d3846","experiment","legacy","legacy","legacy","0","undefined","0","left","60","0","0","60","60","0","0","60","60","0","60","60","60","0","60","Sun Oct 15 17:45:32 2023","The main experiment item","True","Sternberg Task Elizabeth McGibbon .osexp","/Users/izzymcgibbon/Desktop/College/Tarleton State /2023 /Fall /Stats /3.0 ","False","mono","False","18","no","white","no","yes","768","legacy","48","11","/Users/izzymcgibbon/Desktop/College/Tarleton State /2023 /Fall /Stats /3.0 /EWMsubject-3.csv","legacy","9 3 1 2 5","Melodramatic Milgram","4.0.5","4","y","0","right","right","NA","","right","158.0","40297","NA","28911","158","2","legacy","5","1024","2","48000","-16","experiment","3","odd","2","447939","4034","NA","444664","445724","3881","157102","445729","433601","123754","446734","449948","450107","44365","449948","New experiment","40","50936.0","61","1024"
"66","66","826","826","#3d3846","experiment","legacy","legacy","legacy","1","undefined","1","right","61","0","0","61","61","0","0","61","61","0","61","61","61","0","61","Sun Oct 15 17:45:32 2023","The main experiment item","True","Sternberg Task Elizabeth McGibbon .osexp","/Users/izzymcgibbon/Desktop/College/Tarleton State /2023 /Fall /Stats /3.0 ","False","mono","False","18","no","white","no","yes","768","legacy","49","11","/Users/izzymcgibbon/Desktop/College/Tarleton State /2023 /Fall /Stats /3.0 /EWMsubject-3.csv","legacy","8 2 1 4 5 9","Melodramatic Milgram","4.0.5","0","n","0","right","right","NA","","right","290.0","40297","NA","28911","290","2","legacy","6","1024","2","48000","-16","experiment","3","odd","7","453365","4034","NA","444664","451152","3881","157102","451155","450111","123754","452160","455372","455663","44365","455372","New experiment","41","51226.0","62","1024"
"65","65","813","813","#3d3846","experiment","legacy","legacy","legacy","0","undefined","0","right","62","0","0","62","62","0","0","62","62","0","62","62","62","0","62","Sun Oct 15 17:45:32 2023","The main experiment item","True","Sternberg Task Elizabeth McGibbon .osexp","/Users/izzymcgibbon/Desktop/College/Tarleton State /2023 /Fall /Stats /3.0 ","False","mono","False","18","no","white","no","yes","768","legacy","50","11","/Users/izzymcgibbon/Desktop/College/Tarleton State /2023 /Fall /Stats /3.0 /EWMsubject-3.csv","legacy","4 2 7 6 1 3","Melodramatic Milgram","4.0.5","0","n","0","left","right","NA","","left","43.0","40297","NA","28911","43","2","legacy","6","1024","2","48000","-16","experiment","3","odd","8","458924","4034","NA","455666","456710","3881","157102","456713","450111","123754","457719","460929","460973","44365","460928","New experiment","41","51269.0","63","1024"
"65","65","810","810","#3d3846","experiment","legacy","legacy","legacy","1","undefined","1","left","63","0","0","63","63","0","0","63","63","0","63","63","63","0","63","Sun Oct 15 17:45:32 2023","The main experiment item","True","Sternberg Task Elizabeth McGibbon .osexp","/Users/izzymcgibbon/Desktop/College/Tarleton State /2023 /Fall /Stats /3.0 ","False","mono","False","18","no","white","no","yes","768","legacy","51","11","/Users/izzymcgibbon/Desktop/College/Tarleton State /2023 /Fall /Stats /3.0 /EWMsubject-3.csv","legacy","4 9 7 8 5 3","Melodramatic Milgram","4.0.5","4","y","0","left","right","NA","","left","584.0","40297","NA","28911","584","2","legacy","6","1024","2","48000","-16","experiment","3","odd","8","464239","4034","NA","455666","462026","3881","157102","462029","460976","123754","463034","466241","466826","44365","466241","New experiment","42","51853.0","64","1024"
"64","64","815","815","#3d3846","experiment","legacy","legacy","legacy","0","undefined","0","left","64","0","0","64","64","0","0","64","64","0","64","64","64","0","64","Sun Oct 15 17:45:32 2023","The main experiment item","True","Sternberg Task Elizabeth McGibbon .osexp","/Users/izzymcgibbon/Desktop/College/Tarleton State /2023 /Fall /Stats /3.0 ","False","mono","False","18","no","white","no","yes","768","legacy","52","11","/Users/izzymcgibbon/Desktop/College/Tarleton State /2023 /Fall /Stats /3.0 /EWMsubject-3.csv","legacy","8 5 3 7 4 6","Melodramatic Milgram","4.0.5","6","y","0","right","right","NA","","right","1163.0","40297","NA","28911","1163","2","legacy","6","1024","2","48000","-16","experiment","3","odd","6","470089","4034","NA","466829","467878","3881","157102","467880","460976","123754","468884","472092","473256","44365","472092","New experiment","42","53016.0","65","1024"
"63","63","804","804","#3d3846","experiment","legacy","legacy","legacy","0","undefined","0","left","65","0","0","65","65","0","0","65","65","0","65","65","65","0","65","Sun Oct 15 17:45:32 2023","The main experiment item","True","Sternberg Task Elizabeth McGibbon .osexp","/Users/izzymcgibbon/Desktop/College/Tarleton State /2023 /Fall /Stats /3.0 ","False","mono","False","18","no","white","no","yes","768","legacy","53","11","/Users/izzymcgibbon/Desktop/College/Tarleton State /2023 /Fall /Stats /3.0 /EWMsubject-3.csv","legacy","8 3","Melodramatic Milgram","4.0.5","2","y","0","right","right","NA","","right","97.0","40297","NA","28911","97","2","legacy","2","1024","2","48000","-16","experiment","3","odd","3","476528","4034","NA","466829","474310","3881","157102","474315","473260","123754","475321","478533","478631","44365","478532","New experiment","42","53113.0","66","1024"
"64","64","795","795","#3d3846","experiment","legacy","legacy","legacy","1","undefined","1","right","66","0","0","66","66","0","0","66","66","0","66","66","66","0","66","Sun Oct 15 17:45:32 2023","The main experiment item","True","Sternberg Task Elizabeth McGibbon .osexp","/Users/izzymcgibbon/Desktop/College/Tarleton State /2023 /Fall /Stats /3.0 ","False","mono","False","18","no","white","no","yes","768","legacy","54","11","/Users/izzymcgibbon/Desktop/College/Tarleton State /2023 /Fall /Stats /3.0 /EWMsubject-3.csv","legacy","9 8 2 7 4","Melodramatic Milgram","4.0.5","0","n","0","right","right","NA","","right","184.0","40297","NA","28911","184","2","legacy","5","1024","2","48000","-16","experiment","3","odd","5","481945","4034","NA","466829","479724","3881","157102","479728","478635","123754","480736","483951","484136","44365","483951","New experiment","43","53297.0","67","1024"
"63","63","785","785","#3d3846","experiment","legacy","legacy","legacy","0","undefined","0","right","67","0","0","67","67","0","0","67","67","0","67","67","67","0","67","Sun Oct 15 17:45:32 2023","The main experiment item","True","Sternberg Task Elizabeth McGibbon .osexp","/Users/izzymcgibbon/Desktop/College/Tarleton State /2023 /Fall /Stats /3.0 ","False","mono","False","18","no","white","no","yes","768","legacy","55","11","/Users/izzymcgibbon/Desktop/College/Tarleton State /2023 /Fall /Stats /3.0 /EWMsubject-3.csv","legacy","6 2 9 3 8 4","Melodramatic Milgram","4.0.5","0","n","0","left","right","NA","","left","131.0","40297","NA","28911","131","2","legacy","6","1024","2","48000","-16","experiment","3","odd","1","487394","4034","NA","484140","485181","3881","157102","485185","478635","123754","486190","489399","489531","44365","489398","New experiment","43","53428.0","68","1024"
"63","63","786","786","#3d3846","experiment","legacy","legacy","legacy","1","undefined","1","right","68","0","0","68","68","0","0","68","68","0","68","68","68","0","68","Sun Oct 15 17:45:32 2023","The main experiment item","True","Sternberg Task Elizabeth McGibbon .osexp","/Users/izzymcgibbon/Desktop/College/Tarleton State /2023 /Fall /Stats /3.0 ","False","mono","False","18","no","white","no","yes","768","legacy","56","11","/Users/izzymcgibbon/Desktop/College/Tarleton State /2023 /Fall /Stats /3.0 /EWMsubject-3.csv","legacy","1 7 8 3 9","Melodramatic Milgram","4.0.5","0","n","0","right","right","NA","","right","818.0","40297","NA","28911","818","2","legacy","5","1024","2","48000","-16","experiment","3","odd","2","492787","4034","NA","484140","490579","3881","157102","490582","489534","123754","491584","494791","495610","44365","494791","New experiment","44","54246.0","69","1024"
"64","64","782","782","#3d3846","experiment","legacy","legacy","legacy","1","undefined","1","left","69","0","0","69","69","0","0","69","69","0","69","69","69","0","69","Sun Oct 15 17:45:32 2023","The main experiment item","True","Sternberg Task Elizabeth McGibbon .osexp","/Users/izzymcgibbon/Desktop/College/Tarleton State /2023 /Fall /Stats /3.0 ","False","mono","False","18","no","white","no","yes","768","legacy","57","11","/Users/izzymcgibbon/Desktop/College/Tarleton State /2023 /Fall /Stats /3.0 /EWMsubject-3.csv","legacy","6 7 9 3 1 2","Melodramatic Milgram","4.0.5","1","y","0","left","right","NA","","left","551.0","40297","NA","28911","551","2","legacy","6","1024","2","48000","-16","experiment","3","odd","6","498870","4034","NA","495614","496664","3881","157102","496666","489534","123754","497668","500873","501425","44365","500873","New experiment","45","54797.0","70","1024"
"64","64","784","784","#3d3846","experiment","legacy","legacy","legacy","1","undefined","1","right","70","0","0","70","70","0","0","70","70","0","70","70","70","0","70","Sun Oct 15 17:45:32 2023","The main experiment item","True","Sternberg Task Elizabeth McGibbon .osexp","/Users/izzymcgibbon/Desktop/College/Tarleton State /2023 /Fall /Stats /3.0 ","False","mono","False","18","no","white","no","yes","768","legacy","58","11","/Users/izzymcgibbon/Desktop/College/Tarleton State /2023 /Fall /Stats /3.0 /EWMsubject-3.csv","legacy","7 9","Melodramatic Milgram","4.0.5","0","n","0","right","right","NA","","right","878.0","40297","NA","28911","878","2","legacy","2","1024","2","48000","-16","experiment","3","odd","1","504685","4034","NA","501428","502477","3881","157102","502479","489534","123754","503482","506688","507567","44365","506687","New experiment","46","55675.0","71","1024"
"65","65","782","782","#3d3846","experiment","legacy","legacy","legacy","1","undefined","1","left","71","0","0","71","71","0","0","71","71","0","71","71","71","0","71","Sun Oct 15 17:45:32 2023","The main experiment item","True","Sternberg Task Elizabeth McGibbon .osexp","/Users/izzymcgibbon/Desktop/College/Tarleton State /2023 /Fall /Stats /3.0 ","False","mono","False","18","no","white","no","yes","768","legacy","59","11","/Users/izzymcgibbon/Desktop/College/Tarleton State /2023 /Fall /Stats /3.0 /EWMsubject-3.csv","legacy","6 8 9 3 4 9","Melodramatic Milgram","4.0.5","5","y","0","left","right","NA","","left","682.0","40297","NA","28911","682","2","legacy","6","1024","2","48000","-16","experiment","3","odd","4","510827","4034","NA","507571","508621","3881","157102","508623","489534","123754","509625","512830","513513","44365","512830","New experiment","47","56357.0","72","1024"
"65","65","781","781","#3d3846","experiment","legacy","legacy","legacy","1","undefined","1","left","72","0","0","72","72","0","0","72","72","0","72","72","72","0","72","Sun Oct 15 17:45:32 2023","The main experiment item","True","Sternberg Task Elizabeth McGibbon .osexp","/Users/izzymcgibbon/Desktop/College/Tarleton State /2023 /Fall /Stats /3.0 ","False","mono","False","18","no","white","no","yes","768","legacy","60","11","/Users/izzymcgibbon/Desktop/College/Tarleton State /2023 /Fall /Stats /3.0 /EWMsubject-3.csv","legacy","9 1 7 2","Melodramatic Milgram","4.0.5","2","y","0","left","right","NA","","left","666.0","40297","NA","28911","666","2","legacy","4","1024","2","48000","-16","experiment","3","odd","1","516785","4034","NA","513516","514577","3881","157102","514579","489534","123754","515582","518788","519455","44365","518787","New experiment","48","57023.0","73","1024"
"66","66","779","779","#3d3846","experiment","legacy","legacy","legacy","1","undefined","1","right","73","0","0","73","73","0","0","73","73","0","73","73","73","0","73","Sun Oct 15 17:45:32 2023","The main experiment item","True","Sternberg Task Elizabeth McGibbon .osexp","/Users/izzymcgibbon/Desktop/College/Tarleton State /2023 /Fall /Stats /3.0 ","False","mono","False","18","no","white","no","yes","768","legacy","61","11","/Users/izzymcgibbon/Desktop/College/Tarleton State /2023 /Fall /Stats /3.0 /EWMsubject-3.csv","legacy","2 8 9 4 1","Melodramatic Milgram","4.0.5","0","n","0","right","right","NA","","right","669.0","40297","NA","28911","669","2","legacy","5","1024","2","48000","-16","experiment","3","odd","5","522704","4034","NA","519458","520496","3881","157102","520498","489534","123754","521502","524706","525376","44365","524706","New experiment","49","57692.0","74","1024"
"66","66","776","776","#3d3846","experiment","legacy","legacy","legacy","1","undefined","1","left","74","0","0","74","74","0","0","74","74","0","74","74","74","0","74","Sun Oct 15 17:45:32 2023","The main experiment item","True","Sternberg Task Elizabeth McGibbon .osexp","/Users/izzymcgibbon/Desktop/College/Tarleton State /2023 /Fall /Stats /3.0 ","False","mono","False","18","no","white","no","yes","768","legacy","62","11","/Users/izzymcgibbon/Desktop/College/Tarleton State /2023 /Fall /Stats /3.0 /EWMsubject-3.csv","legacy","9 8 4","Melodramatic Milgram","4.0.5","1","y","0","left","right","NA","","left","528.0","40297","NA","28911","528","2","legacy","3","1024","2","48000","-16","experiment","3","odd","9","528631","4034","NA","525380","526425","3881","157102","526426","489534","123754","527429","530633","531162","44365","530633","New experiment","50","58220.0","75","1024"
"67","67","773","773","#3d3846","experiment","legacy","legacy","legacy","1","undefined","1","right","75","0","0","75","75","0","0","75","75","0","75","75","75","0","75","Sun Oct 15 17:45:32 2023","The main experiment item","True","Sternberg Task Elizabeth McGibbon .osexp","/Users/izzymcgibbon/Desktop/College/Tarleton State /2023 /Fall /Stats /3.0 ","False","mono","False","18","no","white","no","yes","768","legacy","63","11","/Users/izzymcgibbon/Desktop/College/Tarleton State /2023 /Fall /Stats /3.0 /EWMsubject-3.csv","legacy","8 5 4 2 9 6","Melodramatic Milgram","4.0.5","0","n","0","right","right","NA","","right","568.0","40297","NA","28911","568","2","legacy","6","1024","2","48000","-16","experiment","3","odd","3","534422","4034","NA","531166","532216","3881","157102","532218","489534","123754","533220","536425","536994","44365","536425","New experiment","51","58788.0","76","1024"
"66","66","769","769","#3d3846","experiment","legacy","legacy","legacy","0","undefined","0","right","76","0","0","76","76","0","0","76","76","0","76","76","76","0","76","Sun Oct 15 17:45:32 2023","The main experiment item","True","Sternberg Task Elizabeth McGibbon .osexp","/Users/izzymcgibbon/Desktop/College/Tarleton State /2023 /Fall /Stats /3.0 ","False","mono","False","18","no","white","no","yes","768","legacy","64","11","/Users/izzymcgibbon/Desktop/College/Tarleton State /2023 /Fall /Stats /3.0 /EWMsubject-3.csv","legacy","4 8 1 2","Melodramatic Milgram","4.0.5","0","n","0","left","right","NA","","left","457.0","40297","NA","28911","457","2","legacy","4","1024","2","48000","-16","experiment","3","odd","7","540254","4034","NA","536997","538046","3881","157102","538048","489534","123754","539051","542256","542714","44365","542256","New experiment","51","59245.0","77","1024"
"66","66","766","766","#3d3846","experiment","legacy","legacy","legacy","1","undefined","1","right","77","0","0","77","77","0","0","77","77","0","77","77","77","0","77","Sun Oct 15 17:45:32 2023","The main experiment item","True","Sternberg Task Elizabeth McGibbon .osexp","/Users/izzymcgibbon/Desktop/College/Tarleton State /2023 /Fall /Stats /3.0 ","False","mono","False","18","no","white","no","yes","768","legacy","65","11","/Users/izzymcgibbon/Desktop/College/Tarleton State /2023 /Fall /Stats /3.0 /EWMsubject-3.csv","legacy","2 5 1 4","Melodramatic Milgram","4.0.5","0","n","0","right","right","NA","","right","562.0","40297","NA","28911","562","2","legacy","4","1024","2","48000","-16","experiment","3","odd","6","545975","4034","NA","536997","543767","3881","157102","543770","542717","123754","544773","547978","548541","44365","547978","New experiment","52","59807.0","78","1024"
"65","65","758","758","#3d3846","experiment","legacy","legacy","legacy","0","undefined","0","right","78","0","0","78","78","0","0","78","78","0","78","78","78","0","78","Sun Oct 15 17:45:32 2023","The main experiment item","True","Sternberg Task Elizabeth McGibbon .osexp","/Users/izzymcgibbon/Desktop/College/Tarleton State /2023 /Fall /Stats /3.0 ","False","mono","False","18","no","white","no","yes","768","legacy","66","11","/Users/izzymcgibbon/Desktop/College/Tarleton State /2023 /Fall /Stats /3.0 /EWMsubject-3.csv","legacy","6 8 4","Melodramatic Milgram","4.0.5","0","n","0","left","right","NA","","left","134.0","40297","NA","28911","134","2","legacy","3","1024","2","48000","-16","experiment","3","odd","1","551813","4034","NA","548545","549604","3881","157102","549607","542717","123754","550610","553816","553951","44365","553815","New experiment","52","59941.0","79","1024"
"65","65","758","758","#3d3846","experiment","legacy","legacy","legacy","0","undefined","0","left","79","0","0","79","79","0","0","79","79","0","79","79","79","0","79","Sun Oct 15 17:45:32 2023","The main experiment item","True","Sternberg Task Elizabeth McGibbon .osexp","/Users/izzymcgibbon/Desktop/College/Tarleton State /2023 /Fall /Stats /3.0 ","False","mono","False","18","no","white","no","yes","768","legacy","67","11","/Users/izzymcgibbon/Desktop/College/Tarleton State /2023 /Fall /Stats /3.0 /EWMsubject-3.csv","legacy","3 5 7 1","Melodramatic Milgram","4.0.5","3","y","0","right","right","NA","","right","710.0","40297","NA","28911","710","2","legacy","4","1024","2","48000","-16","experiment","3","odd","7","557203","4034","NA","548545","554996","3881","157102","554998","553955","123754","556001","559206","559917","44365","559206","New experiment","52","60651.0","80","1024"
"64","64","753","753","#3d3846","experiment","legacy","legacy","legacy","0","undefined","0","left","80","0","0","80","80","0","0","80","80","0","80","80","80","0","80","Sun Oct 15 17:45:32 2023","The main experiment item","True","Sternberg Task Elizabeth McGibbon .osexp","/Users/izzymcgibbon/Desktop/College/Tarleton State /2023 /Fall /Stats /3.0 ","False","mono","False","18","no","white","no","yes","768","legacy","68","11","/Users/izzymcgibbon/Desktop/College/Tarleton State /2023 /Fall /Stats /3.0 /EWMsubject-3.csv","legacy","2 8 5 1","Melodramatic Milgram","4.0.5","4","y","0","right","right","NA","","right","366.0","40297","NA","28911","366","2","legacy","4","1024","2","48000","-16","experiment","3","odd","1","563174","4034","NA","548545","560966","3881","157102","560968","559920","123754","561971","565180","565547","44365","565179","New experiment","52","61017.0","81","1024"
"64","64","744","744","#3d3846","experiment","legacy","legacy","legacy","1","undefined","1","left","81","0","0","81","81","0","0","81","81","0","81","81","81","0","81","Sun Oct 15 17:45:32 2023","The main experiment item","True","Sternberg Task Elizabeth McGibbon .osexp","/Users/izzymcgibbon/Desktop/College/Tarleton State /2023 /Fall /Stats /3.0 ","False","mono","False","18","no","white","no","yes","768","legacy","69","11","/Users/izzymcgibbon/Desktop/College/Tarleton State /2023 /Fall /Stats /3.0 /EWMsubject-3.csv","legacy","7 8 4 6 9 5","Melodramatic Milgram","4.0.5","4","y","0","left","right","NA","","left","23.0","40297","NA","28911","23","2","legacy","6","1024","2","48000","-16","experiment","3","odd","6","568814","4034","NA","548545","566601","3881","157102","566606","565551","123754","567609","570820","570844","44365","570820","New experiment","53","61040.0","82","1024"
"65","65","739","739","#3d3846","experiment","legacy","legacy","legacy","1","undefined","1","left","82","0","0","82","82","0","0","82","82","0","82","82","82","0","82","Sun Oct 15 17:45:32 2023","The main experiment item","True","Sternberg Task Elizabeth McGibbon .osexp","/Users/izzymcgibbon/Desktop/College/Tarleton State /2023 /Fall /Stats /3.0 ","False","mono","False","18","no","white","no","yes","768","legacy","70","11","/Users/izzymcgibbon/Desktop/College/Tarleton State /2023 /Fall /Stats /3.0 /EWMsubject-3.csv","legacy","5 7 8 2 3 8","Melodramatic Milgram","4.0.5","5","y","0","left","right","NA","","left","331.0","40297","NA","28911","331","2","legacy","6","1024","2","48000","-16","experiment","3","odd","3","574111","4034","NA","570847","571898","3881","157102","571901","565551","123754","572906","576117","576449","44365","576117","New experiment","54","61371.0","83","1024"
"64","64","734","734","#3d3846","experiment","legacy","legacy","legacy","0","undefined","0","right","83","0","0","83","83","0","0","83","83","0","83","83","83","0","83","Sun Oct 15 17:45:32 2023","The main experiment item","True","Sternberg Task Elizabeth McGibbon .osexp","/Users/izzymcgibbon/Desktop/College/Tarleton State /2023 /Fall /Stats /3.0 ","False","mono","False","18","no","white","no","yes","768","legacy","71","11","/Users/izzymcgibbon/Desktop/College/Tarleton State /2023 /Fall /Stats /3.0 /EWMsubject-3.csv","legacy","6 9 4 5 2","Melodramatic Milgram","4.0.5","0","n","0","left","right","NA","","left","323.0","40297","NA","28911","323","2","legacy","5","1024","2","48000","-16","experiment","3","odd","1","579713","4034","NA","576453","577500","3881","157102","577504","565551","123754","578508","581720","582044","44365","581720","New experiment","54","61694.0","84","1024"
"64","64","729","729","#3d3846","experiment","legacy","legacy","legacy","1","undefined","1","right","84","0","0","84","84","0","0","84","84","0","84","84","84","0","84","Sun Oct 15 17:45:32 2023","The main experiment item","True","Sternberg Task Elizabeth McGibbon .osexp","/Users/izzymcgibbon/Desktop/College/Tarleton State /2023 /Fall /Stats /3.0 ","False","mono","False","18","no","white","no","yes","768","legacy","72","11","/Users/izzymcgibbon/Desktop/College/Tarleton State /2023 /Fall /Stats /3.0 /EWMsubject-3.csv","legacy","6 9 4 5 3 2","Melodramatic Milgram","4.0.5","0","n","0","right","right","NA","","right","289.0","40297","NA","28911","289","2","legacy","6","1024","2","48000","-16","experiment","3","odd","8","585322","4034","NA","576453","583107","3881","157102","583110","582048","123754","584115","587328","587618","44365","587327","New experiment","55","61983.0","85","1024"
"63","63","722","722","#3d3846","experiment","legacy","legacy","legacy","0","undefined","0","right","85","0","0","85","85","0","0","85","85","0","85","85","85","0","85","Sun Oct 15 17:45:32 2023","The main experiment item","True","Sternberg Task Elizabeth McGibbon .osexp","/Users/izzymcgibbon/Desktop/College/Tarleton State /2023 /Fall /Stats /3.0 ","False","mono","False","18","no","white","no","yes","768","legacy","73","11","/Users/izzymcgibbon/Desktop/College/Tarleton State /2023 /Fall /Stats /3.0 /EWMsubject-3.csv","legacy","1 4 3 6 5","Melodramatic Milgram","4.0.5","0","n","0","left","right","NA","","left","112.0","40297","NA","28911","112","2","legacy","5","1024","2","48000","-16","experiment","3","odd","8","590875","4034","NA","587621","588663","3881","157102","588666","582048","123754","589671","592881","592994","44365","592881","New experiment","55","62095.0","86","1024"
"63","63","715","715","#3d3846","experiment","legacy","legacy","legacy","0","undefined","0","right","86","0","0","86","86","0","0","86","86","0","86","86","86","0","86","Sun Oct 15 17:45:32 2023","The main experiment item","True","Sternberg Task Elizabeth McGibbon .osexp","/Users/izzymcgibbon/Desktop/College/Tarleton State /2023 /Fall /Stats /3.0 ","False","mono","False","18","no","white","no","yes","768","legacy","74","11","/Users/izzymcgibbon/Desktop/College/Tarleton State /2023 /Fall /Stats /3.0 /EWMsubject-3.csv","legacy","2 6 4 3 9","Melodramatic Milgram","4.0.5","0","n","0","left","right","NA","","left","170.0","40297","NA","28911","170","2","legacy","5","1024","2","48000","-16","experiment","3","odd","1","596255","4034","NA","587621","594042","3881","157102","594045","592998","123754","595048","598260","598431","44365","598260","New experiment","55","62265.0","87","1024"
"62","62","711","711","#3d3846","experiment","legacy","legacy","legacy","0","undefined","0","left","87","0","0","87","87","0","0","87","87","0","87","87","87","0","87","Sun Oct 15 17:45:32 2023","The main experiment item","True","Sternberg Task Elizabeth McGibbon .osexp","/Users/izzymcgibbon/Desktop/College/Tarleton State /2023 /Fall /Stats /3.0 ","False","mono","False","18","no","white","no","yes","768","legacy","75","11","/Users/izzymcgibbon/Desktop/College/Tarleton State /2023 /Fall /Stats /3.0 /EWMsubject-3.csv","legacy","6 9 7 4 5 1","Melodramatic Milgram","4.0.5","2","y","0","right","right","NA","","right","383.0","40297","NA","28911","383","2","legacy","6","1024","2","48000","-16","experiment","3","odd","9","601701","4034","NA","587621","599486","3881","157102","599490","598435","123754","600494","603709","604093","44365","603709","New experiment","55","62648.0","88","1024"
"61","61","706","706","#3d3846","experiment","legacy","legacy","legacy","0","undefined","0","left","88","0","0","88","88","0","0","88","88","0","88","88","88","0","88","Sun Oct 15 17:45:32 2023","The main experiment item","True","Sternberg Task Elizabeth McGibbon .osexp","/Users/izzymcgibbon/Desktop/College/Tarleton State /2023 /Fall /Stats /3.0 ","False","mono","False","18","no","white","no","yes","768","legacy","76","11","/Users/izzymcgibbon/Desktop/College/Tarleton State /2023 /Fall /Stats /3.0 /EWMsubject-3.csv","legacy","4 6 2 5 1","Melodramatic Milgram","4.0.5","5","y","0","right","right","NA","","right","269.0","40297","NA","28911","269","2","legacy","5","1024","2","48000","-16","experiment","3","odd","1","607361","4034","NA","587621","605146","3881","157102","605150","604096","123754","606156","609365","609635","44365","609365","New experiment","55","62917.0","89","1024"
"61","61","721","721","#3d3846","experiment","legacy","legacy","legacy","0","undefined","0","left","89","0","0","89","89","0","0","89","89","0","89","89","89","0","89","Sun Oct 15 17:45:32 2023","The main experiment item","True","Sternberg Task Elizabeth McGibbon .osexp","/Users/izzymcgibbon/Desktop/College/Tarleton State /2023 /Fall /Stats /3.0 ","False","mono","False","18","no","white","no","yes","768","legacy","77","11","/Users/izzymcgibbon/Desktop/College/Tarleton State /2023 /Fall /Stats /3.0 /EWMsubject-3.csv","legacy","2 3","Melodramatic Milgram","4.0.5","1","y","0","None","right","NA","","None","2000.0","40297","NA","28911","2000","2","legacy","2","1024","2","48000","-16","experiment","3","odd","2","612906","4034","NA","587621","610689","3881","157102","610694","609639","123754","611701","614912","616912","44365","614912","New experiment","55","64917.0","90","1024"
"61","61","721","721","#3d3846","experiment","legacy","legacy","legacy","1","undefined","1","left","90","0","0","90","90","0","0","90","90","0","90","90","90","0","90","Sun Oct 15 17:45:32 2023","The main experiment item","True","Sternberg Task Elizabeth McGibbon .osexp","/Users/izzymcgibbon/Desktop/College/Tarleton State /2023 /Fall /Stats /3.0 ","False","mono","False","18","no","white","no","yes","768","legacy","78","11","/Users/izzymcgibbon/Desktop/College/Tarleton State /2023 /Fall /Stats /3.0 /EWMsubject-3.csv","legacy","6 2","Melodramatic Milgram","4.0.5","1","y","0","left","right","NA","","left","697.0","40297","NA","28911","697","2","legacy","2","1024","2","48000","-16","experiment","3","odd","6","620184","4034","NA","587621","617975","3881","157102","617977","616916","123754","618979","622188","622887","44365","622188","New experiment","56","65614.0","91","1024"
"61","61","720","720","#3d3846","experiment","legacy","legacy","legacy","1","undefined","1","right","91","0","0","91","91","0","0","91","91","0","91","91","91","0","91","Sun Oct 15 17:45:32 2023","The main experiment item","True","Sternberg Task Elizabeth McGibbon .osexp","/Users/izzymcgibbon/Desktop/College/Tarleton State /2023 /Fall /Stats /3.0 ","False","mono","False","18","no","white","no","yes","768","legacy","79","11","/Users/izzymcgibbon/Desktop/College/Tarleton State /2023 /Fall /Stats /3.0 /EWMsubject-3.csv","legacy","8 4 3 9","Melodramatic Milgram","4.0.5","0","n","0","right","right","NA","","right","677.0","40297","NA","28911","677","2","legacy","4","1024","2","48000","-16","experiment","3","odd","5","626139","4034","NA","622890","623930","3881","157102","623933","616916","123754","624935","628141","628819","44365","628141","New experiment","57","66291.0","92","1024"
"62","62","719","719","#3d3846","experiment","legacy","legacy","legacy","1","undefined","1","left","92","0","0","92","92","0","0","92","92","0","92","92","92","0","92","Sun Oct 15 17:45:32 2023","The main experiment item","True","Sternberg Task Elizabeth McGibbon .osexp","/Users/izzymcgibbon/Desktop/College/Tarleton State /2023 /Fall /Stats /3.0 ","False","mono","False","18","no","white","no","yes","768","legacy","80","11","/Users/izzymcgibbon/Desktop/College/Tarleton State /2023 /Fall /Stats /3.0 /EWMsubject-3.csv","legacy","4 1 5","Melodramatic Milgram","4.0.5","2","y","0","left","right","NA","","left","603.0","40297","NA","28911","603","2","legacy","3","1024","2","48000","-16","experiment","3","odd","1","632075","4034","NA","628823","629868","3881","157102","629870","616916","123754","630872","634078","634682","44365","634078","New experiment","58","66894.0","93","1024"
"62","62","720","720","#3d3846","experiment","legacy","legacy","legacy","1","undefined","1","right","93","0","0","93","93","0","0","93","93","0","93","93","93","0","93","Sun Oct 15 17:45:32 2023","The main experiment item","True","Sternberg Task Elizabeth McGibbon .osexp","/Users/izzymcgibbon/Desktop/College/Tarleton State /2023 /Fall /Stats /3.0 ","False","mono","False","18","no","white","no","yes","768","legacy","81","11","/Users/izzymcgibbon/Desktop/College/Tarleton State /2023 /Fall /Stats /3.0 /EWMsubject-3.csv","legacy","8 9","Melodramatic Milgram","4.0.5","0","n","0","right","right","NA","","right","798.0","40297","NA","28911","798","2","legacy","2","1024","2","48000","-16","experiment","3","odd","5","637943","4034","NA","634685","635734","3881","157102","635737","616916","123754","636739","639945","640744","44365","639945","New experiment","59","67692.0","94","1024"
"63","63","721","721","#3d3846","experiment","legacy","legacy","legacy","1","undefined","1","right","94","0","0","94","94","0","0","94","94","0","94","94","94","0","94","Sun Oct 15 17:45:32 2023","The main experiment item","True","Sternberg Task Elizabeth McGibbon .osexp","/Users/izzymcgibbon/Desktop/College/Tarleton State /2023 /Fall /Stats /3.0 ","False","mono","False","18","no","white","no","yes","768","legacy","82","11","/Users/izzymcgibbon/Desktop/College/Tarleton State /2023 /Fall /Stats /3.0 /EWMsubject-3.csv","legacy","3 4 2","Melodramatic Milgram","4.0.5","0","n","0","right","right","NA","","right","837.0","40297","NA","28911","837","2","legacy","3","1024","2","48000","-16","experiment","3","odd","5","644004","4034","NA","640748","641797","3881","157102","641799","616916","123754","642801","646006","646844","44365","646006","New experiment","60","68529.0","95","1024"
"62","62","720","720","#3d3846","experiment","legacy","legacy","legacy","0","undefined","0","right","95","0","0","95","95","0","0","95","95","0","95","95","95","0","95","Sun Oct 15 17:45:32 2023","The main experiment item","True","Sternberg Task Elizabeth McGibbon .osexp","/Users/izzymcgibbon/Desktop/College/Tarleton State /2023 /Fall /Stats /3.0 ","False","mono","False","18","no","white","no","yes","768","legacy","83","11","/Users/izzymcgibbon/Desktop/College/Tarleton State /2023 /Fall /Stats /3.0 /EWMsubject-3.csv","legacy","6 9 7 3 8 2","Melodramatic Milgram","4.0.5","0","n","0","left","right","NA","","left","607.0","40297","NA","28911","607","2","legacy","6","1024","2","48000","-16","experiment","3","odd","5","650105","4034","NA","646848","647898","3881","157102","647900","616916","123754","648902","652109","652717","44365","652109","New experiment","60","69136.0","96","1024"
"62","62","713","713","#3d3846","experiment","legacy","legacy","legacy","1","undefined","1","right","96","0","0","96","96","0","0","96","96","0","96","96","96","0","96","Sun Oct 15 17:45:32 2023","The main experiment item","True","Sternberg Task Elizabeth McGibbon .osexp","/Users/izzymcgibbon/Desktop/College/Tarleton State /2023 /Fall /Stats /3.0 ","False","mono","False","18","no","white","no","yes","768","legacy","84","11","/Users/izzymcgibbon/Desktop/College/Tarleton State /2023 /Fall /Stats /3.0 /EWMsubject-3.csv","legacy","2 7 5","Melodramatic Milgram","4.0.5","0","n","0","right","right","NA","","right","85.0","40297","NA","28911","85","2","legacy","3","1024","2","48000","-16","experiment","3","odd","8","655988","4034","NA","646848","653779","3881","157102","653782","652721","123754","654784","657993","658079","44365","657993","New experiment","61","69221.0","97","1024"
"63","63","708","708","#3d3846","experiment","legacy","legacy","legacy","1","undefined","1","left","97","0","0","97","97","0","0","97","97","0","97","97","97","0","97","Sun Oct 15 17:45:32 2023","The main experiment item","True","Sternberg Task Elizabeth McGibbon .osexp","/Users/izzymcgibbon/Desktop/College/Tarleton State /2023 /Fall /Stats /3.0 ","False","mono","False","18","no","white","no","yes","768","legacy","85","11","/Users/izzymcgibbon/Desktop/College/Tarleton State /2023 /Fall /Stats /3.0 /EWMsubject-3.csv","legacy","7 4 2 6 3 5","Melodramatic Milgram","4.0.5","6","y","0","left","right","NA","","left","206.0","40297","NA","28911","206","2","legacy","6","1024","2","48000","-16","experiment","3","odd","5","661339","4034","NA","658082","659123","3881","157102","659128","652721","123754","660133","663347","663554","44365","663346","New experiment","62","69427.0","98","1024"
"62","62","703","703","#3d3846","experiment","legacy","legacy","legacy","0","undefined","0","left","98","0","0","98","98","0","0","98","98","0","98","98","98","0","98","Sun Oct 15 17:45:32 2023","The main experiment item","True","Sternberg Task Elizabeth McGibbon .osexp","/Users/izzymcgibbon/Desktop/College/Tarleton State /2023 /Fall /Stats /3.0 ","False","mono","False","18","no","white","no","yes","768","legacy","86","11","/Users/izzymcgibbon/Desktop/College/Tarleton State /2023 /Fall /Stats /3.0 /EWMsubject-3.csv","legacy","5 2 9 6 1 7","Melodramatic Milgram","4.0.5","3","y","0","right","right","NA","","right","184.0","40297","NA","28911","184","2","legacy","6","1024","2","48000","-16","experiment","3","odd","9","666817","4034","NA","663558","664604","3881","157102","664608","652721","123754","665612","668824","669009","44365","668823","New experiment","62","69611.0","99","1024"
"62","62","698","698","#3d3846","experiment","legacy","legacy","legacy","0","undefined","0","left","99","0","0","99","99","0","0","99","99","0","99","99","99","0","99","Sun Oct 15 17:45:32 2023","The main experiment item","True","Sternberg Task Elizabeth McGibbon .osexp","/Users/izzymcgibbon/Desktop/College/Tarleton State /2023 /Fall /Stats /3.0 ","False","mono","False","18","no","white","no","yes","768","legacy","87","11","/Users/izzymcgibbon/Desktop/College/Tarleton State /2023 /Fall /Stats /3.0 /EWMsubject-3.csv","legacy","4 7 6 8 2 3","Melodramatic Milgram","4.0.5","6","y","0","right","right","NA","","right","255.0","40297","NA","28911","255","2","legacy","6","1024","2","48000","-16","experiment","3","odd","3","672280","4034","NA","663558","670064","3881","157102","670068","669013","123754","671073","674287","674543","44365","674287","New experiment","62","69866.0","100","1024"
"62","62","694","694","#3d3846","experiment","legacy","legacy","legacy","1","undefined","1","left","100","0","0","100","100","0","0","100","100","0","100","100","100","0","100","Sun Oct 15 17:45:32 2023","The main experiment item","True","Sternberg Task Elizabeth McGibbon .osexp","/Users/izzymcgibbon/Desktop/College/Tarleton State /2023 /Fall /Stats /3.0 ","False","mono","False","18","no","white","no","yes","768","legacy","88","11","/Users/izzymcgibbon/Desktop/College/Tarleton State /2023 /Fall /Stats /3.0 /EWMsubject-3.csv","legacy","4 1 8 7 5","Melodramatic Milgram","4.0.5","3","y","0","left","right","NA","","left","238.0","40297","NA","28911","238","2","legacy","5","1024","2","48000","-16","experiment","3","odd","8","677811","4034","NA","663558","675597","3881","157102","675601","674547","123754","676606","679818","680057","44365","679818","New experiment","63","70104.0","101","1024"
"62","62","690","690","#3d3846","experiment","legacy","legacy","legacy","1","undefined","1","right","101","0","0","101","101","0","0","101","101","0","101","101","101","0","101","Sun Oct 15 17:45:32 2023","The main experiment item","True","Sternberg Task Elizabeth McGibbon .osexp","/Users/izzymcgibbon/Desktop/College/Tarleton State /2023 /Fall /Stats /3.0 ","False","mono","False","18","no","white","no","yes","768","legacy","89","11","/Users/izzymcgibbon/Desktop/College/Tarleton State /2023 /Fall /Stats /3.0 /EWMsubject-3.csv","legacy","6 7 5 9","Melodramatic Milgram","4.0.5","0","n","0","right","right","NA","","right","298.0","40297","NA","28911","298","2","legacy","4","1024","2","48000","-16","experiment","3","odd","2","683326","4034","NA","680061","681113","3881","157102","681116","674547","123754","682122","685329","685628","44365","685329","New experiment","64","70402.0","102","1024"
"62","62","684","684","#3d3846","experiment","legacy","legacy","legacy","0","undefined","0","left","102","0","0","102","102","0","0","102","102","0","102","102","102","0","102","Sun Oct 15 17:45:32 2023","The main experiment item","True","Sternberg Task Elizabeth McGibbon .osexp","/Users/izzymcgibbon/Desktop/College/Tarleton State /2023 /Fall /Stats /3.0 ","False","mono","False","18","no","white","no","yes","768","legacy","90","11","/Users/izzymcgibbon/Desktop/College/Tarleton State /2023 /Fall /Stats /3.0 /EWMsubject-3.csv","legacy","2 4 8 5 1 3","Melodramatic Milgram","4.0.5","1","y","0","right","right","NA","","right","59.0","40297","NA","28911","59","2","legacy","6","1024","2","48000","-16","experiment","3","odd","2","688904","4034","NA","685632","686694","3881","157102","686696","674547","123754","687699","690908","690968","44365","690908","New experiment","64","70461.0","103","1024"
"61","61","696","696","#3d3846","experiment","legacy","legacy","legacy","0","undefined","0","left","103","0","0","103","103","0","0","103","103","0","103","103","103","0","103","Sun Oct 15 17:45:32 2023","The main experiment item","True","Sternberg Task Elizabeth McGibbon .osexp","/Users/izzymcgibbon/Desktop/College/Tarleton State /2023 /Fall /Stats /3.0 ","False","mono","False","18","no","white","no","yes","768","legacy","91","11","/Users/izzymcgibbon/Desktop/College/Tarleton State /2023 /Fall /Stats /3.0 /EWMsubject-3.csv","legacy","4 6 5 8","Melodramatic Milgram","4.0.5","1","y","0","None","right","NA","","None","2000.0","40297","NA","28911","2000","2","legacy","4","1024","2","48000","-16","experiment","3","odd","4","694224","4034","NA","685632","692012","3881","157102","692015","690972","123754","693019","696227","698227","44365","696227","New experiment","64","72461.0","104","1024"
"61","61","692","692","#3d3846","experiment","legacy","legacy","legacy","1","undefined","1","right","104","0","0","104","104","0","0","104","104","0","104","104","104","0","104","Sun Oct 15 17:45:32 2023","The main experiment item","True","Sternberg Task Elizabeth McGibbon .osexp","/Users/izzymcgibbon/Desktop/College/Tarleton State /2023 /Fall /Stats /3.0 ","False","mono","False","18","no","white","no","yes","768","legacy","92","11","/Users/izzymcgibbon/Desktop/College/Tarleton State /2023 /Fall /Stats /3.0 /EWMsubject-3.csv","legacy","5 7 3","Melodramatic Milgram","4.0.5","0","n","0","right","right","NA","","right","292.0","40297","NA","28911","292","2","legacy","3","1024","2","48000","-16","experiment","3","odd","9","701485","4034","NA","685632","699274","3881","157102","699277","698231","123754","700281","703490","703783","44365","703490","New experiment","65","72753.0","105","1024"
"61","61","686","686","#3d3846","experiment","legacy","legacy","legacy","0","undefined","0","left","105","0","0","105","105","0","0","105","105","0","105","105","105","0","105","Sun Oct 15 17:45:32 2023","The main experiment item","True","Sternberg Task Elizabeth McGibbon .osexp","/Users/izzymcgibbon/Desktop/College/Tarleton State /2023 /Fall /Stats /3.0 ","False","mono","False","18","no","white","no","yes","768","legacy","93","11","/Users/izzymcgibbon/Desktop/College/Tarleton State /2023 /Fall /Stats /3.0 /EWMsubject-3.csv","legacy","7 8 6 3 1","Melodramatic Milgram","4.0.5","5","y","0","right","right","NA","","right","50.0","40297","NA","28911","50","2","legacy","5","1024","2","48000","-16","experiment","3","odd","1","707049","4034","NA","703786","704837","3881","157102","704840","698231","123754","705843","709054","709105","44365","709054","New experiment","65","72803.0","106","1024"
"60","60","699","699","#3d3846","experiment","legacy","legacy","legacy","0","undefined","0","right","106","0","0","106","106","0","0","106","106","0","106","106","106","0","106","Sun Oct 15 17:45:32 2023","The main experiment item","True","Sternberg Task Elizabeth McGibbon .osexp","/Users/izzymcgibbon/Desktop/College/Tarleton State /2023 /Fall /Stats /3.0 ","False","mono","False","18","no","white","no","yes","768","legacy","94","11","/Users/izzymcgibbon/Desktop/College/Tarleton State /2023 /Fall /Stats /3.0 /EWMsubject-3.csv","legacy","2 8 6 3 1","Melodramatic Milgram","4.0.5","0","n","0","None","right","NA","","None","2000.0","40297","NA","28911","2000","2","legacy","5","1024","2","48000","-16","experiment","3","odd","7","712371","4034","NA","703786","710158","3881","157102","710161","709109","123754","711165","714374","716374","44365","714374","New experiment","65","74803.0","107","1024"
"61","61","710","710","#3d3846","experiment","legacy","legacy","legacy","1","undefined","1","right","107","0","0","107","107","0","0","107","107","0","107","107","107","0","107","Sun Oct 15 17:45:32 2023","The main experiment item","True","Sternberg Task Elizabeth McGibbon .osexp","/Users/izzymcgibbon/Desktop/College/Tarleton State /2023 /Fall /Stats /3.0 ","False","mono","False","18","no","white","no","yes","768","legacy","95","11","/Users/izzymcgibbon/Desktop/College/Tarleton State /2023 /Fall /Stats /3.0 /EWMsubject-3.csv","legacy","3 9 1","Melodramatic Milgram","4.0.5","0","n","0","right","right","NA","","right","1898.0","40297","NA","28911","1898","2","legacy","3","1024","2","48000","-16","experiment","3","odd","7","719640","4034","NA","703786","717428","3881","157102","717430","716378","123754","718435","721644","723543","44365","721644","New experiment","66","76701.0","108","1024"
"60","60","704","704","#3d3846","experiment","legacy","legacy","legacy","0","undefined","0","left","108","0","0","108","108","0","0","108","108","0","108","108","108","0","108","Sun Oct 15 17:45:32 2023","The main experiment item","True","Sternberg Task Elizabeth McGibbon .osexp","/Users/izzymcgibbon/Desktop/College/Tarleton State /2023 /Fall /Stats /3.0 ","False","mono","False","18","no","white","no","yes","768","legacy","96","11","/Users/izzymcgibbon/Desktop/College/Tarleton State /2023 /Fall /Stats /3.0 /EWMsubject-3.csv","legacy","8 7 3","Melodramatic Milgram","4.0.5","1","y","0","right","right","NA","","right","103.0","40297","NA","28911","103","2","legacy","3","1024","2","48000","-16","experiment","3","odd","8","726823","4034","NA","723547","724611","3881","157102","724614","716378","123754","725617","728828","728933","44365","728828","New experiment","66","76804.0","109","1024"
"60","60","699","699","#3d3846","experiment","legacy","legacy","legacy","1","undefined","1","right","109","0","0","109","109","0","0","109","109","0","109","109","109","0","109","Sun Oct 15 17:45:32 2023","The main experiment item","True","Sternberg Task Elizabeth McGibbon .osexp","/Users/izzymcgibbon/Desktop/College/Tarleton State /2023 /Fall /Stats /3.0 ","False","mono","False","18","no","white","no","yes","768","legacy","97","11","/Users/izzymcgibbon/Desktop/College/Tarleton State /2023 /Fall /Stats /3.0 /EWMsubject-3.csv","legacy","5 9 2 3","Melodramatic Milgram","4.0.5","0","n","0","right","right","NA","","right","174.0","40297","NA","28911","174","2","legacy","4","1024","2","48000","-16","experiment","3","odd","8","732190","4034","NA","723547","729975","3881","157102","729978","728936","123754","730983","734194","734369","44365","734193","New experiment","67","76978.0","110","1024"
