"acc","accuracy","average_response_time","avg_rt","background","block","canvas_backend","clock_backend","color_backend","compensation","coordinates","correct","correct_instuction1","correct_keyboard_response","correct_response","count_ISI","count_correctFeedback","count_expSequence","count_experiment","count_experimentLoop","count_fixation","count_getting_started","count_incorrectFeedback","count_instruction2","count_instuction1","count_keyboard_response","count_logger","count_memorySet","count_practiceLoop","count_prode","count_thankYou","count_welcome","datetime","description","disable_garbage_collection","experiment_file","experiment_path","font_bold","font_family","font_italic","font_size","font_underline","foreground","form_clicks","fullscreen","height","keyboard_backend","live_row","live_row_practiceLoop","logfile","mouse_backend","numberSet","opensesame_codename","opensesame_version","posInSet","present","repeat_cycle","response","response_instruction2","response_instuction1","response_keyboard_response","response_thankYou","response_time","response_time_instruction2","response_time_instuction1","response_time_keyboard_response","response_time_thankYou","response_time_welcome","response_welcome","round_decimals","sampler_backend","setSize","sound_buf_size","sound_channels","sound_freq","sound_sample_size","start","subject_nr","subject_parity","target","time_ISI","time_correctFeedback","time_expSequence","time_experiment","time_experimentLoop","time_fixation","time_getting_started","time_incorrectFeedback","time_instruction2","time_instuction1","time_keyboard_response","time_logger","time_memorySet","time_practiceLoop","time_prode","time_thankYou","time_welcome","title","total_correct","total_response_time","total_responses","uniform_coordinates","width"
"0","0","2000","2000","black","practice","legacy","legacy","legacy","0","uniform","0","undefined","0","left","0","0","0","0","0","0","NA","0","0","0","0","0","0","0","0","0","NA","Sun Oct 25 11:23:39 2020","The main experiment item","yes","SternbergTask.osexp","/Users/Arianna/Desktop","no","mono","no","18","no","white","no","yes","768","legacy","0","0","/Users/Arianna/Downloads/AG-subject-2.csv","legacy","4 8","Lentiform Loewenfeld","3.3.3","1","y","0","None","NA","right","None","NA","2000","NA","33214","2000","NA","NA","NA","2","legacy","2","1024","2","48000","-16","experiment","1","odd","4","40689","NA","38435","4796","NA","38455","NA","NA","NA","4814","42711","44711","39471","38044","42711","NA","NA","Sternberg Task","0","2000","1","yes","1024"
"0","0","1708","1708","black","practice","legacy","legacy","legacy","0","uniform","0","undefined","0","left","1","1","1","0","0","1","NA","1","0","0","1","1","1","0","1","0","NA","Sun Oct 25 11:23:39 2020","The main experiment item","yes","SternbergTask.osexp","/Users/Arianna/Desktop","no","mono","no","18","no","white","no","yes","768","legacy","1","1","/Users/Arianna/Downloads/AG-subject-2.csv","legacy","4 3 1 7 9 8","Lentiform Loewenfeld","3.3.3","1","y","0","right","NA","right","right","NA","1416","NA","33214","1416","NA","NA","NA","2","legacy","6","1024","2","48000","-16","experiment","1","odd","4","48165","NA","45916","4796","NA","45932","NA","44778","NA","4814","50180","51597","46948","38044","50180","NA","NA","Sternberg Task","0","3416","2","yes","1024"
"0","0","1458.6666666666667","1458.6666666666667","black","practice","legacy","legacy","legacy","0","uniform","0","undefined","0","right","2","2","2","0","0","2","NA","2","0","0","2","2","2","0","2","0","NA","Sun Oct 25 11:23:39 2020","The main experiment item","yes","SternbergTask.osexp","/Users/Arianna/Desktop","no","mono","no","18","no","white","no","yes","768","legacy","2","2","/Users/Arianna/Downloads/AG-subject-2.csv","legacy","2 1","Lentiform Loewenfeld","3.3.3","0","n","0","left","NA","right","left","NA","960","NA","33214","960","NA","NA","NA","2","legacy","2","1024","2","48000","-16","experiment","1","odd","5","54962","NA","52714","4796","NA","52730","NA","51617","NA","4814","56979","57940","53745","38044","56979","NA","NA","Sternberg Task","0","4376","3","yes","1024"
"25","25","1317.5","1317.5","black","practice","legacy","legacy","legacy","0","uniform","1","undefined","1","right","3","3","3","0","0","3","NA","3","0","0","3","3","3","0","3","0","NA","Sun Oct 25 11:23:39 2020","The main experiment item","yes","SternbergTask.osexp","/Users/Arianna/Desktop","no","mono","no","18","no","white","no","yes","768","legacy","3","3","/Users/Arianna/Downloads/AG-subject-2.csv","legacy","5 7 8 4 1 2","Lentiform Loewenfeld","3.3.3","0","n","0","right","NA","right","right","NA","894","NA","33214","894","NA","NA","NA","2","legacy","6","1024","2","48000","-16","experiment","1","odd","6","61306","NA","59058","4796","NA","59074","NA","57959","NA","4814","63330","64225","60090","38044","63330","NA","NA","Sternberg Task","1","5270","4","yes","1024"
"20","20","1282","1282","black","practice","legacy","legacy","legacy","0","uniform","0","undefined","0","left","4","4","4","0","0","4","NA","4","0","0","4","4","4","0","4","0","NA","Sun Oct 25 11:23:39 2020","The main experiment item","yes","SternbergTask.osexp","/Users/Arianna/Desktop","no","mono","no","18","no","white","no","yes","768","legacy","4","4","/Users/Arianna/Downloads/AG-subject-2.csv","legacy","1 5 2 9","Lentiform Loewenfeld","3.3.3","2","y","0","right","NA","right","right","NA","1140","NA","33214","1140","NA","NA","NA","2","legacy","4","1024","2","48000","-16","experiment","1","odd","5","67609","64244","65353","4796","NA","65370","NA","57959","NA","4814","69630","70771","66389","38044","69629","NA","NA","Sternberg Task","1","6410","5","yes","1024"
"16.666666666666668","16.666666666666668","1401.6666666666667","1401.6666666666667","black","practice","legacy","legacy","legacy","0","uniform","0","undefined","0","right","5","5","5","0","0","5","NA","5","0","0","5","5","5","0","5","0","NA","Sun Oct 25 11:23:39 2020","The main experiment item","yes","SternbergTask.osexp","/Users/Arianna/Desktop","no","mono","no","18","no","white","no","yes","768","legacy","5","5","/Users/Arianna/Downloads/AG-subject-2.csv","legacy","9 6 7 4 5","Lentiform Loewenfeld","3.3.3","0","n","0","None","NA","right","None","NA","2000","NA","33214","2000","NA","NA","NA","2","legacy","5","1024","2","48000","-16","experiment","1","odd","3","74138","64244","71888","4796","NA","71904","NA","70791","NA","4814","76155","78155","72919","38044","76155","NA","NA","Sternberg Task","1","8410","6","yes","1024"
"14.285714285714286","14.285714285714286","1342.142857142857","1342.142857142857","black","practice","legacy","legacy","legacy","0","uniform","0","undefined","0","left","6","6","6","0","0","6","NA","6","0","0","6","6","6","0","6","0","NA","Sun Oct 25 11:23:39 2020","The main experiment item","yes","SternbergTask.osexp","/Users/Arianna/Desktop","no","mono","no","18","no","white","no","yes","768","legacy","6","6","/Users/Arianna/Downloads/AG-subject-2.csv","legacy","6","Lentiform Loewenfeld","3.3.3","1","y","0","right","NA","right","right","NA","985","NA","33214","985","NA","NA","NA","2","legacy","1","1024","2","48000","-16","experiment","1","odd","6","81516","64244","79269","4796","NA","79288","NA","78170","NA","4814","83535","84521","80301","38044","83535","NA","NA","Sternberg Task","1","9395","7","yes","1024"
"12.5","12.5","1293.625","1293.625","black","practice","legacy","legacy","legacy","0","uniform","0","undefined","0","right","7","7","7","0","0","7","NA","7","0","0","7","7","7","0","7","0","NA","Sun Oct 25 11:23:39 2020","The main experiment item","yes","SternbergTask.osexp","/Users/Arianna/Desktop","no","mono","no","18","no","white","no","yes","768","legacy","7","7","/Users/Arianna/Downloads/AG-subject-2.csv","legacy","4 1 5","Lentiform Loewenfeld","3.3.3","0","n","0","left","NA","right","left","NA","954","NA","33214","954","NA","NA","NA","2","legacy","3","1024","2","48000","-16","experiment","1","odd","2","87893","64244","85641","4796","NA","85658","NA","84536","NA","4814","89911","90866","86676","38044","89911","NA","NA","Sternberg Task","1","10349","8","yes","1024"
"22.22222222222222","22.22222222222222","1223","1223","black","practice","legacy","legacy","legacy","0","uniform","1","undefined","1","right","8","8","8","0","0","8","NA","8","0","0","8","8","8","0","8","0","NA","Sun Oct 25 11:23:39 2020","The main experiment item","yes","SternbergTask.osexp","/Users/Arianna/Desktop","no","mono","no","18","no","white","no","yes","768","legacy","8","8","/Users/Arianna/Downloads/AG-subject-2.csv","legacy","3 1 9 4","Lentiform Loewenfeld","3.3.3","0","n","0","right","NA","right","right","NA","658","NA","33214","658","NA","NA","NA","2","legacy","4","1024","2","48000","-16","experiment","1","odd","6","94245","64244","91987","4796","NA","92006","NA","90889","NA","4814","96261","96920","93027","38044","96261","NA","NA","Sternberg Task","2","11007","9","yes","1024"
"20","20","1200.6","1200.6","black","practice","legacy","legacy","legacy","0","uniform","0","undefined","0","right","9","9","9","0","0","9","NA","9","0","0","9","9","9","0","9","0","NA","Sun Oct 25 11:23:39 2020","The main experiment item","yes","SternbergTask.osexp","/Users/Arianna/Desktop","no","mono","no","18","no","white","no","yes","768","legacy","9","9","/Users/Arianna/Downloads/AG-subject-2.csv","legacy","5","Lentiform Loewenfeld","3.3.3","0","n","0","left","NA","right","left","NA","999","NA","33214","999","NA","NA","NA","2","legacy","1","1024","2","48000","-16","experiment","1","odd","3","100286","96950","98041","4796","NA","98054","NA","90889","NA","4814","102304","103304","99073","38044","102304","NA","NA","Sternberg Task","2","12006","10","yes","1024"
"18.181818181818183","18.181818181818183","1273.2727272727273","1273.2727272727273","black","practice","legacy","legacy","legacy","0","uniform","0","undefined","0","left","10","10","10","0","0","10","NA","10","0","0","10","10","10","0","10","0","NA","Sun Oct 25 11:23:39 2020","The main experiment item","yes","SternbergTask.osexp","/Users/Arianna/Desktop","no","mono","no","18","no","white","no","yes","768","legacy","10","10","/Users/Arianna/Downloads/AG-subject-2.csv","legacy","2 9 4","Lentiform Loewenfeld","3.3.3","3","y","0","None","NA","right","None","NA","2000","NA","33214","2000","NA","NA","NA","2","legacy","3","1024","2","48000","-16","experiment","1","odd","4","106646","96950","104403","4796","NA","104416","NA","103321","NA","4814","108659","110659","105432","38044","108659","NA","NA","Sternberg Task","2","14006","11","yes","1024"
"16.666666666666668","16.666666666666668","1333.8333333333333","1333.8333333333333","black","practice","legacy","legacy","legacy","0","uniform","0","undefined","0","left","11","11","11","0","0","11","NA","11","0","0","11","11","11","0","11","0","NA","Sun Oct 25 11:23:39 2020","The main experiment item","yes","SternbergTask.osexp","/Users/Arianna/Desktop","no","mono","no","18","no","white","no","yes","768","legacy","11","11","/Users/Arianna/Downloads/AG-subject-2.csv","legacy","1 7 9 8 5","Lentiform Loewenfeld","3.3.3","4","y","0","None","NA","right","None","NA","2000","NA","33214","2000","NA","NA","NA","2","legacy","5","1024","2","48000","-16","experiment","1","odd","8","114013","96950","111766","4796","NA","111779","NA","110676","NA","4814","116027","118027","112797","38044","116026","NA","NA","Sternberg Task","2","16006","12","yes","1024"
"15.384615384615385","15.384615384615385","1375.3846153846155","1375.3846153846155","black","experiment","legacy","legacy","legacy","0","uniform","0","undefined","0","right","12","12","12","0","0","12","NA","12","0","0","12","12","12","0","12","0","NA","Sun Oct 25 11:23:39 2020","The main experiment item","yes","SternbergTask.osexp","/Users/Arianna/Desktop","no","mono","no","18","no","white","no","yes","768","legacy","0","11","/Users/Arianna/Downloads/AG-subject-2.csv","legacy","8 2 1 4 5 9","Lentiform Loewenfeld","3.3.3","0","n","0","left","right","right","left","NA","1874","14561","33214","1874","NA","NA","NA","2","legacy","6","1024","2","48000","-16","experiment","1","odd","7","136059","96950","133801","4796","133666","133817","NA","118048","119104","4814","138074","139950","134841","38044","138073","NA","NA","Sternberg Task","2","17880","13","yes","1024"
"14.285714285714286","14.285714285714286","1356.4285714285713","1356.4285714285713","black","experiment","legacy","legacy","legacy","0","uniform","0","undefined","0","left","13","13","13","0","0","13","NA","13","0","0","13","13","13","0","13","0","NA","Sun Oct 25 11:23:39 2020","The main experiment item","yes","SternbergTask.osexp","/Users/Arianna/Desktop","no","mono","no","18","no","white","no","yes","768","legacy","1","11","/Users/Arianna/Downloads/AG-subject-2.csv","legacy","4 6 5 8","Lentiform Loewenfeld","3.3.3","1","y","0","right","right","right","right","NA","1110","14561","33214","1110","NA","NA","NA","2","legacy","4","1024","2","48000","-16","experiment","1","odd","4","143313","96950","141066","4796","133666","141079","NA","139966","119104","4814","145330","146441","142094","38044","145330","NA","NA","Sternberg Task","2","18990","14","yes","1024"
"20","20","1308.4666666666667","1308.4666666666667","black","experiment","legacy","legacy","legacy","0","uniform","1","undefined","1","left","14","14","14","0","0","14","NA","14","0","0","14","14","14","0","14","0","NA","Sun Oct 25 11:23:39 2020","The main experiment item","yes","SternbergTask.osexp","/Users/Arianna/Desktop","no","mono","no","18","no","white","no","yes","768","legacy","2","11","/Users/Arianna/Downloads/AG-subject-2.csv","legacy","8","Lentiform Loewenfeld","3.3.3","1","y","0","left","right","right","left","NA","637","14561","33214","637","NA","NA","NA","2","legacy","1","1024","2","48000","-16","experiment","1","odd","8","149793","96950","147546","4796","133666","147559","NA","146458","119104","4814","151807","152445","148574","38044","151806","NA","NA","Sternberg Task","3","19627","15","yes","1024"
"18.75","18.75","1285.1875","1285.1875","black","experiment","legacy","legacy","legacy","0","uniform","0","undefined","0","left","15","15","15","0","0","15","NA","15","0","0","15","15","15","0","15","0","NA","Sun Oct 25 11:23:39 2020","The main experiment item","yes","SternbergTask.osexp","/Users/Arianna/Desktop","no","mono","no","18","no","white","no","yes","768","legacy","3","11","/Users/Arianna/Downloads/AG-subject-2.csv","legacy","5 7 8 2 3 8","Lentiform Loewenfeld","3.3.3","5","y","0","right","right","right","right","NA","936","14561","33214","936","NA","NA","NA","2","legacy","6","1024","2","48000","-16","experiment","1","odd","3","155811","152467","153562","4796","133666","153579","NA","146458","119104","4814","157825","158763","154594","38044","157825","NA","NA","Sternberg Task","3","20563","16","yes","1024"
"17.647058823529413","17.647058823529413","1293.1176470588234","1293.1176470588234","black","experiment","legacy","legacy","legacy","0","uniform","0","undefined","0","right","16","16","16","0","0","16","NA","16","0","0","16","16","16","0","16","0","NA","Sun Oct 25 11:23:39 2020","The main experiment item","yes","SternbergTask.osexp","/Users/Arianna/Desktop","no","mono","no","18","no","white","no","yes","768","legacy","4","11","/Users/Arianna/Downloads/AG-subject-2.csv","legacy","7 1 5 6 3","Lentiform Loewenfeld","3.3.3","0","n","0","left","right","right","left","NA","1420","14561","33214","1420","NA","NA","NA","2","legacy","5","1024","2","48000","-16","experiment","1","odd","8","162115","152467","159868","4796","133666","159883","NA","158782","119104","4814","164127","165547","160898","38044","164127","NA","NA","Sternberg Task","3","21983","17","yes","1024"
"22.22222222222222","22.22222222222222","1314","1314","black","experiment","legacy","legacy","legacy","0","uniform","1","undefined","1","right","17","17","17","0","0","17","NA","17","0","0","17","17","17","0","17","0","NA","Sun Oct 25 11:23:39 2020","The main experiment item","yes","SternbergTask.osexp","/Users/Arianna/Desktop","no","mono","no","18","no","white","no","yes","768","legacy","5","11","/Users/Arianna/Downloads/AG-subject-2.csv","legacy","1 4 3 6 5","Lentiform Loewenfeld","3.3.3","0","n","0","right","right","right","right","NA","1669","14561","33214","1669","NA","NA","NA","2","legacy","5","1024","2","48000","-16","experiment","1","odd","8","168906","152467","166662","4796","133666","166674","NA","165576","119104","4814","170931","172602","167689","38044","170928","NA","NA","Sternberg Task","4","23652","18","yes","1024"
"26.31578947368421","26.31578947368421","1279.9473684210527","1279.9473684210527","black","experiment","legacy","legacy","legacy","0","uniform","1","undefined","1","right","18","18","18","0","0","18","NA","18","0","0","18","18","18","0","18","0","NA","Sun Oct 25 11:23:39 2020","The main experiment item","yes","SternbergTask.osexp","/Users/Arianna/Desktop","no","mono","no","18","no","white","no","yes","768","legacy","6","11","/Users/Arianna/Downloads/AG-subject-2.csv","legacy","8 4 3 5","Lentiform Loewenfeld","3.3.3","0","n","0","right","right","right","right","NA","667","14561","33214","667","NA","NA","NA","2","legacy","4","1024","2","48000","-16","experiment","1","odd","6","175960","172617","173708","4796","133666","173725","NA","165576","119104","4814","177975","178643","174741","38044","177975","NA","NA","Sternberg Task","5","24319","19","yes","1024"
"25","25","1260.85","1260.85","black","experiment","legacy","legacy","legacy","0","uniform","0","undefined","0","left","19","19","19","0","0","19","NA","19","0","0","19","19","19","0","19","0","NA","Sun Oct 25 11:23:39 2020","The main experiment item","yes","SternbergTask.osexp","/Users/Arianna/Desktop","no","mono","no","18","no","white","no","yes","768","legacy","7","11","/Users/Arianna/Downloads/AG-subject-2.csv","legacy","4 1 5","Lentiform Loewenfeld","3.3.3","2","y","0","right","right","right","right","NA","898","14561","33214","898","NA","NA","NA","2","legacy","3","1024","2","48000","-16","experiment","1","odd","1","181999","178667","179753","4796","133666","179766","NA","165576","119104","4814","184011","184910","180782","38044","184011","NA","NA","Sternberg Task","5","25217","20","yes","1024"
"28.571428571428573","28.571428571428573","1262.4285714285713","1262.4285714285713","black","experiment","legacy","legacy","legacy","0","uniform","1","undefined","1","right","20","20","20","0","0","20","NA","20","0","0","20","20","20","0","20","0","NA","Sun Oct 25 11:23:39 2020","The main experiment item","yes","SternbergTask.osexp","/Users/Arianna/Desktop","no","mono","no","18","no","white","no","yes","768","legacy","8","11","/Users/Arianna/Downloads/AG-subject-2.csv","legacy","7 6 4 8 1 2","Lentiform Loewenfeld","3.3.3","0","n","0","right","right","right","right","NA","1294","14561","33214","1294","NA","NA","NA","2","legacy","6","1024","2","48000","-16","experiment","1","odd","9","188262","178667","186018","4796","133666","186031","NA","184933","119104","4814","190276","191571","187045","38044","190275","NA","NA","Sternberg Task","6","26511","21","yes","1024"
"27.272727272727273","27.272727272727273","1256.590909090909","1256.590909090909","black","experiment","legacy","legacy","legacy","0","uniform","0","undefined","0","left","21","21","21","0","0","21","NA","21","0","0","21","21","21","0","21","0","NA","Sun Oct 25 11:23:39 2020","The main experiment item","yes","SternbergTask.osexp","/Users/Arianna/Desktop","no","mono","no","18","no","white","no","yes","768","legacy","9","11","/Users/Arianna/Downloads/AG-subject-2.csv","legacy","8 1 6","Lentiform Loewenfeld","3.3.3","3","y","0","right","right","right","right","NA","1134","14561","33214","1134","NA","NA","NA","2","legacy","3","1024","2","48000","-16","experiment","1","odd","6","194931","191598","192684","4796","133666","192699","NA","184933","119104","4814","196944","198079","193714","38044","196944","NA","NA","Sternberg Task","6","27645","22","yes","1024"
"26.08695652173913","26.08695652173913","1238.7826086956522","1238.7826086956522","black","experiment","legacy","legacy","legacy","0","uniform","0","undefined","0","right","22","22","22","0","0","22","NA","22","0","0","22","22","22","0","22","0","NA","Sun Oct 25 11:23:39 2020","The main experiment item","yes","SternbergTask.osexp","/Users/Arianna/Desktop","no","mono","no","18","no","white","no","yes","768","legacy","10","11","/Users/Arianna/Downloads/AG-subject-2.csv","legacy","6 3 1 7 9 8","Lentiform Loewenfeld","3.3.3","0","n","0","left","right","right","left","NA","847","14561","33214","847","NA","NA","NA","2","legacy","6","1024","2","48000","-16","experiment","1","odd","4","201465","191598","199215","4796","133666","199234","NA","198109","119104","4814","203480","204328","200249","38044","203480","NA","NA","Sternberg Task","6","28492","23","yes","1024"
"29.166666666666668","29.166666666666668","1213.5","1213.5","black","experiment","legacy","legacy","legacy","0","uniform","1","undefined","1","right","23","23","23","0","0","23","NA","23","0","0","23","23","23","0","23","0","NA","Sun Oct 25 11:23:39 2020","The main experiment item","yes","SternbergTask.osexp","/Users/Arianna/Desktop","no","mono","no","18","no","white","no","yes","768","legacy","11","11","/Users/Arianna/Downloads/AG-subject-2.csv","legacy","7 8 6 1","Lentiform Loewenfeld","3.3.3","0","n","0","right","right","right","right","NA","632","14561","33214","632","NA","NA","NA","2","legacy","4","1024","2","48000","-16","experiment","1","odd","3","207683","191598","205438","4796","133666","205451","NA","204351","119104","4814","209697","210330","206466","38044","209697","NA","NA","Sternberg Task","7","29124","24","yes","1024"
"32","32","1187.88","1187.88","black","experiment","legacy","legacy","legacy","0","uniform","1","undefined","1","right","24","24","24","0","0","24","NA","24","0","0","24","24","24","0","24","0","NA","Sun Oct 25 11:23:39 2020","The main experiment item","yes","SternbergTask.osexp","/Users/Arianna/Desktop","no","mono","no","18","no","white","no","yes","768","legacy","12","11","/Users/Arianna/Downloads/AG-subject-2.csv","legacy","7 1 8 4 9 3","Lentiform Loewenfeld","3.3.3","0","n","0","right","right","right","right","NA","573","14561","33214","573","NA","NA","NA","2","legacy","6","1024","2","48000","-16","experiment","1","odd","6","213690","210356","211445","4796","133666","211458","NA","204351","119104","4814","215705","216279","212473","38044","215705","NA","NA","Sternberg Task","8","29697","25","yes","1024"
"30.76923076923077","30.76923076923077","1169.8846153846155","1169.8846153846155","black","experiment","legacy","legacy","legacy","0","uniform","0","undefined","0","left","25","25","25","0","0","25","NA","25","0","0","25","25","25","0","25","0","NA","Sun Oct 25 11:23:39 2020","The main experiment item","yes","SternbergTask.osexp","/Users/Arianna/Desktop","no","mono","no","18","no","white","no","yes","768","legacy","13","11","/Users/Arianna/Downloads/AG-subject-2.csv","legacy","4","Lentiform Loewenfeld","3.3.3","1","y","0","right","right","right","right","NA","720","14561","33214","720","NA","NA","NA","2","legacy","1","1024","2","48000","-16","experiment","1","odd","4","219636","216305","217390","4796","133666","217403","NA","204351","119104","4814","221650","222372","218419","38044","221650","NA","NA","Sternberg Task","8","30417","26","yes","1024"
"29.62962962962963","29.62962962962963","1146.7037037037037","1146.7037037037037","black","experiment","legacy","legacy","legacy","0","uniform","0","undefined","0","left","26","26","26","0","0","26","NA","26","0","0","26","26","26","0","26","0","NA","Sun Oct 25 11:23:39 2020","The main experiment item","yes","SternbergTask.osexp","/Users/Arianna/Desktop","no","mono","no","18","no","white","no","yes","768","legacy","14","11","/Users/Arianna/Downloads/AG-subject-2.csv","legacy","4 6 2 5 1","Lentiform Loewenfeld","3.3.3","5","y","0","right","right","right","right","NA","544","14561","33214","544","NA","NA","NA","2","legacy","5","1024","2","48000","-16","experiment","1","odd","1","225718","216305","223471","4796","133666","223484","NA","222386","119104","4814","227732","228277","224499","38044","227732","NA","NA","Sternberg Task","8","30961","27","yes","1024"
"28.571428571428573","28.571428571428573","1126.142857142857","1126.142857142857","black","experiment","legacy","legacy","legacy","0","uniform","0","undefined","0","right","27","27","27","0","0","27","NA","27","0","0","27","27","27","0","27","0","NA","Sun Oct 25 11:23:39 2020","The main experiment item","yes","SternbergTask.osexp","/Users/Arianna/Desktop","no","mono","no","18","no","white","no","yes","768","legacy","15","11","/Users/Arianna/Downloads/AG-subject-2.csv","legacy","1 7 8 3 9","Lentiform Loewenfeld","3.3.3","0","n","0","left","right","right","left","NA","571","14561","33214","571","NA","NA","NA","2","legacy","5","1024","2","48000","-16","experiment","1","odd","2","231635","216305","229390","4796","133666","229403","NA","228304","119104","4814","233649","234221","230418","38044","233649","NA","NA","Sternberg Task","8","31532","28","yes","1024"
"27.586206896551722","27.586206896551722","1117.4827586206898","1117.4827586206898","black","experiment","legacy","legacy","legacy","0","uniform","0","undefined","0","left","28","28","28","0","0","28","NA","28","0","0","28","28","28","0","28","0","NA","Sun Oct 25 11:23:39 2020","The main experiment item","yes","SternbergTask.osexp","/Users/Arianna/Desktop","no","mono","no","18","no","white","no","yes","768","legacy","16","11","/Users/Arianna/Downloads/AG-subject-2.csv","legacy","4 3 2 5 8","Lentiform Loewenfeld","3.3.3","2","y","0","right","right","right","right","NA","875","14561","33214","875","NA","NA","NA","2","legacy","5","1024","2","48000","-16","experiment","1","odd","3","237582","216305","235334","4796","133666","235347","NA","234248","119104","4814","239596","240473","236365","38044","239596","NA","NA","Sternberg Task","8","32407","29","yes","1024"
"26.666666666666668","26.666666666666668","1097.8333333333333","1097.8333333333333","black","experiment","legacy","legacy","legacy","0","uniform","0","undefined","0","left","29","29","29","0","0","29","NA","29","0","0","29","29","29","0","29","0","NA","Sun Oct 25 11:23:39 2020","The main experiment item","yes","SternbergTask.osexp","/Users/Arianna/Desktop","no","mono","no","18","no","white","no","yes","768","legacy","17","11","/Users/Arianna/Downloads/AG-subject-2.csv","legacy","3 4 9 6 2 9","Lentiform Loewenfeld","3.3.3","5","y","0","right","right","right","right","NA","528","14561","33214","528","NA","NA","NA","2","legacy","6","1024","2","48000","-16","experiment","1","odd","2","243833","216305","241588","4796","133666","241600","NA","240498","119104","4814","245848","246377","242615","38044","245848","NA","NA","Sternberg Task","8","32935","30","yes","1024"
"25.806451612903224","25.806451612903224","1081.258064516129","1081.258064516129","black","experiment","legacy","legacy","legacy","0","uniform","0","undefined","0","left","30","30","30","0","0","30","NA","30","0","0","30","30","30","0","30","0","NA","Sun Oct 25 11:23:39 2020","The main experiment item","yes","SternbergTask.osexp","/Users/Arianna/Desktop","no","mono","no","18","no","white","no","yes","768","legacy","18","11","/Users/Arianna/Downloads/AG-subject-2.csv","legacy","8 3","Lentiform Loewenfeld","3.3.3","2","y","0","right","right","right","right","NA","584","14561","33214","584","NA","NA","NA","2","legacy","2","1024","2","48000","-16","experiment","1","odd","3","249725","216305","247479","4796","133666","247492","NA","246394","119104","4814","251739","252324","248507","38044","251739","NA","NA","Sternberg Task","8","33519","31","yes","1024"
"25","25","1109.96875","1109.96875","black","experiment","legacy","legacy","legacy","0","uniform","0","undefined","0","left","31","31","31","0","0","31","NA","31","0","0","31","31","31","0","31","0","NA","Sun Oct 25 11:23:39 2020","The main experiment item","yes","SternbergTask.osexp","/Users/Arianna/Desktop","no","mono","no","18","no","white","no","yes","768","legacy","19","11","/Users/Arianna/Downloads/AG-subject-2.csv","legacy","2 8 5 1","Lentiform Loewenfeld","3.3.3","4","y","0","None","right","right","None","NA","2000","14561","33214","2000","NA","NA","NA","2","legacy","4","1024","2","48000","-16","experiment","1","odd","1","255670","216305","253425","4796","133666","253438","NA","252338","119104","4814","257684","259684","254453","38044","257683","NA","NA","Sternberg Task","8","35519","32","yes","1024"
"27.272727272727273","27.272727272727273","1108.3030303030303","1108.3030303030303","black","experiment","legacy","legacy","legacy","0","uniform","1","undefined","1","right","32","32","32","0","0","32","NA","32","0","0","32","32","32","0","32","0","NA","Sun Oct 25 11:23:39 2020","The main experiment item","yes","SternbergTask.osexp","/Users/Arianna/Desktop","no","mono","no","18","no","white","no","yes","768","legacy","20","11","/Users/Arianna/Downloads/AG-subject-2.csv","legacy","1 8 7","Lentiform Loewenfeld","3.3.3","0","n","0","right","right","right","right","NA","1055","14561","33214","1055","NA","NA","NA","2","legacy","3","1024","2","48000","-16","experiment","1","odd","4","263033","216305","260786","4796","133666","260798","NA","259700","119104","4814","265046","266103","261816","38044","265046","NA","NA","Sternberg Task","9","36574","33","yes","1024"
"26.470588235294116","26.470588235294116","1089.764705882353","1089.764705882353","black","experiment","legacy","legacy","legacy","0","uniform","0","undefined","0","left","33","33","33","0","0","33","NA","33","0","0","33","33","33","0","33","0","NA","Sun Oct 25 11:23:39 2020","The main experiment item","yes","SternbergTask.osexp","/Users/Arianna/Desktop","no","mono","no","18","no","white","no","yes","768","legacy","21","11","/Users/Arianna/Downloads/AG-subject-2.csv","legacy","2 3","Lentiform Loewenfeld","3.3.3","1","y","0","right","right","right","right","NA","478","14561","33214","478","NA","NA","NA","2","legacy","2","1024","2","48000","-16","experiment","1","odd","2","269464","266132","267218","4796","133666","267231","NA","259700","119104","4814","271479","271958","268246","38044","271478","NA","NA","Sternberg Task","9","37052","34","yes","1024"
"25.714285714285715","25.714285714285715","1079.3142857142857","1079.3142857142857","black","experiment","legacy","legacy","legacy","0","uniform","0","undefined","0","right","34","34","34","0","0","34","NA","34","0","0","34","34","34","0","34","0","NA","Sun Oct 25 11:23:39 2020","The main experiment item","yes","SternbergTask.osexp","/Users/Arianna/Desktop","no","mono","no","18","no","white","no","yes","768","legacy","22","11","/Users/Arianna/Downloads/AG-subject-2.csv","legacy","7 9","Lentiform Loewenfeld","3.3.3","0","n","0","left","right","right","left","NA","724","14561","33214","724","NA","NA","NA","2","legacy","2","1024","2","48000","-16","experiment","1","odd","1","275315","266132","273069","4796","133666","273082","NA","271984","119104","4814","277329","278055","274097","38044","277329","NA","NA","Sternberg Task","9","37776","35","yes","1024"
"25","25","1067.0833333333333","1067.0833333333333","black","experiment","legacy","legacy","legacy","0","uniform","0","undefined","0","left","35","35","35","0","0","35","NA","35","0","0","35","35","35","0","35","0","NA","Sun Oct 25 11:23:39 2020","The main experiment item","yes","SternbergTask.osexp","/Users/Arianna/Desktop","no","mono","no","18","no","white","no","yes","768","legacy","23","11","/Users/Arianna/Downloads/AG-subject-2.csv","legacy","6 1 2","Lentiform Loewenfeld","3.3.3","3","y","0","right","right","right","right","NA","639","14561","33214","639","NA","NA","NA","2","legacy","3","1024","2","48000","-16","experiment","1","odd","2","281414","266132","279169","4796","133666","279181","NA","278082","119104","4814","283428","284068","280197","38044","283428","NA","NA","Sternberg Task","9","38415","36","yes","1024"
"24.324324324324323","24.324324324324323","1057.3513513513512","1057.3513513513512","black","experiment","legacy","legacy","legacy","0","uniform","0","undefined","0","left","36","36","36","0","0","36","NA","36","0","0","36","36","36","0","36","0","NA","Sun Oct 25 11:23:39 2020","The main experiment item","yes","SternbergTask.osexp","/Users/Arianna/Desktop","no","mono","no","18","no","white","no","yes","768","legacy","24","11","/Users/Arianna/Downloads/AG-subject-2.csv","legacy","6 8 9 3 4 9","Lentiform Loewenfeld","3.3.3","5","y","0","right","right","right","right","NA","707","14561","33214","707","NA","NA","NA","2","legacy","6","1024","2","48000","-16","experiment","1","odd","4","287427","266132","285181","4796","133666","285195","NA","284095","119104","4814","289441","290149","286210","38044","289441","NA","NA","Sternberg Task","9","39122","37","yes","1024"
"23.68421052631579","23.68421052631579","1042","1042","black","experiment","legacy","legacy","legacy","0","uniform","0","undefined","0","right","37","37","37","0","0","37","NA","37","0","0","37","37","37","0","37","0","NA","Sun Oct 25 11:23:39 2020","The main experiment item","yes","SternbergTask.osexp","/Users/Arianna/Desktop","no","mono","no","18","no","white","no","yes","768","legacy","25","11","/Users/Arianna/Downloads/AG-subject-2.csv","legacy","8 6 3 4 7","Lentiform Loewenfeld","3.3.3","0","n","0","left","right","right","left","NA","474","14561","33214","474","NA","NA","NA","2","legacy","5","1024","2","48000","-16","experiment","1","odd","1","293514","266132","291264","4796","133666","291277","NA","290176","119104","4814","295528","296003","292297","38044","295528","NA","NA","Sternberg Task","9","39596","38","yes","1024"
"25.641025641025642","25.641025641025642","1027.076923076923","1027.076923076923","black","experiment","legacy","legacy","legacy","0","uniform","1","undefined","1","right","38","38","38","0","0","38","NA","38","0","0","38","38","38","0","38","0","NA","Sun Oct 25 11:23:39 2020","The main experiment item","yes","SternbergTask.osexp","/Users/Arianna/Desktop","no","mono","no","18","no","white","no","yes","768","legacy","26","11","/Users/Arianna/Downloads/AG-subject-2.csv","legacy","9 8 2 7 4","Lentiform Loewenfeld","3.3.3","0","n","0","right","right","right","right","NA","460","14561","33214","460","NA","NA","NA","2","legacy","5","1024","2","48000","-16","experiment","1","odd","5","299362","266132","297118","4796","133666","297133","NA","296031","119104","4814","301376","301837","298145","38044","301376","NA","NA","Sternberg Task","10","40056","39","yes","1024"
"25","25","1014.875","1014.875","black","experiment","legacy","legacy","legacy","0","uniform","0","undefined","0","left","39","39","39","0","0","39","NA","39","0","0","39","39","39","0","39","0","NA","Sun Oct 25 11:23:39 2020","The main experiment item","yes","SternbergTask.osexp","/Users/Arianna/Desktop","no","mono","no","18","no","white","no","yes","768","legacy","27","11","/Users/Arianna/Downloads/AG-subject-2.csv","legacy","6 9 3 1","Lentiform Loewenfeld","3.3.3","4","y","0","right","right","right","right","NA","539","14561","33214","539","NA","NA","NA","2","legacy","4","1024","2","48000","-16","experiment","1","odd","1","305195","301861","302949","4796","133666","302962","NA","296031","119104","4814","307209","307750","303978","38044","307209","NA","NA","Sternberg Task","10","40595","40","yes","1024"
"24.390243902439025","24.390243902439025","1001.2926829268292","1001.2926829268292","black","experiment","legacy","legacy","legacy","0","uniform","0","undefined","0","right","40","40","40","0","0","40","NA","40","0","0","40","40","40","0","40","0","NA","Sun Oct 25 11:23:39 2020","The main experiment item","yes","SternbergTask.osexp","/Users/Arianna/Desktop","no","mono","no","18","no","white","no","yes","768","legacy","28","11","/Users/Arianna/Downloads/AG-subject-2.csv","legacy","4 8 1 2","Lentiform Loewenfeld","3.3.3","0","n","0","left","right","right","left","NA","458","14561","33214","458","NA","NA","NA","2","legacy","4","1024","2","48000","-16","experiment","1","odd","7","311098","301861","308852","4796","133666","308866","NA","307766","119104","4814","313113","313572","309881","38044","313113","NA","NA","Sternberg Task","10","41053","41","yes","1024"
"23.80952380952381","23.80952380952381","1025.0714285714287","1025.0714285714287","black","experiment","legacy","legacy","legacy","0","uniform","0","undefined","0","left","41","41","41","0","0","41","NA","41","0","0","41","41","41","0","41","0","NA","Sun Oct 25 11:23:39 2020","The main experiment item","yes","SternbergTask.osexp","/Users/Arianna/Desktop","no","mono","no","18","no","white","no","yes","768","legacy","29","11","/Users/Arianna/Downloads/AG-subject-2.csv","legacy","7 1 8 5 6 2","Lentiform Loewenfeld","3.3.3","2","y","0","None","right","right","None","NA","2000","14561","33214","2000","NA","NA","NA","2","legacy","6","1024","2","48000","-16","experiment","1","odd","1","316935","301861","314687","4796","133666","314702","NA","313599","119104","4814","318949","320949","315717","38044","318948","NA","NA","Sternberg Task","10","43053","42","yes","1024"
"23.25581395348837","23.25581395348837","1017.7441860465116","1017.7441860465116","black","experiment","legacy","legacy","legacy","0","uniform","0","undefined","0","left","42","42","42","0","0","42","NA","42","0","0","42","42","42","0","42","0","NA","Sun Oct 25 11:23:39 2020","The main experiment item","yes","SternbergTask.osexp","/Users/Arianna/Desktop","no","mono","no","18","no","white","no","yes","768","legacy","30","11","/Users/Arianna/Downloads/AG-subject-2.csv","legacy","6 2","Lentiform Loewenfeld","3.3.3","1","y","0","right","right","right","right","NA","710","14561","33214","710","NA","NA","NA","2","legacy","2","1024","2","48000","-16","experiment","1","odd","6","324298","301861","322052","4796","133666","322065","NA","320965","119104","4814","326311","327022","323080","38044","326311","NA","NA","Sternberg Task","10","43763","43","yes","1024"
"22.727272727272727","22.727272727272727","1040.0681818181818","1040.0681818181818","black","experiment","legacy","legacy","legacy","0","uniform","0","undefined","0","right","43","43","43","0","0","43","NA","43","0","0","43","43","43","0","43","0","NA","Sun Oct 25 11:23:39 2020","The main experiment item","yes","SternbergTask.osexp","/Users/Arianna/Desktop","no","mono","no","18","no","white","no","yes","768","legacy","31","11","/Users/Arianna/Downloads/AG-subject-2.csv","legacy","4 2 6 9","Lentiform Loewenfeld","3.3.3","0","n","0","None","right","right","None","NA","2000","14561","33214","2000","NA","NA","NA","2","legacy","4","1024","2","48000","-16","experiment","1","odd","7","330384","301861","328138","4796","133666","328152","NA","327050","119104","4814","332399","334399","329167","38044","332399","NA","NA","Sternberg Task","10","45763","44","yes","1024"
"22.22222222222222","22.22222222222222","1061.4","1061.4","black","experiment","legacy","legacy","legacy","0","uniform","0","undefined","0","right","44","44","44","0","0","44","NA","44","0","0","44","44","44","0","44","0","NA","Sun Oct 25 11:23:39 2020","The main experiment item","yes","SternbergTask.osexp","/Users/Arianna/Desktop","no","mono","no","18","no","white","no","yes","768","legacy","32","11","/Users/Arianna/Downloads/AG-subject-2.csv","legacy","8 5 7 3 6","Lentiform Loewenfeld","3.3.3","0","n","0","None","right","right","None","NA","2000","14561","33214","2000","NA","NA","NA","2","legacy","5","1024","2","48000","-16","experiment","1","odd","9","337756","301861","335512","4796","133666","335525","NA","334427","119104","4814","339770","341771","336541","38044","339770","NA","NA","Sternberg Task","10","47763","45","yes","1024"
"21.73913043478261","21.73913043478261","1076.608695652174","1076.608695652174","black","experiment","legacy","legacy","legacy","0","uniform","0","undefined","0","right","45","45","45","0","0","45","NA","45","0","0","45","45","45","0","45","0","NA","Sun Oct 25 11:23:39 2020","The main experiment item","yes","SternbergTask.osexp","/Users/Arianna/Desktop","no","mono","no","18","no","white","no","yes","768","legacy","33","11","/Users/Arianna/Downloads/AG-subject-2.csv","legacy","2 6 4 3 9","Lentiform Loewenfeld","3.3.3","0","n","0","left","right","right","left","NA","1761","14561","33214","1761","NA","NA","NA","2","legacy","5","1024","2","48000","-16","experiment","1","odd","1","345139","301861","342893","4796","133666","342908","NA","341807","119104","4814","347156","348918","343923","38044","347156","NA","NA","Sternberg Task","10","49524","46","yes","1024"
"21.27659574468085","21.27659574468085","1096.2553191489362","1096.2553191489362","black","experiment","legacy","legacy","legacy","0","uniform","0","undefined","0","right","46","46","46","0","0","46","NA","46","0","0","46","46","46","0","46","0","NA","Sun Oct 25 11:23:39 2020","The main experiment item","yes","SternbergTask.osexp","/Users/Arianna/Desktop","no","mono","no","18","no","white","no","yes","768","legacy","34","11","/Users/Arianna/Downloads/AG-subject-2.csv","legacy","3 4 2","Lentiform Loewenfeld","3.3.3","0","n","0","None","right","right","None","NA","2000","14561","33214","2000","NA","NA","NA","2","legacy","3","1024","2","48000","-16","experiment","1","odd","5","352276","301861","350030","4796","133666","350043","NA","348945","119104","4814","354290","356290","351058","38044","354290","NA","NA","Sternberg Task","10","51524","47","yes","1024"
"22.916666666666668","22.916666666666668","1080.6666666666667","1080.6666666666667","black","experiment","legacy","legacy","legacy","0","uniform","1","undefined","1","right","47","47","47","0","0","47","NA","47","0","0","47","47","47","0","47","0","NA","Sun Oct 25 11:23:39 2020","The main experiment item","yes","SternbergTask.osexp","/Users/Arianna/Desktop","no","mono","no","18","no","white","no","yes","768","legacy","35","11","/Users/Arianna/Downloads/AG-subject-2.csv","legacy","3 4 9 6 7 8","Lentiform Loewenfeld","3.3.3","0","n","0","right","right","right","right","NA","348","14561","33214","348","NA","NA","NA","2","legacy","6","1024","2","48000","-16","experiment","1","odd","2","359649","301861","357403","4796","133666","357415","NA","356317","119104","4814","361665","362015","358433","38044","361665","NA","NA","Sternberg Task","11","51872","48","yes","1024"
"22.448979591836736","22.448979591836736","1068.5714285714287","1068.5714285714287","black","experiment","legacy","legacy","legacy","0","uniform","0","undefined","0","left","48","48","48","0","0","48","NA","48","0","0","48","48","48","0","48","0","NA","Sun Oct 25 11:23:39 2020","The main experiment item","yes","SternbergTask.osexp","/Users/Arianna/Desktop","no","mono","no","18","no","white","no","yes","768","legacy","36","11","/Users/Arianna/Downloads/AG-subject-2.csv","legacy","2 4 8 5 1 3","Lentiform Loewenfeld","3.3.3","1","y","0","right","right","right","right","NA","488","14561","33214","488","NA","NA","NA","2","legacy","6","1024","2","48000","-16","experiment","1","odd","2","365372","362041","363128","4796","133666","363140","NA","356317","119104","4814","367386","367875","364155","38044","367386","NA","NA","Sternberg Task","11","52360","49","yes","1024"
"22","22","1082.42","1082.42","black","experiment","legacy","legacy","legacy","0","uniform","0","undefined","0","left","49","49","49","0","0","49","NA","49","0","0","49","49","49","0","49","0","NA","Sun Oct 25 11:23:39 2020","The main experiment item","yes","SternbergTask.osexp","/Users/Arianna/Desktop","no","mono","no","18","no","white","no","yes","768","legacy","37","11","/Users/Arianna/Downloads/AG-subject-2.csv","legacy","6 5","Lentiform Loewenfeld","3.3.3","2","y","0","right","right","right","right","NA","1761","14561","33214","1761","NA","NA","NA","2","legacy","2","1024","2","48000","-16","experiment","1","odd","5","371231","362041","368984","4796","133666","368997","NA","367899","119104","4814","373246","375008","370012","38044","373246","NA","NA","Sternberg Task","11","54121","50","yes","1024"
"21.568627450980394","21.568627450980394","1100.4117647058824","1100.4117647058824","black","experiment","legacy","legacy","legacy","0","uniform","0","undefined","0","left","50","50","50","0","0","50","NA","50","0","0","50","50","50","0","50","0","NA","Sun Oct 25 11:23:39 2020","The main experiment item","yes","SternbergTask.osexp","/Users/Arianna/Desktop","no","mono","no","18","no","white","no","yes","768","legacy","38","11","/Users/Arianna/Downloads/AG-subject-2.csv","legacy","6 9 7 4 5 1","Lentiform Loewenfeld","3.3.3","2","y","0","None","right","right","None","NA","2000","14561","33214","2000","NA","NA","NA","2","legacy","6","1024","2","48000","-16","experiment","1","odd","9","378368","362041","376124","4796","133666","376136","NA","375035","119104","4814","380384","382384","377151","38044","380384","NA","NA","Sternberg Task","11","56121","51","yes","1024"
"21.153846153846153","21.153846153846153","1117.7115384615386","1117.7115384615386","black","experiment","legacy","legacy","legacy","0","uniform","0","undefined","0","left","51","51","51","0","0","51","NA","51","0","0","51","51","51","0","51","0","NA","Sun Oct 25 11:23:39 2020","The main experiment item","yes","SternbergTask.osexp","/Users/Arianna/Desktop","no","mono","no","18","no","white","no","yes","768","legacy","39","11","/Users/Arianna/Downloads/AG-subject-2.csv","legacy","1 4 9 3 2 5","Lentiform Loewenfeld","3.3.3","3","y","0","None","right","right","None","NA","2000","14561","33214","2000","NA","NA","NA","2","legacy","6","1024","2","48000","-16","experiment","1","odd","9","385733","362041","383488","4796","133666","383500","NA","382399","119104","4814","387746","389746","384515","38044","387746","NA","NA","Sternberg Task","11","58121","52","yes","1024"
"20.754716981132077","20.754716981132077","1134.3584905660377","1134.3584905660377","black","experiment","legacy","legacy","legacy","0","uniform","0","undefined","0","right","52","52","52","0","0","52","NA","52","0","0","52","52","52","0","52","0","NA","Sun Oct 25 11:23:39 2020","The main experiment item","yes","SternbergTask.osexp","/Users/Arianna/Desktop","no","mono","no","18","no","white","no","yes","768","legacy","40","11","/Users/Arianna/Downloads/AG-subject-2.csv","legacy","6 7 5 9","Lentiform Loewenfeld","3.3.3","0","n","0","None","right","right","None","NA","2000","14561","33214","2000","NA","NA","NA","2","legacy","4","1024","2","48000","-16","experiment","1","odd","2","393104","362041","390860","4796","133666","390872","NA","389773","119104","4814","395118","397118","391888","38044","395118","NA","NA","Sternberg Task","11","60121","53","yes","1024"
"20.37037037037037","20.37037037037037","1130","1130","black","experiment","legacy","legacy","legacy","0","uniform","0","undefined","0","right","53","53","53","0","0","53","NA","53","0","0","53","53","53","0","53","0","NA","Sun Oct 25 11:23:39 2020","The main experiment item","yes","SternbergTask.osexp","/Users/Arianna/Desktop","no","mono","no","18","no","white","no","yes","768","legacy","41","11","/Users/Arianna/Downloads/AG-subject-2.csv","legacy","9 5 3 2 8 6","Lentiform Loewenfeld","3.3.3","0","n","0","left","right","right","left","NA","899","14561","33214","899","NA","NA","NA","2","legacy","6","1024","2","48000","-16","experiment","1","odd","7","400478","362041","398232","4796","133666","398245","NA","397144","119104","4814","402491","403392","399261","38044","402491","NA","NA","Sternberg Task","11","61020","54","yes","1024"
"20","20","1119.7818181818182","1119.7818181818182","black","experiment","legacy","legacy","legacy","0","uniform","0","undefined","0","left","54","54","54","0","0","54","NA","54","0","0","54","54","54","0","54","0","NA","Sun Oct 25 11:23:39 2020","The main experiment item","yes","SternbergTask.osexp","/Users/Arianna/Desktop","no","mono","no","18","no","white","no","yes","768","legacy","42","11","/Users/Arianna/Downloads/AG-subject-2.csv","legacy","3 2 1 4 7","Lentiform Loewenfeld","3.3.3","2","y","0","right","right","right","right","NA","568","14561","33214","568","NA","NA","NA","2","legacy","5","1024","2","48000","-16","experiment","1","odd","2","406752","362041","404504","4796","133666","404517","NA","403418","119104","4814","408766","409335","405532","38044","408766","NA","NA","Sternberg Task","11","61588","55","yes","1024"
"19.642857142857142","19.642857142857142","1119.9642857142858","1119.9642857142858","black","experiment","legacy","legacy","legacy","0","uniform","0","undefined","0","left","55","55","55","0","0","55","NA","55","0","0","55","55","55","0","55","0","NA","Sun Oct 25 11:23:39 2020","The main experiment item","yes","SternbergTask.osexp","/Users/Arianna/Desktop","no","mono","no","18","no","white","no","yes","768","legacy","43","11","/Users/Arianna/Downloads/AG-subject-2.csv","legacy","7 1 3","Lentiform Loewenfeld","3.3.3","2","y","0","right","right","right","right","NA","1130","14561","33214","1130","NA","NA","NA","2","legacy","3","1024","2","48000","-16","experiment","1","odd","1","412701","362041","410452","4796","133666","410467","NA","409362","119104","4814","414715","415847","411483","38044","414715","NA","NA","Sternberg Task","11","62718","56","yes","1024"
"19.29824561403509","19.29824561403509","1135.4035087719299","1135.4035087719299","black","experiment","legacy","legacy","legacy","0","uniform","0","undefined","0","left","56","56","56","0","0","56","NA","56","0","0","56","56","56","0","56","0","NA","Sun Oct 25 11:23:39 2020","The main experiment item","yes","SternbergTask.osexp","/Users/Arianna/Desktop","no","mono","no","18","no","white","no","yes","768","legacy","44","11","/Users/Arianna/Downloads/AG-subject-2.csv","legacy","4 7 6 8 2 3","Lentiform Loewenfeld","3.3.3","6","y","0","None","right","right","None","NA","2000","14561","33214","2000","NA","NA","NA","2","legacy","6","1024","2","48000","-16","experiment","1","odd","3","419203","362041","416959","4796","133666","416972","NA","415870","119104","4814","421218","423218","417987","38044","421218","NA","NA","Sternberg Task","11","64718","57","yes","1024"
"18.96551724137931","18.96551724137931","1123.655172413793","1123.655172413793","black","experiment","legacy","legacy","legacy","0","uniform","0","undefined","0","right","57","57","57","0","0","57","NA","57","0","0","57","57","57","0","57","0","NA","Sun Oct 25 11:23:39 2020","The main experiment item","yes","SternbergTask.osexp","/Users/Arianna/Desktop","no","mono","no","18","no","white","no","yes","768","legacy","45","11","/Users/Arianna/Downloads/AG-subject-2.csv","legacy","5 7 3","Lentiform Loewenfeld","3.3.3","0","n","0","left","right","right","left","NA","454","14561","33214","454","NA","NA","NA","2","legacy","3","1024","2","48000","-16","experiment","1","odd","9","426577","362041","424330","4796","133666","424344","NA","423245","119104","4814","428591","429046","425359","38044","428590","NA","NA","Sternberg Task","11","65172","58","yes","1024"
"18.64406779661017","18.64406779661017","1106.915254237288","1106.915254237288","black","experiment","legacy","legacy","legacy","0","uniform","0","undefined","0","left","58","58","58","0","0","58","NA","58","0","0","58","58","58","0","58","0","NA","Sun Oct 25 11:23:39 2020","The main experiment item","yes","SternbergTask.osexp","/Users/Arianna/Desktop","no","mono","no","18","no","white","no","yes","768","legacy","46","11","/Users/Arianna/Downloads/AG-subject-2.csv","legacy","3 5 9 6 2 4","Lentiform Loewenfeld","3.3.3","1","y","0","right","right","right","right","NA","136","14561","33214","136","NA","NA","NA","2","legacy","6","1024","2","48000","-16","experiment","1","odd","3","432402","362041","430156","4796","133666","430168","NA","429071","119104","4814","434417","434554","431184","38044","434416","NA","NA","Sternberg Task","11","65308","59","yes","1024"
"20","20","1098.9333333333334","1098.9333333333334","black","experiment","legacy","legacy","legacy","0","uniform","1","undefined","1","right","59","59","59","0","0","59","NA","59","0","0","59","59","59","0","59","0","NA","Sun Oct 25 11:23:39 2020","The main experiment item","yes","SternbergTask.osexp","/Users/Arianna/Desktop","no","mono","no","18","no","white","no","yes","768","legacy","47","11","/Users/Arianna/Downloads/AG-subject-2.csv","legacy","5 2","Lentiform Loewenfeld","3.3.3","0","n","0","right","right","right","right","NA","628","14561","33214","628","NA","NA","NA","2","legacy","2","1024","2","48000","-16","experiment","1","odd","7","437918","362041","435671","4796","133666","435684","NA","434580","119104","4814","439932","440562","436701","38044","439931","NA","NA","Sternberg Task","12","65936","60","yes","1024"
"21.311475409836067","21.311475409836067","1091.8196721311476","1091.8196721311476","black","experiment","legacy","legacy","legacy","0","uniform","1","undefined","1","right","60","60","60","0","0","60","NA","60","0","0","60","60","60","0","60","0","NA","Sun Oct 25 11:23:39 2020","The main experiment item","yes","SternbergTask.osexp","/Users/Arianna/Desktop","no","mono","no","18","no","white","no","yes","768","legacy","48","11","/Users/Arianna/Downloads/AG-subject-2.csv","legacy","6 9 4 5 2","Lentiform Loewenfeld","3.3.3","0","n","0","right","right","right","right","NA","665","14561","33214","665","NA","NA","NA","2","legacy","5","1024","2","48000","-16","experiment","1","odd","1","443917","440587","441673","4796","133666","441686","NA","434580","119104","4814","445931","446598","442699","38044","445931","NA","NA","Sternberg Task","13","66601","61","yes","1024"
"20.967741935483872","20.967741935483872","1106.467741935484","1106.467741935484","black","experiment","legacy","legacy","legacy","0","uniform","0","undefined","0","right","61","61","61","0","0","61","NA","61","0","0","61","61","61","0","61","0","NA","Sun Oct 25 11:23:39 2020","The main experiment item","yes","SternbergTask.osexp","/Users/Arianna/Desktop","no","mono","no","18","no","white","no","yes","768","legacy","49","11","/Users/Arianna/Downloads/AG-subject-2.csv","legacy","7 1","Lentiform Loewenfeld","3.3.3","0","n","0","None","right","right","None","NA","2000","14561","33214","2000","NA","NA","NA","2","legacy","2","1024","2","48000","-16","experiment","1","odd","8","449956","446625","447710","4796","133666","447723","NA","434580","119104","4814","451970","453970","448738","38044","451970","NA","NA","Sternberg Task","13","68601","62","yes","1024"
"20.634920634920636","20.634920634920636","1095.8253968253969","1095.8253968253969","black","experiment","legacy","legacy","legacy","0","uniform","0","undefined","0","left","62","62","62","0","0","62","NA","62","0","0","62","62","62","0","62","0","NA","Sun Oct 25 11:23:39 2020","The main experiment item","yes","SternbergTask.osexp","/Users/Arianna/Desktop","no","mono","no","18","no","white","no","yes","768","legacy","50","11","/Users/Arianna/Downloads/AG-subject-2.csv","legacy","2 6 1 7 4","Lentiform Loewenfeld","3.3.3","2","y","0","right","right","right","right","NA","436","14561","33214","436","NA","NA","NA","2","legacy","5","1024","2","48000","-16","experiment","1","odd","6","457329","446625","455082","4796","133666","455095","NA","453997","119104","4814","459343","459780","456111","38044","459342","NA","NA","Sternberg Task","13","69037","63","yes","1024"
"20.3125","20.3125","1094.4375","1094.4375","black","experiment","legacy","legacy","legacy","0","uniform","0","undefined","0","right","63","63","63","0","0","63","NA","63","0","0","63","63","63","0","63","0","NA","Sun Oct 25 11:23:39 2020","The main experiment item","yes","SternbergTask.osexp","/Users/Arianna/Desktop","no","mono","no","18","no","white","no","yes","768","legacy","51","11","/Users/Arianna/Downloads/AG-subject-2.csv","legacy","1","Lentiform Loewenfeld","3.3.3","0","n","0","left","right","right","left","NA","1007","14561","33214","1007","NA","NA","NA","2","legacy","1","1024","2","48000","-16","experiment","1","odd","7","463128","446625","460883","4796","133666","460896","NA","459798","119104","4814","465142","466151","461912","38044","465142","NA","NA","Sternberg Task","13","70044","64","yes","1024"
"20","20","1100.6615384615384","1100.6615384615384","black","experiment","legacy","legacy","legacy","0","uniform","0","undefined","0","right","64","64","64","0","0","64","NA","64","0","0","64","64","64","0","64","0","NA","Sun Oct 25 11:23:39 2020","The main experiment item","yes","SternbergTask.osexp","/Users/Arianna/Desktop","no","mono","no","18","no","white","no","yes","768","legacy","52","11","/Users/Arianna/Downloads/AG-subject-2.csv","legacy","3 9 1","Lentiform Loewenfeld","3.3.3","0","n","0","left","right","right","left","NA","1499","14561","33214","1499","NA","NA","NA","2","legacy","3","1024","2","48000","-16","experiment","1","odd","7","469506","446625","467261","4796","133666","467274","NA","466176","119104","4814","471519","473019","468289","38044","471519","NA","NA","Sternberg Task","13","71543","65","yes","1024"
"21.21212121212121","21.21212121212121","1093.0757575757575","1093.0757575757575","black","experiment","legacy","legacy","legacy","0","uniform","1","undefined","1","right","65","65","65","0","0","65","NA","65","0","0","65","65","65","0","65","0","NA","Sun Oct 25 11:23:39 2020","The main experiment item","yes","SternbergTask.osexp","/Users/Arianna/Desktop","no","mono","no","18","no","white","no","yes","768","legacy","53","11","/Users/Arianna/Downloads/AG-subject-2.csv","legacy","1 4 9 3","Lentiform Loewenfeld","3.3.3","0","n","0","right","right","right","right","NA","600","14561","33214","600","NA","NA","NA","2","legacy","4","1024","2","48000","-16","experiment","1","odd","5","476373","446625","474120","4796","133666","474140","NA","473034","119104","4814","478387","478989","475155","38044","478387","NA","NA","Sternberg Task","14","72143","66","yes","1024"
"20.895522388059703","20.895522388059703","1100.2985074626865","1100.2985074626865","black","experiment","legacy","legacy","legacy","0","uniform","0","undefined","0","right","66","66","66","0","0","66","NA","66","0","0","66","66","66","0","66","0","NA","Sun Oct 25 11:23:39 2020","The main experiment item","yes","SternbergTask.osexp","/Users/Arianna/Desktop","no","mono","no","18","no","white","no","yes","768","legacy","54","11","/Users/Arianna/Downloads/AG-subject-2.csv","legacy","2 7 5","Lentiform Loewenfeld","3.3.3","0","n","0","left","right","right","left","NA","1577","14561","33214","1577","NA","NA","NA","2","legacy","3","1024","2","48000","-16","experiment","1","odd","8","482350","479016","480103","4796","133666","480116","NA","473034","119104","4814","484365","485943","481133","38044","484365","NA","NA","Sternberg Task","14","73720","67","yes","1024"
"20.58823529411765","20.58823529411765","1098.4264705882354","1098.4264705882354","black","experiment","legacy","legacy","legacy","0","uniform","0","undefined","0","left","67","67","67","0","0","67","NA","67","0","0","67","67","67","0","67","0","NA","Sun Oct 25 11:23:39 2020","The main experiment item","yes","SternbergTask.osexp","/Users/Arianna/Desktop","no","mono","no","18","no","white","no","yes","768","legacy","55","11","/Users/Arianna/Downloads/AG-subject-2.csv","legacy","9 8 4","Lentiform Loewenfeld","3.3.3","1","y","0","right","right","right","right","NA","973","14561","33214","973","NA","NA","NA","2","legacy","3","1024","2","48000","-16","experiment","1","odd","9","489302","479016","487052","4796","133666","487068","NA","485966","119104","4814","491316","492291","488085","38044","491316","NA","NA","Sternberg Task","14","74693","68","yes","1024"
"21.73913043478261","21.73913043478261","1100.2028985507247","1100.2028985507247","black","experiment","legacy","legacy","legacy","0","uniform","1","undefined","1","left","68","68","68","0","0","68","NA","68","0","0","68","68","68","0","68","0","NA","Sun Oct 25 11:23:39 2020","The main experiment item","yes","SternbergTask.osexp","/Users/Arianna/Desktop","no","mono","no","18","no","white","no","yes","768","legacy","56","11","/Users/Arianna/Downloads/AG-subject-2.csv","legacy","8 5 4 7 3 1","Lentiform Loewenfeld","3.3.3","2","y","0","left","right","right","left","NA","1221","14561","33214","1221","NA","NA","NA","2","legacy","6","1024","2","48000","-16","experiment","1","odd","5","495640","479016","493395","4796","133666","493408","NA","492309","119104","4814","497654","498877","494423","38044","497654","NA","NA","Sternberg Task","15","75914","69","yes","1024"
"22.857142857142858","22.857142857142858","1098.3857142857144","1098.3857142857144","black","experiment","legacy","legacy","legacy","0","uniform","1","undefined","1","right","69","69","69","0","0","69","NA","69","0","0","69","69","69","0","69","0","NA","Sun Oct 25 11:23:39 2020","The main experiment item","yes","SternbergTask.osexp","/Users/Arianna/Desktop","no","mono","no","18","no","white","no","yes","768","legacy","57","11","/Users/Arianna/Downloads/AG-subject-2.csv","legacy","1 3 2 6 9","Lentiform Loewenfeld","3.3.3","0","n","0","right","right","right","right","NA","973","14561","33214","973","NA","NA","NA","2","legacy","5","1024","2","48000","-16","experiment","1","odd","5","502231","498900","499987","4796","133666","500000","NA","492309","119104","4814","504245","505220","501014","38044","504245","NA","NA","Sternberg Task","16","76887","70","yes","1024"
"22.535211267605632","22.535211267605632","1095.605633802817","1095.605633802817","black","experiment","legacy","legacy","legacy","0","uniform","0","undefined","0","left","70","70","70","0","0","70","NA","70","0","0","70","70","70","0","70","0","NA","Sun Oct 25 11:23:39 2020","The main experiment item","yes","SternbergTask.osexp","/Users/Arianna/Desktop","no","mono","no","18","no","white","no","yes","768","legacy","58","11","/Users/Arianna/Downloads/AG-subject-2.csv","legacy","7","Lentiform Loewenfeld","3.3.3","1","y","0","right","right","right","right","NA","901","14561","33214","901","NA","NA","NA","2","legacy","1","1024","2","48000","-16","experiment","1","odd","7","508579","505247","506333","4796","133666","506346","NA","492309","119104","4814","510593","511496","507362","38044","510593","NA","NA","Sternberg Task","16","77788","71","yes","1024"
"23.61111111111111","23.61111111111111","1108.125","1108.125","black","experiment","legacy","legacy","legacy","0","uniform","1","undefined","1","right","71","71","71","0","0","71","NA","71","0","0","71","71","71","0","71","0","NA","Sun Oct 25 11:23:39 2020","The main experiment item","yes","SternbergTask.osexp","/Users/Arianna/Desktop","no","mono","no","18","no","white","no","yes","768","legacy","59","11","/Users/Arianna/Downloads/AG-subject-2.csv","legacy","1 6 4","Lentiform Loewenfeld","3.3.3","0","n","0","right","right","right","right","NA","1997","14561","33214","1997","NA","NA","NA","2","legacy","3","1024","2","48000","-16","experiment","1","odd","7","514852","505247","512607","4796","133666","512620","NA","511522","119104","4814","516866","518864","513635","38044","516866","NA","NA","Sternberg Task","17","79785","72","yes","1024"
"23.28767123287671","23.28767123287671","1110.6575342465753","1110.6575342465753","black","experiment","legacy","legacy","legacy","0","uniform","0","undefined","0","right","72","72","72","0","0","72","NA","72","0","0","72","72","72","0","72","0","NA","Sun Oct 25 11:23:39 2020","The main experiment item","yes","SternbergTask.osexp","/Users/Arianna/Desktop","no","mono","no","18","no","white","no","yes","768","legacy","60","11","/Users/Arianna/Downloads/AG-subject-2.csv","legacy","4 1","Lentiform Loewenfeld","3.3.3","0","n","0","left","right","right","left","NA","1293","14561","33214","1293","NA","NA","NA","2","legacy","2","1024","2","48000","-16","experiment","1","odd","6","522219","518889","519975","4796","133666","519988","NA","511522","119104","4814","524233","525527","521002","38044","524233","NA","NA","Sternberg Task","17","81078","73","yes","1024"
"24.324324324324323","24.324324324324323","1104.7702702702702","1104.7702702702702","black","experiment","legacy","legacy","legacy","0","uniform","1","undefined","1","right","73","73","73","0","0","73","NA","73","0","0","73","73","73","0","73","0","NA","Sun Oct 25 11:23:39 2020","The main experiment item","yes","SternbergTask.osexp","/Users/Arianna/Desktop","no","mono","no","18","no","white","no","yes","768","legacy","61","11","/Users/Arianna/Downloads/AG-subject-2.csv","legacy","2 3 8 5 6 7","Lentiform Loewenfeld","3.3.3","0","n","0","right","right","right","right","NA","675","14561","33214","675","NA","NA","NA","2","legacy","6","1024","2","48000","-16","experiment","1","odd","1","528890","518889","526644","4796","133666","526656","NA","525554","119104","4814","530904","531580","527672","38044","530904","NA","NA","Sternberg Task","18","81753","74","yes","1024"
"24","24","1099.4533333333334","1099.4533333333334","black","experiment","legacy","legacy","legacy","0","uniform","0","undefined","0","left","74","74","74","0","0","74","NA","74","0","0","74","74","74","0","74","0","NA","Sun Oct 25 11:23:39 2020","The main experiment item","yes","SternbergTask.osexp","/Users/Arianna/Desktop","no","mono","no","18","no","white","no","yes","768","legacy","62","11","/Users/Arianna/Downloads/AG-subject-2.csv","legacy","2 3 7 4","Lentiform Loewenfeld","3.3.3","1","y","0","right","right","right","right","NA","706","14561","33214","706","NA","NA","NA","2","legacy","4","1024","2","48000","-16","experiment","1","odd","2","534939","531607","532692","4796","133666","532706","NA","525554","119104","4814","536953","537660","533722","38044","536953","NA","NA","Sternberg Task","18","82459","75","yes","1024"
"25","25","1100.4868421052631","1100.4868421052631","black","experiment","legacy","legacy","legacy","0","uniform","1","undefined","1","left","75","75","75","0","0","75","NA","75","0","0","75","75","75","0","75","0","NA","Sun Oct 25 11:23:39 2020","The main experiment item","yes","SternbergTask.osexp","/Users/Arianna/Desktop","no","mono","no","18","no","white","no","yes","768","legacy","63","11","/Users/Arianna/Downloads/AG-subject-2.csv","legacy","2 5 4 8 7","Lentiform Loewenfeld","3.3.3","3","y","0","left","right","right","left","NA","1178","14561","33214","1178","NA","NA","NA","2","legacy","5","1024","2","48000","-16","experiment","1","odd","4","541017","531607","538773","4796","133666","538787","NA","537683","119104","4814","543031","544211","539802","38044","543031","NA","NA","Sternberg Task","19","83637","76","yes","1024"
"24.675324675324674","24.675324675324674","1091.2727272727273","1091.2727272727273","black","experiment","legacy","legacy","legacy","0","uniform","0","undefined","0","right","76","76","76","0","0","76","NA","76","0","0","76","76","76","0","76","0","NA","Sun Oct 25 11:23:39 2020","The main experiment item","yes","SternbergTask.osexp","/Users/Arianna/Desktop","no","mono","no","18","no","white","no","yes","768","legacy","64","11","/Users/Arianna/Downloads/AG-subject-2.csv","legacy","5","Lentiform Loewenfeld","3.3.3","0","n","0","left","right","right","left","NA","391","14561","33214","391","NA","NA","NA","2","legacy","1","1024","2","48000","-16","experiment","1","odd","8","547648","544231","545365","4796","133666","545415","NA","537683","119104","4814","549665","550058","546430","38044","549665","NA","NA","Sternberg Task","19","84028","77","yes","1024"
"25.641025641025642","25.641025641025642","1096.4871794871794","1096.4871794871794","black","experiment","legacy","legacy","legacy","0","uniform","1","undefined","1","right","77","77","77","0","0","77","NA","77","0","0","77","77","77","0","77","0","NA","Sun Oct 25 11:23:39 2020","The main experiment item","yes","SternbergTask.osexp","/Users/Arianna/Desktop","no","mono","no","18","no","white","no","yes","768","legacy","65","11","/Users/Arianna/Downloads/AG-subject-2.csv","legacy","6 9 7 3 8 2","Lentiform Loewenfeld","3.3.3","0","n","0","right","right","right","right","NA","1498","14561","33214","1498","NA","NA","NA","2","legacy","6","1024","2","48000","-16","experiment","1","odd","5","553419","544231","551173","4796","133666","551187","NA","550085","119104","4814","555433","556932","552202","38044","555433","NA","NA","Sternberg Task","20","85526","78","yes","1024"
"25.31645569620253","25.31645569620253","1092.0506329113923","1092.0506329113923","black","experiment","legacy","legacy","legacy","0","uniform","0","undefined","0","left","78","78","78","0","0","78","NA","78","0","0","78","78","78","0","78","0","NA","Sun Oct 25 11:23:39 2020","The main experiment item","yes","SternbergTask.osexp","/Users/Arianna/Desktop","no","mono","no","18","no","white","no","yes","768","legacy","66","11","/Users/Arianna/Downloads/AG-subject-2.csv","legacy","5 2 9 6 1 7","Lentiform Loewenfeld","3.3.3","3","y","0","right","right","right","right","NA","746","14561","33214","746","NA","NA","NA","2","legacy","6","1024","2","48000","-16","experiment","1","odd","9","560287","556958","558042","4796","133666","558055","NA","550085","119104","4814","562311","563059","559070","38044","562310","NA","NA","Sternberg Task","20","86272","79","yes","1024"
"25","25","1086.65","1086.65","black","experiment","legacy","legacy","legacy","0","uniform","0","undefined","0","right","79","79","79","0","0","79","NA","79","0","0","79","79","79","0","79","0","NA","Sun Oct 25 11:23:39 2020","The main experiment item","yes","SternbergTask.osexp","/Users/Arianna/Desktop","no","mono","no","18","no","white","no","yes","768","legacy","67","11","/Users/Arianna/Downloads/AG-subject-2.csv","legacy","6 2 9 3 8 4","Lentiform Loewenfeld","3.3.3","0","n","0","left","right","right","left","NA","660","14561","33214","660","NA","NA","NA","2","legacy","6","1024","2","48000","-16","experiment","1","odd","1","566434","556958","564187","4796","133666","564200","NA","563086","119104","4814","568448","569110","565217","38044","568448","NA","NA","Sternberg Task","20","86932","80","yes","1024"
"24.691358024691358","24.691358024691358","1084.9012345679012","1084.9012345679012","black","experiment","legacy","legacy","legacy","0","uniform","0","undefined","0","left","80","80","80","0","0","80","NA","80","0","0","80","80","80","0","80","0","NA","Sun Oct 25 11:23:39 2020","The main experiment item","yes","SternbergTask.osexp","/Users/Arianna/Desktop","no","mono","no","18","no","white","no","yes","768","legacy","68","11","/Users/Arianna/Downloads/AG-subject-2.csv","legacy","9 5 3 8 4","Lentiform Loewenfeld","3.3.3","1","y","0","right","right","right","right","NA","945","14561","33214","945","NA","NA","NA","2","legacy","5","1024","2","48000","-16","experiment","1","odd","9","572466","556958","570221","4796","133666","570234","NA","569137","119104","4814","574480","575426","571249","38044","574480","NA","NA","Sternberg Task","20","87877","81","yes","1024"
"25.609756097560975","25.609756097560975","1076.6707317073171","1076.6707317073171","black","experiment","legacy","legacy","legacy","0","uniform","1","undefined","1","left","81","81","81","0","0","81","NA","81","0","0","81","81","81","0","81","0","NA","Sun Oct 25 11:23:39 2020","The main experiment item","yes","SternbergTask.osexp","/Users/Arianna/Desktop","no","mono","no","18","no","white","no","yes","768","legacy","69","11","/Users/Arianna/Downloads/AG-subject-2.csv","legacy","8 9 5 7 1 6","Lentiform Loewenfeld","3.3.3","4","y","0","left","right","right","left","NA","410","14561","33214","410","NA","NA","NA","2","legacy","6","1024","2","48000","-16","experiment","1","odd","7","578782","556958","576537","4796","133666","576550","NA","575452","119104","4814","580796","581208","577565","38044","580796","NA","NA","Sternberg Task","21","88287","82","yes","1024"
"25.301204819277107","25.301204819277107","1087.7951807228915","1087.7951807228915","black","experiment","legacy","legacy","legacy","0","uniform","0","undefined","0","right","82","82","82","0","0","82","NA","82","0","0","82","82","82","0","82","0","NA","Sun Oct 25 11:23:39 2020","The main experiment item","yes","SternbergTask.osexp","/Users/Arianna/Desktop","no","mono","no","18","no","white","no","yes","768","legacy","70","11","/Users/Arianna/Downloads/AG-subject-2.csv","legacy","1 4 9 2 5","Lentiform Loewenfeld","3.3.3","0","n","0","None","right","right","None","NA","2000","14561","33214","2000","NA","NA","NA","2","legacy","5","1024","2","48000","-16","experiment","1","odd","7","584564","581233","582319","4796","133666","582332","NA","575452","119104","4814","586578","588578","583347","38044","586578","NA","NA","Sternberg Task","21","90287","83","yes","1024"
"25","25","1078.297619047619","1078.297619047619","black","experiment","legacy","legacy","legacy","0","uniform","0","undefined","0","left","83","83","83","0","0","83","NA","83","0","0","83","83","83","0","83","0","NA","Sun Oct 25 11:23:39 2020","The main experiment item","yes","SternbergTask.osexp","/Users/Arianna/Desktop","no","mono","no","18","no","white","no","yes","768","legacy","71","11","/Users/Arianna/Downloads/AG-subject-2.csv","legacy","5 7 3 6 2","Lentiform Loewenfeld","3.3.3","5","y","0","right","right","right","right","NA","290","14561","33214","290","NA","NA","NA","2","legacy","5","1024","2","48000","-16","experiment","1","odd","2","591935","581233","589688","4796","133666","589702","NA","588601","119104","4814","593949","594240","590717","38044","593949","NA","NA","Sternberg Task","21","90577","84","yes","1024"
"25.88235294117647","25.88235294117647","1084.0588235294117","1084.0588235294117","black","experiment","legacy","legacy","legacy","0","uniform","1","undefined","1","right","84","84","84","0","0","84","NA","84","0","0","84","84","84","0","84","0","NA","Sun Oct 25 11:23:39 2020","The main experiment item","yes","SternbergTask.osexp","/Users/Arianna/Desktop","no","mono","no","18","no","white","no","yes","768","legacy","72","11","/Users/Arianna/Downloads/AG-subject-2.csv","legacy","7 3 2 8","Lentiform Loewenfeld","3.3.3","0","n","0","right","right","right","right","NA","1568","14561","33214","1568","NA","NA","NA","2","legacy","4","1024","2","48000","-16","experiment","1","odd","4","597602","581233","595356","4796","133666","595369","NA","594266","119104","4814","599616","601186","596384","38044","599616","NA","NA","Sternberg Task","22","92145","85","yes","1024"
"25.58139534883721","25.58139534883721","1079.1511627906978","1079.1511627906978","black","experiment","legacy","legacy","legacy","0","uniform","0","undefined","0","right","85","85","85","0","0","85","NA","85","0","0","85","85","85","0","85","0","NA","Sun Oct 25 11:23:39 2020","The main experiment item","yes","SternbergTask.osexp","/Users/Arianna/Desktop","no","mono","no","18","no","white","no","yes","768","legacy","73","11","/Users/Arianna/Downloads/AG-subject-2.csv","legacy","2 5 1 4","Lentiform Loewenfeld","3.3.3","0","n","0","left","right","right","left","NA","662","14561","33214","662","NA","NA","NA","2","legacy","4","1024","2","48000","-16","experiment","1","odd","6","604561","601212","602313","4796","133666","602327","NA","594266","119104","4814","606575","607239","603344","38044","606575","NA","NA","Sternberg Task","22","92807","86","yes","1024"
"26.436781609195403","26.436781609195403","1078.103448275862","1078.103448275862","black","experiment","legacy","legacy","legacy","0","uniform","1","undefined","1","right","86","86","86","0","0","86","NA","86","0","0","86","86","86","0","86","0","NA","Sun Oct 25 11:23:39 2020","The main experiment item","yes","SternbergTask.osexp","/Users/Arianna/Desktop","no","mono","no","18","no","white","no","yes","768","legacy","74","11","/Users/Arianna/Downloads/AG-subject-2.csv","legacy","1 6 4 3 9 7","Lentiform Loewenfeld","3.3.3","0","n","0","right","right","right","right","NA","988","14561","33214","988","NA","NA","NA","2","legacy","6","1024","2","48000","-16","experiment","1","odd","8","610603","601212","608355","4796","133666","608370","NA","607266","119104","4814","612617","613606","609386","38044","612617","NA","NA","Sternberg Task","23","93795","87","yes","1024"
"26.136363636363637","26.136363636363637","1088.5795454545455","1088.5795454545455","black","experiment","legacy","legacy","legacy","0","uniform","0","undefined","0","left","87","87","87","0","0","87","NA","87","0","0","87","87","87","0","87","0","NA","Sun Oct 25 11:23:39 2020","The main experiment item","yes","SternbergTask.osexp","/Users/Arianna/Desktop","no","mono","no","18","no","white","no","yes","768","legacy","75","11","/Users/Arianna/Downloads/AG-subject-2.csv","legacy","8 7 3","Lentiform Loewenfeld","3.3.3","1","y","0","None","right","right","None","NA","2000","14561","33214","2000","NA","NA","NA","2","legacy","3","1024","2","48000","-16","experiment","1","odd","8","616967","613632","614721","4796","133666","614734","NA","607266","119104","4814","618982","620982","615750","38044","618982","NA","NA","Sternberg Task","23","95795","88","yes","1024"
"25.84269662921348","25.84269662921348","1098.8202247191011","1098.8202247191011","black","experiment","legacy","legacy","legacy","0","uniform","0","undefined","0","left","88","88","88","0","0","88","NA","88","0","0","88","88","88","0","88","0","NA","Sun Oct 25 11:23:39 2020","The main experiment item","yes","SternbergTask.osexp","/Users/Arianna/Desktop","no","mono","no","18","no","white","no","yes","768","legacy","76","11","/Users/Arianna/Downloads/AG-subject-2.csv","legacy","7 8 4 6 9 5","Lentiform Loewenfeld","3.3.3","4","y","0","None","right","right","None","NA","2000","14561","33214","2000","NA","NA","NA","2","legacy","6","1024","2","48000","-16","experiment","1","odd","6","624341","613632","622096","4796","133666","622109","NA","621008","119104","4814","626356","628356","623124","38044","626356","NA","NA","Sternberg Task","23","97795","89","yes","1024"
"26.666666666666668","26.666666666666668","1091.5555555555557","1091.5555555555557","black","experiment","legacy","legacy","legacy","0","uniform","1","undefined","1","right","89","89","89","0","0","89","NA","89","0","0","89","89","89","0","89","0","NA","Sun Oct 25 11:23:39 2020","The main experiment item","yes","SternbergTask.osexp","/Users/Arianna/Desktop","no","mono","no","18","no","white","no","yes","768","legacy","77","11","/Users/Arianna/Downloads/AG-subject-2.csv","legacy","5 9 2 3","Lentiform Loewenfeld","3.3.3","0","n","0","right","right","right","right","NA","445","14561","33214","445","NA","NA","NA","2","legacy","4","1024","2","48000","-16","experiment","1","odd","8","631716","613632","629470","4796","133666","629483","NA","628383","119104","4814","633730","634177","630499","38044","633730","NA","NA","Sternberg Task","24","98240","90","yes","1024"
"26.373626373626372","26.373626373626372","1085.6043956043957","1085.6043956043957","black","experiment","legacy","legacy","legacy","0","uniform","0","undefined","0","left","90","90","90","0","0","90","NA","90","0","0","90","90","90","0","90","0","NA","Sun Oct 25 11:23:39 2020","The main experiment item","yes","SternbergTask.osexp","/Users/Arianna/Desktop","no","mono","no","18","no","white","no","yes","768","legacy","78","11","/Users/Arianna/Downloads/AG-subject-2.csv","legacy","8 5 1 3 9","Lentiform Loewenfeld","3.3.3","4","y","0","right","right","right","right","NA","550","14561","33214","550","NA","NA","NA","2","legacy","5","1024","2","48000","-16","experiment","1","odd","3","637530","634204","635289","4796","133666","635302","NA","628383","119104","4814","639545","640097","636317","38044","639544","NA","NA","Sternberg Task","24","98790","91","yes","1024"
"26.08695652173913","26.08695652173913","1095.5434782608695","1095.5434782608695","black","experiment","legacy","legacy","legacy","0","uniform","0","undefined","0","left","91","91","91","0","0","91","NA","91","0","0","91","91","91","0","91","0","NA","Sun Oct 25 11:23:39 2020","The main experiment item","yes","SternbergTask.osexp","/Users/Arianna/Desktop","no","mono","no","18","no","white","no","yes","768","legacy","79","11","/Users/Arianna/Downloads/AG-subject-2.csv","legacy","5 2 6","Lentiform Loewenfeld","3.3.3","2","y","0","None","right","right","None","NA","2000","14561","33214","2000","NA","NA","NA","2","legacy","3","1024","2","48000","-16","experiment","1","odd","2","643463","634204","641216","4796","133666","641230","NA","640124","119104","4814","645477","647477","642245","38044","645477","NA","NA","Sternberg Task","24","100790","92","yes","1024"
"25.806451612903224","25.806451612903224","1105.268817204301","1105.268817204301","black","experiment","legacy","legacy","legacy","0","uniform","0","undefined","0","right","92","92","92","0","0","92","NA","92","0","0","92","92","92","0","92","0","NA","Sun Oct 25 11:23:39 2020","The main experiment item","yes","SternbergTask.osexp","/Users/Arianna/Desktop","no","mono","no","18","no","white","no","yes","768","legacy","80","11","/Users/Arianna/Downloads/AG-subject-2.csv","legacy","6 9 4 5 3 2","Lentiform Loewenfeld","3.3.3","0","n","0","None","right","right","None","NA","2000","14561","33214","2000","NA","NA","NA","2","legacy","6","1024","2","48000","-16","experiment","1","odd","8","650838","634204","648591","4796","133666","648604","NA","647504","119104","4814","652852","654852","649620","38044","652852","NA","NA","Sternberg Task","24","102790","93","yes","1024"
"26.595744680851062","26.595744680851062","1108.2021276595744","1108.2021276595744","black","experiment","legacy","legacy","legacy","0","uniform","1","undefined","1","right","93","93","93","0","0","93","NA","93","0","0","93","93","93","0","93","0","NA","Sun Oct 25 11:23:39 2020","The main experiment item","yes","SternbergTask.osexp","/Users/Arianna/Desktop","no","mono","no","18","no","white","no","yes","768","legacy","81","11","/Users/Arianna/Downloads/AG-subject-2.csv","legacy","4 2 7 6 1 3","Lentiform Loewenfeld","3.3.3","0","n","0","right","right","right","right","NA","1381","14561","33214","1381","NA","NA","NA","2","legacy","6","1024","2","48000","-16","experiment","1","odd","8","658209","634204","655964","4796","133666","655978","NA","654879","119104","4814","660223","661606","656992","38044","660223","NA","NA","Sternberg Task","25","104171","94","yes","1024"
"26.31578947368421","26.31578947368421","1117.5894736842106","1117.5894736842106","black","experiment","legacy","legacy","legacy","0","uniform","0","undefined","0","right","94","94","94","0","0","94","NA","94","0","0","94","94","94","0","94","0","NA","Sun Oct 25 11:23:39 2020","The main experiment item","yes","SternbergTask.osexp","/Users/Arianna/Desktop","no","mono","no","18","no","white","no","yes","768","legacy","82","11","/Users/Arianna/Downloads/AG-subject-2.csv","legacy","7 9 1 6","Lentiform Loewenfeld","3.3.3","0","n","0","None","right","right","None","NA","2000","14561","33214","2000","NA","NA","NA","2","legacy","4","1024","2","48000","-16","experiment","1","odd","4","664966","661633","662720","4796","133666","662733","NA","654879","119104","4814","666981","668981","663749","38044","666980","NA","NA","Sternberg Task","25","106171","95","yes","1024"
"26.041666666666668","26.041666666666668","1126.78125","1126.78125","black","experiment","legacy","legacy","legacy","0","uniform","0","undefined","0","left","95","95","95","0","0","95","NA","95","0","0","95","95","95","0","95","0","NA","Sun Oct 25 11:23:39 2020","The main experiment item","yes","SternbergTask.osexp","/Users/Arianna/Desktop","no","mono","no","18","no","white","no","yes","768","legacy","83","11","/Users/Arianna/Downloads/AG-subject-2.csv","legacy","8 5 3 7 4 6","Lentiform Loewenfeld","3.3.3","6","y","0","None","right","right","None","NA","2000","14561","33214","2000","NA","NA","NA","2","legacy","6","1024","2","48000","-16","experiment","1","odd","6","672339","661633","670094","4796","133666","670106","NA","669007","119104","4814","674353","676353","671122","38044","674353","NA","NA","Sternberg Task","25","108171","96","yes","1024"
"25.77319587628866","25.77319587628866","1135.7835051546392","1135.7835051546392","black","experiment","legacy","legacy","legacy","0","uniform","0","undefined","0","right","96","96","96","0","0","96","NA","96","0","0","96","96","96","0","96","0","NA","Sun Oct 25 11:23:39 2020","The main experiment item","yes","SternbergTask.osexp","/Users/Arianna/Desktop","no","mono","no","18","no","white","no","yes","768","legacy","84","11","/Users/Arianna/Downloads/AG-subject-2.csv","legacy","5 3 8 7 2 4","Lentiform Loewenfeld","3.3.3","0","n","0","None","right","right","None","NA","2000","14561","33214","2000","NA","NA","NA","2","legacy","6","1024","2","48000","-16","experiment","1","odd","9","679712","661633","677466","4796","133666","677479","NA","676380","119104","4814","681726","683726","678494","38044","681726","NA","NA","Sternberg Task","25","110171","97","yes","1024"
"25.510204081632654","25.510204081632654","1144.6020408163265","1144.6020408163265","black","experiment","legacy","legacy","legacy","0","uniform","0","undefined","0","left","97","97","97","0","0","97","NA","97","0","0","97","97","97","0","97","0","NA","Sun Oct 25 11:23:39 2020","The main experiment item","yes","SternbergTask.osexp","/Users/Arianna/Desktop","no","mono","no","18","no","white","no","yes","768","legacy","85","11","/Users/Arianna/Downloads/AG-subject-2.csv","legacy","9 4 2","Lentiform Loewenfeld","3.3.3","1","y","0","None","right","right","None","NA","2000","14561","33214","2000","NA","NA","NA","2","legacy","3","1024","2","48000","-16","experiment","1","odd","9","687084","661633","684838","4796","133666","684851","NA","683752","119104","4814","689097","691097","685866","38044","689097","NA","NA","Sternberg Task","25","112171","98","yes","1024"
"25.252525252525253","25.252525252525253","1153.2424242424242","1153.2424242424242","black","experiment","legacy","legacy","legacy","0","uniform","0","undefined","0","left","98","98","98","0","0","98","NA","98","0","0","98","98","98","0","98","0","NA","Sun Oct 25 11:23:39 2020","The main experiment item","yes","SternbergTask.osexp","/Users/Arianna/Desktop","no","mono","no","18","no","white","no","yes","768","legacy","86","11","/Users/Arianna/Downloads/AG-subject-2.csv","legacy","4 9 7 8 5 3","Lentiform Loewenfeld","3.3.3","4","y","0","None","right","right","None","NA","2000","14561","33214","2000","NA","NA","NA","2","legacy","6","1024","2","48000","-16","experiment","1","odd","8","694455","661633","692209","4796","133666","692222","NA","691124","119104","4814","696469","698469","693238","38044","696469","NA","NA","Sternberg Task","25","114171","99","yes","1024"
"25","25","1161.71","1161.71","black","experiment","legacy","legacy","legacy","0","uniform","0","undefined","0","right","99","99","99","0","0","99","NA","99","0","0","99","99","99","0","99","0","NA","Sun Oct 25 11:23:39 2020","The main experiment item","yes","SternbergTask.osexp","/Users/Arianna/Desktop","no","mono","no","18","no","white","no","yes","768","legacy","87","11","/Users/Arianna/Downloads/AG-subject-2.csv","legacy","8 4 3 9","Lentiform Loewenfeld","3.3.3","0","n","0","None","right","right","None","NA","2000","14561","33214","2000","NA","NA","NA","2","legacy","4","1024","2","48000","-16","experiment","1","odd","5","701828","661633","699582","4796","133666","699594","NA","698496","119104","4814","703842","705842","700610","38044","703841","NA","NA","Sternberg Task","25","116171","100","yes","1024"
"25.742574257425744","25.742574257425744","1157.2673267326732","1157.2673267326732","black","experiment","legacy","legacy","legacy","0","uniform","1","undefined","1","right","100","100","100","0","0","100","NA","100","0","0","100","100","100","0","100","0","NA","Sun Oct 25 11:23:39 2020","The main experiment item","yes","SternbergTask.osexp","/Users/Arianna/Desktop","no","mono","no","18","no","white","no","yes","768","legacy","88","11","/Users/Arianna/Downloads/AG-subject-2.csv","legacy","5 3 2 6 9 8","Lentiform Loewenfeld","3.3.3","0","n","0","right","right","right","right","NA","713","14561","33214","713","NA","NA","NA","2","legacy","6","1024","2","48000","-16","experiment","1","odd","4","709204","661633","706958","4796","133666","706971","NA","705869","119104","4814","711218","711932","707987","38044","711217","NA","NA","Sternberg Task","26","116884","101","yes","1024"
"25.49019607843137","25.49019607843137","1165.5294117647059","1165.5294117647059","black","experiment","legacy","legacy","legacy","0","uniform","0","undefined","0","left","101","101","101","0","0","101","NA","101","0","0","101","101","101","0","101","0","NA","Sun Oct 25 11:23:39 2020","The main experiment item","yes","SternbergTask.osexp","/Users/Arianna/Desktop","no","mono","no","18","no","white","no","yes","768","legacy","89","11","/Users/Arianna/Downloads/AG-subject-2.csv","legacy","9 1 6 7 8","Lentiform Loewenfeld","3.3.3","1","y","0","None","right","right","None","NA","2000","14561","33214","2000","NA","NA","NA","2","legacy","5","1024","2","48000","-16","experiment","1","odd","9","715287","711956","713042","4796","133666","713055","NA","705869","119104","4814","717304","719304","714070","38044","717304","NA","NA","Sternberg Task","26","118884","102","yes","1024"
"26.21359223300971","26.21359223300971","1164.7669902912621","1164.7669902912621","black","experiment","legacy","legacy","legacy","0","uniform","1","undefined","1","right","102","102","102","0","0","102","NA","102","0","0","102","102","102","0","102","0","NA","Sun Oct 25 11:23:39 2020","The main experiment item","yes","SternbergTask.osexp","/Users/Arianna/Desktop","no","mono","no","18","no","white","no","yes","768","legacy","90","11","/Users/Arianna/Downloads/AG-subject-2.csv","legacy","9","Lentiform Loewenfeld","3.3.3","0","n","0","right","right","right","right","NA","1087","14561","33214","1087","NA","NA","NA","2","legacy","1","1024","2","48000","-16","experiment","1","odd","6","722662","711956","720417","4796","133666","720430","NA","719331","119104","4814","724676","725764","721445","38044","724676","NA","NA","Sternberg Task","27","119971","103","yes","1024"
"25.96153846153846","25.96153846153846","1172.798076923077","1172.798076923077","black","experiment","legacy","legacy","legacy","0","uniform","0","undefined","0","left","103","103","103","0","0","103","NA","103","0","0","103","103","103","0","103","0","NA","Sun Oct 25 11:23:39 2020","The main experiment item","yes","SternbergTask.osexp","/Users/Arianna/Desktop","no","mono","no","18","no","white","no","yes","768","legacy","91","11","/Users/Arianna/Downloads/AG-subject-2.csv","legacy","9 1 7 2","Lentiform Loewenfeld","3.3.3","2","y","0","None","right","right","None","NA","2000","14561","33214","2000","NA","NA","NA","2","legacy","4","1024","2","48000","-16","experiment","1","odd","1","729119","725788","726873","4796","133666","726886","NA","719331","119104","4814","731133","733133","727901","38044","731133","NA","NA","Sternberg Task","27","121971","104","yes","1024"
"25.714285714285715","25.714285714285715","1180.6761904761904","1180.6761904761904","black","experiment","legacy","legacy","legacy","0","uniform","0","undefined","0","right","104","104","104","0","0","104","NA","104","0","0","104","104","104","0","104","0","NA","Sun Oct 25 11:23:39 2020","The main experiment item","yes","SternbergTask.osexp","/Users/Arianna/Desktop","no","mono","no","18","no","white","no","yes","768","legacy","92","11","/Users/Arianna/Downloads/AG-subject-2.csv","legacy","6 8","Lentiform Loewenfeld","3.3.3","0","n","0","None","right","right","None","NA","2000","14561","33214","2000","NA","NA","NA","2","legacy","2","1024","2","48000","-16","experiment","1","odd","9","736490","725788","734245","4796","133666","734258","NA","733159","119104","4814","738504","740504","735273","38044","738504","NA","NA","Sternberg Task","27","123971","105","yes","1024"
"25.471698113207548","25.471698113207548","1174.2358490566037","1174.2358490566037","black","experiment","legacy","legacy","legacy","0","uniform","0","undefined","0","left","105","105","105","0","0","105","NA","105","0","0","105","105","105","0","105","0","NA","Sun Oct 25 11:23:39 2020","The main experiment item","yes","SternbergTask.osexp","/Users/Arianna/Desktop","no","mono","no","18","no","white","no","yes","768","legacy","93","11","/Users/Arianna/Downloads/AG-subject-2.csv","legacy","7 6","Lentiform Loewenfeld","3.3.3","2","y","0","right","right","right","right","NA","498","14561","33214","498","NA","NA","NA","2","legacy","2","1024","2","48000","-16","experiment","1","odd","6","743865","725788","741618","4796","133666","741632","NA","740531","119104","4814","745879","746379","742648","38044","745879","NA","NA","Sternberg Task","27","124469","106","yes","1024"
"25.233644859813083","25.233644859813083","1181.9532710280373","1181.9532710280373","black","experiment","legacy","legacy","legacy","0","uniform","0","undefined","0","left","106","106","106","0","0","106","NA","106","0","0","106","106","106","0","106","0","NA","Sun Oct 25 11:23:39 2020","The main experiment item","yes","SternbergTask.osexp","/Users/Arianna/Desktop","no","mono","no","18","no","white","no","yes","768","legacy","94","11","/Users/Arianna/Downloads/AG-subject-2.csv","legacy","3 4","Lentiform Loewenfeld","3.3.3","1","y","0","None","right","right","None","NA","2000","14561","33214","2000","NA","NA","NA","2","legacy","2","1024","2","48000","-16","experiment","1","odd","3","749728","725788","747480","4796","133666","747493","NA","746394","119104","4814","751747","753747","748508","38044","751747","NA","NA","Sternberg Task","27","126469","107","yes","1024"
"25","25","1189.5277777777778","1189.5277777777778","black","experiment","legacy","legacy","legacy","0","uniform","0","undefined","0","left","107","107","107","0","0","107","NA","107","0","0","107","107","107","0","107","0","NA","Sun Oct 25 11:23:39 2020","The main experiment item","yes","SternbergTask.osexp","/Users/Arianna/Desktop","no","mono","no","18","no","white","no","yes","768","legacy","95","11","/Users/Arianna/Downloads/AG-subject-2.csv","legacy","7 8 6 3 1","Lentiform Loewenfeld","3.3.3","5","y","0","None","right","right","None","NA","2000","14561","33214","2000","NA","NA","NA","2","legacy","5","1024","2","48000","-16","experiment","1","odd","1","757117","725788","754864","4796","133666","754883","NA","753777","119104","4814","759130","761130","755899","38044","759130","NA","NA","Sternberg Task","27","128469","108","yes","1024"
"24.770642201834864","24.770642201834864","1196.9633027522937","1196.9633027522937","black","experiment","legacy","legacy","legacy","0","uniform","0","undefined","0","left","108","108","108","0","0","108","NA","108","0","0","108","108","108","0","108","0","NA","Sun Oct 25 11:23:39 2020","The main experiment item","yes","SternbergTask.osexp","/Users/Arianna/Desktop","no","mono","no","18","no","white","no","yes","768","legacy","96","11","/Users/Arianna/Downloads/AG-subject-2.csv","legacy","3 5 4 7","Lentiform Loewenfeld","3.3.3","1","y","0","None","right","right","None","NA","2000","14561","33214","2000","NA","NA","NA","2","legacy","4","1024","2","48000","-16","experiment","1","odd","3","764490","725788","762243","4796","133666","762257","NA","761156","119104","4814","766504","768504","763272","38044","766503","NA","NA","Sternberg Task","27","130469","109","yes","1024"
"24.545454545454547","24.545454545454547","1204.2636363636364","1204.2636363636364","black","experiment","legacy","legacy","legacy","0","uniform","0","undefined","0","right","109","109","109","0","0","109","NA","109","0","0","109","109","109","0","109","0","NA","Sun Oct 25 11:23:39 2020","The main experiment item","yes","SternbergTask.osexp","/Users/Arianna/Desktop","no","mono","no","18","no","white","no","yes","768","legacy","97","11","/Users/Arianna/Downloads/AG-subject-2.csv","legacy","7 4 2 8 1 9","Lentiform Loewenfeld","3.3.3","0","n","0","None","right","right","None","NA","2000","14561","33214","2000","NA","NA","NA","2","legacy","6","1024","2","48000","-16","experiment","1","odd","5","771857","725788","769615","4796","133666","769628","NA","768530","119104","4814","773873","775873","770643","38044","773873","NA","NA","Sternberg Task","27","132469","110","yes","1024"
"24.324324324324323","24.324324324324323","1196.3783783783783","1196.3783783783783","black","experiment","legacy","legacy","legacy","0","uniform","0","undefined","0","left","110","110","110","0","0","110","NA","110","0","0","110","110","110","0","110","0","NA","Sun Oct 25 11:23:39 2020","The main experiment item","yes","SternbergTask.osexp","/Users/Arianna/Desktop","no","mono","no","18","no","white","no","yes","768","legacy","98","11","/Users/Arianna/Downloads/AG-subject-2.csv","legacy","7 4 2 6 3 5","Lentiform Loewenfeld","3.3.3","6","y","0","right","right","right","right","NA","329","14561","33214","329","NA","NA","NA","2","legacy","6","1024","2","48000","-16","experiment","1","odd","5","779240","725788","776989","4796","133666","777002","NA","775900","119104","4814","781254","781586","778023","38044","781254","NA","NA","Sternberg Task","27","132798","111","yes","1024"
"24.107142857142858","24.107142857142858","1203.5535714285713","1203.5535714285713","black","experiment","legacy","legacy","legacy","0","uniform","0","undefined","0","left","111","111","111","0","0","111","NA","111","0","0","111","111","111","0","111","0","NA","Sun Oct 25 11:23:39 2020","The main experiment item","yes","SternbergTask.osexp","/Users/Arianna/Desktop","no","mono","no","18","no","white","no","yes","768","legacy","99","11","/Users/Arianna/Downloads/AG-subject-2.csv","legacy","6 7 8 5","Lentiform Loewenfeld","3.3.3","3","y","0","None","right","right","None","NA","2000","14561","33214","2000","NA","NA","NA","2","legacy","4","1024","2","48000","-16","experiment","1","odd","8","784950","725788","782702","4796","133666","782715","NA","781612","119104","4814","786968","788969","783731","38044","786968","NA","NA","Sternberg Task","27","134798","112","yes","1024"
"23.893805309734514","23.893805309734514","1210.6106194690265","1210.6106194690265","black","experiment","legacy","legacy","legacy","0","uniform","0","undefined","0","left","112","112","112","0","0","112","NA","112","0","0","112","112","112","0","112","0","NA","Sun Oct 25 11:23:39 2020","The main experiment item","yes","SternbergTask.osexp","/Users/Arianna/Desktop","no","mono","no","18","no","white","no","yes","768","legacy","100","11","/Users/Arianna/Downloads/AG-subject-2.csv","legacy","3 9 6 2","Lentiform Loewenfeld","3.3.3","4","y","0","None","right","right","None","NA","2001","14561","33214","2001","NA","NA","NA","2","legacy","4","1024","2","48000","-16","experiment","1","odd","2","792330","725788","790086","4796","133666","790101","NA","789000","119104","4814","794398","796399","791116","38044","794398","NA","NA","Sternberg Task","27","136799","113","yes","1024"
"23.68421052631579","23.68421052631579","1217.5350877192982","1217.5350877192982","black","experiment","legacy","legacy","legacy","0","uniform","0","undefined","0","right","113","113","113","0","0","113","NA","113","0","0","113","113","113","0","113","0","NA","Sun Oct 25 11:23:39 2020","The main experiment item","yes","SternbergTask.osexp","/Users/Arianna/Desktop","no","mono","no","18","no","white","no","yes","768","legacy","101","11","/Users/Arianna/Downloads/AG-subject-2.csv","legacy","9 7 4 5 8","Lentiform Loewenfeld","3.3.3","0","n","0","None","right","right","None","NA","2000","14561","33214","2000","NA","NA","NA","2","legacy","5","1024","2","48000","-16","experiment","1","odd","6","799768","725788","797520","4796","133666","797533","NA","796426","119104","4814","801782","803782","798549","38044","801782","NA","NA","Sternberg Task","27","138799","114","yes","1024"
