"acc","accuracy","average_response_time","avg_rt","background","block","canvas_backend","clock_backend","color_backend","compensation","coordinates","correct","correct_instruction1","correct_keyboard_response","correct_response","count_ISI","count_correctFeedback","count_expSequence","count_experiment","count_experimentLoop","count_fixation","count_incorrectFeedback","count_instruction1","count_instruction2","count_keyboard_response","count_logger","count_memorySet","count_practiceLoop","count_probe","count_thankYou","datetime","description","disable_garbage_collection","experiment_file","experiment_path","font_bold","font_family","font_italic","font_size","font_underline","foreground","form_clicks","fullscreen","height","keyboard_backend","live_row","live_row_practiceLoop","logfile","mouse_backend","numberSet","opensesame_codename","opensesame_version","posInSet","present","repeat_cycle","response","response_instruction1","response_instruction2","response_keyboard_response","response_thankYou","response_time","response_time_instruction1","response_time_instruction2","response_time_keyboard_response","response_time_thankYou","round_decimals","sampler_backend","setSize","sound_buf_size","sound_channels","sound_freq","sound_sample_size","start","subject_nr","subject_parity","target","time_ISI","time_correctFeedback","time_expSequence","time_experiment","time_experimentLoop","time_fixation","time_incorrectFeedback","time_instruction1","time_instruction2","time_keyboard_response","time_logger","time_memorySet","time_practiceLoop","time_probe","time_thankYou","title","total_correct","total_response_time","total_responses","uniform_coordinates","width"
"100","100","572","572","black","practice","legacy","legacy","legacy","0","uniform","1","undefined","1","left","0","0","0","0","0","0","0","0","0","0","0","0","0","0","0","Fri Oct 14 15:33:18 2022","The main experiment item","yes","Sternbergtask.osexp","/Users/andrea/Desktop/Adv. Quant Methods/Lab 3.1","no","mono","no","18","no","white","no","yes","768","legacy","0","0","/Users/andrea/Desktop/Adv. Quant Methods/Lab 3.1/AS-subject-1.csv","legacy","4 8","Lentiform Loewenfeld","3.3.12","1","y","0","left","left","NA","left","NA","572","11843","NA","572","NA","2","legacy","2","1024","2","48000","-16","experiment","1","odd","4","18594","NA","16380","4315","NA","16383","NA","4323","NA","20599","21177","17387","16181","20599","NA","Sternberg task","1","572","1","yes","1024"
"100","100","602.5","602.5","black","practice","legacy","legacy","legacy","0","uniform","1","undefined","1","left","1","1","1","0","0","1","1","0","0","1","1","1","0","1","0","Fri Oct 14 15:33:18 2022","The main experiment item","yes","Sternbergtask.osexp","/Users/andrea/Desktop/Adv. Quant Methods/Lab 3.1","no","mono","no","18","no","white","no","yes","768","legacy","1","1","/Users/andrea/Desktop/Adv. Quant Methods/Lab 3.1/AS-subject-1.csv","legacy","6","Lentiform Loewenfeld","3.3.12","1","y","0","left","left","NA","left","NA","633","11843","NA","633","NA","2","legacy","1","1024","2","48000","-16","experiment","1","odd","6","24474","21200","22263","4315","NA","22265","NA","4323","NA","26479","27113","23269","16181","26479","NA","Sternberg task","2","1205","2","yes","1024"
"100","100","668.6666666666666","668.6666666666666","black","practice","legacy","legacy","legacy","0","uniform","1","undefined","1","left","2","2","2","0","0","2","2","0","0","2","2","2","0","2","0","Fri Oct 14 15:33:18 2022","The main experiment item","yes","Sternbergtask.osexp","/Users/andrea/Desktop/Adv. Quant Methods/Lab 3.1","no","mono","no","18","no","white","no","yes","768","legacy","2","2","/Users/andrea/Desktop/Adv. Quant Methods/Lab 3.1/AS-subject-1.csv","legacy","1 7 9 8 5","Lentiform Loewenfeld","3.3.12","4","y","0","left","left","NA","left","NA","801","11843","NA","801","NA","2","legacy","5","1024","2","48000","-16","experiment","1","odd","8","30382","27116","28170","4315","NA","28172","NA","4323","NA","32386","33188","29176","16181","32386","NA","Sternberg task","3","2006","3","yes","1024"
"100","100","648.5","648.5","black","practice","legacy","legacy","legacy","0","uniform","1","undefined","1","left","3","3","3","0","0","3","3","0","0","3","3","3","0","3","0","Fri Oct 14 15:33:18 2022","The main experiment item","yes","Sternbergtask.osexp","/Users/andrea/Desktop/Adv. Quant Methods/Lab 3.1","no","mono","no","18","no","white","no","yes","768","legacy","3","3","/Users/andrea/Desktop/Adv. Quant Methods/Lab 3.1/AS-subject-1.csv","legacy","2 9 4","Lentiform Loewenfeld","3.3.12","3","y","0","left","left","NA","left","NA","588","11843","NA","588","NA","2","legacy","3","1024","2","48000","-16","experiment","1","odd","4","36456","33192","34245","4315","NA","34247","NA","4323","NA","38461","39050","35251","16181","38461","NA","Sternberg task","4","2594","4","yes","1024"
"100","100","656.4","656.4","black","practice","legacy","legacy","legacy","0","uniform","1","undefined","1","right","4","4","4","0","0","4","4","0","0","4","4","4","0","4","0","Fri Oct 14 15:33:18 2022","The main experiment item","yes","Sternbergtask.osexp","/Users/andrea/Desktop/Adv. Quant Methods/Lab 3.1","no","mono","no","18","no","white","no","yes","768","legacy","4","4","/Users/andrea/Desktop/Adv. Quant Methods/Lab 3.1/AS-subject-1.csv","legacy","9 6 7 4 5","Lentiform Loewenfeld","3.3.12","0","n","0","right","left","NA","right","NA","688","11843","NA","688","NA","2","legacy","5","1024","2","48000","-16","experiment","1","odd","3","42319","39053","40107","4315","NA","40109","NA","4323","NA","44323","45012","41113","16181","44323","NA","Sternberg task","5","3282","5","yes","1024"
"100","100","631.8333333333334","631.8333333333334","black","practice","legacy","legacy","legacy","0","uniform","1","undefined","1","right","5","5","5","0","0","5","5","0","0","5","5","5","0","5","0","Fri Oct 14 15:33:18 2022","The main experiment item","yes","Sternbergtask.osexp","/Users/andrea/Desktop/Adv. Quant Methods/Lab 3.1","no","mono","no","18","no","white","no","yes","768","legacy","5","5","/Users/andrea/Desktop/Adv. Quant Methods/Lab 3.1/AS-subject-1.csv","legacy","3 1 9 4","Lentiform Loewenfeld","3.3.12","0","n","0","right","left","NA","right","NA","509","11843","NA","509","NA","2","legacy","4","1024","2","48000","-16","experiment","1","odd","6","48280","45015","46069","4315","NA","46071","NA","4323","NA","50285","50795","47075","16181","50285","NA","Sternberg task","6","3791","6","yes","1024"
"100","100","604.5714285714286","604.5714285714286","black","practice","legacy","legacy","legacy","0","uniform","1","undefined","1","right","6","6","6","0","0","6","6","0","0","6","6","6","0","6","0","Fri Oct 14 15:33:18 2022","The main experiment item","yes","Sternbergtask.osexp","/Users/andrea/Desktop/Adv. Quant Methods/Lab 3.1","no","mono","no","18","no","white","no","yes","768","legacy","6","6","/Users/andrea/Desktop/Adv. Quant Methods/Lab 3.1/AS-subject-1.csv","legacy","5","Lentiform Loewenfeld","3.3.12","0","n","0","right","left","NA","right","NA","441","11843","NA","441","NA","2","legacy","1","1024","2","48000","-16","experiment","1","odd","3","54064","50798","51852","4315","NA","51854","NA","4323","NA","56068","56510","52858","16181","56068","NA","Sternberg task","7","4232","7","yes","1024"
"100","100","581.375","581.375","black","practice","legacy","legacy","legacy","0","uniform","1","undefined","1","left","7","7","7","0","0","7","7","0","0","7","7","7","0","7","0","Fri Oct 14 15:33:18 2022","The main experiment item","yes","Sternbergtask.osexp","/Users/andrea/Desktop/Adv. Quant Methods/Lab 3.1","no","mono","no","18","no","white","no","yes","768","legacy","7","7","/Users/andrea/Desktop/Adv. Quant Methods/Lab 3.1/AS-subject-1.csv","legacy","1 5 2 9","Lentiform Loewenfeld","3.3.12","2","y","0","left","left","NA","left","NA","419","11843","NA","419","NA","2","legacy","4","1024","2","48000","-16","experiment","1","odd","5","59779","56514","57567","4315","NA","57569","NA","4323","NA","61783","62203","58573","16181","61783","NA","Sternberg task","8","4651","8","yes","1024"
"100","100","567.1111111111111","567.1111111111111","black","practice","legacy","legacy","legacy","0","uniform","1","undefined","1","left","8","8","8","0","0","8","8","0","0","8","8","8","0","8","0","Fri Oct 14 15:33:18 2022","The main experiment item","yes","Sternbergtask.osexp","/Users/andrea/Desktop/Adv. Quant Methods/Lab 3.1","no","mono","no","18","no","white","no","yes","768","legacy","8","8","/Users/andrea/Desktop/Adv. Quant Methods/Lab 3.1/AS-subject-1.csv","legacy","4 3 1 7 9 8","Lentiform Loewenfeld","3.3.12","1","y","0","left","left","NA","left","NA","453","11843","NA","453","NA","2","legacy","6","1024","2","48000","-16","experiment","1","odd","4","65470","62206","63260","4315","NA","63262","NA","4323","NA","67475","67929","64266","16181","67475","NA","Sternberg task","9","5104","9","yes","1024"
"100","100","556.7","556.7","black","practice","legacy","legacy","legacy","0","uniform","1","undefined","1","right","9","9","9","0","0","9","9","0","0","9","9","9","0","9","0","Fri Oct 14 15:33:18 2022","The main experiment item","yes","Sternbergtask.osexp","/Users/andrea/Desktop/Adv. Quant Methods/Lab 3.1","no","mono","no","18","no","white","no","yes","768","legacy","9","9","/Users/andrea/Desktop/Adv. Quant Methods/Lab 3.1/AS-subject-1.csv","legacy","4 1 5","Lentiform Loewenfeld","3.3.12","0","n","0","right","left","NA","right","NA","463","11843","NA","463","NA","2","legacy","3","1024","2","48000","-16","experiment","1","odd","2","71199","67933","68986","4315","NA","68988","NA","4323","NA","73203","73667","69993","16181","73203","NA","Sternberg task","10","5567","10","yes","1024"
"100","100","552.3636363636364","552.3636363636364","black","practice","legacy","legacy","legacy","0","uniform","1","undefined","1","right","10","10","10","0","0","10","10","0","0","10","10","10","0","10","0","Fri Oct 14 15:33:18 2022","The main experiment item","yes","Sternbergtask.osexp","/Users/andrea/Desktop/Adv. Quant Methods/Lab 3.1","no","mono","no","18","no","white","no","yes","768","legacy","10","10","/Users/andrea/Desktop/Adv. Quant Methods/Lab 3.1/AS-subject-1.csv","legacy","5 7 8 4 1 2","Lentiform Loewenfeld","3.3.12","0","n","0","right","left","NA","right","NA","509","11843","NA","509","NA","2","legacy","6","1024","2","48000","-16","experiment","1","odd","6","76936","73670","74724","4315","NA","74726","NA","4323","NA","78940","79449","75730","16181","78940","NA","Sternberg task","11","6076","11","yes","1024"
"100","100","547","547","black","practice","legacy","legacy","legacy","0","uniform","1","undefined","1","right","11","11","11","0","0","11","11","0","0","11","11","11","0","11","0","Fri Oct 14 15:33:18 2022","The main experiment item","yes","Sternbergtask.osexp","/Users/andrea/Desktop/Adv. Quant Methods/Lab 3.1","no","mono","no","18","no","white","no","yes","768","legacy","11","11","/Users/andrea/Desktop/Adv. Quant Methods/Lab 3.1/AS-subject-1.csv","legacy","2 1","Lentiform Loewenfeld","3.3.12","0","n","0","right","left","NA","right","NA","488","11843","NA","488","NA","2","legacy","2","1024","2","48000","-16","experiment","1","odd","5","82717","79452","80505","4315","NA","80507","NA","4323","NA","84721","85210","81511","16181","84721","NA","Sternberg task","12","6564","12","yes","1024"
"100","100","541.8461538461538","541.8461538461538","black","experiment","legacy","legacy","legacy","0","uniform","1","undefined","1","right","12","12","12","0","0","12","12","0","0","12","12","12","0","12","0","Fri Oct 14 15:33:18 2022","The main experiment item","yes","Sternbergtask.osexp","/Users/andrea/Desktop/Adv. Quant Methods/Lab 3.1","no","mono","no","18","no","white","no","yes","768","legacy","0","11","/Users/andrea/Desktop/Adv. Quant Methods/Lab 3.1/AS-subject-1.csv","legacy","6 9 7 3 8 2","Lentiform Loewenfeld","3.3.12","0","n","0","right","left","left","right","NA","480","11843","6660","480","NA","2","legacy","6","1024","2","48000","-16","experiment","1","odd","5","95157","85213","92944","4315","92905","92946","NA","4323","86244","97161","97641","93951","16181","97161","NA","Sternberg task","13","7044","13","yes","1024"
"100","100","531.4285714285714","531.4285714285714","black","experiment","legacy","legacy","legacy","0","uniform","1","undefined","1","left","13","13","13","0","0","13","13","0","0","13","13","13","0","13","0","Fri Oct 14 15:33:18 2022","The main experiment item","yes","Sternbergtask.osexp","/Users/andrea/Desktop/Adv. Quant Methods/Lab 3.1","no","mono","no","18","no","white","no","yes","768","legacy","1","11","/Users/andrea/Desktop/Adv. Quant Methods/Lab 3.1/AS-subject-1.csv","legacy","6 2","Lentiform Loewenfeld","3.3.12","1","y","0","left","left","left","left","NA","396","11843","6660","396","NA","2","legacy","2","1024","2","48000","-16","experiment","1","odd","6","100911","97644","98699","4315","92905","98701","NA","4323","86244","102915","103312","99705","16181","102915","NA","Sternberg task","14","7440","14","yes","1024"
"100","100","538.9333333333333","538.9333333333333","black","experiment","legacy","legacy","legacy","0","uniform","1","undefined","1","right","14","14","14","0","0","14","14","0","0","14","14","14","0","14","0","Fri Oct 14 15:33:18 2022","The main experiment item","yes","Sternbergtask.osexp","/Users/andrea/Desktop/Adv. Quant Methods/Lab 3.1","no","mono","no","18","no","white","no","yes","768","legacy","2","11","/Users/andrea/Desktop/Adv. Quant Methods/Lab 3.1/AS-subject-1.csv","legacy","9","Lentiform Loewenfeld","3.3.12","0","n","0","right","left","left","right","NA","644","11843","6660","644","NA","2","legacy","1","1024","2","48000","-16","experiment","1","odd","6","106581","103315","104369","4315","92905","104371","NA","4323","86244","108585","109229","105375","16181","108585","NA","Sternberg task","15","8084","15","yes","1024"
"100","100","535.75","535.75","black","experiment","legacy","legacy","legacy","0","uniform","1","undefined","1","left","15","15","15","0","0","15","15","0","0","15","15","15","0","15","0","Fri Oct 14 15:33:18 2022","The main experiment item","yes","Sternbergtask.osexp","/Users/andrea/Desktop/Adv. Quant Methods/Lab 3.1","no","mono","no","18","no","white","no","yes","768","legacy","3","11","/Users/andrea/Desktop/Adv. Quant Methods/Lab 3.1/AS-subject-1.csv","legacy","4 6 5 8","Lentiform Loewenfeld","3.3.12","1","y","0","left","left","left","left","NA","488","11843","6660","488","NA","2","legacy","4","1024","2","48000","-16","experiment","1","odd","4","112496","109232","110285","4315","92905","110287","NA","4323","86244","114501","114990","111291","16181","114501","NA","Sternberg task","16","8572","16","yes","1024"
"100","100","544.8235294117648","544.8235294117648","black","experiment","legacy","legacy","legacy","0","uniform","1","undefined","1","left","16","16","16","0","0","16","16","0","0","16","16","16","0","16","0","Fri Oct 14 15:33:18 2022","The main experiment item","yes","Sternbergtask.osexp","/Users/andrea/Desktop/Adv. Quant Methods/Lab 3.1","no","mono","no","18","no","white","no","yes","768","legacy","4","11","/Users/andrea/Desktop/Adv. Quant Methods/Lab 3.1/AS-subject-1.csv","legacy","9 6 2 4 1","Lentiform Loewenfeld","3.3.12","4","y","0","left","left","left","left","NA","690","11843","6660","690","NA","2","legacy","5","1024","2","48000","-16","experiment","1","odd","4","118258","114993","116046","4315","92905","116048","NA","4323","86244","120262","120952","117052","16181","120262","NA","Sternberg task","17","9262","17","yes","1024"
"94.44444444444444","94.44444444444444","544.2222222222222","544.2222222222222","black","experiment","legacy","legacy","legacy","0","uniform","0","undefined","0","right","17","17","17","0","0","17","17","0","0","17","17","17","0","17","0","Fri Oct 14 15:33:18 2022","The main experiment item","yes","Sternbergtask.osexp","/Users/andrea/Desktop/Adv. Quant Methods/Lab 3.1","no","mono","no","18","no","white","no","yes","768","legacy","5","11","/Users/andrea/Desktop/Adv. Quant Methods/Lab 3.1/AS-subject-1.csv","legacy","1 8 7","Lentiform Loewenfeld","3.3.12","0","n","0","left","left","left","left","NA","534","11843","6660","534","NA","2","legacy","3","1024","2","48000","-16","experiment","1","odd","4","124219","120955","122008","4315","92905","122010","NA","4323","86244","126223","126757","123014","16181","126223","NA","Sternberg task","17","9796","18","yes","1024"
"94.73684210526316","94.73684210526316","550.8421052631579","550.8421052631579","black","experiment","legacy","legacy","legacy","0","uniform","1","undefined","1","left","18","18","18","0","0","18","18","0","0","18","18","18","0","18","0","Fri Oct 14 15:33:18 2022","The main experiment item","yes","Sternbergtask.osexp","/Users/andrea/Desktop/Adv. Quant Methods/Lab 3.1","no","mono","no","18","no","white","no","yes","768","legacy","6","11","/Users/andrea/Desktop/Adv. Quant Methods/Lab 3.1/AS-subject-1.csv","legacy","7","Lentiform Loewenfeld","3.3.12","1","y","0","left","left","left","left","NA","670","11843","6660","670","NA","2","legacy","1","1024","2","48000","-16","experiment","1","odd","7","130024","120955","127812","4315","92905","127814","126760","4323","86244","132028","132698","128818","16181","132028","NA","Sternberg task","18","10466","19","yes","1024"
"95","95","554.35","554.35","black","experiment","legacy","legacy","legacy","0","uniform","1","undefined","1","right","19","19","19","0","0","19","19","0","0","19","19","19","0","19","0","Fri Oct 14 15:33:18 2022","The main experiment item","yes","Sternbergtask.osexp","/Users/andrea/Desktop/Adv. Quant Methods/Lab 3.1","no","mono","no","18","no","white","no","yes","768","legacy","7","11","/Users/andrea/Desktop/Adv. Quant Methods/Lab 3.1/AS-subject-1.csv","legacy","2 5 1 4","Lentiform Loewenfeld","3.3.12","0","n","0","right","left","left","right","NA","621","11843","6660","621","NA","2","legacy","4","1024","2","48000","-16","experiment","1","odd","6","135966","132701","133755","4315","92905","133757","126760","4323","86244","137971","138593","134761","16181","137971","NA","Sternberg task","19","11087","20","yes","1024"
"95.23809523809524","95.23809523809524","575.3333333333334","575.3333333333334","black","experiment","legacy","legacy","legacy","0","uniform","1","undefined","1","left","20","20","20","0","0","20","20","0","0","20","20","20","0","20","0","Fri Oct 14 15:33:18 2022","The main experiment item","yes","Sternbergtask.osexp","/Users/andrea/Desktop/Adv. Quant Methods/Lab 3.1","no","mono","no","18","no","white","no","yes","768","legacy","8","11","/Users/andrea/Desktop/Adv. Quant Methods/Lab 3.1/AS-subject-1.csv","legacy","4 1 8 7 5","Lentiform Loewenfeld","3.3.12","3","y","0","left","left","left","left","NA","995","11843","6660","995","NA","2","legacy","5","1024","2","48000","-16","experiment","1","odd","8","141860","138595","139649","4315","92905","139651","126760","4323","86244","143863","144859","140655","16181","143863","NA","Sternberg task","20","12082","21","yes","1024"
"95.45454545454545","95.45454545454545","589.7727272727273","589.7727272727273","black","experiment","legacy","legacy","legacy","0","uniform","1","undefined","1","right","21","21","21","0","0","21","21","0","0","21","21","21","0","21","0","Fri Oct 14 15:33:18 2022","The main experiment item","yes","Sternbergtask.osexp","/Users/andrea/Desktop/Adv. Quant Methods/Lab 3.1","no","mono","no","18","no","white","no","yes","768","legacy","9","11","/Users/andrea/Desktop/Adv. Quant Methods/Lab 3.1/AS-subject-1.csv","legacy","6 2 9 3 8 4","Lentiform Loewenfeld","3.3.12","0","n","0","right","left","left","right","NA","893","11843","6660","893","NA","2","legacy","6","1024","2","48000","-16","experiment","1","odd","1","148126","144862","145915","4315","92905","145917","126760","4323","86244","150131","151025","146921","16181","150131","NA","Sternberg task","21","12975","22","yes","1024"
"95.65217391304348","95.65217391304348","605.3478260869565","605.3478260869565","black","experiment","legacy","legacy","legacy","0","uniform","1","undefined","1","left","22","22","22","0","0","22","22","0","0","22","22","22","0","22","0","Fri Oct 14 15:33:18 2022","The main experiment item","yes","Sternbergtask.osexp","/Users/andrea/Desktop/Adv. Quant Methods/Lab 3.1","no","mono","no","18","no","white","no","yes","768","legacy","10","11","/Users/andrea/Desktop/Adv. Quant Methods/Lab 3.1/AS-subject-1.csv","legacy","9 5 3 8 4","Lentiform Loewenfeld","3.3.12","1","y","0","left","left","left","left","NA","948","11843","6660","948","NA","2","legacy","5","1024","2","48000","-16","experiment","1","odd","9","154293","151028","152082","4315","92905","152084","126760","4323","86244","156297","157246","153088","16181","156297","NA","Sternberg task","22","13923","23","yes","1024"
"95.83333333333333","95.83333333333333","621.9166666666666","621.9166666666666","black","experiment","legacy","legacy","legacy","0","uniform","1","undefined","1","right","23","23","23","0","0","23","23","0","0","23","23","23","0","23","0","Fri Oct 14 15:33:18 2022","The main experiment item","yes","Sternbergtask.osexp","/Users/andrea/Desktop/Adv. Quant Methods/Lab 3.1","no","mono","no","18","no","white","no","yes","768","legacy","11","11","/Users/andrea/Desktop/Adv. Quant Methods/Lab 3.1/AS-subject-1.csv","legacy","5 3 2 6 9 8","Lentiform Loewenfeld","3.3.12","0","n","0","right","left","left","right","NA","1003","11843","6660","1003","NA","2","legacy","6","1024","2","48000","-16","experiment","1","odd","4","160514","157249","158303","4315","92905","158305","126760","4323","86244","162519","163523","159309","16181","162519","NA","Sternberg task","23","14926","24","yes","1024"
"96","96","652.04","652.04","black","experiment","legacy","legacy","legacy","0","uniform","1","undefined","1","left","24","24","24","0","0","24","24","0","0","24","24","24","0","24","0","Fri Oct 14 15:33:18 2022","The main experiment item","yes","Sternbergtask.osexp","/Users/andrea/Desktop/Adv. Quant Methods/Lab 3.1","no","mono","no","18","no","white","no","yes","768","legacy","12","11","/Users/andrea/Desktop/Adv. Quant Methods/Lab 3.1/AS-subject-1.csv","legacy","5 2 9 6 1 7","Lentiform Loewenfeld","3.3.12","3","y","0","left","left","left","left","NA","1375","11843","6660","1375","NA","2","legacy","6","1024","2","48000","-16","experiment","1","odd","9","166793","163526","164580","4315","92905","164583","126760","4323","86244","168797","170173","165587","16181","168796","NA","Sternberg task","24","16301","25","yes","1024"
"96.15384615384616","96.15384615384616","650","650","black","experiment","legacy","legacy","legacy","0","uniform","1","undefined","1","right","25","25","25","0","0","25","25","0","0","25","25","25","0","25","0","Fri Oct 14 15:33:18 2022","The main experiment item","yes","Sternbergtask.osexp","/Users/andrea/Desktop/Adv. Quant Methods/Lab 3.1","no","mono","no","18","no","white","no","yes","768","legacy","13","11","/Users/andrea/Desktop/Adv. Quant Methods/Lab 3.1/AS-subject-1.csv","legacy","4 2 7 6 1 3","Lentiform Loewenfeld","3.3.12","0","n","0","right","left","left","right","NA","599","11843","6660","599","NA","2","legacy","6","1024","2","48000","-16","experiment","1","odd","8","173441","170176","171229","4315","92905","171231","126760","4323","86244","175446","176045","172236","16181","175446","NA","Sternberg task","25","16900","26","yes","1024"
"96.29629629629629","96.29629629629629","648.1481481481482","648.1481481481482","black","experiment","legacy","legacy","legacy","0","uniform","1","undefined","1","left","26","26","26","0","0","26","26","0","0","26","26","26","0","26","0","Fri Oct 14 15:33:18 2022","The main experiment item","yes","Sternbergtask.osexp","/Users/andrea/Desktop/Adv. Quant Methods/Lab 3.1","no","mono","no","18","no","white","no","yes","768","legacy","14","11","/Users/andrea/Desktop/Adv. Quant Methods/Lab 3.1/AS-subject-1.csv","legacy","6 5","Lentiform Loewenfeld","3.3.12","2","y","0","left","left","left","left","NA","600","11843","6660","600","NA","2","legacy","2","1024","2","48000","-16","experiment","1","odd","5","179315","176049","177102","4315","92905","177104","126760","4323","86244","181318","181919","178108","16181","181318","NA","Sternberg task","26","17500","27","yes","1024"
"96.42857142857143","96.42857142857143","642.3928571428571","642.3928571428571","black","experiment","legacy","legacy","legacy","0","uniform","1","undefined","1","right","27","27","27","0","0","27","27","0","0","27","27","27","0","27","0","Fri Oct 14 15:33:18 2022","The main experiment item","yes","Sternbergtask.osexp","/Users/andrea/Desktop/Adv. Quant Methods/Lab 3.1","no","mono","no","18","no","white","no","yes","768","legacy","15","11","/Users/andrea/Desktop/Adv. Quant Methods/Lab 3.1/AS-subject-1.csv","legacy","7 1","Lentiform Loewenfeld","3.3.12","0","n","0","right","left","left","right","NA","487","11843","6660","487","NA","2","legacy","2","1024","2","48000","-16","experiment","1","odd","8","185186","181922","182975","4315","92905","182977","126760","4323","86244","187191","187678","183981","16181","187191","NA","Sternberg task","27","17987","28","yes","1024"
"96.55172413793103","96.55172413793103","642.8275862068965","642.8275862068965","black","experiment","legacy","legacy","legacy","0","uniform","1","undefined","1","left","28","28","28","0","0","28","28","0","0","28","28","28","0","28","0","Fri Oct 14 15:33:18 2022","The main experiment item","yes","Sternbergtask.osexp","/Users/andrea/Desktop/Adv. Quant Methods/Lab 3.1","no","mono","no","18","no","white","no","yes","768","legacy","16","11","/Users/andrea/Desktop/Adv. Quant Methods/Lab 3.1/AS-subject-1.csv","legacy","3 4 9 6 2 9","Lentiform Loewenfeld","3.3.12","5","y","0","left","left","left","left","NA","655","11843","6660","655","NA","2","legacy","6","1024","2","48000","-16","experiment","1","odd","2","190947","187682","188735","4315","92905","188737","126760","4323","86244","192951","193607","189741","16181","192951","NA","Sternberg task","28","18642","29","yes","1024"
"96.66666666666667","96.66666666666667","661.6333333333333","661.6333333333333","black","experiment","legacy","legacy","legacy","0","uniform","1","undefined","1","right","29","29","29","0","0","29","29","0","0","29","29","29","0","29","0","Fri Oct 14 15:33:18 2022","The main experiment item","yes","Sternbergtask.osexp","/Users/andrea/Desktop/Adv. Quant Methods/Lab 3.1","no","mono","no","18","no","white","no","yes","768","legacy","17","11","/Users/andrea/Desktop/Adv. Quant Methods/Lab 3.1/AS-subject-1.csv","legacy","1 5 3 2 8","Lentiform Loewenfeld","3.3.12","0","n","0","right","left","left","right","NA","1207","11843","6660","1207","NA","2","legacy","5","1024","2","48000","-16","experiment","1","odd","4","196876","193610","194664","4315","92905","194666","126760","4323","86244","198880","200088","195670","16181","198880","NA","Sternberg task","29","19849","30","yes","1024"
"96.7741935483871","96.7741935483871","660.3870967741935","660.3870967741935","black","experiment","legacy","legacy","legacy","0","uniform","1","undefined","1","left","30","30","30","0","0","30","30","0","0","30","30","30","0","30","0","Fri Oct 14 15:33:18 2022","The main experiment item","yes","Sternbergtask.osexp","/Users/andrea/Desktop/Adv. Quant Methods/Lab 3.1","no","mono","no","18","no","white","no","yes","768","legacy","18","11","/Users/andrea/Desktop/Adv. Quant Methods/Lab 3.1/AS-subject-1.csv","legacy","8 5 4 7 3 1","Lentiform Loewenfeld","3.3.12","2","y","0","left","left","left","left","NA","623","11843","6660","623","NA","2","legacy","6","1024","2","48000","-16","experiment","1","odd","5","203355","200091","201144","4315","92905","201146","126760","4323","86244","205359","205982","202150","16181","205358","NA","Sternberg task","30","20472","31","yes","1024"
"96.875","96.875","657.78125","657.78125","black","experiment","legacy","legacy","legacy","0","uniform","1","undefined","1","right","31","31","31","0","0","31","31","0","0","31","31","31","0","31","0","Fri Oct 14 15:33:18 2022","The main experiment item","yes","Sternbergtask.osexp","/Users/andrea/Desktop/Adv. Quant Methods/Lab 3.1","no","mono","no","18","no","white","no","yes","768","legacy","19","11","/Users/andrea/Desktop/Adv. Quant Methods/Lab 3.1/AS-subject-1.csv","legacy","6 8 4","Lentiform Loewenfeld","3.3.12","0","n","0","right","left","left","right","NA","577","11843","6660","577","NA","2","legacy","3","1024","2","48000","-16","experiment","1","odd","1","209251","205986","207039","4315","92905","207041","126760","4323","86244","211255","211833","208045","16181","211255","NA","Sternberg task","31","21049","32","yes","1024"
"96.96969696969697","96.96969696969697","657","657","black","experiment","legacy","legacy","legacy","0","uniform","1","undefined","1","right","32","32","32","0","0","32","32","0","0","32","32","32","0","32","0","Fri Oct 14 15:33:18 2022","The main experiment item","yes","Sternbergtask.osexp","/Users/andrea/Desktop/Adv. Quant Methods/Lab 3.1","no","mono","no","18","no","white","no","yes","768","legacy","20","11","/Users/andrea/Desktop/Adv. Quant Methods/Lab 3.1/AS-subject-1.csv","legacy","6 3 1 7 9 8","Lentiform Loewenfeld","3.3.12","0","n","0","right","left","left","right","NA","632","11843","6660","632","NA","2","legacy","6","1024","2","48000","-16","experiment","1","odd","4","215102","211836","212890","4315","92905","212892","126760","4323","86244","217107","217739","213896","16181","217107","NA","Sternberg task","32","21681","33","yes","1024"
"97.05882352941177","97.05882352941177","651.3823529411765","651.3823529411765","black","experiment","legacy","legacy","legacy","0","uniform","1","undefined","1","left","33","33","33","0","0","33","33","0","0","33","33","33","0","33","0","Fri Oct 14 15:33:18 2022","The main experiment item","yes","Sternbergtask.osexp","/Users/andrea/Desktop/Adv. Quant Methods/Lab 3.1","no","mono","no","18","no","white","no","yes","768","legacy","21","11","/Users/andrea/Desktop/Adv. Quant Methods/Lab 3.1/AS-subject-1.csv","legacy","8 9 5 6 7","Lentiform Loewenfeld","3.3.12","1","y","0","left","left","left","left","NA","466","11843","6660","466","NA","2","legacy","5","1024","2","48000","-16","experiment","1","odd","8","221007","217742","218795","4315","92905","218797","126760","4323","86244","223011","223478","219801","16181","223011","NA","Sternberg task","33","22147","34","yes","1024"
"97.14285714285714","97.14285714285714","652.2","652.2","black","experiment","legacy","legacy","legacy","0","uniform","1","undefined","1","left","34","34","34","0","0","34","34","0","0","34","34","34","0","34","0","Fri Oct 14 15:33:18 2022","The main experiment item","yes","Sternbergtask.osexp","/Users/andrea/Desktop/Adv. Quant Methods/Lab 3.1","no","mono","no","18","no","white","no","yes","768","legacy","22","11","/Users/andrea/Desktop/Adv. Quant Methods/Lab 3.1/AS-subject-1.csv","legacy","7 6","Lentiform Loewenfeld","3.3.12","2","y","0","left","left","left","left","NA","680","11843","6660","680","NA","2","legacy","2","1024","2","48000","-16","experiment","1","odd","6","226744","223480","224532","4315","92905","224534","126760","4323","86244","228748","229429","225538","16181","228748","NA","Sternberg task","34","22827","35","yes","1024"
"97.22222222222223","97.22222222222223","652","652","black","experiment","legacy","legacy","legacy","0","uniform","1","undefined","1","right","35","35","35","0","0","35","35","0","0","35","35","35","0","35","0","Fri Oct 14 15:33:18 2022","The main experiment item","yes","Sternbergtask.osexp","/Users/andrea/Desktop/Adv. Quant Methods/Lab 3.1","no","mono","no","18","no","white","no","yes","768","legacy","23","11","/Users/andrea/Desktop/Adv. Quant Methods/Lab 3.1/AS-subject-1.csv","legacy","2 7 5","Lentiform Loewenfeld","3.3.12","0","n","0","right","left","left","right","NA","645","11843","6660","645","NA","2","legacy","3","1024","2","48000","-16","experiment","1","odd","8","232696","229432","230485","4315","92905","230487","126760","4323","86244","234701","235347","231491","16181","234701","NA","Sternberg task","35","23472","36","yes","1024"
"97.29729729729729","97.29729729729729","662.1081081081081","662.1081081081081","black","experiment","legacy","legacy","legacy","0","uniform","1","undefined","1","left","36","36","36","0","0","36","36","0","0","36","36","36","0","36","0","Fri Oct 14 15:33:18 2022","The main experiment item","yes","Sternbergtask.osexp","/Users/andrea/Desktop/Adv. Quant Methods/Lab 3.1","no","mono","no","18","no","white","no","yes","768","legacy","24","11","/Users/andrea/Desktop/Adv. Quant Methods/Lab 3.1/AS-subject-1.csv","legacy","7 1 8 5 6 2","Lentiform Loewenfeld","3.3.12","2","y","0","left","left","left","left","NA","1026","11843","6660","1026","NA","2","legacy","6","1024","2","48000","-16","experiment","1","odd","1","238616","235350","236404","4315","92905","236406","126760","4323","86244","240620","241647","237410","16181","240619","NA","Sternberg task","36","24498","37","yes","1024"
"97.36842105263158","97.36842105263158","660.4473684210526","660.4473684210526","black","experiment","legacy","legacy","legacy","0","uniform","1","undefined","1","right","37","37","37","0","0","37","37","0","0","37","37","37","0","37","0","Fri Oct 14 15:33:18 2022","The main experiment item","yes","Sternbergtask.osexp","/Users/andrea/Desktop/Adv. Quant Methods/Lab 3.1","no","mono","no","18","no","white","no","yes","768","legacy","25","11","/Users/andrea/Desktop/Adv. Quant Methods/Lab 3.1/AS-subject-1.csv","legacy","7 1 8 4 9 3","Lentiform Loewenfeld","3.3.12","0","n","0","right","left","left","right","NA","599","11843","6660","599","NA","2","legacy","6","1024","2","48000","-16","experiment","1","odd","6","244915","241650","242703","4315","92905","242705","126760","4323","86244","246919","247519","243710","16181","246919","NA","Sternberg task","37","25097","38","yes","1024"
"97.43589743589743","97.43589743589743","657.9230769230769","657.9230769230769","black","experiment","legacy","legacy","legacy","0","uniform","1","undefined","1","left","38","38","38","0","0","38","38","0","0","38","38","38","0","38","0","Fri Oct 14 15:33:18 2022","The main experiment item","yes","Sternbergtask.osexp","/Users/andrea/Desktop/Adv. Quant Methods/Lab 3.1","no","mono","no","18","no","white","no","yes","768","legacy","26","11","/Users/andrea/Desktop/Adv. Quant Methods/Lab 3.1/AS-subject-1.csv","legacy","2 4 6 9","Lentiform Loewenfeld","3.3.12","3","y","0","left","left","left","left","NA","562","11843","6660","562","NA","2","legacy","4","1024","2","48000","-16","experiment","1","odd","6","250789","247522","248576","4315","92905","248578","126760","4323","86244","252796","253358","249582","16181","252795","NA","Sternberg task","38","25659","39","yes","1024"
"97.5","97.5","655.6","655.6","black","experiment","legacy","legacy","legacy","0","uniform","1","undefined","1","left","39","39","39","0","0","39","39","0","0","39","39","39","0","39","0","Fri Oct 14 15:33:18 2022","The main experiment item","yes","Sternbergtask.osexp","/Users/andrea/Desktop/Adv. Quant Methods/Lab 3.1","no","mono","no","18","no","white","no","yes","768","legacy","27","11","/Users/andrea/Desktop/Adv. Quant Methods/Lab 3.1/AS-subject-1.csv","legacy","2 5 4 8 7","Lentiform Loewenfeld","3.3.12","3","y","0","left","left","left","left","NA","565","11843","6660","565","NA","2","legacy","5","1024","2","48000","-16","experiment","1","odd","4","256626","253362","254415","4315","92905","254417","126760","4323","86244","258631","259197","255421","16181","258631","NA","Sternberg task","39","26224","40","yes","1024"
"97.5609756097561","97.5609756097561","653.439024390244","653.439024390244","black","experiment","legacy","legacy","legacy","0","uniform","1","undefined","1","right","40","40","40","0","0","40","40","0","0","40","40","40","0","40","0","Fri Oct 14 15:33:18 2022","The main experiment item","yes","Sternbergtask.osexp","/Users/andrea/Desktop/Adv. Quant Methods/Lab 3.1","no","mono","no","18","no","white","no","yes","768","legacy","28","11","/Users/andrea/Desktop/Adv. Quant Methods/Lab 3.1/AS-subject-1.csv","legacy","4 8 1 2","Lentiform Loewenfeld","3.3.12","0","n","0","right","left","left","right","NA","567","11843","6660","567","NA","2","legacy","4","1024","2","48000","-16","experiment","1","odd","7","262465","259200","260256","4315","92905","260258","126760","4323","86244","264468","265036","261259","16181","264468","NA","Sternberg task","40","26791","41","yes","1024"
"97.61904761904762","97.61904761904762","674.4285714285714","674.4285714285714","black","experiment","legacy","legacy","legacy","0","uniform","1","undefined","1","right","41","41","41","0","0","41","41","0","0","41","41","41","0","41","0","Fri Oct 14 15:33:18 2022","The main experiment item","yes","Sternbergtask.osexp","/Users/andrea/Desktop/Adv. Quant Methods/Lab 3.1","no","mono","no","18","no","white","no","yes","768","legacy","29","11","/Users/andrea/Desktop/Adv. Quant Methods/Lab 3.1/AS-subject-1.csv","legacy","7 3 2 8","Lentiform Loewenfeld","3.3.12","0","n","0","right","left","left","right","NA","1535","11843","6660","1535","NA","2","legacy","4","1024","2","48000","-16","experiment","1","odd","4","268303","265039","266092","4315","92905","266094","126760","4323","86244","270307","271843","267098","16181","270307","NA","Sternberg task","41","28326","42","yes","1024"
"97.67441860465117","97.67441860465117","672.6279069767442","672.6279069767442","black","experiment","legacy","legacy","legacy","0","uniform","1","undefined","1","left","42","42","42","0","0","42","42","0","0","42","42","42","0","42","0","Fri Oct 14 15:33:18 2022","The main experiment item","yes","Sternbergtask.osexp","/Users/andrea/Desktop/Adv. Quant Methods/Lab 3.1","no","mono","no","18","no","white","no","yes","768","legacy","30","11","/Users/andrea/Desktop/Adv. Quant Methods/Lab 3.1/AS-subject-1.csv","legacy","7 8 6 3 1","Lentiform Loewenfeld","3.3.12","5","y","0","left","left","left","left","NA","597","11843","6660","597","NA","2","legacy","5","1024","2","48000","-16","experiment","1","odd","1","275113","271845","272901","4315","92905","272903","126760","4323","86244","277118","277715","273907","16181","277118","NA","Sternberg task","42","28923","43","yes","1024"
"97.72727272727273","97.72727272727273","670.6363636363636","670.6363636363636","black","experiment","legacy","legacy","legacy","0","uniform","1","undefined","1","left","43","43","43","0","0","43","43","0","0","43","43","43","0","43","0","Fri Oct 14 15:33:18 2022","The main experiment item","yes","Sternbergtask.osexp","/Users/andrea/Desktop/Adv. Quant Methods/Lab 3.1","no","mono","no","18","no","white","no","yes","768","legacy","31","11","/Users/andrea/Desktop/Adv. Quant Methods/Lab 3.1/AS-subject-1.csv","legacy","1 4 9 3 2 5","Lentiform Loewenfeld","3.3.12","3","y","0","left","left","left","left","NA","585","11843","6660","585","NA","2","legacy","6","1024","2","48000","-16","experiment","1","odd","9","280986","277718","278772","4315","92905","278774","126760","4323","86244","282991","283577","279781","16181","282991","NA","Sternberg task","43","29508","44","yes","1024"
"97.77777777777777","97.77777777777777","676.5777777777778","676.5777777777778","black","experiment","legacy","legacy","legacy","0","uniform","1","undefined","1","right","44","44","44","0","0","44","44","0","0","44","44","44","0","44","0","Fri Oct 14 15:33:18 2022","The main experiment item","yes","Sternbergtask.osexp","/Users/andrea/Desktop/Adv. Quant Methods/Lab 3.1","no","mono","no","18","no","white","no","yes","768","legacy","32","11","/Users/andrea/Desktop/Adv. Quant Methods/Lab 3.1/AS-subject-1.csv","legacy","2 8 6 3 1","Lentiform Loewenfeld","3.3.12","0","n","0","right","left","left","right","NA","938","11843","6660","938","NA","2","legacy","5","1024","2","48000","-16","experiment","1","odd","7","286844","283580","284632","4315","92905","284634","126760","4323","86244","288848","289787","285638","16181","288848","NA","Sternberg task","44","30446","45","yes","1024"
"97.82608695652173","97.82608695652173","673.195652173913","673.195652173913","black","experiment","legacy","legacy","legacy","0","uniform","1","undefined","1","right","45","45","45","0","0","45","45","0","0","45","45","45","0","45","0","Fri Oct 14 15:33:18 2022","The main experiment item","yes","Sternbergtask.osexp","/Users/andrea/Desktop/Adv. Quant Methods/Lab 3.1","no","mono","no","18","no","white","no","yes","768","legacy","33","11","/Users/andrea/Desktop/Adv. Quant Methods/Lab 3.1/AS-subject-1.csv","legacy","5 3 8 7 2 4","Lentiform Loewenfeld","3.3.12","0","n","0","right","left","left","right","NA","521","11843","6660","521","NA","2","legacy","6","1024","2","48000","-16","experiment","1","odd","9","293055","289790","290844","4315","92905","290846","126760","4323","86244","295059","295581","291850","16181","295059","NA","Sternberg task","45","30967","46","yes","1024"
"97.87234042553192","97.87234042553192","671.6170212765958","671.6170212765958","black","experiment","legacy","legacy","legacy","0","uniform","1","undefined","1","right","46","46","46","0","0","46","46","0","0","46","46","46","0","46","0","Fri Oct 14 15:33:18 2022","The main experiment item","yes","Sternbergtask.osexp","/Users/andrea/Desktop/Adv. Quant Methods/Lab 3.1","no","mono","no","18","no","white","no","yes","768","legacy","34","11","/Users/andrea/Desktop/Adv. Quant Methods/Lab 3.1/AS-subject-1.csv","legacy","7 6 4 8 1 2","Lentiform Loewenfeld","3.3.12","0","n","0","right","left","left","right","NA","599","11843","6660","599","NA","2","legacy","6","1024","2","48000","-16","experiment","1","odd","9","298849","295584","296638","4315","92905","296640","126760","4323","86244","300854","301454","297644","16181","300854","NA","Sternberg task","46","31566","47","yes","1024"
"97.91666666666667","97.91666666666667","668.25","668.25","black","experiment","legacy","legacy","legacy","0","uniform","1","undefined","1","left","47","47","47","0","0","47","47","0","0","47","47","47","0","47","0","Fri Oct 14 15:33:18 2022","The main experiment item","yes","Sternbergtask.osexp","/Users/andrea/Desktop/Adv. Quant Methods/Lab 3.1","no","mono","no","18","no","white","no","yes","768","legacy","35","11","/Users/andrea/Desktop/Adv. Quant Methods/Lab 3.1/AS-subject-1.csv","legacy","3 5 7 1","Lentiform Loewenfeld","3.3.12","3","y","0","left","left","left","left","NA","510","11843","6660","510","NA","2","legacy","4","1024","2","48000","-16","experiment","1","odd","7","304721","301457","302510","4315","92905","302512","126760","4323","86244","306726","307237","303516","16181","306726","NA","Sternberg task","47","32076","48","yes","1024"
"97.95918367346938","97.95918367346938","673.3061224489796","673.3061224489796","black","experiment","legacy","legacy","legacy","0","uniform","1","undefined","1","right","48","48","48","0","0","48","48","0","0","48","48","48","0","48","0","Fri Oct 14 15:33:18 2022","The main experiment item","yes","Sternbergtask.osexp","/Users/andrea/Desktop/Adv. Quant Methods/Lab 3.1","no","mono","no","18","no","white","no","yes","768","legacy","36","11","/Users/andrea/Desktop/Adv. Quant Methods/Lab 3.1/AS-subject-1.csv","legacy","7 1 5 6 3","Lentiform Loewenfeld","3.3.12","0","n","0","right","left","left","right","NA","916","11843","6660","916","NA","2","legacy","5","1024","2","48000","-16","experiment","1","odd","8","310504","307239","308292","4315","92905","308294","126760","4323","86244","312507","313424","309298","16181","312507","NA","Sternberg task","48","32992","49","yes","1024"
"98","98","675.44","675.44","black","experiment","legacy","legacy","legacy","0","uniform","1","undefined","1","right","49","49","49","0","0","49","49","0","0","49","49","49","0","49","0","Fri Oct 14 15:33:18 2022","The main experiment item","yes","Sternbergtask.osexp","/Users/andrea/Desktop/Adv. Quant Methods/Lab 3.1","no","mono","no","18","no","white","no","yes","768","legacy","37","11","/Users/andrea/Desktop/Adv. Quant Methods/Lab 3.1/AS-subject-1.csv","legacy","2 8 9 4 1","Lentiform Loewenfeld","3.3.12","0","n","0","right","left","left","right","NA","780","11843","6660","780","NA","2","legacy","5","1024","2","48000","-16","experiment","1","odd","5","316691","313427","314480","4315","92905","314482","126760","4323","86244","318696","319476","315486","16181","318696","NA","Sternberg task","49","33772","50","yes","1024"
"98.03921568627452","98.03921568627452","673.5294117647059","673.5294117647059","black","experiment","legacy","legacy","legacy","0","uniform","1","undefined","1","left","50","50","50","0","0","50","50","0","0","50","50","50","0","50","0","Fri Oct 14 15:33:18 2022","The main experiment item","yes","Sternbergtask.osexp","/Users/andrea/Desktop/Adv. Quant Methods/Lab 3.1","no","mono","no","18","no","white","no","yes","768","legacy","38","11","/Users/andrea/Desktop/Adv. Quant Methods/Lab 3.1/AS-subject-1.csv","legacy","6 9 7 4 5 1","Lentiform Loewenfeld","3.3.12","2","y","0","left","left","left","left","NA","578","11843","6660","578","NA","2","legacy","6","1024","2","48000","-16","experiment","1","odd","9","322744","319480","320533","4315","92905","320535","126760","4323","86244","324748","325327","321539","16181","324748","NA","Sternberg task","50","34350","51","yes","1024"
"98.07692307692308","98.07692307692308","672.1153846153846","672.1153846153846","black","experiment","legacy","legacy","legacy","0","uniform","1","undefined","1","right","51","51","51","0","0","51","51","0","0","51","51","51","0","51","0","Fri Oct 14 15:33:18 2022","The main experiment item","yes","Sternbergtask.osexp","/Users/andrea/Desktop/Adv. Quant Methods/Lab 3.1","no","mono","no","18","no","white","no","yes","768","legacy","39","11","/Users/andrea/Desktop/Adv. Quant Methods/Lab 3.1/AS-subject-1.csv","legacy","4 2 6 9","Lentiform Loewenfeld","3.3.12","0","n","0","right","left","left","right","NA","600","11843","6660","600","NA","2","legacy","4","1024","2","48000","-16","experiment","1","odd","7","328594","325330","326383","4315","92905","326385","126760","4323","86244","330599","331200","327389","16181","330599","NA","Sternberg task","51","34950","52","yes","1024"
"98.11320754716981","98.11320754716981","667.7924528301887","667.7924528301887","black","experiment","legacy","legacy","legacy","0","uniform","1","undefined","1","left","52","52","52","0","0","52","52","0","0","52","52","52","0","52","0","Fri Oct 14 15:33:18 2022","The main experiment item","yes","Sternbergtask.osexp","/Users/andrea/Desktop/Adv. Quant Methods/Lab 3.1","no","mono","no","18","no","white","no","yes","768","legacy","40","11","/Users/andrea/Desktop/Adv. Quant Methods/Lab 3.1/AS-subject-1.csv","legacy","7 8 4 6 9 5","Lentiform Loewenfeld","3.3.12","4","y","0","left","left","left","left","NA","443","11843","6660","443","NA","2","legacy","6","1024","2","48000","-16","experiment","1","odd","6","334468","331203","332256","4315","92905","332258","126760","4323","86244","336472","336915","333262","16181","336471","NA","Sternberg task","52","35393","53","yes","1024"
"98.14814814814815","98.14814814814815","666.4629629629629","666.4629629629629","black","experiment","legacy","legacy","legacy","0","uniform","1","undefined","1","left","53","53","53","0","0","53","53","0","0","53","53","53","0","53","0","Fri Oct 14 15:33:18 2022","The main experiment item","yes","Sternbergtask.osexp","/Users/andrea/Desktop/Adv. Quant Methods/Lab 3.1","no","mono","no","18","no","white","no","yes","768","legacy","41","11","/Users/andrea/Desktop/Adv. Quant Methods/Lab 3.1/AS-subject-1.csv","legacy","6 7 9 3 1 2","Lentiform Loewenfeld","3.3.12","1","y","0","left","left","left","left","NA","596","11843","6660","596","NA","2","legacy","6","1024","2","48000","-16","experiment","1","odd","6","340186","336918","337972","4315","92905","337974","126760","4323","86244","342190","342787","338981","16181","342190","NA","Sternberg task","53","35989","54","yes","1024"
"98.18181818181819","98.18181818181819","664.8181818181819","664.8181818181819","black","experiment","legacy","legacy","legacy","0","uniform","1","undefined","1","left","54","54","54","0","0","54","54","0","0","54","54","54","0","54","0","Fri Oct 14 15:33:18 2022","The main experiment item","yes","Sternbergtask.osexp","/Users/andrea/Desktop/Adv. Quant Methods/Lab 3.1","no","mono","no","18","no","white","no","yes","768","legacy","42","11","/Users/andrea/Desktop/Adv. Quant Methods/Lab 3.1/AS-subject-1.csv","legacy","4 9 7 8 5 3","Lentiform Loewenfeld","3.3.12","4","y","0","left","left","left","left","NA","576","11843","6660","576","NA","2","legacy","6","1024","2","48000","-16","experiment","1","odd","8","346057","342789","343845","4315","92905","343847","126760","4323","86244","348061","348637","344851","16181","348061","NA","Sternberg task","54","36565","55","yes","1024"
"98.21428571428571","98.21428571428571","664.0357142857143","664.0357142857143","black","experiment","legacy","legacy","legacy","0","uniform","1","undefined","1","left","55","55","55","0","0","55","55","0","0","55","55","55","0","55","0","Fri Oct 14 15:33:18 2022","The main experiment item","yes","Sternbergtask.osexp","/Users/andrea/Desktop/Adv. Quant Methods/Lab 3.1","no","mono","no","18","no","white","no","yes","768","legacy","43","11","/Users/andrea/Desktop/Adv. Quant Methods/Lab 3.1/AS-subject-1.csv","legacy","8 3","Lentiform Loewenfeld","3.3.12","2","y","0","left","left","left","left","NA","621","11843","6660","621","NA","2","legacy","2","1024","2","48000","-16","experiment","1","odd","3","351906","348640","349694","4315","92905","349696","126760","4323","86244","353911","354533","350700","16181","353910","NA","Sternberg task","55","37186","56","yes","1024"
"98.24561403508773","98.24561403508773","661.719298245614","661.719298245614","black","experiment","legacy","legacy","legacy","0","uniform","1","undefined","1","right","56","56","56","0","0","56","56","0","0","56","56","56","0","56","0","Fri Oct 14 15:33:18 2022","The main experiment item","yes","Sternbergtask.osexp","/Users/andrea/Desktop/Adv. Quant Methods/Lab 3.1","no","mono","no","18","no","white","no","yes","768","legacy","44","11","/Users/andrea/Desktop/Adv. Quant Methods/Lab 3.1/AS-subject-1.csv","legacy","3 9 1","Lentiform Loewenfeld","3.3.12","0","n","0","right","left","left","right","NA","532","11843","6660","532","NA","2","legacy","3","1024","2","48000","-16","experiment","1","odd","7","357801","354536","355589","4315","92905","355591","126760","4323","86244","359805","360338","356595","16181","359805","NA","Sternberg task","56","37718","57","yes","1024"
"98.27586206896552","98.27586206896552","657.948275862069","657.948275862069","black","experiment","legacy","legacy","legacy","0","uniform","1","undefined","1","right","57","57","57","0","0","57","57","0","0","57","57","57","0","57","0","Fri Oct 14 15:33:18 2022","The main experiment item","yes","Sternbergtask.osexp","/Users/andrea/Desktop/Adv. Quant Methods/Lab 3.1","no","mono","no","18","no","white","no","yes","768","legacy","45","11","/Users/andrea/Desktop/Adv. Quant Methods/Lab 3.1/AS-subject-1.csv","legacy","6 8","Lentiform Loewenfeld","3.3.12","0","n","0","right","left","left","right","NA","443","11843","6660","443","NA","2","legacy","2","1024","2","48000","-16","experiment","1","odd","9","363606","360341","361394","4315","92905","361396","126760","4323","86244","365610","366053","362401","16181","365610","NA","Sternberg task","57","38161","58","yes","1024"
"98.30508474576271","98.30508474576271","654.2542372881356","654.2542372881356","black","experiment","legacy","legacy","legacy","0","uniform","1","undefined","1","left","58","58","58","0","0","58","58","0","0","58","58","58","0","58","0","Fri Oct 14 15:33:18 2022","The main experiment item","yes","Sternbergtask.osexp","/Users/andrea/Desktop/Adv. Quant Methods/Lab 3.1","no","mono","no","18","no","white","no","yes","768","legacy","46","11","/Users/andrea/Desktop/Adv. Quant Methods/Lab 3.1/AS-subject-1.csv","legacy","8 7 3","Lentiform Loewenfeld","3.3.12","1","y","0","left","left","left","left","NA","440","11843","6660","440","NA","2","legacy","3","1024","2","48000","-16","experiment","1","odd","8","369323","366056","367111","4315","92905","367113","126760","4323","86244","371327","371768","368117","16181","371327","NA","Sternberg task","58","38601","59","yes","1024"
"96.66666666666667","96.66666666666667","651.8666666666667","651.8666666666667","black","experiment","legacy","legacy","legacy","0","uniform","0","undefined","0","right","59","59","59","0","0","59","59","0","0","59","59","59","0","59","0","Fri Oct 14 15:33:18 2022","The main experiment item","yes","Sternbergtask.osexp","/Users/andrea/Desktop/Adv. Quant Methods/Lab 3.1","no","mono","no","18","no","white","no","yes","768","legacy","47","11","/Users/andrea/Desktop/Adv. Quant Methods/Lab 3.1/AS-subject-1.csv","legacy","1 6 4 3 9 7","Lentiform Loewenfeld","3.3.12","0","n","0","left","left","left","left","NA","511","11843","6660","511","NA","2","legacy","6","1024","2","48000","-16","experiment","1","odd","8","375036","371771","372824","4315","92905","372826","126760","4323","86244","377040","377551","373831","16181","377040","NA","Sternberg task","58","39112","60","yes","1024"
"96.72131147540983","96.72131147540983","649.8852459016393","649.8852459016393","black","experiment","legacy","legacy","legacy","0","uniform","1","undefined","1","left","60","60","60","0","0","60","60","0","0","60","60","60","0","60","0","Fri Oct 14 15:33:18 2022","The main experiment item","yes","Sternbergtask.osexp","/Users/andrea/Desktop/Adv. Quant Methods/Lab 3.1","no","mono","no","18","no","white","no","yes","768","legacy","48","11","/Users/andrea/Desktop/Adv. Quant Methods/Lab 3.1/AS-subject-1.csv","legacy","7 2 3","Lentiform Loewenfeld","3.3.12","3","y","0","left","left","left","left","NA","531","11843","6660","531","NA","2","legacy","3","1024","2","48000","-16","experiment","1","odd","3","380822","371771","378607","4315","92905","378609","377554","4323","86244","382825","383356","379615","16181","382825","NA","Sternberg task","59","39643","61","yes","1024"
"96.7741935483871","96.7741935483871","649.516129032258","649.516129032258","black","experiment","legacy","legacy","legacy","0","uniform","1","undefined","1","left","61","61","61","0","0","61","61","0","0","61","61","61","0","61","0","Fri Oct 14 15:33:18 2022","The main experiment item","yes","Sternbergtask.osexp","/Users/andrea/Desktop/Adv. Quant Methods/Lab 3.1","no","mono","no","18","no","white","no","yes","768","legacy","49","11","/Users/andrea/Desktop/Adv. Quant Methods/Lab 3.1/AS-subject-1.csv","legacy","8 9 5 7 1 6","Lentiform Loewenfeld","3.3.12","4","y","0","left","left","left","left","NA","627","11843","6660","627","NA","2","legacy","6","1024","2","48000","-16","experiment","1","odd","7","386620","383360","384409","4315","92905","384411","377554","4323","86244","388624","389252","385415","16181","388624","NA","Sternberg task","60","40270","62","yes","1024"
"96.82539682539682","96.82539682539682","646.2380952380952","646.2380952380952","black","experiment","legacy","legacy","legacy","0","uniform","1","undefined","1","right","62","62","62","0","0","62","62","0","0","62","62","62","0","62","0","Fri Oct 14 15:33:18 2022","The main experiment item","yes","Sternbergtask.osexp","/Users/andrea/Desktop/Adv. Quant Methods/Lab 3.1","no","mono","no","18","no","white","no","yes","768","legacy","50","11","/Users/andrea/Desktop/Adv. Quant Methods/Lab 3.1/AS-subject-1.csv","legacy","1 6 4","Lentiform Loewenfeld","3.3.12","0","n","0","right","left","left","right","NA","443","11843","6660","443","NA","2","legacy","3","1024","2","48000","-16","experiment","1","odd","7","392519","389254","390307","4315","92905","390309","377554","4323","86244","394523","394966","391313","16181","394523","NA","Sternberg task","61","40713","63","yes","1024"
"96.875","96.875","644.625","644.625","black","experiment","legacy","legacy","legacy","0","uniform","1","undefined","1","right","63","63","63","0","0","63","63","0","0","63","63","63","0","63","0","Fri Oct 14 15:33:18 2022","The main experiment item","yes","Sternbergtask.osexp","/Users/andrea/Desktop/Adv. Quant Methods/Lab 3.1","no","mono","no","18","no","white","no","yes","768","legacy","51","11","/Users/andrea/Desktop/Adv. Quant Methods/Lab 3.1/AS-subject-1.csv","legacy","5 2","Lentiform Loewenfeld","3.3.12","0","n","0","right","left","left","right","NA","543","11843","6660","543","NA","2","legacy","2","1024","2","48000","-16","experiment","1","odd","7","398234","394969","396022","4315","92905","396025","377554","4323","86244","400239","400783","397029","16181","400239","NA","Sternberg task","62","41256","64","yes","1024"
"96.92307692307692","96.92307692307692","645.6615384615385","645.6615384615385","black","experiment","legacy","legacy","legacy","0","uniform","1","undefined","1","left","64","64","64","0","0","64","64","0","0","64","64","64","0","64","0","Fri Oct 14 15:33:18 2022","The main experiment item","yes","Sternbergtask.osexp","/Users/andrea/Desktop/Adv. Quant Methods/Lab 3.1","no","mono","no","18","no","white","no","yes","768","legacy","52","11","/Users/andrea/Desktop/Adv. Quant Methods/Lab 3.1/AS-subject-1.csv","legacy","9 3 1 2 5","Lentiform Loewenfeld","3.3.12","4","y","0","left","left","left","left","NA","712","11843","6660","712","NA","2","legacy","5","1024","2","48000","-16","experiment","1","odd","2","404052","400786","401840","4315","92905","401842","377554","4323","86244","406055","406768","402846","16181","406055","NA","Sternberg task","63","41968","65","yes","1024"
"96.96969696969697","96.96969696969697","645.4848484848485","645.4848484848485","black","experiment","legacy","legacy","legacy","0","uniform","1","undefined","1","right","65","65","65","0","0","65","65","0","0","65","65","65","0","65","0","Fri Oct 14 15:33:18 2022","The main experiment item","yes","Sternbergtask.osexp","/Users/andrea/Desktop/Adv. Quant Methods/Lab 3.1","no","mono","no","18","no","white","no","yes","768","legacy","53","11","/Users/andrea/Desktop/Adv. Quant Methods/Lab 3.1/AS-subject-1.csv","legacy","6 7 5 9","Lentiform Loewenfeld","3.3.12","0","n","0","right","left","left","right","NA","634","11843","6660","634","NA","2","legacy","4","1024","2","48000","-16","experiment","1","odd","2","410036","406771","407824","4315","92905","407826","377554","4323","86244","412040","412675","408831","16181","412040","NA","Sternberg task","64","42602","66","yes","1024"
"97.01492537313433","97.01492537313433","642.2985074626865","642.2985074626865","black","experiment","legacy","legacy","legacy","0","uniform","1","undefined","1","left","66","66","66","0","0","66","66","0","0","66","66","66","0","66","0","Fri Oct 14 15:33:18 2022","The main experiment item","yes","Sternbergtask.osexp","/Users/andrea/Desktop/Adv. Quant Methods/Lab 3.1","no","mono","no","18","no","white","no","yes","768","legacy","54","11","/Users/andrea/Desktop/Adv. Quant Methods/Lab 3.1/AS-subject-1.csv","legacy","6 7 8 5","Lentiform Loewenfeld","3.3.12","3","y","0","left","left","left","left","NA","432","11843","6660","432","NA","2","legacy","4","1024","2","48000","-16","experiment","1","odd","8","415942","412678","413730","4315","92905","413732","377554","4323","86244","417946","418379","414736","16181","417945","NA","Sternberg task","65","43034","67","yes","1024"
"97.05882352941177","97.05882352941177","641.3529411764706","641.3529411764706","black","experiment","legacy","legacy","legacy","0","uniform","1","undefined","1","right","67","67","67","0","0","67","67","0","0","67","67","67","0","67","0","Fri Oct 14 15:33:18 2022","The main experiment item","yes","Sternbergtask.osexp","/Users/andrea/Desktop/Adv. Quant Methods/Lab 3.1","no","mono","no","18","no","white","no","yes","768","legacy","55","11","/Users/andrea/Desktop/Adv. Quant Methods/Lab 3.1/AS-subject-1.csv","legacy","7 4 2 8 1 9","Lentiform Loewenfeld","3.3.12","0","n","0","right","left","left","right","NA","578","11843","6660","578","NA","2","legacy","6","1024","2","48000","-16","experiment","1","odd","5","421645","418382","419434","4315","92905","419436","377554","4323","86244","423650","424229","420440","16181","423650","NA","Sternberg task","66","43612","68","yes","1024"
"97.10144927536231","97.10144927536231","640.3913043478261","640.3913043478261","black","experiment","legacy","legacy","legacy","0","uniform","1","undefined","1","right","68","68","68","0","0","68","68","0","0","68","68","68","0","68","0","Fri Oct 14 15:33:18 2022","The main experiment item","yes","Sternbergtask.osexp","/Users/andrea/Desktop/Adv. Quant Methods/Lab 3.1","no","mono","no","18","no","white","no","yes","768","legacy","56","11","/Users/andrea/Desktop/Adv. Quant Methods/Lab 3.1/AS-subject-1.csv","legacy","1 7 8 3 9","Lentiform Loewenfeld","3.3.12","0","n","0","right","left","left","right","NA","575","11843","6660","575","NA","2","legacy","5","1024","2","48000","-16","experiment","1","odd","2","427499","424232","425285","4315","92905","425287","377554","4323","86244","429503","430079","426293","16181","429503","NA","Sternberg task","67","44187","69","yes","1024"
"97.14285714285714","97.14285714285714","638.6571428571428","638.6571428571428","black","experiment","legacy","legacy","legacy","0","uniform","1","undefined","1","left","69","69","69","0","0","69","69","0","0","69","69","69","0","69","0","Fri Oct 14 15:33:18 2022","The main experiment item","yes","Sternbergtask.osexp","/Users/andrea/Desktop/Adv. Quant Methods/Lab 3.1","no","mono","no","18","no","white","no","yes","768","legacy","57","11","/Users/andrea/Desktop/Adv. Quant Methods/Lab 3.1/AS-subject-1.csv","legacy","5 2 6","Lentiform Loewenfeld","3.3.12","2","y","0","left","left","left","left","NA","519","11843","6660","519","NA","2","legacy","3","1024","2","48000","-16","experiment","1","odd","2","433348","430082","431135","4315","92905","431138","377554","4323","86244","435353","435873","432143","16181","435352","NA","Sternberg task","68","44706","70","yes","1024"
"97.1830985915493","97.1830985915493","639.3661971830986","639.3661971830986","black","experiment","legacy","legacy","legacy","0","uniform","1","undefined","1","right","70","70","70","0","0","70","70","0","0","70","70","70","0","70","0","Fri Oct 14 15:33:18 2022","The main experiment item","yes","Sternbergtask.osexp","/Users/andrea/Desktop/Adv. Quant Methods/Lab 3.1","no","mono","no","18","no","white","no","yes","768","legacy","58","11","/Users/andrea/Desktop/Adv. Quant Methods/Lab 3.1/AS-subject-1.csv","legacy","9 8 2 7 4","Lentiform Loewenfeld","3.3.12","0","n","0","right","left","left","right","NA","689","11843","6660","689","NA","2","legacy","5","1024","2","48000","-16","experiment","1","odd","5","439142","435876","436930","4315","92905","436932","377554","4323","86244","441146","441836","437936","16181","441146","NA","Sternberg task","69","45395","71","yes","1024"
"97.22222222222223","97.22222222222223","638.1944444444445","638.1944444444445","black","experiment","legacy","legacy","legacy","0","uniform","1","undefined","1","left","71","71","71","0","0","71","71","0","0","71","71","71","0","71","0","Fri Oct 14 15:33:18 2022","The main experiment item","yes","Sternbergtask.osexp","/Users/andrea/Desktop/Adv. Quant Methods/Lab 3.1","no","mono","no","18","no","white","no","yes","768","legacy","59","11","/Users/andrea/Desktop/Adv. Quant Methods/Lab 3.1/AS-subject-1.csv","legacy","9 1 6 7 8","Lentiform Loewenfeld","3.3.12","1","y","0","left","left","left","left","NA","555","11843","6660","555","NA","2","legacy","5","1024","2","48000","-16","experiment","1","odd","9","445104","441839","442892","4315","92905","442895","377554","4323","86244","447108","447664","443899","16181","447108","NA","Sternberg task","70","45950","72","yes","1024"
"97.26027397260275","97.26027397260275","637.6575342465753","637.6575342465753","black","experiment","legacy","legacy","legacy","0","uniform","1","undefined","1","right","72","72","72","0","0","72","72","0","0","72","72","72","0","72","0","Fri Oct 14 15:33:18 2022","The main experiment item","yes","Sternbergtask.osexp","/Users/andrea/Desktop/Adv. Quant Methods/Lab 3.1","no","mono","no","18","no","white","no","yes","768","legacy","60","11","/Users/andrea/Desktop/Adv. Quant Methods/Lab 3.1/AS-subject-1.csv","legacy","5 7 3","Lentiform Loewenfeld","3.3.12","0","n","0","right","left","left","right","NA","599","11843","6660","599","NA","2","legacy","3","1024","2","48000","-16","experiment","1","odd","9","450932","447667","448720","4315","92905","448722","377554","4323","86244","452936","453536","449726","16181","452935","NA","Sternberg task","71","46549","73","yes","1024"
"97.29729729729729","97.29729729729729","639.4054054054054","639.4054054054054","black","experiment","legacy","legacy","legacy","0","uniform","1","undefined","1","left","73","73","73","0","0","73","73","0","0","73","73","73","0","73","0","Fri Oct 14 15:33:18 2022","The main experiment item","yes","Sternbergtask.osexp","/Users/andrea/Desktop/Adv. Quant Methods/Lab 3.1","no","mono","no","18","no","white","no","yes","768","legacy","61","11","/Users/andrea/Desktop/Adv. Quant Methods/Lab 3.1/AS-subject-1.csv","legacy","2 6 1 7 4","Lentiform Loewenfeld","3.3.12","2","y","0","left","left","left","left","NA","767","11843","6660","767","NA","2","legacy","5","1024","2","48000","-16","experiment","1","odd","6","456805","453539","454594","4315","92905","454596","377554","4323","86244","458810","459578","455600","16181","458810","NA","Sternberg task","72","47316","74","yes","1024"
"97.33333333333333","97.33333333333333","637.9866666666667","637.9866666666667","black","experiment","legacy","legacy","legacy","0","uniform","1","undefined","1","left","74","74","74","0","0","74","74","0","0","74","74","74","0","74","0","Fri Oct 14 15:33:18 2022","The main experiment item","yes","Sternbergtask.osexp","/Users/andrea/Desktop/Adv. Quant Methods/Lab 3.1","no","mono","no","18","no","white","no","yes","768","legacy","62","11","/Users/andrea/Desktop/Adv. Quant Methods/Lab 3.1/AS-subject-1.csv","legacy","8 5 1 3 9","Lentiform Loewenfeld","3.3.12","4","y","0","left","left","left","left","NA","533","11843","6660","533","NA","2","legacy","5","1024","2","48000","-16","experiment","1","odd","3","462845","459581","460634","4315","92905","460636","377554","4323","86244","464849","465383","461640","16181","464849","NA","Sternberg task","73","47849","75","yes","1024"
"97.36842105263158","97.36842105263158","636.5921052631579","636.5921052631579","black","experiment","legacy","legacy","legacy","0","uniform","1","undefined","1","left","75","75","75","0","0","75","75","0","0","75","75","75","0","75","0","Fri Oct 14 15:33:18 2022","The main experiment item","yes","Sternbergtask.osexp","/Users/andrea/Desktop/Adv. Quant Methods/Lab 3.1","no","mono","no","18","no","white","no","yes","768","legacy","63","11","/Users/andrea/Desktop/Adv. Quant Methods/Lab 3.1/AS-subject-1.csv","legacy","6 8 9 3 4 9","Lentiform Loewenfeld","3.3.12","5","y","0","left","left","left","left","NA","532","11843","6660","532","NA","2","legacy","6","1024","2","48000","-16","experiment","1","odd","4","468651","465386","466440","4315","92905","466442","377554","4323","86244","470655","471188","467446","16181","470655","NA","Sternberg task","74","48381","76","yes","1024"
"97.40259740259741","97.40259740259741","634.9480519480519","634.9480519480519","black","experiment","legacy","legacy","legacy","0","uniform","1","undefined","1","right","76","76","76","0","0","76","76","0","0","76","76","76","0","76","0","Fri Oct 14 15:33:18 2022","The main experiment item","yes","Sternbergtask.osexp","/Users/andrea/Desktop/Adv. Quant Methods/Lab 3.1","no","mono","no","18","no","white","no","yes","768","legacy","64","11","/Users/andrea/Desktop/Adv. Quant Methods/Lab 3.1/AS-subject-1.csv","legacy","1","Lentiform Loewenfeld","3.3.12","0","n","0","right","left","left","right","NA","510","11843","6660","510","NA","2","legacy","1","1024","2","48000","-16","experiment","1","odd","7","474456","471191","472244","4315","92905","472246","377554","4323","86244","476460","476971","473250","16181","476460","NA","Sternberg task","75","48891","77","yes","1024"
"97.43589743589743","97.43589743589743","633.9102564102565","633.9102564102565","black","experiment","legacy","legacy","legacy","0","uniform","1","undefined","1","left","77","77","77","0","0","77","77","0","0","77","77","77","0","77","0","Fri Oct 14 15:33:18 2022","The main experiment item","yes","Sternbergtask.osexp","/Users/andrea/Desktop/Adv. Quant Methods/Lab 3.1","no","mono","no","18","no","white","no","yes","768","legacy","65","11","/Users/andrea/Desktop/Adv. Quant Methods/Lab 3.1/AS-subject-1.csv","legacy","8 9 6 1","Lentiform Loewenfeld","3.3.12","2","y","0","left","left","left","left","NA","554","11843","6660","554","NA","2","legacy","4","1024","2","48000","-16","experiment","1","odd","9","480239","476974","478028","4315","92905","478030","377554","4323","86244","482244","482799","479034","16181","482244","NA","Sternberg task","76","49445","78","yes","1024"
"97.46835443037975","97.46835443037975","633.2025316455696","633.2025316455696","black","experiment","legacy","legacy","legacy","0","uniform","1","undefined","1","left","78","78","78","0","0","78","78","0","0","78","78","78","0","78","0","Fri Oct 14 15:33:18 2022","The main experiment item","yes","Sternbergtask.osexp","/Users/andrea/Desktop/Adv. Quant Methods/Lab 3.1","no","mono","no","18","no","white","no","yes","768","legacy","66","11","/Users/andrea/Desktop/Adv. Quant Methods/Lab 3.1/AS-subject-1.csv","legacy","6 1 2","Lentiform Loewenfeld","3.3.12","3","y","0","left","left","left","left","NA","578","11843","6660","578","NA","2","legacy","3","1024","2","48000","-16","experiment","1","odd","2","486068","482802","483856","4315","92905","483857","377554","4323","86244","488070","488649","484862","16181","488070","NA","Sternberg task","77","50023","79","yes","1024"
"97.5","97.5","631.3625","631.3625","black","experiment","legacy","legacy","legacy","0","uniform","1","undefined","1","left","79","79","79","0","0","79","79","0","0","79","79","79","0","79","0","Fri Oct 14 15:33:18 2022","The main experiment item","yes","Sternbergtask.osexp","/Users/andrea/Desktop/Adv. Quant Methods/Lab 3.1","no","mono","no","18","no","white","no","yes","768","legacy","67","11","/Users/andrea/Desktop/Adv. Quant Methods/Lab 3.1/AS-subject-1.csv","legacy","4","Lentiform Loewenfeld","3.3.12","1","y","0","left","left","left","left","NA","486","11843","6660","486","NA","2","legacy","1","1024","2","48000","-16","experiment","1","odd","4","491916","488652","489705","4315","92905","489707","377554","4323","86244","493922","494409","490711","16181","493922","NA","Sternberg task","78","50509","80","yes","1024"
"97.53086419753086","97.53086419753086","630.6913580246913","630.6913580246913","black","experiment","legacy","legacy","legacy","0","uniform","1","undefined","1","left","80","80","80","0","0","80","80","0","0","80","80","80","0","80","0","Fri Oct 14 15:33:18 2022","The main experiment item","yes","Sternbergtask.osexp","/Users/andrea/Desktop/Adv. Quant Methods/Lab 3.1","no","mono","no","18","no","white","no","yes","768","legacy","68","11","/Users/andrea/Desktop/Adv. Quant Methods/Lab 3.1/AS-subject-1.csv","legacy","2 3 7 4","Lentiform Loewenfeld","3.3.12","1","y","0","left","left","left","left","NA","577","11843","6660","577","NA","2","legacy","4","1024","2","48000","-16","experiment","1","odd","2","497677","494411","495465","4315","92905","495467","377554","4323","86244","499681","500259","496471","16181","499681","NA","Sternberg task","79","51086","81","yes","1024"
"97.5609756097561","97.5609756097561","631.8536585365854","631.8536585365854","black","experiment","legacy","legacy","legacy","0","uniform","1","undefined","1","left","81","81","81","0","0","81","81","0","0","81","81","81","0","81","0","Fri Oct 14 15:33:18 2022","The main experiment item","yes","Sternbergtask.osexp","/Users/andrea/Desktop/Adv. Quant Methods/Lab 3.1","no","mono","no","18","no","white","no","yes","768","legacy","69","11","/Users/andrea/Desktop/Adv. Quant Methods/Lab 3.1/AS-subject-1.csv","legacy","8","Lentiform Loewenfeld","3.3.12","1","y","0","left","left","left","left","NA","726","11843","6660","726","NA","2","legacy","1","1024","2","48000","-16","experiment","1","odd","8","503525","500262","501313","4315","92905","501315","377554","4323","86244","505529","506256","502319","16181","505529","NA","Sternberg task","80","51812","82","yes","1024"
"97.59036144578313","97.59036144578313","633.1325301204819","633.1325301204819","black","experiment","legacy","legacy","legacy","0","uniform","1","undefined","1","right","82","82","82","0","0","82","82","0","0","82","82","82","0","82","0","Fri Oct 14 15:33:18 2022","The main experiment item","yes","Sternbergtask.osexp","/Users/andrea/Desktop/Adv. Quant Methods/Lab 3.1","no","mono","no","18","no","white","no","yes","768","legacy","70","11","/Users/andrea/Desktop/Adv. Quant Methods/Lab 3.1/AS-subject-1.csv","legacy","6 9 5","Lentiform Loewenfeld","3.3.12","0","n","0","right","left","left","right","NA","738","11843","6660","738","NA","2","legacy","3","1024","2","48000","-16","experiment","1","odd","8","509524","506259","507312","4315","92905","507314","377554","4323","86244","511525","512264","508318","16181","511525","NA","Sternberg task","81","52550","83","yes","1024"
"97.61904761904762","97.61904761904762","635.9404761904761","635.9404761904761","black","experiment","legacy","legacy","legacy","0","uniform","1","undefined","1","right","83","83","83","0","0","83","83","0","0","83","83","83","0","83","0","Fri Oct 14 15:33:18 2022","The main experiment item","yes","Sternbergtask.osexp","/Users/andrea/Desktop/Adv. Quant Methods/Lab 3.1","no","mono","no","18","no","white","no","yes","768","legacy","71","11","/Users/andrea/Desktop/Adv. Quant Methods/Lab 3.1/AS-subject-1.csv","legacy","9 7 4 5 8","Lentiform Loewenfeld","3.3.12","0","n","0","right","left","left","right","NA","869","11843","6660","869","NA","2","legacy","5","1024","2","48000","-16","experiment","1","odd","6","515532","512267","513320","4315","92905","513323","377554","4323","86244","517536","518406","514327","16181","517536","NA","Sternberg task","82","53419","84","yes","1024"
"97.6470588235294","97.6470588235294","635.6588235294117","635.6588235294117","black","experiment","legacy","legacy","legacy","0","uniform","1","undefined","1","right","84","84","84","0","0","84","84","0","0","84","84","84","0","84","0","Fri Oct 14 15:33:18 2022","The main experiment item","yes","Sternbergtask.osexp","/Users/andrea/Desktop/Adv. Quant Methods/Lab 3.1","no","mono","no","18","no","white","no","yes","768","legacy","72","11","/Users/andrea/Desktop/Adv. Quant Methods/Lab 3.1/AS-subject-1.csv","legacy","8 4 3 5","Lentiform Loewenfeld","3.3.12","0","n","0","right","left","left","right","NA","612","11843","6660","612","NA","2","legacy","4","1024","2","48000","-16","experiment","1","odd","6","521673","518409","519462","4315","92905","519464","377554","4323","86244","523677","524290","520467","16181","523677","NA","Sternberg task","83","54031","85","yes","1024"
"97.67441860465117","97.67441860465117","635.8953488372093","635.8953488372093","black","experiment","legacy","legacy","legacy","0","uniform","1","undefined","1","right","85","85","85","0","0","85","85","0","0","85","85","85","0","85","0","Fri Oct 14 15:33:18 2022","The main experiment item","yes","Sternbergtask.osexp","/Users/andrea/Desktop/Adv. Quant Methods/Lab 3.1","no","mono","no","18","no","white","no","yes","768","legacy","73","11","/Users/andrea/Desktop/Adv. Quant Methods/Lab 3.1/AS-subject-1.csv","legacy","1 7 5 2","Lentiform Loewenfeld","3.3.12","0","n","0","right","left","left","right","NA","656","11843","6660","656","NA","2","legacy","4","1024","2","48000","-16","experiment","1","odd","3","527558","524293","525346","4315","92905","525348","377554","4323","86244","529562","530219","526352","16181","529562","NA","Sternberg task","84","54687","86","yes","1024"
"97.70114942528735","97.70114942528735","636.7471264367816","636.7471264367816","black","experiment","legacy","legacy","legacy","0","uniform","1","undefined","1","right","86","86","86","0","0","86","86","0","0","86","86","86","0","86","0","Fri Oct 14 15:33:18 2022","The main experiment item","yes","Sternbergtask.osexp","/Users/andrea/Desktop/Adv. Quant Methods/Lab 3.1","no","mono","no","18","no","white","no","yes","768","legacy","74","11","/Users/andrea/Desktop/Adv. Quant Methods/Lab 3.1/AS-subject-1.csv","legacy","1 4 9 3","Lentiform Loewenfeld","3.3.12","0","n","0","right","left","left","right","NA","710","11843","6660","710","NA","2","legacy","4","1024","2","48000","-16","experiment","1","odd","5","533488","530222","531276","4315","92905","531278","377554","4323","86244","535493","536204","532282","16181","535493","NA","Sternberg task","85","55397","87","yes","1024"
"97.72727272727273","97.72727272727273","637.4772727272727","637.4772727272727","black","experiment","legacy","legacy","legacy","0","uniform","1","undefined","1","right","87","87","87","0","0","87","87","0","0","87","87","87","0","87","0","Fri Oct 14 15:33:18 2022","The main experiment item","yes","Sternbergtask.osexp","/Users/andrea/Desktop/Adv. Quant Methods/Lab 3.1","no","mono","no","18","no","white","no","yes","768","legacy","75","11","/Users/andrea/Desktop/Adv. Quant Methods/Lab 3.1/AS-subject-1.csv","legacy","8 2 1 4 5 9","Lentiform Loewenfeld","3.3.12","0","n","0","right","left","left","right","NA","701","11843","6660","701","NA","2","legacy","6","1024","2","48000","-16","experiment","1","odd","7","539472","536207","537261","4315","92905","537263","377554","4323","86244","541476","542178","538267","16181","541476","NA","Sternberg task","86","56098","88","yes","1024"
"97.75280898876404","97.75280898876404","640.8426966292135","640.8426966292135","black","experiment","legacy","legacy","legacy","0","uniform","1","undefined","1","right","88","88","88","0","0","88","88","0","0","88","88","88","0","88","0","Fri Oct 14 15:33:18 2022","The main experiment item","yes","Sternbergtask.osexp","/Users/andrea/Desktop/Adv. Quant Methods/Lab 3.1","no","mono","no","18","no","white","no","yes","768","legacy","76","11","/Users/andrea/Desktop/Adv. Quant Methods/Lab 3.1/AS-subject-1.csv","legacy","8 6 3 4 7","Lentiform Loewenfeld","3.3.12","0","n","0","right","left","left","right","NA","937","11843","6660","937","NA","2","legacy","5","1024","2","48000","-16","experiment","1","odd","1","545447","542181","543235","4315","92905","543237","377554","4323","86244","547451","548388","544241","16181","547451","NA","Sternberg task","87","57035","89","yes","1024"
"97.77777777777777","97.77777777777777","641.1222222222223","641.1222222222223","black","experiment","legacy","legacy","legacy","0","uniform","1","undefined","1","left","89","89","89","0","0","89","89","0","0","89","89","89","0","89","0","Fri Oct 14 15:33:18 2022","The main experiment item","yes","Sternbergtask.osexp","/Users/andrea/Desktop/Adv. Quant Methods/Lab 3.1","no","mono","no","18","no","white","no","yes","768","legacy","77","11","/Users/andrea/Desktop/Adv. Quant Methods/Lab 3.1/AS-subject-1.csv","legacy","9 3 8 2 1 4","Lentiform Loewenfeld","3.3.12","3","y","0","left","left","left","left","NA","666","11843","6660","666","NA","2","legacy","6","1024","2","48000","-16","experiment","1","odd","8","551657","548391","549445","4315","92905","549447","377554","4323","86244","553662","554328","550452","16181","553662","NA","Sternberg task","88","57701","90","yes","1024"
"97.8021978021978","97.8021978021978","640.5604395604396","640.5604395604396","black","experiment","legacy","legacy","legacy","0","uniform","1","undefined","1","right","90","90","90","0","0","90","90","0","0","90","90","90","0","90","0","Fri Oct 14 15:33:18 2022","The main experiment item","yes","Sternbergtask.osexp","/Users/andrea/Desktop/Adv. Quant Methods/Lab 3.1","no","mono","no","18","no","white","no","yes","768","legacy","78","11","/Users/andrea/Desktop/Adv. Quant Methods/Lab 3.1/AS-subject-1.csv","legacy","2 8 9","Lentiform Loewenfeld","3.3.12","0","n","0","right","left","left","right","NA","590","11843","6660","590","NA","2","legacy","3","1024","2","48000","-16","experiment","1","odd","6","557596","554331","555384","4315","92905","555386","377554","4323","86244","559600","560191","556390","16181","559599","NA","Sternberg task","89","58291","91","yes","1024"
"97.82608695652173","97.82608695652173","642.0652173913044","642.0652173913044","black","experiment","legacy","legacy","legacy","0","uniform","1","undefined","1","left","91","91","91","0","0","91","91","0","0","91","91","91","0","91","0","Fri Oct 14 15:33:18 2022","The main experiment item","yes","Sternbergtask.osexp","/Users/andrea/Desktop/Adv. Quant Methods/Lab 3.1","no","mono","no","18","no","white","no","yes","768","legacy","79","11","/Users/andrea/Desktop/Adv. Quant Methods/Lab 3.1/AS-subject-1.csv","legacy","4 6 2 5 1","Lentiform Loewenfeld","3.3.12","5","y","0","left","left","left","left","NA","779","11843","6660","779","NA","2","legacy","5","1024","2","48000","-16","experiment","1","odd","1","563459","560194","561248","4315","92905","561249","377554","4323","86244","565463","566243","562254","16181","565463","NA","Sternberg task","90","59070","92","yes","1024"
"97.84946236559139","97.84946236559139","641.494623655914","641.494623655914","black","experiment","legacy","legacy","legacy","0","uniform","1","undefined","1","right","92","92","92","0","0","92","92","0","0","92","92","92","0","92","0","Fri Oct 14 15:33:18 2022","The main experiment item","yes","Sternbergtask.osexp","/Users/andrea/Desktop/Adv. Quant Methods/Lab 3.1","no","mono","no","18","no","white","no","yes","768","legacy","80","11","/Users/andrea/Desktop/Adv. Quant Methods/Lab 3.1/AS-subject-1.csv","legacy","5 9 2 3","Lentiform Loewenfeld","3.3.12","0","n","0","right","left","left","right","NA","589","11843","6660","589","NA","2","legacy","4","1024","2","48000","-16","experiment","1","odd","8","569511","566246","567299","4315","92905","567301","377554","4323","86244","571515","572105","568305","16181","571515","NA","Sternberg task","91","59659","93","yes","1024"
"97.87234042553192","97.87234042553192","640.9787234042553","640.9787234042553","black","experiment","legacy","legacy","legacy","0","uniform","1","undefined","1","right","93","93","93","0","0","93","93","0","0","93","93","93","0","93","0","Fri Oct 14 15:33:18 2022","The main experiment item","yes","Sternbergtask.osexp","/Users/andrea/Desktop/Adv. Quant Methods/Lab 3.1","no","mono","no","18","no","white","no","yes","768","legacy","81","11","/Users/andrea/Desktop/Adv. Quant Methods/Lab 3.1/AS-subject-1.csv","legacy","2 3 8 5 6 7","Lentiform Loewenfeld","3.3.12","0","n","0","right","left","left","right","NA","593","11843","6660","593","NA","2","legacy","6","1024","2","48000","-16","experiment","1","odd","1","575368","572107","573157","4315","92905","573159","377554","4323","86244","577373","577967","574163","16181","577373","NA","Sternberg task","92","60252","94","yes","1024"
"97.89473684210526","97.89473684210526","640.0526315789474","640.0526315789474","black","experiment","legacy","legacy","legacy","0","uniform","1","undefined","1","left","94","94","94","0","0","94","94","0","0","94","94","94","0","94","0","Fri Oct 14 15:33:18 2022","The main experiment item","yes","Sternbergtask.osexp","/Users/andrea/Desktop/Adv. Quant Methods/Lab 3.1","no","mono","no","18","no","white","no","yes","768","legacy","82","11","/Users/andrea/Desktop/Adv. Quant Methods/Lab 3.1/AS-subject-1.csv","legacy","9 8 4","Lentiform Loewenfeld","3.3.12","1","y","0","left","left","left","left","NA","553","11843","6660","553","NA","2","legacy","3","1024","2","48000","-16","experiment","1","odd","9","581235","577970","579023","4315","92905","579025","377554","4323","86244","583239","583793","580029","16181","583238","NA","Sternberg task","93","60805","95","yes","1024"
"97.91666666666667","97.91666666666667","643.40625","643.40625","black","experiment","legacy","legacy","legacy","0","uniform","1","undefined","1","right","95","95","95","0","0","95","95","0","0","95","95","95","0","95","0","Fri Oct 14 15:33:18 2022","The main experiment item","yes","Sternbergtask.osexp","/Users/andrea/Desktop/Adv. Quant Methods/Lab 3.1","no","mono","no","18","no","white","no","yes","768","legacy","83","11","/Users/andrea/Desktop/Adv. Quant Methods/Lab 3.1/AS-subject-1.csv","legacy","1 4 3 6 5","Lentiform Loewenfeld","3.3.12","0","n","0","right","left","left","right","NA","962","11843","6660","962","NA","2","legacy","5","1024","2","48000","-16","experiment","1","odd","8","587059","583795","584849","4315","92905","584851","377554","4323","86244","589063","590026","585855","16181","589063","NA","Sternberg task","94","61767","96","yes","1024"
"97.9381443298969","97.9381443298969","645.2680412371134","645.2680412371134","black","experiment","legacy","legacy","legacy","0","uniform","1","undefined","1","left","96","96","96","0","0","96","96","0","0","96","96","96","0","96","0","Fri Oct 14 15:33:18 2022","The main experiment item","yes","Sternbergtask.osexp","/Users/andrea/Desktop/Adv. Quant Methods/Lab 3.1","no","mono","no","18","no","white","no","yes","768","legacy","84","11","/Users/andrea/Desktop/Adv. Quant Methods/Lab 3.1/AS-subject-1.csv","legacy","7 4 2 6 3 5","Lentiform Loewenfeld","3.3.12","6","y","0","left","left","left","left","NA","824","11843","6660","824","NA","2","legacy","6","1024","2","48000","-16","experiment","1","odd","5","593295","590029","591083","4315","92905","591085","377554","4323","86244","595299","596124","592089","16181","595299","NA","Sternberg task","95","62591","97","yes","1024"
"97.95918367346938","97.95918367346938","645.265306122449","645.265306122449","black","experiment","legacy","legacy","legacy","0","uniform","1","undefined","1","left","97","97","97","0","0","97","97","0","0","97","97","97","0","97","0","Fri Oct 14 15:33:18 2022","The main experiment item","yes","Sternbergtask.osexp","/Users/andrea/Desktop/Adv. Quant Methods/Lab 3.1","no","mono","no","18","no","white","no","yes","768","legacy","85","11","/Users/andrea/Desktop/Adv. Quant Methods/Lab 3.1/AS-subject-1.csv","legacy","3 4","Lentiform Loewenfeld","3.3.12","1","y","0","left","left","left","left","NA","645","11843","6660","645","NA","2","legacy","2","1024","2","48000","-16","experiment","1","odd","3","599391","596127","597180","4315","92905","597182","377554","4323","86244","601396","602042","598186","16181","601396","NA","Sternberg task","96","63236","98","yes","1024"
"97.97979797979798","97.97979797979798","646.969696969697","646.969696969697","black","experiment","legacy","legacy","legacy","0","uniform","1","undefined","1","right","98","98","98","0","0","98","98","0","0","98","98","98","0","98","0","Fri Oct 14 15:33:18 2022","The main experiment item","yes","Sternbergtask.osexp","/Users/andrea/Desktop/Adv. Quant Methods/Lab 3.1","no","mono","no","18","no","white","no","yes","768","legacy","86","11","/Users/andrea/Desktop/Adv. Quant Methods/Lab 3.1/AS-subject-1.csv","legacy","8 4 3 9","Lentiform Loewenfeld","3.3.12","0","n","0","right","left","left","right","NA","814","11843","6660","814","NA","2","legacy","4","1024","2","48000","-16","experiment","1","odd","5","605310","602045","603098","4315","92905","603100","377554","4323","86244","607313","608128","604104","16181","607313","NA","Sternberg task","97","64050","99","yes","1024"
"98","98","647.05","647.05","black","experiment","legacy","legacy","legacy","0","uniform","1","undefined","1","right","99","99","99","0","0","99","99","0","0","99","99","99","0","99","0","Fri Oct 14 15:33:18 2022","The main experiment item","yes","Sternbergtask.osexp","/Users/andrea/Desktop/Adv. Quant Methods/Lab 3.1","no","mono","no","18","no","white","no","yes","768","legacy","87","11","/Users/andrea/Desktop/Adv. Quant Methods/Lab 3.1/AS-subject-1.csv","legacy","1 3 2 6 9","Lentiform Loewenfeld","3.3.12","0","n","0","right","left","left","right","NA","655","11843","6660","655","NA","2","legacy","5","1024","2","48000","-16","experiment","1","odd","5","611397","608131","609184","4315","92905","609187","377554","4323","86244","613401","614057","610191","16181","613401","NA","Sternberg task","98","64705","100","yes","1024"
"98.01980198019803","98.01980198019803","647.1386138613861","647.1386138613861","black","experiment","legacy","legacy","legacy","0","uniform","1","undefined","1","left","100","100","100","0","0","100","100","0","0","100","100","100","0","100","0","Fri Oct 14 15:33:18 2022","The main experiment item","yes","Sternbergtask.osexp","/Users/andrea/Desktop/Adv. Quant Methods/Lab 3.1","no","mono","no","18","no","white","no","yes","768","legacy","88","11","/Users/andrea/Desktop/Adv. Quant Methods/Lab 3.1/AS-subject-1.csv","legacy","3 5 9 6 2 4","Lentiform Loewenfeld","3.3.12","1","y","0","left","left","left","left","NA","656","11843","6660","656","NA","2","legacy","6","1024","2","48000","-16","experiment","1","odd","3","617347","614059","615132","4315","92905","615134","377554","4323","86244","619351","620008","616140","16181","619351","NA","Sternberg task","99","65361","101","yes","1024"
"98.03921568627452","98.03921568627452","648.1078431372549","648.1078431372549","black","experiment","legacy","legacy","legacy","0","uniform","1","undefined","1","right","101","101","101","0","0","101","101","0","0","101","101","101","0","101","0","Fri Oct 14 15:33:18 2022","The main experiment item","yes","Sternbergtask.osexp","/Users/andrea/Desktop/Adv. Quant Methods/Lab 3.1","no","mono","no","18","no","white","no","yes","768","legacy","89","11","/Users/andrea/Desktop/Adv. Quant Methods/Lab 3.1/AS-subject-1.csv","legacy","9 5 3 2 8 6","Lentiform Loewenfeld","3.3.12","0","n","0","right","left","left","right","NA","746","11843","6660","746","NA","2","legacy","6","1024","2","48000","-16","experiment","1","odd","7","623276","620011","621065","4315","92905","621067","377554","4323","86244","625280","626027","622071","16181","625280","NA","Sternberg task","100","66107","102","yes","1024"
"98.05825242718447","98.05825242718447","650.1359223300971","650.1359223300971","black","experiment","legacy","legacy","legacy","0","uniform","1","undefined","1","right","102","102","102","0","0","102","102","0","0","102","102","102","0","102","0","Fri Oct 14 15:33:18 2022","The main experiment item","yes","Sternbergtask.osexp","/Users/andrea/Desktop/Adv. Quant Methods/Lab 3.1","no","mono","no","18","no","white","no","yes","768","legacy","90","11","/Users/andrea/Desktop/Adv. Quant Methods/Lab 3.1/AS-subject-1.csv","legacy","2 8 7 9 5 3","Lentiform Loewenfeld","3.3.12","0","n","0","right","left","left","right","NA","857","11843","6660","857","NA","2","legacy","6","1024","2","48000","-16","experiment","1","odd","6","629297","626030","627085","4315","92905","627087","377554","4323","86244","631301","632159","628091","16181","631301","NA","Sternberg task","101","66964","103","yes","1024"
"98.07692307692308","98.07692307692308","650.2884615384615","650.2884615384615","black","experiment","legacy","legacy","legacy","0","uniform","1","undefined","1","left","103","103","103","0","0","103","103","0","0","103","103","103","0","103","0","Fri Oct 14 15:33:18 2022","The main experiment item","yes","Sternbergtask.osexp","/Users/andrea/Desktop/Adv. Quant Methods/Lab 3.1","no","mono","no","18","no","white","no","yes","768","legacy","91","11","/Users/andrea/Desktop/Adv. Quant Methods/Lab 3.1/AS-subject-1.csv","legacy","2 4 8 5 1 3","Lentiform Loewenfeld","3.3.12","1","y","0","left","left","left","left","NA","666","11843","6660","666","NA","2","legacy","6","1024","2","48000","-16","experiment","1","odd","2","635428","632161","633216","4315","92905","633218","377554","4323","86244","637432","638099","634222","16181","637432","NA","Sternberg task","102","67630","104","yes","1024"
"98.0952380952381","98.0952380952381","648.7333333333333","648.7333333333333","black","experiment","legacy","legacy","legacy","0","uniform","1","undefined","1","left","104","104","104","0","0","104","104","0","0","104","104","104","0","104","0","Fri Oct 14 15:33:18 2022","The main experiment item","yes","Sternbergtask.osexp","/Users/andrea/Desktop/Adv. Quant Methods/Lab 3.1","no","mono","no","18","no","white","no","yes","768","legacy","92","11","/Users/andrea/Desktop/Adv. Quant Methods/Lab 3.1/AS-subject-1.csv","legacy","3 5 4 7","Lentiform Loewenfeld","3.3.12","1","y","0","left","left","left","left","NA","487","11843","6660","487","NA","2","legacy","4","1024","2","48000","-16","experiment","1","odd","3","641367","638102","639155","4315","92905","639157","377554","4323","86244","643371","643859","640161","16181","643371","NA","Sternberg task","103","68117","105","yes","1024"
"98.11320754716981","98.11320754716981","648.2830188679245","648.2830188679245","black","experiment","legacy","legacy","legacy","0","uniform","1","undefined","1","left","105","105","105","0","0","105","105","0","0","105","105","105","0","105","0","Fri Oct 14 15:33:18 2022","The main experiment item","yes","Sternbergtask.osexp","/Users/andrea/Desktop/Adv. Quant Methods/Lab 3.1","no","mono","no","18","no","white","no","yes","768","legacy","93","11","/Users/andrea/Desktop/Adv. Quant Methods/Lab 3.1/AS-subject-1.csv","legacy","3 9 7 6 4","Lentiform Loewenfeld","3.3.12","3","y","0","left","left","left","left","NA","601","11843","6660","601","NA","2","legacy","5","1024","2","48000","-16","experiment","1","odd","7","647125","643862","644914","4315","92905","644916","377554","4323","86244","649130","649732","645920","16181","649130","NA","Sternberg task","104","68718","106","yes","1024"
"97.19626168224299","97.19626168224299","648.8691588785047","648.8691588785047","black","experiment","legacy","legacy","legacy","0","uniform","0","undefined","0","left","106","106","106","0","0","106","106","0","0","106","106","106","0","106","0","Fri Oct 14 15:33:18 2022","The main experiment item","yes","Sternbergtask.osexp","/Users/andrea/Desktop/Adv. Quant Methods/Lab 3.1","no","mono","no","18","no","white","no","yes","768","legacy","94","11","/Users/andrea/Desktop/Adv. Quant Methods/Lab 3.1/AS-subject-1.csv","legacy","7 1 3","Lentiform Loewenfeld","3.3.12","2","y","0","right","left","left","right","NA","711","11843","6660","711","NA","2","legacy","3","1024","2","48000","-16","experiment","1","odd","1","653001","649735","650789","4315","92905","650791","377554","4323","86244","655005","655717","651795","16181","655004","NA","Sternberg task","104","69429","107","yes","1024"
"97.22222222222223","97.22222222222223","648","648","black","experiment","legacy","legacy","legacy","0","uniform","1","undefined","1","left","107","107","107","0","0","107","107","0","0","107","107","107","0","107","0","Fri Oct 14 15:33:18 2022","The main experiment item","yes","Sternbergtask.osexp","/Users/andrea/Desktop/Adv. Quant Methods/Lab 3.1","no","mono","no","18","no","white","no","yes","768","legacy","95","11","/Users/andrea/Desktop/Adv. Quant Methods/Lab 3.1/AS-subject-1.csv","legacy","9 5 8 1","Lentiform Loewenfeld","3.3.12","2","y","0","left","left","left","left","NA","555","11843","6660","555","NA","2","legacy","4","1024","2","48000","-16","experiment","1","odd","5","658984","649735","656773","4315","92905","656775","655720","4323","86244","660989","661545","657779","16181","660989","NA","Sternberg task","105","69984","108","yes","1024"
"97.24770642201835","97.24770642201835","648.3853211009174","648.3853211009174","black","experiment","legacy","legacy","legacy","0","uniform","1","undefined","1","right","108","108","108","0","0","108","108","0","0","108","108","108","0","108","0","Fri Oct 14 15:33:18 2022","The main experiment item","yes","Sternbergtask.osexp","/Users/andrea/Desktop/Adv. Quant Methods/Lab 3.1","no","mono","no","18","no","white","no","yes","768","legacy","96","11","/Users/andrea/Desktop/Adv. Quant Methods/Lab 3.1/AS-subject-1.csv","legacy","2 6 4 3 9","Lentiform Loewenfeld","3.3.12","0","n","0","right","left","left","right","NA","690","11843","6660","690","NA","2","legacy","5","1024","2","48000","-16","experiment","1","odd","1","664813","661547","662601","4315","92905","662603","655720","4323","86244","666817","667508","663607","16181","666817","NA","Sternberg task","106","70674","109","yes","1024"
"97.27272727272727","97.27272727272727","649.1636363636363","649.1636363636363","black","experiment","legacy","legacy","legacy","0","uniform","1","undefined","1","right","109","109","109","0","0","109","109","0","0","109","109","109","0","109","0","Fri Oct 14 15:33:18 2022","The main experiment item","yes","Sternbergtask.osexp","/Users/andrea/Desktop/Adv. Quant Methods/Lab 3.1","no","mono","no","18","no","white","no","yes","768","legacy","97","11","/Users/andrea/Desktop/Adv. Quant Methods/Lab 3.1/AS-subject-1.csv","legacy","3 4 9 6 7 8","Lentiform Loewenfeld","3.3.12","0","n","0","right","left","left","right","NA","734","11843","6660","734","NA","2","legacy","6","1024","2","48000","-16","experiment","1","odd","2","670775","667511","668564","4315","92905","668566","655720","4323","86244","672780","673515","669570","16181","672780","NA","Sternberg task","107","71408","110","yes","1024"
"97.29729729729729","97.29729729729729","648.918918918919","648.918918918919","black","experiment","legacy","legacy","legacy","0","uniform","1","undefined","1","left","110","110","110","0","0","110","110","0","0","110","110","110","0","110","0","Fri Oct 14 15:33:18 2022","The main experiment item","yes","Sternbergtask.osexp","/Users/andrea/Desktop/Adv. Quant Methods/Lab 3.1","no","mono","no","18","no","white","no","yes","768","legacy","98","11","/Users/andrea/Desktop/Adv. Quant Methods/Lab 3.1/AS-subject-1.csv","legacy","6 9 3 1","Lentiform Loewenfeld","3.3.12","4","y","0","left","left","left","left","NA","622","11843","6660","622","NA","2","legacy","4","1024","2","48000","-16","experiment","1","odd","1","676783","673518","674571","4315","92905","674573","655720","4323","86244","678787","679410","675577","16181","678787","NA","Sternberg task","108","72030","111","yes","1024"
"97.32142857142857","97.32142857142857","650.6875","650.6875","black","experiment","legacy","legacy","legacy","0","uniform","1","undefined","1","left","111","111","111","0","0","111","111","0","0","111","111","111","0","111","0","Fri Oct 14 15:33:18 2022","The main experiment item","yes","Sternbergtask.osexp","/Users/andrea/Desktop/Adv. Quant Methods/Lab 3.1","no","mono","no","18","no","white","no","yes","768","legacy","99","11","/Users/andrea/Desktop/Adv. Quant Methods/Lab 3.1/AS-subject-1.csv","legacy","5 7 8 2 3 8","Lentiform Loewenfeld","3.3.12","5","y","0","left","left","left","left","NA","847","11843","6660","847","NA","2","legacy","6","1024","2","48000","-16","experiment","1","odd","3","682679","679413","680467","4315","92905","680469","655720","4323","86244","684683","685531","681474","16181","684683","NA","Sternberg task","109","72877","112","yes","1024"
"97.34513274336283","97.34513274336283","650.8230088495575","650.8230088495575","black","experiment","legacy","legacy","legacy","0","uniform","1","undefined","1","left","112","112","112","0","0","112","112","0","0","112","112","112","0","112","0","Fri Oct 14 15:33:18 2022","The main experiment item","yes","Sternbergtask.osexp","/Users/andrea/Desktop/Adv. Quant Methods/Lab 3.1","no","mono","no","18","no","white","no","yes","768","legacy","100","11","/Users/andrea/Desktop/Adv. Quant Methods/Lab 3.1/AS-subject-1.csv","legacy","3 9 6 2","Lentiform Loewenfeld","3.3.12","4","y","0","left","left","left","left","NA","666","11843","6660","666","NA","2","legacy","4","1024","2","48000","-16","experiment","1","odd","2","688800","685534","686588","4315","92905","686590","655720","4323","86244","690804","691471","687594","16181","690804","NA","Sternberg task","110","73543","113","yes","1024"
