"acc","accuracy","average_response_time","avg_rt","background","block","canvas_backend","clock_backend","color_backend","correct","correct_instruction1_sketchpad","correct_keyboard_keyboard_response","correct_response","count__logger","count_correctfeeback_sketchpad","count_exp_sequence","count_experiment","count_experimentloop","count_fixation_sketchpad","count_incorrectfeedback_sketchpad","count_instruction1_sketchpad","count_instruction2_sketchpad","count_isi_sketchpad","count_keyboard_keyboard_response","count_memoryset_sketchpad","count_practice_loop","count_probe_sketchpad","count_thankyou_sketchpad","datetime","description","disable_garbage_collection","experiment_file","experiment_path","font_bold","font_family","font_italic","font_size","font_underline","foreground","form_clicks","fullscreen","height","keyboard_backend","live_row","live_row_practice_loop","logfile","mouse_backend","numberSet","opensesame_codename","opensesame_version","posInSet","present","repeat_cycle","response","response_instruction1_sketchpad","response_instruction2_sketchpad","response_keyboard_keyboard_response","response_thankyou_sketchpad","response_time","response_time_instruction1_sketchpad","response_time_instruction2_sketchpad","response_time_keyboard_keyboard_response","response_time_thankyou_sketchpad","round_decimals","sampler_backend","setSize","sound_buf_size","sound_channels","sound_freq","sound_sample_size","start","subject_nr","subject_parity","target","time__logger","time_correctfeeback_sketchpad","time_exp_sequence","time_experiment","time_experimentloop","time_fixation_sketchpad","time_incorrectfeedback_sketchpad","time_instruction1_sketchpad","time_instruction2_sketchpad","time_isi_sketchpad","time_keyboard_keyboard_response","time_memoryset_sketchpad","time_practice_loop","time_probe_sketchpad","time_thankyou_sketchpad","title","total_correct","total_response_time","total_responses","width"
"0","0","690","690","#3d3846","practice","legacy","legacy","legacy","0","undefined","0","left","0","0","0","0","0","0","0","0","0","0","0","0","0","0","0","Sun Oct 15 08:25:54 2023","The main experiment item","False","Sternbergtask.osexp","C:/Users/User/Desktop","False","mono","False","18","no","white","no","yes","768","legacy","0","0","C:/Users/User/Desktop/subject-1.csv","legacy","6","Melodramatic Milgram","4.0.5","1","y","0","right","left","NA","right","NA","690.0","1039","NA","690","NA","2","legacy","1","1024","2","48000","-16","experiment","1","odd","6","9780","NA","4885","3497","NA","4886","NA","3519","NA","7089","9090","5887","4558","9090","NA","Sternberg task","0","690.0","1","1024"
"50","50","673","673","#3d3846","practice","legacy","legacy","legacy","1","undefined","1","right","1","1","1","0","0","1","1","0","0","1","1","1","0","1","0","Sun Oct 15 08:25:54 2023","The main experiment item","False","Sternbergtask.osexp","C:/Users/User/Desktop","False","mono","False","18","no","white","no","yes","768","legacy","1","1","C:/Users/User/Desktop/subject-1.csv","legacy","2 1","Melodramatic Milgram","4.0.5","0","n","0","right","left","NA","right","NA","656.0","1039","NA","656","NA","2","legacy","2","1024","2","48000","-16","experiment","1","odd","5","15749","NA","10889","3497","NA","10890","9812","3519","NA","13092","15093","11891","4558","15093","NA","Sternberg task","1","1346.0","2","1024"
"66","66","799","799","#3d3846","practice","legacy","legacy","legacy","1","undefined","1","right","2","2","2","0","0","2","2","0","0","2","2","2","0","2","0","Sun Oct 15 08:25:54 2023","The main experiment item","False","Sternbergtask.osexp","C:/Users/User/Desktop","False","mono","False","18","no","white","no","yes","768","legacy","2","2","C:/Users/User/Desktop/subject-1.csv","legacy","5 7 8 4 1 2","Melodramatic Milgram","4.0.5","0","n","0","right","left","NA","right","NA","1051.0","1039","NA","1051","NA","2","legacy","6","1024","2","48000","-16","experiment","1","odd","6","22089","15755","16832","3497","NA","16834","9812","3519","NA","19036","21038","17835","4558","21038","NA","Sternberg task","2","2397.0","3","1024"
"75","75","769","769","#3d3846","practice","legacy","legacy","legacy","1","undefined","1","right","3","3","3","0","0","3","3","0","0","3","3","3","0","3","0","Sun Oct 15 08:25:54 2023","The main experiment item","False","Sternbergtask.osexp","C:/Users/User/Desktop","False","mono","False","18","no","white","no","yes","768","legacy","3","3","C:/Users/User/Desktop/subject-1.csv","legacy","5","Melodramatic Milgram","4.0.5","0","n","0","right","left","NA","right","NA","679.0","1039","NA","679","NA","2","legacy","1","1024","2","48000","-16","experiment","1","odd","3","28058","22095","23174","3497","NA","23175","9812","3519","NA","25377","27379","24176","4558","27378","NA","Sternberg task","3","3076.0","4","1024"
"80","80","729","729","#3d3846","practice","legacy","legacy","legacy","1","undefined","1","right","4","4","4","0","0","4","4","0","0","4","4","4","0","4","0","Sun Oct 15 08:25:54 2023","The main experiment item","False","Sternbergtask.osexp","C:/Users/User/Desktop","False","mono","False","18","no","white","no","yes","768","legacy","4","4","C:/Users/User/Desktop/subject-1.csv","legacy","3 1 9 4","Melodramatic Milgram","4.0.5","0","n","0","right","left","NA","right","NA","572.0","1039","NA","572","NA","2","legacy","4","1024","2","48000","-16","experiment","1","odd","6","33909","28065","29133","3497","NA","29134","9812","3519","NA","31336","33337","30135","4558","33337","NA","Sternberg task","4","3648.0","5","1024"
"83","83","756","756","#3d3846","practice","legacy","legacy","legacy","1","undefined","1","right","5","5","5","0","0","5","5","0","0","5","5","5","0","5","0","Sun Oct 15 08:25:54 2023","The main experiment item","False","Sternbergtask.osexp","C:/Users/User/Desktop","False","mono","False","18","no","white","no","yes","768","legacy","5","5","C:/Users/User/Desktop/subject-1.csv","legacy","9 6 7 4 5","Melodramatic Milgram","4.0.5","0","n","0","right","left","NA","right","NA","892.0","1039","NA","892","NA","2","legacy","5","1024","2","48000","-16","experiment","1","odd","3","40087","33915","34991","3497","NA","34992","9812","3519","NA","37194","39195","35993","4558","39195","NA","Sternberg task","5","4540.0","6","1024"
"85","85","726","726","#3d3846","practice","legacy","legacy","legacy","1","undefined","1","left","6","6","6","0","0","6","6","0","0","6","6","6","0","6","0","Sun Oct 15 08:25:54 2023","The main experiment item","False","Sternbergtask.osexp","C:/Users/User/Desktop","False","mono","False","18","no","white","no","yes","768","legacy","6","6","C:/Users/User/Desktop/subject-1.csv","legacy","1 5 2 9","Melodramatic Milgram","4.0.5","2","y","0","left","left","NA","left","NA","544.0","1039","NA","544","NA","2","legacy","4","1024","2","48000","-16","experiment","1","odd","5","45918","40093","41170","3497","NA","41171","9812","3519","NA","43373","45374","42172","4558","45374","NA","Sternberg task","6","5084.0","7","1024"
"87","87","719","719","#3d3846","practice","legacy","legacy","legacy","1","undefined","1","left","7","7","7","0","0","7","7","0","0","7","7","7","0","7","0","Sun Oct 15 08:25:54 2023","The main experiment item","False","Sternbergtask.osexp","C:/Users/User/Desktop","False","mono","False","18","no","white","no","yes","768","legacy","7","7","C:/Users/User/Desktop/subject-1.csv","legacy","2 9 4","Melodramatic Milgram","4.0.5","3","y","0","left","left","NA","left","NA","670.0","1039","NA","670","NA","2","legacy","3","1024","2","48000","-16","experiment","1","odd","4","51883","45924","47009","3497","NA","47010","9812","3519","NA","49212","51213","48011","4558","51213","NA","Sternberg task","7","5754.0","8","1024"
"88","88","758","758","#3d3846","practice","legacy","legacy","legacy","1","undefined","1","left","8","8","8","0","0","8","8","0","0","8","8","8","0","8","0","Sun Oct 15 08:25:54 2023","The main experiment item","False","Sternbergtask.osexp","C:/Users/User/Desktop","False","mono","False","18","no","white","no","yes","768","legacy","8","8","C:/Users/User/Desktop/subject-1.csv","legacy","1 7 9 8 5","Melodramatic Milgram","4.0.5","4","y","0","left","left","NA","left","NA","1074.0","1039","NA","1074","NA","2","legacy","5","1024","2","48000","-16","experiment","1","odd","8","58245","51890","52966","3497","NA","52967","9812","3519","NA","55169","57171","53968","4558","57171","NA","Sternberg task","8","6828.0","9","1024"
"90","90","743","743","#3d3846","practice","legacy","legacy","legacy","1","undefined","1","left","9","9","9","0","0","9","9","0","0","9","9","9","0","9","0","Sun Oct 15 08:25:54 2023","The main experiment item","False","Sternbergtask.osexp","C:/Users/User/Desktop","False","mono","False","18","no","white","no","yes","768","legacy","9","9","C:/Users/User/Desktop/subject-1.csv","legacy","4 8","Melodramatic Milgram","4.0.5","1","y","0","left","left","NA","left","NA","611.0","1039","NA","611","NA","2","legacy","2","1024","2","48000","-16","experiment","1","odd","4","64139","58251","59322","3497","NA","59324","9812","3519","NA","61527","63528","60325","4558","63528","NA","Sternberg task","9","7439.0","10","1024"
"90","90","749","749","#3d3846","practice","legacy","legacy","legacy","1","undefined","1","left","10","10","10","0","0","10","10","0","0","10","10","10","0","10","0","Sun Oct 15 08:25:54 2023","The main experiment item","False","Sternbergtask.osexp","C:/Users/User/Desktop","False","mono","False","18","no","white","no","yes","768","legacy","10","10","C:/Users/User/Desktop/subject-1.csv","legacy","4 3 1 7 9 8","Melodramatic Milgram","4.0.5","1","y","0","left","left","NA","left","NA","809.0","1039","NA","809","NA","2","legacy","6","1024","2","48000","-16","experiment","1","odd","4","70231","64145","65218","3497","NA","65219","9812","3519","NA","67421","69422","66220","4558","69422","NA","Sternberg task","10","8248.0","11","1024"
"91","91","736","736","#3d3846","practice","legacy","legacy","legacy","1","undefined","1","right","11","11","11","0","0","11","11","0","0","11","11","11","0","11","0","Sun Oct 15 08:25:54 2023","The main experiment item","False","Sternbergtask.osexp","C:/Users/User/Desktop","False","mono","False","18","no","white","no","yes","768","legacy","11","11","C:/Users/User/Desktop/subject-1.csv","legacy","4 1 5","Melodramatic Milgram","4.0.5","0","n","0","right","left","NA","right","NA","594.0","1039","NA","594","NA","2","legacy","3","1024","2","48000","-16","experiment","1","odd","2","76116","70237","71316","3497","NA","71318","9812","3519","NA","73520","75521","72319","4558","75521","NA","Sternberg task","11","8842.0","12","1024"
"92","92","741","741","#3d3846","experiment","legacy","legacy","legacy","1","undefined","1","left","12","12","12","0","0","12","12","0","0","12","12","12","0","12","0","Sun Oct 15 08:25:54 2023","The main experiment item","False","Sternbergtask.osexp","C:/Users/User/Desktop","False","mono","False","18","no","white","no","yes","768","legacy","0","11","C:/Users/User/Desktop/subject-1.csv","legacy","8 9 5 7 1 6","Melodramatic Milgram","4.0.5","4","y","0","left","left","right","left","NA","796.0","1039","1682","796","NA","2","legacy","6","1024","2","48000","-16","experiment","1","odd","7","83899","76122","78897","3497","78806","78898","9812","3519","77124","81100","83102","79899","4558","83101","NA","Sternberg task","12","9638.0","13","1024"
"92","92","740","740","#3d3846","experiment","legacy","legacy","legacy","1","undefined","1","left","13","13","13","0","0","13","13","0","0","13","13","13","0","13","0","Sun Oct 15 08:25:54 2023","The main experiment item","False","Sternbergtask.osexp","C:/Users/User/Desktop","False","mono","False","18","no","white","no","yes","768","legacy","1","11","C:/Users/User/Desktop/subject-1.csv","legacy","6 7 9 3 1 2","Melodramatic Milgram","4.0.5","1","y","0","left","left","right","left","NA","730.0","1039","1682","730","NA","2","legacy","6","1024","2","48000","-16","experiment","1","odd","6","89925","83905","84990","3497","78806","84991","9812","3519","77124","87193","89194","85992","4558","89194","NA","Sternberg task","13","10368.0","14","1024"
"93","93","729","729","#3d3846","experiment","legacy","legacy","legacy","1","undefined","1","right","14","14","14","0","0","14","14","0","0","14","14","14","0","14","0","Sun Oct 15 08:25:54 2023","The main experiment item","False","Sternbergtask.osexp","C:/Users/User/Desktop","False","mono","False","18","no","white","no","yes","768","legacy","2","11","C:/Users/User/Desktop/subject-1.csv","legacy","7 9","Melodramatic Milgram","4.0.5","0","n","0","right","left","right","right","NA","572.0","1039","1682","572","NA","2","legacy","2","1024","2","48000","-16","experiment","1","odd","1","95786","89931","91010","3497","78806","91011","9812","3519","77124","93213","95214","92012","4558","95214","NA","Sternberg task","14","10940.0","15","1024"
"93","93","739","739","#3d3846","experiment","legacy","legacy","legacy","1","undefined","1","left","15","15","15","0","0","15","15","0","0","15","15","15","0","15","0","Sun Oct 15 08:25:54 2023","The main experiment item","False","Sternbergtask.osexp","C:/Users/User/Desktop","False","mono","False","18","no","white","no","yes","768","legacy","3","11","C:/Users/User/Desktop/subject-1.csv","legacy","9 5 8 1","Melodramatic Milgram","4.0.5","2","y","0","left","left","right","left","NA","891.0","1039","1682","891","NA","2","legacy","4","1024","2","48000","-16","experiment","1","odd","5","101965","95792","96871","3497","78806","96871","9812","3519","77124","99073","101074","97872","4558","101074","NA","Sternberg task","15","11831.0","16","1024"
"94","94","727","727","#3d3846","experiment","legacy","legacy","legacy","1","undefined","1","right","16","16","16","0","0","16","16","0","0","16","16","16","0","16","0","Sun Oct 15 08:25:54 2023","The main experiment item","False","Sternbergtask.osexp","C:/Users/User/Desktop","False","mono","False","18","no","white","no","yes","768","legacy","4","11","C:/Users/User/Desktop/subject-1.csv","legacy","6 7 5 9","Melodramatic Milgram","4.0.5","0","n","0","right","left","right","right","NA","534.0","1039","1682","534","NA","2","legacy","4","1024","2","48000","-16","experiment","1","odd","2","107790","101971","103051","3497","78806","103052","9812","3519","77124","105254","107255","104053","4558","107255","NA","Sternberg task","16","12365.0","17","1024"
"94","94","726","726","#3d3846","experiment","legacy","legacy","legacy","1","undefined","1","left","17","17","17","0","0","17","17","0","0","17","17","17","0","17","0","Sun Oct 15 08:25:54 2023","The main experiment item","False","Sternbergtask.osexp","C:/Users/User/Desktop","False","mono","False","18","no","white","no","yes","768","legacy","5","11","C:/Users/User/Desktop/subject-1.csv","legacy","6 1 2","Melodramatic Milgram","4.0.5","3","y","0","left","left","right","left","NA","719.0","1039","1682","719","NA","2","legacy","3","1024","2","48000","-16","experiment","1","odd","2","113793","107796","108869","3497","78806","108870","9812","3519","77124","111072","113073","109871","4558","113073","NA","Sternberg task","17","13084.0","18","1024"
"94","94","737","737","#3d3846","experiment","legacy","legacy","legacy","1","undefined","1","left","18","18","18","0","0","18","18","0","0","18","18","18","0","18","0","Sun Oct 15 08:25:54 2023","The main experiment item","False","Sternbergtask.osexp","C:/Users/User/Desktop","False","mono","False","18","no","white","no","yes","768","legacy","6","11","C:/Users/User/Desktop/subject-1.csv","legacy","4 7 6 8 2 3","Melodramatic Milgram","4.0.5","6","y","0","left","left","right","left","NA","936.0","1039","1682","936","NA","2","legacy","6","1024","2","48000","-16","experiment","1","odd","3","120015","113799","114874","3497","78806","114875","9812","3519","77124","117077","119078","115876","4558","119078","NA","Sternberg task","18","14020.0","19","1024"
"95","95","749","749","#3d3846","experiment","legacy","legacy","legacy","1","undefined","1","right","19","19","19","0","0","19","19","0","0","19","19","19","0","19","0","Sun Oct 15 08:25:54 2023","The main experiment item","False","Sternbergtask.osexp","C:/Users/User/Desktop","False","mono","False","18","no","white","no","yes","768","legacy","7","11","C:/Users/User/Desktop/subject-1.csv","legacy","9 7 4 5 8","Melodramatic Milgram","4.0.5","0","n","0","right","left","right","right","NA","970.0","1039","1682","970","NA","2","legacy","5","1024","2","48000","-16","experiment","1","odd","6","126273","120021","121098","3497","78806","121099","9812","3519","77124","123301","125302","122100","4558","125302","NA","Sternberg task","19","14990.0","20","1024"
"95","95","770","770","#3d3846","experiment","legacy","legacy","legacy","1","undefined","1","right","20","20","20","0","0","20","20","0","0","20","20","20","0","20","0","Sun Oct 15 08:25:54 2023","The main experiment item","False","Sternbergtask.osexp","C:/Users/User/Desktop","False","mono","False","18","no","white","no","yes","768","legacy","8","11","C:/Users/User/Desktop/subject-1.csv","legacy","8 5 4 2 9 6","Melodramatic Milgram","4.0.5","0","n","0","right","left","right","right","NA","1190.0","1039","1682","1190","NA","2","legacy","6","1024","2","48000","-16","experiment","1","odd","3","132753","126280","127359","3497","78806","127360","9812","3519","77124","129562","131563","128361","4558","131563","NA","Sternberg task","20","16180.0","21","1024"
"95","95","761","761","#3d3846","experiment","legacy","legacy","legacy","1","undefined","1","left","21","21","21","0","0","21","21","0","0","21","21","21","0","21","0","Sun Oct 15 08:25:54 2023","The main experiment item","False","Sternbergtask.osexp","C:/Users/User/Desktop","False","mono","False","18","no","white","no","yes","768","legacy","9","11","C:/Users/User/Desktop/subject-1.csv","legacy","8 7 3","Melodramatic Milgram","4.0.5","1","y","0","left","left","right","left","NA","564.0","1039","1682","564","NA","2","legacy","3","1024","2","48000","-16","experiment","1","odd","8","138604","132759","133835","3497","78806","133836","9812","3519","77124","136038","138039","134837","4558","138039","NA","Sternberg task","21","16744.0","22","1024"
"95","95","752","752","#3d3846","experiment","legacy","legacy","legacy","1","undefined","1","left","22","22","22","0","0","22","22","0","0","22","22","22","0","22","0","Sun Oct 15 08:25:54 2023","The main experiment item","False","Sternbergtask.osexp","C:/Users/User/Desktop","False","mono","False","18","no","white","no","yes","768","legacy","10","11","C:/Users/User/Desktop/subject-1.csv","legacy","4 1 5","Melodramatic Milgram","4.0.5","2","y","0","left","left","right","left","NA","566.0","1039","1682","566","NA","2","legacy","3","1024","2","48000","-16","experiment","1","odd","1","144465","138610","139695","3497","78806","139696","9812","3519","77124","141898","143899","140697","4558","143899","NA","Sternberg task","22","17310.0","23","1024"
"95","95","761","761","#3d3846","experiment","legacy","legacy","legacy","1","undefined","1","left","23","23","23","0","0","23","23","0","0","23","23","23","0","23","0","Sun Oct 15 08:25:54 2023","The main experiment item","False","Sternbergtask.osexp","C:/Users/User/Desktop","False","mono","False","18","no","white","no","yes","768","legacy","11","11","C:/Users/User/Desktop/subject-1.csv","legacy","1 4 9 3 2 5","Melodramatic Milgram","4.0.5","3","y","0","left","left","right","left","NA","960.0","1039","1682","960","NA","2","legacy","6","1024","2","48000","-16","experiment","1","odd","9","150713","144472","145550","3497","78806","145550","9812","3519","77124","147752","149753","146551","4558","149753","NA","Sternberg task","23","18270.0","24","1024"
"96","96","762","762","#3d3846","experiment","legacy","legacy","legacy","1","undefined","1","right","24","24","24","0","0","24","24","0","0","24","24","24","0","24","0","Sun Oct 15 08:25:54 2023","The main experiment item","False","Sternbergtask.osexp","C:/Users/User/Desktop","False","mono","False","18","no","white","no","yes","768","legacy","12","11","C:/Users/User/Desktop/subject-1.csv","legacy","9 5 3 2 8 6","Melodramatic Milgram","4.0.5","0","n","0","right","left","right","right","NA","780.0","1039","1682","780","NA","2","legacy","6","1024","2","48000","-16","experiment","1","odd","7","156791","150719","151807","3497","78806","151808","9812","3519","77124","154010","156011","152809","4558","156011","NA","Sternberg task","24","19050.0","25","1024"
"96","96","763","763","#3d3846","experiment","legacy","legacy","legacy","1","undefined","1","right","25","25","25","0","0","25","25","0","0","25","25","25","0","25","0","Sun Oct 15 08:25:54 2023","The main experiment item","False","Sternbergtask.osexp","C:/Users/User/Desktop","False","mono","False","18","no","white","no","yes","768","legacy","13","11","C:/Users/User/Desktop/subject-1.csv","legacy","4 2 7 6 1 3","Melodramatic Milgram","4.0.5","0","n","0","right","left","right","right","NA","791.0","1039","1682","791","NA","2","legacy","6","1024","2","48000","-16","experiment","1","odd","8","162863","156797","157866","3497","78806","157867","9812","3519","77124","160070","162071","158869","4558","162071","NA","Sternberg task","25","19841.0","26","1024"
"96","96","760","760","#3d3846","experiment","legacy","legacy","legacy","1","undefined","1","right","26","26","26","0","0","26","26","0","0","26","26","26","0","26","0","Sun Oct 15 08:25:54 2023","The main experiment item","False","Sternbergtask.osexp","C:/Users/User/Desktop","False","mono","False","18","no","white","no","yes","768","legacy","14","11","C:/Users/User/Desktop/subject-1.csv","legacy","6 8 4","Melodramatic Milgram","4.0.5","0","n","0","right","left","right","right","NA","688.0","1039","1682","688","NA","2","legacy","3","1024","2","48000","-16","experiment","1","odd","1","168841","162869","163949","3497","78806","163950","9812","3519","77124","166152","168153","164951","4558","168153","NA","Sternberg task","26","20529.0","27","1024"
"96","96","757","757","#3d3846","experiment","legacy","legacy","legacy","1","undefined","1","right","27","27","27","0","0","27","27","0","0","27","27","27","0","27","0","Sun Oct 15 08:25:54 2023","The main experiment item","False","Sternbergtask.osexp","C:/Users/User/Desktop","False","mono","False","18","no","white","no","yes","768","legacy","15","11","C:/Users/User/Desktop/subject-1.csv","legacy","7 4 2 8 1 9","Melodramatic Milgram","4.0.5","0","n","0","right","left","right","right","NA","670.0","1039","1682","670","NA","2","legacy","6","1024","2","48000","-16","experiment","1","odd","5","174802","168848","169928","3497","78806","169929","9812","3519","77124","172131","174132","170930","4558","174132","NA","Sternberg task","27","21199.0","28","1024"
"93","93","758","758","#3d3846","experiment","legacy","legacy","legacy","0","undefined","0","left","28","28","28","0","0","28","28","0","0","28","28","28","0","28","0","Sun Oct 15 08:25:54 2023","The main experiment item","False","Sternbergtask.osexp","C:/Users/User/Desktop","False","mono","False","18","no","white","no","yes","768","legacy","16","11","C:/Users/User/Desktop/subject-1.csv","legacy","6 8 9 3 4 9","Melodramatic Milgram","4.0.5","5","y","0","right","left","right","right","NA","810.0","1039","1682","810","NA","2","legacy","6","1024","2","48000","-16","experiment","1","odd","4","180902","174808","175888","3497","78806","175888","9812","3519","77124","178091","180092","176890","4558","180092","NA","Sternberg task","27","22009.0","29","1024"
"93","93","755","755","#3d3846","experiment","legacy","legacy","legacy","1","undefined","1","right","29","29","29","0","0","29","29","0","0","29","29","29","0","29","0","Sun Oct 15 08:25:54 2023","The main experiment item","False","Sternbergtask.osexp","C:/Users/User/Desktop","False","mono","False","18","no","white","no","yes","768","legacy","17","11","C:/Users/User/Desktop/subject-1.csv","legacy","3 4 2","Melodramatic Milgram","4.0.5","0","n","0","right","left","right","right","NA","661.0","1039","1682","661","NA","2","legacy","3","1024","2","48000","-16","experiment","1","odd","5","186854","174808","181989","3497","78806","181990","180909","3519","77124","184192","186193","182991","4558","186193","NA","Sternberg task","28","22670.0","30","1024"
"93","93","752","752","#3d3846","experiment","legacy","legacy","legacy","1","undefined","1","right","30","30","30","0","0","30","30","0","0","30","30","30","0","30","0","Sun Oct 15 08:25:54 2023","The main experiment item","False","Sternbergtask.osexp","C:/Users/User/Desktop","False","mono","False","18","no","white","no","yes","768","legacy","18","11","C:/Users/User/Desktop/subject-1.csv","legacy","5 9 2 3","Melodramatic Milgram","4.0.5","0","n","0","right","left","right","right","NA","661.0","1039","1682","661","NA","2","legacy","4","1024","2","48000","-16","experiment","1","odd","8","192804","186861","187938","3497","78806","187940","180909","3519","77124","190142","192143","188941","4558","192143","NA","Sternberg task","29","23331.0","31","1024"
"93","93","759","759","#3d3846","experiment","legacy","legacy","legacy","1","undefined","1","right","31","31","31","0","0","31","31","0","0","31","31","31","0","31","0","Sun Oct 15 08:25:54 2023","The main experiment item","False","Sternbergtask.osexp","C:/Users/User/Desktop","False","mono","False","18","no","white","no","yes","768","legacy","19","11","C:/Users/User/Desktop/subject-1.csv","legacy","1 7 5 2","Melodramatic Milgram","4.0.5","0","n","0","right","left","right","right","NA","977.0","1039","1682","977","NA","2","legacy","4","1024","2","48000","-16","experiment","1","odd","3","199079","192810","193898","3497","78806","193899","180909","3519","77124","196101","198102","194900","4558","198102","NA","Sternberg task","30","24308.0","32","1024"
"93","93","758","758","#3d3846","experiment","legacy","legacy","legacy","1","undefined","1","left","32","32","32","0","0","32","32","0","0","32","32","32","0","32","0","Sun Oct 15 08:25:54 2023","The main experiment item","False","Sternbergtask.osexp","C:/Users/User/Desktop","False","mono","False","18","no","white","no","yes","768","legacy","20","11","C:/Users/User/Desktop/subject-1.csv","legacy","9 8 4","Melodramatic Milgram","4.0.5","1","y","0","left","left","right","left","NA","717.0","1039","1682","717","NA","2","legacy","3","1024","2","48000","-16","experiment","1","odd","9","205084","199085","200163","3497","78806","200164","180909","3519","77124","202366","204367","201165","4558","204367","NA","Sternberg task","31","25025.0","33","1024"
"91","91","753","753","#3d3846","experiment","legacy","legacy","legacy","0","undefined","0","left","33","33","33","0","0","33","33","0","0","33","33","33","0","33","0","Sun Oct 15 08:25:54 2023","The main experiment item","False","Sternbergtask.osexp","C:/Users/User/Desktop","False","mono","False","18","no","white","no","yes","768","legacy","21","11","C:/Users/User/Desktop/subject-1.csv","legacy","7 2 3","Melodramatic Milgram","4.0.5","3","y","0","right","left","right","right","NA","586.0","1039","1682","586","NA","2","legacy","3","1024","2","48000","-16","experiment","1","odd","3","210965","205091","206174","3497","78806","206175","180909","3519","77124","208377","210379","207176","4558","210379","NA","Sternberg task","31","25611.0","34","1024"
"91","91","746","746","#3d3846","experiment","legacy","legacy","legacy","1","undefined","1","left","34","34","34","0","0","34","34","0","0","34","34","34","0","34","0","Sun Oct 15 08:25:54 2023","The main experiment item","False","Sternbergtask.osexp","C:/Users/User/Desktop","False","mono","False","18","no","white","no","yes","768","legacy","22","11","C:/Users/User/Desktop/subject-1.csv","legacy","3 4","Melodramatic Milgram","4.0.5","1","y","0","left","left","right","left","NA","522.0","1039","1682","522","NA","2","legacy","2","1024","2","48000","-16","experiment","1","odd","3","216779","205091","212053","3497","78806","212054","210971","3519","77124","214256","216257","213055","4558","216257","NA","Sternberg task","32","26133.0","35","1024"
"88","88","747","747","#3d3846","experiment","legacy","legacy","legacy","0","undefined","0","left","35","35","35","0","0","35","35","0","0","35","35","35","0","35","0","Sun Oct 15 08:25:54 2023","The main experiment item","False","Sternbergtask.osexp","C:/Users/User/Desktop","False","mono","False","18","no","white","no","yes","768","legacy","23","11","C:/Users/User/Desktop/subject-1.csv","legacy","8 5 3 7 4 6","Melodramatic Milgram","4.0.5","6","y","0","right","left","right","right","NA","771.0","1039","1682","771","NA","2","legacy","6","1024","2","48000","-16","experiment","1","odd","6","222841","216786","217866","3497","78806","217867","210971","3519","77124","220069","222070","218868","4558","222070","NA","Sternberg task","32","26904.0","36","1024"
"89","89","747","747","#3d3846","experiment","legacy","legacy","legacy","1","undefined","1","left","36","36","36","0","0","36","36","0","0","36","36","36","0","36","0","Sun Oct 15 08:25:54 2023","The main experiment item","False","Sternbergtask.osexp","C:/Users/User/Desktop","False","mono","False","18","no","white","no","yes","768","legacy","24","11","C:/Users/User/Desktop/subject-1.csv","legacy","8","Melodramatic Milgram","4.0.5","1","y","0","left","left","right","left","NA","761.0","1039","1682","761","NA","2","legacy","1","1024","2","48000","-16","experiment","1","odd","8","228889","216786","223924","3497","78806","223925","222847","3519","77124","226127","228128","224926","4558","228128","NA","Sternberg task","33","27665.0","37","1024"
"89","89","752","752","#3d3846","experiment","legacy","legacy","legacy","1","undefined","1","left","37","37","37","0","0","37","37","0","0","37","37","37","0","37","0","Sun Oct 15 08:25:54 2023","The main experiment item","False","Sternbergtask.osexp","C:/Users/User/Desktop","False","mono","False","18","no","white","no","yes","768","legacy","25","11","C:/Users/User/Desktop/subject-1.csv","legacy","3 2 1 4 7","Melodramatic Milgram","4.0.5","2","y","0","left","left","right","left","NA","921.0","1039","1682","921","NA","2","legacy","5","1024","2","48000","-16","experiment","1","odd","2","235099","228896","229973","3497","78806","229974","222847","3519","77124","232176","234177","230975","4558","234177","NA","Sternberg task","34","28586.0","38","1024"
"89","89","747","747","#3d3846","experiment","legacy","legacy","legacy","1","undefined","1","left","38","38","38","0","0","38","38","0","0","38","38","38","0","38","0","Sun Oct 15 08:25:54 2023","The main experiment item","False","Sternbergtask.osexp","C:/Users/User/Desktop","False","mono","False","18","no","white","no","yes","768","legacy","26","11","C:/Users/User/Desktop/subject-1.csv","legacy","7 1 3","Melodramatic Milgram","4.0.5","2","y","0","left","left","right","left","NA","548.0","1039","1682","548","NA","2","legacy","3","1024","2","48000","-16","experiment","1","odd","1","240936","235105","236184","3497","78806","236185","222847","3519","77124","238387","240388","237186","4558","240388","NA","Sternberg task","35","29134.0","39","1024"
"90","90","746","746","#3d3846","experiment","legacy","legacy","legacy","1","undefined","1","right","39","39","39","0","0","39","39","0","0","39","39","39","0","39","0","Sun Oct 15 08:25:54 2023","The main experiment item","False","Sternbergtask.osexp","C:/Users/User/Desktop","False","mono","False","18","no","white","no","yes","768","legacy","27","11","C:/Users/User/Desktop/subject-1.csv","legacy","1 5 3 2 8","Melodramatic Milgram","4.0.5","0","n","0","right","left","right","right","NA","715.0","1039","1682","715","NA","2","legacy","5","1024","2","48000","-16","experiment","1","odd","4","246953","240943","242031","3497","78806","242033","222847","3519","77124","244235","246238","243034","4558","246237","NA","Sternberg task","36","29849.0","40","1024"
"90","90","743","743","#3d3846","experiment","legacy","legacy","legacy","1","undefined","1","right","40","40","40","0","0","40","40","0","0","40","40","40","0","40","0","Sun Oct 15 08:25:54 2023","The main experiment item","False","Sternbergtask.osexp","C:/Users/User/Desktop","False","mono","False","18","no","white","no","yes","768","legacy","28","11","C:/Users/User/Desktop/subject-1.csv","legacy","2 3 8 5 6 7","Melodramatic Milgram","4.0.5","0","n","0","right","left","right","right","NA","636.0","1039","1682","636","NA","2","legacy","6","1024","2","48000","-16","experiment","1","odd","1","252877","246960","248037","3497","78806","248038","222847","3519","77124","250240","252241","249039","4558","252241","NA","Sternberg task","37","30485.0","41","1024"
"88","88","740","740","#3d3846","experiment","legacy","legacy","legacy","0","undefined","0","left","41","41","41","0","0","41","41","0","0","41","41","41","0","41","0","Sun Oct 15 08:25:54 2023","The main experiment item","False","Sternbergtask.osexp","C:/Users/User/Desktop","False","mono","False","18","no","white","no","yes","768","legacy","29","11","C:/Users/User/Desktop/subject-1.csv","legacy","7 8 6 3 1","Melodramatic Milgram","4.0.5","5","y","0","right","left","right","right","NA","631.0","1039","1682","631","NA","2","legacy","5","1024","2","48000","-16","experiment","1","odd","1","258792","252884","253957","3497","78806","253958","222847","3519","77124","256160","258161","254959","4558","258161","NA","Sternberg task","37","31116.0","42","1024"
"88","88","749","749","#3d3846","experiment","legacy","legacy","legacy","1","undefined","1","right","42","42","42","0","0","42","42","0","0","42","42","42","0","42","0","Sun Oct 15 08:25:54 2023","The main experiment item","False","Sternbergtask.osexp","C:/Users/User/Desktop","False","mono","False","18","no","white","no","yes","768","legacy","30","11","C:/Users/User/Desktop/subject-1.csv","legacy","6 3 1 7 9 8","Melodramatic Milgram","4.0.5","0","n","0","right","left","right","right","NA","1127.0","1039","1682","1127","NA","2","legacy","6","1024","2","48000","-16","experiment","1","odd","4","265208","252884","259876","3497","78806","259877","258800","3519","77124","262079","264080","260878","4558","264080","NA","Sternberg task","38","32243.0","43","1024"
"88","88","747","747","#3d3846","experiment","legacy","legacy","legacy","1","undefined","1","left","43","43","43","0","0","43","43","0","0","43","43","43","0","43","0","Sun Oct 15 08:25:54 2023","The main experiment item","False","Sternbergtask.osexp","C:/Users/User/Desktop","False","mono","False","18","no","white","no","yes","768","legacy","31","11","C:/Users/User/Desktop/subject-1.csv","legacy","9 4 2","Melodramatic Milgram","4.0.5","1","y","0","left","left","right","left","NA","631.0","1039","1682","631","NA","2","legacy","3","1024","2","48000","-16","experiment","1","odd","9","271153","265213","266318","3497","78806","266319","258800","3519","77124","268521","270522","267320","4558","270522","NA","Sternberg task","39","32874.0","44","1024"
"88","88","746","746","#3d3846","experiment","legacy","legacy","legacy","1","undefined","1","right","44","44","44","0","0","44","44","0","0","44","44","44","0","44","0","Sun Oct 15 08:25:54 2023","The main experiment item","False","Sternbergtask.osexp","C:/Users/User/Desktop","False","mono","False","18","no","white","no","yes","768","legacy","32","11","C:/Users/User/Desktop/subject-1.csv","legacy","1 7 8 3 9","Melodramatic Milgram","4.0.5","0","n","0","right","left","right","right","NA","730.0","1039","1682","730","NA","2","legacy","5","1024","2","48000","-16","experiment","1","odd","2","277171","271159","272236","3497","78806","272237","258800","3519","77124","274439","276440","273238","4558","276440","NA","Sternberg task","40","33604.0","45","1024"
"89","89","746","746","#3d3846","experiment","legacy","legacy","legacy","1","undefined","1","right","45","45","45","0","0","45","45","0","0","45","45","45","0","45","0","Sun Oct 15 08:25:54 2023","The main experiment item","False","Sternbergtask.osexp","C:/Users/User/Desktop","False","mono","False","18","no","white","no","yes","768","legacy","33","11","C:/Users/User/Desktop/subject-1.csv","legacy","8 9","Melodramatic Milgram","4.0.5","0","n","0","right","left","right","right","NA","730.0","1039","1682","730","NA","2","legacy","2","1024","2","48000","-16","experiment","1","odd","5","283191","277177","278255","3497","78806","278257","258800","3519","77124","280459","282460","279258","4558","282460","NA","Sternberg task","41","34334.0","46","1024"
"89","89","746","746","#3d3846","experiment","legacy","legacy","legacy","1","undefined","1","right","46","46","46","0","0","46","46","0","0","46","46","46","0","46","0","Sun Oct 15 08:25:54 2023","The main experiment item","False","Sternbergtask.osexp","C:/Users/User/Desktop","False","mono","False","18","no","white","no","yes","768","legacy","34","11","C:/Users/User/Desktop/subject-1.csv","legacy","5 3 2 6 9 8","Melodramatic Milgram","4.0.5","0","n","0","right","left","right","right","NA","752.0","1039","1682","752","NA","2","legacy","6","1024","2","48000","-16","experiment","1","odd","4","289233","283193","284275","3497","78806","284276","258800","3519","77124","286479","288480","285278","4558","288480","NA","Sternberg task","42","35086.0","47","1024"
"87","87","744","744","#3d3846","experiment","legacy","legacy","legacy","0","undefined","0","left","47","47","47","0","0","47","47","0","0","47","47","47","0","47","0","Sun Oct 15 08:25:54 2023","The main experiment item","False","Sternbergtask.osexp","C:/Users/User/Desktop","False","mono","False","18","no","white","no","yes","768","legacy","35","11","C:/Users/User/Desktop/subject-1.csv","legacy","7 4 2 6 3 5","Melodramatic Milgram","4.0.5","6","y","0","right","left","right","right","NA","671.0","1039","1682","671","NA","2","legacy","6","1024","2","48000","-16","experiment","1","odd","5","295192","289239","290317","3497","78806","290318","258800","3519","77124","292520","294521","291319","4558","294521","NA","Sternberg task","42","35757.0","48","1024"
"87","87","754","754","#3d3846","experiment","legacy","legacy","legacy","1","undefined","1","left","48","48","48","0","0","48","48","0","0","48","48","48","0","48","0","Sun Oct 15 08:25:54 2023","The main experiment item","False","Sternbergtask.osexp","C:/Users/User/Desktop","False","mono","False","18","no","white","no","yes","768","legacy","36","11","C:/Users/User/Desktop/subject-1.csv","legacy","2 5 4 8 7","Melodramatic Milgram","4.0.5","3","y","0","left","left","right","left","NA","1215.0","1039","1682","1215","NA","2","legacy","5","1024","2","48000","-16","experiment","1","odd","4","301698","289239","296279","3497","78806","296280","295199","3519","77124","298482","300483","297281","4558","300483","NA","Sternberg task","43","36972.0","49","1024"
"88","88","752","752","#3d3846","experiment","legacy","legacy","legacy","1","undefined","1","right","49","49","49","0","0","49","49","0","0","49","49","49","0","49","0","Sun Oct 15 08:25:54 2023","The main experiment item","False","Sternbergtask.osexp","C:/Users/User/Desktop","False","mono","False","18","no","white","no","yes","768","legacy","37","11","C:/Users/User/Desktop/subject-1.csv","legacy","8 4 3 9","Melodramatic Milgram","4.0.5","0","n","0","right","left","right","right","NA","654.0","1039","1682","654","NA","2","legacy","4","1024","2","48000","-16","experiment","1","odd","5","307622","301705","302764","3497","78806","302765","295199","3519","77124","304967","306968","303766","4558","306968","NA","Sternberg task","44","37626.0","50","1024"
"88","88","755","755","#3d3846","experiment","legacy","legacy","legacy","1","undefined","1","right","50","50","50","0","0","50","50","0","0","50","50","50","0","50","0","Sun Oct 15 08:25:54 2023","The main experiment item","False","Sternbergtask.osexp","C:/Users/User/Desktop","False","mono","False","18","no","white","no","yes","768","legacy","38","11","C:/Users/User/Desktop/subject-1.csv","legacy","3 9 1","Melodramatic Milgram","4.0.5","0","n","0","right","left","right","right","NA","899.0","1039","1682","899","NA","2","legacy","3","1024","2","48000","-16","experiment","1","odd","7","313809","307628","308706","3497","78806","308707","295199","3519","77124","310909","312910","309708","4558","312910","NA","Sternberg task","45","38525.0","51","1024"
"86","86","766","766","#3d3846","experiment","legacy","legacy","legacy","0","undefined","0","left","51","51","51","0","0","51","51","0","0","51","51","51","0","51","0","Sun Oct 15 08:25:54 2023","The main experiment item","False","Sternbergtask.osexp","C:/Users/User/Desktop","False","mono","False","18","no","white","no","yes","768","legacy","39","11","C:/Users/User/Desktop/subject-1.csv","legacy","8 9 6 1","Melodramatic Milgram","4.0.5","2","y","0","right","left","right","right","NA","1348.0","1039","1682","1348","NA","2","legacy","4","1024","2","48000","-16","experiment","1","odd","9","320443","313815","314890","3497","78806","314891","295199","3519","77124","317093","319094","315892","4558","319094","NA","Sternberg task","45","39873.0","52","1024"
"86","86","766","766","#3d3846","experiment","legacy","legacy","legacy","1","undefined","1","right","52","52","52","0","0","52","52","0","0","52","52","52","0","52","0","Sun Oct 15 08:25:54 2023","The main experiment item","False","Sternbergtask.osexp","C:/Users/User/Desktop","False","mono","False","18","no","white","no","yes","768","legacy","40","11","C:/Users/User/Desktop/subject-1.csv","legacy","7 9 1 6","Melodramatic Milgram","4.0.5","0","n","0","right","left","right","right","NA","747.0","1039","1682","747","NA","2","legacy","4","1024","2","48000","-16","experiment","1","odd","4","326462","313815","321511","3497","78806","321512","320446","3519","77124","323714","325715","322513","4558","325715","NA","Sternberg task","46","40620.0","53","1024"
"87","87","767","767","#3d3846","experiment","legacy","legacy","legacy","1","undefined","1","right","53","53","53","0","0","53","53","0","0","53","53","53","0","53","0","Sun Oct 15 08:25:54 2023","The main experiment item","False","Sternbergtask.osexp","C:/Users/User/Desktop","False","mono","False","18","no","white","no","yes","768","legacy","41","11","C:/Users/User/Desktop/subject-1.csv","legacy","3 4 9 6 7 8","Melodramatic Milgram","4.0.5","0","n","0","right","left","right","right","NA","825.0","1039","1682","825","NA","2","legacy","6","1024","2","48000","-16","experiment","1","odd","2","332573","326469","327544","3497","78806","327545","320446","3519","77124","329747","331748","328546","4558","331748","NA","Sternberg task","47","41445.0","54","1024"
"87","87","784","784","#3d3846","experiment","legacy","legacy","legacy","1","undefined","1","left","54","54","54","0","0","54","54","0","0","54","54","54","0","54","0","Sun Oct 15 08:25:54 2023","The main experiment item","False","Sternbergtask.osexp","C:/Users/User/Desktop","False","mono","False","18","no","white","no","yes","768","legacy","42","11","C:/Users/User/Desktop/subject-1.csv","legacy","7 8 4 6 9 5","Melodramatic Milgram","4.0.5","4","y","0","left","left","right","left","NA","1682.0","1039","1682","1682","NA","2","legacy","6","1024","2","48000","-16","experiment","1","odd","6","339553","332580","333667","3497","78806","333668","320446","3519","77124","335870","337871","334669","4558","337871","NA","Sternberg task","48","43127.0","55","1024"
"87","87","780","780","#3d3846","experiment","legacy","legacy","legacy","1","undefined","1","right","55","55","55","0","0","55","55","0","0","55","55","55","0","55","0","Sun Oct 15 08:25:54 2023","The main experiment item","False","Sternbergtask.osexp","C:/Users/User/Desktop","False","mono","False","18","no","white","no","yes","768","legacy","43","11","C:/Users/User/Desktop/subject-1.csv","legacy","2 6 4 3 9","Melodramatic Milgram","4.0.5","0","n","0","right","left","right","right","NA","601.0","1039","1682","601","NA","2","legacy","5","1024","2","48000","-16","experiment","1","odd","1","345447","339560","340641","3497","78806","340641","320446","3519","77124","342844","344846","341643","4558","344846","NA","Sternberg task","49","43728.0","56","1024"
"87","87","784","784","#3d3846","experiment","legacy","legacy","legacy","1","undefined","1","left","56","56","56","0","0","56","56","0","0","56","56","56","0","56","0","Sun Oct 15 08:25:54 2023","The main experiment item","False","Sternbergtask.osexp","C:/Users/User/Desktop","False","mono","False","18","no","white","no","yes","768","legacy","44","11","C:/Users/User/Desktop/subject-1.csv","legacy","9 3 8 2 1 4","Melodramatic Milgram","4.0.5","3","y","0","left","left","right","left","NA","972.0","1039","1682","972","NA","2","legacy","6","1024","2","48000","-16","experiment","1","odd","8","351709","345453","346532","3497","78806","346533","320446","3519","77124","348735","350736","347534","4558","350736","NA","Sternberg task","50","44700.0","57","1024"
"87","87","784","784","#3d3846","experiment","legacy","legacy","legacy","1","undefined","1","right","57","57","57","0","0","57","57","0","0","57","57","57","0","57","0","Sun Oct 15 08:25:54 2023","The main experiment item","False","Sternbergtask.osexp","C:/Users/User/Desktop","False","mono","False","18","no","white","no","yes","768","legacy","45","11","C:/Users/User/Desktop/subject-1.csv","legacy","7 6 4 8 1 2","Melodramatic Milgram","4.0.5","0","n","0","right","left","right","right","NA","786.0","1039","1682","786","NA","2","legacy","6","1024","2","48000","-16","experiment","1","odd","9","357786","351715","352793","3497","78806","352794","320446","3519","77124","354997","356998","353795","4558","356998","NA","Sternberg task","51","45486.0","58","1024"
"88","88","786","786","#3d3846","experiment","legacy","legacy","legacy","1","undefined","1","left","58","58","58","0","0","58","58","0","0","58","58","58","0","58","0","Sun Oct 15 08:25:54 2023","The main experiment item","False","Sternbergtask.osexp","C:/Users/User/Desktop","False","mono","False","18","no","white","no","yes","768","legacy","46","11","C:/Users/User/Desktop/subject-1.csv","legacy","8 1 6","Melodramatic Milgram","4.0.5","3","y","0","left","left","right","left","NA","944.0","1039","1682","944","NA","2","legacy","3","1024","2","48000","-16","experiment","1","odd","6","364024","357792","358876","3497","78806","358877","320446","3519","77124","361079","363080","359878","4558","363080","NA","Sternberg task","52","46430.0","59","1024"
"88","88","784","784","#3d3846","experiment","legacy","legacy","legacy","1","undefined","1","left","59","59","59","0","0","59","59","0","0","59","59","59","0","59","0","Sun Oct 15 08:25:54 2023","The main experiment item","False","Sternbergtask.osexp","C:/Users/User/Desktop","False","mono","False","18","no","white","no","yes","768","legacy","47","11","C:/Users/User/Desktop/subject-1.csv","legacy","2 3 7 4","Melodramatic Milgram","4.0.5","1","y","0","left","left","right","left","NA","657.0","1039","1682","657","NA","2","legacy","4","1024","2","48000","-16","experiment","1","odd","2","369973","364031","365111","3497","78806","365112","320446","3519","77124","367314","369315","366113","4558","369315","NA","Sternberg task","53","47087.0","60","1024"
"88","88","784","784","#3d3846","experiment","legacy","legacy","legacy","1","undefined","1","left","60","60","60","0","0","60","60","0","0","60","60","60","0","60","0","Sun Oct 15 08:25:54 2023","The main experiment item","False","Sternbergtask.osexp","C:/Users/User/Desktop","False","mono","False","18","no","white","no","yes","768","legacy","48","11","C:/Users/User/Desktop/subject-1.csv","legacy","7 6","Melodramatic Milgram","4.0.5","2","y","0","left","left","right","left","NA","779.0","1039","1682","779","NA","2","legacy","2","1024","2","48000","-16","experiment","1","odd","6","376043","369979","371059","3497","78806","371060","320446","3519","77124","373262","375263","372061","4558","375263","NA","Sternberg task","54","47866.0","61","1024"
"87","87","789","789","#3d3846","experiment","legacy","legacy","legacy","0","undefined","0","left","61","61","61","0","0","61","61","0","0","61","61","61","0","61","0","Sun Oct 15 08:25:54 2023","The main experiment item","False","Sternbergtask.osexp","C:/Users/User/Desktop","False","mono","False","18","no","white","no","yes","768","legacy","49","11","C:/Users/User/Desktop/subject-1.csv","legacy","5 2 9 6 1 7","Melodramatic Milgram","4.0.5","3","y","0","right","left","right","right","NA","1056.0","1039","1682","1056","NA","2","legacy","6","1024","2","48000","-16","experiment","1","odd","9","382395","376049","377134","3497","78806","377135","320446","3519","77124","379337","381339","378136","4558","381338","NA","Sternberg task","54","48922.0","62","1024"
"85","85","804","804","#3d3846","experiment","legacy","legacy","legacy","0","undefined","0","left","62","62","62","0","0","62","62","0","0","62","62","62","0","62","0","Sun Oct 15 08:25:54 2023","The main experiment item","False","Sternbergtask.osexp","C:/Users/User/Desktop","False","mono","False","18","no","white","no","yes","768","legacy","50","11","C:/Users/User/Desktop/subject-1.csv","legacy","9 1 7 2","Melodramatic Milgram","4.0.5","2","y","0","right","left","right","right","NA","1769.0","1039","1682","1769","NA","2","legacy","4","1024","2","48000","-16","experiment","1","odd","1","389453","376049","383479","3497","78806","383480","382402","3519","77124","385683","387684","384482","4558","387684","NA","Sternberg task","54","50691.0","63","1024"
"84","84","802","802","#3d3846","experiment","legacy","legacy","legacy","0","undefined","0","left","63","63","63","0","0","63","63","0","0","63","63","63","0","63","0","Sun Oct 15 08:25:54 2023","The main experiment item","False","Sternbergtask.osexp","C:/Users/User/Desktop","False","mono","False","18","no","white","no","yes","768","legacy","51","11","C:/Users/User/Desktop/subject-1.csv","legacy","3 9 6 2","Melodramatic Milgram","4.0.5","4","y","0","right","left","right","right","NA","693.0","1039","1682","693","NA","2","legacy","4","1024","2","48000","-16","experiment","1","odd","2","395439","376049","390541","3497","78806","390542","389461","3519","77124","392744","394745","391543","4558","394745","NA","Sternberg task","54","51384.0","64","1024"
"84","84","803","803","#3d3846","experiment","legacy","legacy","legacy","1","undefined","1","left","64","64","64","0","0","64","64","0","0","64","64","64","0","64","0","Sun Oct 15 08:25:54 2023","The main experiment item","False","Sternbergtask.osexp","C:/Users/User/Desktop","False","mono","False","18","no","white","no","yes","768","legacy","52","11","C:/Users/User/Desktop/subject-1.csv","legacy","4 9 7 8 5 3","Melodramatic Milgram","4.0.5","4","y","0","left","left","right","left","NA","872.0","1039","1682","872","NA","2","legacy","6","1024","2","48000","-16","experiment","1","odd","8","401602","376049","396525","3497","78806","396526","395445","3519","77124","398728","400729","397527","4558","400729","NA","Sternberg task","55","52256.0","65","1024"
"84","84","800","800","#3d3846","experiment","legacy","legacy","legacy","1","undefined","1","left","65","65","65","0","0","65","65","0","0","65","65","65","0","65","0","Sun Oct 15 08:25:54 2023","The main experiment item","False","Sternbergtask.osexp","C:/Users/User/Desktop","False","mono","False","18","no","white","no","yes","768","legacy","53","11","C:/Users/User/Desktop/subject-1.csv","legacy","2 3","Melodramatic Milgram","4.0.5","1","y","0","left","left","right","left","NA","552.0","1039","1682","552","NA","2","legacy","2","1024","2","48000","-16","experiment","1","odd","2","407444","401608","402686","3497","78806","402688","395445","3519","77124","404890","406891","403689","4558","406891","NA","Sternberg task","56","52808.0","66","1024"
"85","85","805","805","#3d3846","experiment","legacy","legacy","legacy","1","undefined","1","left","66","66","66","0","0","66","66","0","0","66","66","66","0","66","0","Sun Oct 15 08:25:54 2023","The main experiment item","False","Sternbergtask.osexp","C:/Users/User/Desktop","False","mono","False","18","no","white","no","yes","768","legacy","54","11","C:/Users/User/Desktop/subject-1.csv","legacy","8 5 1 3 9","Melodramatic Milgram","4.0.5","4","y","0","left","left","right","left","NA","1144.0","1039","1682","1144","NA","2","legacy","5","1024","2","48000","-16","experiment","1","odd","3","413876","407451","408528","3497","78806","408529","395445","3519","77124","410731","412732","409530","4558","412732","NA","Sternberg task","57","53952.0","67","1024"
"85","85","822","822","#3d3846","experiment","legacy","legacy","legacy","1","undefined","1","right","67","67","67","0","0","67","67","0","0","67","67","67","0","67","0","Sun Oct 15 08:25:54 2023","The main experiment item","False","Sternbergtask.osexp","C:/Users/User/Desktop","False","mono","False","18","no","white","no","yes","768","legacy","55","11","C:/Users/User/Desktop/subject-1.csv","legacy","2 8 7 9 5 3","Melodramatic Milgram","4.0.5","0","n","0","right","left","right","right","NA","1984.0","1039","1682","1984","NA","2","legacy","6","1024","2","48000","-16","experiment","1","odd","6","421150","413883","414961","3497","78806","414962","395445","3519","77124","417164","419166","415963","4558","419166","NA","Sternberg task","58","55936.0","68","1024"
"85","85","821","821","#3d3846","experiment","legacy","legacy","legacy","1","undefined","1","right","68","68","68","0","0","68","68","0","0","68","68","68","0","68","0","Sun Oct 15 08:25:54 2023","The main experiment item","False","Sternbergtask.osexp","C:/Users/User/Desktop","False","mono","False","18","no","white","no","yes","768","legacy","56","11","C:/Users/User/Desktop/subject-1.csv","legacy","2 7 5","Melodramatic Milgram","4.0.5","0","n","0","right","left","right","right","NA","738.0","1039","1682","738","NA","2","legacy","3","1024","2","48000","-16","experiment","1","odd","8","427179","421157","422236","3497","78806","422237","395445","3519","77124","424439","426440","423238","4558","426440","NA","Sternberg task","59","56674.0","69","1024"
"85","85","823","823","#3d3846","experiment","legacy","legacy","legacy","1","undefined","1","left","69","69","69","0","0","69","69","0","0","69","69","69","0","69","0","Sun Oct 15 08:25:54 2023","The main experiment item","False","Sternbergtask.osexp","C:/Users/User/Desktop","False","mono","False","18","no","white","no","yes","768","legacy","57","11","C:/Users/User/Desktop/subject-1.csv","legacy","2 6 1 7 4","Melodramatic Milgram","4.0.5","2","y","0","left","left","right","left","NA","977.0","1039","1682","977","NA","2","legacy","5","1024","2","48000","-16","experiment","1","odd","6","433452","427185","428271","3497","78806","428271","395445","3519","77124","430473","432474","429272","4558","432474","NA","Sternberg task","60","57651.0","70","1024"
"84","84","829","829","#3d3846","experiment","legacy","legacy","legacy","0","undefined","0","left","70","70","70","0","0","70","70","0","0","70","70","70","0","70","0","Sun Oct 15 08:25:54 2023","The main experiment item","False","Sternbergtask.osexp","C:/Users/User/Desktop","False","mono","False","18","no","white","no","yes","768","legacy","58","11","C:/Users/User/Desktop/subject-1.csv","legacy","6 9 7 4 5 1","Melodramatic Milgram","4.0.5","2","y","0","right","left","right","right","NA","1215.0","1039","1682","1215","NA","2","legacy","6","1024","2","48000","-16","experiment","1","odd","9","439956","433458","434536","3497","78806","434537","395445","3519","77124","436739","438740","435538","4558","438740","NA","Sternberg task","60","58866.0","71","1024"
"84","84","826","826","#3d3846","experiment","legacy","legacy","legacy","1","undefined","1","right","71","71","71","0","0","71","71","0","0","71","71","71","0","71","0","Sun Oct 15 08:25:54 2023","The main experiment item","False","Sternbergtask.osexp","C:/Users/User/Desktop","False","mono","False","18","no","white","no","yes","768","legacy","59","11","C:/Users/User/Desktop/subject-1.csv","legacy","5 2","Melodramatic Milgram","4.0.5","0","n","0","right","left","right","right","NA","630.0","1039","1682","630","NA","2","legacy","2","1024","2","48000","-16","experiment","1","odd","7","445873","433458","441040","3497","78806","441041","439962","3519","77124","443242","445243","442042","4558","445243","NA","Sternberg task","61","59496.0","72","1024"
"84","84","825","825","#3d3846","experiment","legacy","legacy","legacy","1","undefined","1","right","72","72","72","0","0","72","72","0","0","72","72","72","0","72","0","Sun Oct 15 08:25:54 2023","The main experiment item","False","Sternbergtask.osexp","C:/Users/User/Desktop","False","mono","False","18","no","white","no","yes","768","legacy","60","11","C:/Users/User/Desktop/subject-1.csv","legacy","7 3 2 8","Melodramatic Milgram","4.0.5","0","n","0","right","left","right","right","NA","736.0","1039","1682","736","NA","2","legacy","4","1024","2","48000","-16","experiment","1","odd","4","451904","445880","446962","3497","78806","446963","439962","3519","77124","449165","451167","447964","4558","451167","NA","Sternberg task","62","60232.0","73","1024"
"83","83","820","820","#3d3846","experiment","legacy","legacy","legacy","0","undefined","0","left","73","73","73","0","0","73","73","0","0","73","73","73","0","73","0","Sun Oct 15 08:25:54 2023","The main experiment item","False","Sternbergtask.osexp","C:/Users/User/Desktop","False","mono","False","18","no","white","no","yes","768","legacy","61","11","C:/Users/User/Desktop/subject-1.csv","legacy","2 4 6 9","Melodramatic Milgram","4.0.5","3","y","0","right","left","right","right","NA","485.0","1039","1682","485","NA","2","legacy","4","1024","2","48000","-16","experiment","1","odd","6","457677","451910","452988","3497","78806","452989","439962","3519","77124","455191","457192","453990","4558","457192","NA","Sternberg task","62","60717.0","74","1024"
"84","84","820","820","#3d3846","experiment","legacy","legacy","legacy","1","undefined","1","right","74","74","74","0","0","74","74","0","0","74","74","74","0","74","0","Sun Oct 15 08:25:54 2023","The main experiment item","False","Sternbergtask.osexp","C:/Users/User/Desktop","False","mono","False","18","no","white","no","yes","768","legacy","62","11","C:/Users/User/Desktop/subject-1.csv","legacy","9 8 2 7 4","Melodramatic Milgram","4.0.5","0","n","0","right","left","right","right","NA","817.0","1039","1682","817","NA","2","legacy","5","1024","2","48000","-16","experiment","1","odd","5","463789","451910","458768","3497","78806","458769","457684","3519","77124","460971","462972","459770","4558","462972","NA","Sternberg task","63","61534.0","75","1024"
"82","82","828","828","#3d3846","experiment","legacy","legacy","legacy","0","undefined","0","left","75","75","75","0","0","75","75","0","0","75","75","75","0","75","0","Sun Oct 15 08:25:54 2023","The main experiment item","False","Sternbergtask.osexp","C:/Users/User/Desktop","False","mono","False","18","no","white","no","yes","768","legacy","63","11","C:/Users/User/Desktop/subject-1.csv","legacy","4 1 8 7 5","Melodramatic Milgram","4.0.5","3","y","0","right","left","right","right","NA","1458.0","1039","1682","1458","NA","2","legacy","5","1024","2","48000","-16","experiment","1","odd","8","470540","463796","464877","3497","78806","464878","457684","3519","77124","467080","469081","465879","4558","469081","NA","Sternberg task","63","62992.0","76","1024"
"83","83","828","828","#3d3846","experiment","legacy","legacy","legacy","1","undefined","1","right","76","76","76","0","0","76","76","0","0","76","76","76","0","76","0","Sun Oct 15 08:25:54 2023","The main experiment item","False","Sternbergtask.osexp","C:/Users/User/Desktop","False","mono","False","18","no","white","no","yes","768","legacy","64","11","C:/Users/User/Desktop/subject-1.csv","legacy","2 8 6 3 1","Melodramatic Milgram","4.0.5","0","n","0","right","left","right","right","NA","797.0","1039","1682","797","NA","2","legacy","5","1024","2","48000","-16","experiment","1","odd","7","476634","463796","471632","3497","78806","471633","470546","3519","77124","473835","475837","472634","4558","475837","NA","Sternberg task","64","63789.0","77","1024"
"83","83","827","827","#3d3846","experiment","legacy","legacy","legacy","1","undefined","1","left","77","77","77","0","0","77","77","0","0","77","77","77","0","77","0","Sun Oct 15 08:25:54 2023","The main experiment item","False","Sternbergtask.osexp","C:/Users/User/Desktop","False","mono","False","18","no","white","no","yes","768","legacy","65","11","C:/Users/User/Desktop/subject-1.csv","legacy","6 5","Melodramatic Milgram","4.0.5","2","y","0","left","left","right","left","NA","738.0","1039","1682","738","NA","2","legacy","2","1024","2","48000","-16","experiment","1","odd","5","482660","476641","477718","3497","78806","477719","470546","3519","77124","479920","481921","478720","4558","481921","NA","Sternberg task","65","64527.0","78","1024"
"83","83","829","829","#3d3846","experiment","legacy","legacy","legacy","1","undefined","1","right","78","78","78","0","0","78","78","0","0","78","78","78","0","78","0","Sun Oct 15 08:25:54 2023","The main experiment item","False","Sternbergtask.osexp","C:/Users/User/Desktop","False","mono","False","18","no","white","no","yes","768","legacy","66","11","C:/Users/User/Desktop/subject-1.csv","legacy","6 8","Melodramatic Milgram","4.0.5","0","n","0","right","left","right","right","NA","1003.0","1039","1682","1003","NA","2","legacy","2","1024","2","48000","-16","experiment","1","odd","9","488952","482666","483743","3497","78806","483744","470546","3519","77124","485946","487947","484745","4558","487947","NA","Sternberg task","66","65530.0","79","1024"
"83","83","825","825","#3d3846","experiment","legacy","legacy","legacy","1","undefined","1","left","79","79","79","0","0","79","79","0","0","79","79","79","0","79","0","Sun Oct 15 08:25:54 2023","The main experiment item","False","Sternbergtask.osexp","C:/Users/User/Desktop","False","mono","False","18","no","white","no","yes","768","legacy","67","11","C:/Users/User/Desktop/subject-1.csv","legacy","6 7 8 5","Melodramatic Milgram","4.0.5","3","y","0","left","left","right","left","NA","523.0","1039","1682","523","NA","2","legacy","4","1024","2","48000","-16","experiment","1","odd","8","494767","488958","490039","3497","78806","490040","470546","3519","77124","492242","494243","491041","4558","494243","NA","Sternberg task","67","66053.0","80","1024"
"82","82","825","825","#3d3846","experiment","legacy","legacy","legacy","0","undefined","0","left","80","80","80","0","0","80","80","0","0","80","80","80","0","80","0","Sun Oct 15 08:25:54 2023","The main experiment item","False","Sternbergtask.osexp","C:/Users/User/Desktop","False","mono","False","18","no","white","no","yes","768","legacy","68","11","C:/Users/User/Desktop/subject-1.csv","legacy","2 8 5 1","Melodramatic Milgram","4.0.5","4","y","0","right","left","right","right","NA","776.0","1039","1682","776","NA","2","legacy","4","1024","2","48000","-16","experiment","1","odd","1","500830","494773","495850","3497","78806","495851","470546","3519","77124","498053","500054","496852","4558","500054","NA","Sternberg task","67","66829.0","81","1024"
"82","82","831","831","#3d3846","experiment","legacy","legacy","legacy","1","undefined","1","right","81","81","81","0","0","81","81","0","0","81","81","81","0","81","0","Sun Oct 15 08:25:54 2023","The main experiment item","False","Sternbergtask.osexp","C:/Users/User/Desktop","False","mono","False","18","no","white","no","yes","768","legacy","69","11","C:/Users/User/Desktop/subject-1.csv","legacy","1 4 3 6 5","Melodramatic Milgram","4.0.5","0","n","0","right","left","right","right","NA","1319.0","1039","1682","1319","NA","2","legacy","5","1024","2","48000","-16","experiment","1","odd","8","507442","494773","501918","3497","78806","501918","500837","3519","77124","504121","506122","502920","4558","506122","NA","Sternberg task","68","68148.0","82","1024"
"83","83","836","836","#3d3846","experiment","legacy","legacy","legacy","1","undefined","1","right","82","82","82","0","0","82","82","0","0","82","82","82","0","82","0","Sun Oct 15 08:25:54 2023","The main experiment item","False","Sternbergtask.osexp","C:/Users/User/Desktop","False","mono","False","18","no","white","no","yes","768","legacy","70","11","C:/Users/User/Desktop/subject-1.csv","legacy","3 9 8 1 6 4","Melodramatic Milgram","4.0.5","0","n","0","right","left","right","right","NA","1258.0","1039","1682","1258","NA","2","legacy","6","1024","2","48000","-16","experiment","1","odd","7","513988","507448","508524","3497","78806","508525","500837","3519","77124","510727","512729","509526","4558","512729","NA","Sternberg task","69","69406.0","83","1024"
"83","83","834","834","#3d3846","experiment","legacy","legacy","legacy","1","undefined","1","left","83","83","83","0","0","83","83","0","0","83","83","83","0","83","0","Sun Oct 15 08:25:54 2023","The main experiment item","False","Sternbergtask.osexp","C:/Users/User/Desktop","False","mono","False","18","no","white","no","yes","768","legacy","71","11","C:/Users/User/Desktop/subject-1.csv","legacy","9 3 1 2 5","Melodramatic Milgram","4.0.5","4","y","0","left","left","right","left","NA","666.0","1039","1682","666","NA","2","legacy","5","1024","2","48000","-16","experiment","1","odd","2","519945","513994","515074","3497","78806","515075","500837","3519","77124","517277","519278","516076","4558","519278","NA","Sternberg task","70","70072.0","84","1024"
"83","83","833","833","#3d3846","experiment","legacy","legacy","legacy","1","undefined","1","right","84","84","84","0","0","84","84","0","0","84","84","84","0","84","0","Sun Oct 15 08:25:54 2023","The main experiment item","False","Sternbergtask.osexp","C:/Users/User/Desktop","False","mono","False","18","no","white","no","yes","768","legacy","72","11","C:/Users/User/Desktop/subject-1.csv","legacy","8 2 1 4 5 9","Melodramatic Milgram","4.0.5","0","n","0","right","left","right","right","NA","752.0","1039","1682","752","NA","2","legacy","6","1024","2","48000","-16","experiment","1","odd","7","525986","519951","521029","3497","78806","521030","500837","3519","77124","523232","525233","522031","4558","525233","NA","Sternberg task","71","70824.0","85","1024"
"82","82","832","832","#3d3846","experiment","legacy","legacy","legacy","0","undefined","0","right","85","85","85","0","0","85","85","0","0","85","85","85","0","85","0","Sun Oct 15 08:25:54 2023","The main experiment item","False","Sternbergtask.osexp","C:/Users/User/Desktop","False","mono","False","18","no","white","no","yes","768","legacy","73","11","C:/Users/User/Desktop/subject-1.csv","legacy","6 9 5","Melodramatic Milgram","4.0.5","0","n","0","left","left","right","left","NA","757.0","1039","1682","757","NA","2","legacy","3","1024","2","48000","-16","experiment","1","odd","8","532034","525993","527072","3497","78806","527073","500837","3519","77124","529275","531276","528074","4558","531276","NA","Sternberg task","71","71581.0","86","1024"
"82","82","828","828","#3d3846","experiment","legacy","legacy","legacy","1","undefined","1","left","86","86","86","0","0","86","86","0","0","86","86","86","0","86","0","Sun Oct 15 08:25:54 2023","The main experiment item","False","Sternbergtask.osexp","C:/Users/User/Desktop","False","mono","False","18","no","white","no","yes","768","legacy","74","11","C:/Users/User/Desktop/subject-1.csv","legacy","4 6 5 8","Melodramatic Milgram","4.0.5","1","y","0","left","left","right","left","NA","505.0","1039","1682","505","NA","2","legacy","4","1024","2","48000","-16","experiment","1","odd","4","537830","525993","533120","3497","78806","533121","532040","3519","77124","535323","537324","534122","4558","537324","NA","Sternberg task","72","72086.0","87","1024"
"82","82","825","825","#3d3846","experiment","legacy","legacy","legacy","1","undefined","1","left","87","87","87","0","0","87","87","0","0","87","87","87","0","87","0","Sun Oct 15 08:25:54 2023","The main experiment item","False","Sternbergtask.osexp","C:/Users/User/Desktop","False","mono","False","18","no","white","no","yes","768","legacy","75","11","C:/Users/User/Desktop/subject-1.csv","legacy","3 5 4 7","Melodramatic Milgram","4.0.5","1","y","0","left","left","right","left","NA","540.0","1039","1682","540","NA","2","legacy","4","1024","2","48000","-16","experiment","1","odd","3","543661","537836","538914","3497","78806","538916","532040","3519","77124","541118","543120","539917","4558","543119","NA","Sternberg task","73","72626.0","88","1024"
"83","83","826","826","#3d3846","experiment","legacy","legacy","legacy","1","undefined","1","right","88","88","88","0","0","88","88","0","0","88","88","88","0","88","0","Sun Oct 15 08:25:54 2023","The main experiment item","False","Sternbergtask.osexp","C:/Users/User/Desktop","False","mono","False","18","no","white","no","yes","768","legacy","76","11","C:/Users/User/Desktop/subject-1.csv","legacy","1 6 4 3 9 7","Melodramatic Milgram","4.0.5","0","n","0","right","left","right","right","NA","892.0","1039","1682","892","NA","2","legacy","6","1024","2","48000","-16","experiment","1","odd","8","549842","543667","544745","3497","78806","544746","532040","3519","77124","546948","548949","545747","4558","548949","NA","Sternberg task","74","73518.0","89","1024"
"83","83","822","822","#3d3846","experiment","legacy","legacy","legacy","1","undefined","1","right","89","89","89","0","0","89","89","0","0","89","89","89","0","89","0","Sun Oct 15 08:25:54 2023","The main experiment item","False","Sternbergtask.osexp","C:/Users/User/Desktop","False","mono","False","18","no","white","no","yes","768","legacy","77","11","C:/Users/User/Desktop/subject-1.csv","legacy","5","Melodramatic Milgram","4.0.5","0","n","0","right","left","right","right","NA","541.0","1039","1682","541","NA","2","legacy","1","1024","2","48000","-16","experiment","1","odd","8","555672","549848","550926","3497","78806","550927","532040","3519","77124","553129","555130","551928","4558","555130","NA","Sternberg task","75","74059.0","90","1024"
"83","83","823","823","#3d3846","experiment","legacy","legacy","legacy","1","undefined","1","left","90","90","90","0","0","90","90","0","0","90","90","90","0","90","0","Sun Oct 15 08:25:54 2023","The main experiment item","False","Sternbergtask.osexp","C:/Users/User/Desktop","False","mono","False","18","no","white","no","yes","768","legacy","78","11","C:/Users/User/Desktop/subject-1.csv","legacy","8 5 4 7 3 1","Melodramatic Milgram","4.0.5","2","y","0","left","left","right","left","NA","872.0","1039","1682","872","NA","2","legacy","6","1024","2","48000","-16","experiment","1","odd","5","561820","555678","556742","3497","78806","556744","532040","3519","77124","558946","560947","557745","4558","560947","NA","Sternberg task","76","74931.0","91","1024"
"82","82","824","824","#3d3846","experiment","legacy","legacy","legacy","0","undefined","0","left","91","91","91","0","0","91","91","0","0","91","91","91","0","91","0","Sun Oct 15 08:25:54 2023","The main experiment item","False","Sternbergtask.osexp","C:/Users/User/Desktop","False","mono","False","18","no","white","no","yes","768","legacy","79","11","C:/Users/User/Desktop/subject-1.csv","legacy","5 2 6","Melodramatic Milgram","4.0.5","2","y","0","right","left","right","right","NA","918.0","1039","1682","918","NA","2","legacy","3","1024","2","48000","-16","experiment","1","odd","2","568027","561826","562903","3497","78806","562904","532040","3519","77124","565107","567108","563906","4558","567108","NA","Sternberg task","76","75849.0","92","1024"
"82","82","827","827","#3d3846","experiment","legacy","legacy","legacy","1","undefined","1","right","92","92","92","0","0","92","92","0","0","92","92","92","0","92","0","Sun Oct 15 08:25:54 2023","The main experiment item","False","Sternbergtask.osexp","C:/Users/User/Desktop","False","mono","False","18","no","white","no","yes","768","legacy","80","11","C:/Users/User/Desktop/subject-1.csv","legacy","1 8 7","Melodramatic Milgram","4.0.5","0","n","0","right","left","right","right","NA","1082.0","1039","1682","1082","NA","2","legacy","3","1024","2","48000","-16","experiment","1","odd","4","574397","561826","569109","3497","78806","569110","568033","3519","77124","571312","573314","570111","4558","573314","NA","Sternberg task","77","76931.0","93","1024"
"82","82","830","830","#3d3846","experiment","legacy","legacy","legacy","1","undefined","1","left","93","93","93","0","0","93","93","0","0","93","93","93","0","93","0","Sun Oct 15 08:25:54 2023","The main experiment item","False","Sternbergtask.osexp","C:/Users/User/Desktop","False","mono","False","18","no","white","no","yes","768","legacy","81","11","C:/Users/User/Desktop/subject-1.csv","legacy","3 5 9 6 2 4","Melodramatic Milgram","4.0.5","1","y","0","left","left","right","left","NA","1161.0","1039","1682","1161","NA","2","legacy","6","1024","2","48000","-16","experiment","1","odd","3","580848","574403","575482","3497","78806","575483","568033","3519","77124","577685","579686","576484","4558","579686","NA","Sternberg task","78","78092.0","94","1024"
"82","82","830","830","#3d3846","experiment","legacy","legacy","legacy","0","undefined","0","left","94","94","94","0","0","94","94","0","0","94","94","94","0","94","0","Sun Oct 15 08:25:54 2023","The main experiment item","False","Sternbergtask.osexp","C:/Users/User/Desktop","False","mono","False","18","no","white","no","yes","768","legacy","82","11","C:/Users/User/Desktop/subject-1.csv","legacy","6 9 3 1","Melodramatic Milgram","4.0.5","4","y","0","right","left","right","right","NA","805.0","1039","1682","805","NA","2","legacy","4","1024","2","48000","-16","experiment","1","odd","1","586941","580854","581932","3497","78806","581933","568033","3519","77124","584135","586136","582934","4558","586136","NA","Sternberg task","78","78897.0","95","1024"
"82","82","831","831","#3d3846","experiment","legacy","legacy","legacy","1","undefined","1","right","95","95","95","0","0","95","95","0","0","95","95","95","0","95","0","Sun Oct 15 08:25:54 2023","The main experiment item","False","Sternbergtask.osexp","C:/Users/User/Desktop","False","mono","False","18","no","white","no","yes","768","legacy","83","11","C:/Users/User/Desktop/subject-1.csv","legacy","1 7 5 2 9","Melodramatic Milgram","4.0.5","0","n","0","right","left","right","right","NA","916.0","1039","1682","916","NA","2","legacy","5","1024","2","48000","-16","experiment","1","odd","3","593147","580854","588026","3497","78806","588027","586948","3519","77124","590229","592230","589028","4558","592230","NA","Sternberg task","79","79813.0","96","1024"
"81","81","831","831","#3d3846","experiment","legacy","legacy","legacy","0","undefined","0","left","96","96","96","0","0","96","96","0","0","96","96","96","0","96","0","Sun Oct 15 08:25:54 2023","The main experiment item","False","Sternbergtask.osexp","C:/Users/User/Desktop","False","mono","False","18","no","white","no","yes","768","legacy","84","11","C:/Users/User/Desktop/subject-1.csv","legacy","4 3 2 5 8","Melodramatic Milgram","4.0.5","2","y","0","right","left","right","right","NA","861.0","1039","1682","861","NA","2","legacy","5","1024","2","48000","-16","experiment","1","odd","3","599298","593153","594232","3497","78806","594232","586948","3519","77124","596434","598436","595233","4558","598436","NA","Sternberg task","79","80674.0","97","1024"
"81","81","830","830","#3d3846","experiment","legacy","legacy","legacy","1","undefined","1","right","97","97","97","0","0","97","97","0","0","97","97","97","0","97","0","Sun Oct 15 08:25:54 2023","The main experiment item","False","Sternbergtask.osexp","C:/Users/User/Desktop","False","mono","False","18","no","white","no","yes","768","legacy","85","11","C:/Users/User/Desktop/subject-1.csv","legacy","1 4 9 2 5","Melodramatic Milgram","4.0.5","0","n","0","right","left","right","right","NA","698.0","1039","1682","698","NA","2","legacy","5","1024","2","48000","-16","experiment","1","odd","7","605279","593153","600375","3497","78806","600376","599304","3519","77124","602578","604580","601377","4558","604579","NA","Sternberg task","80","81372.0","98","1024"
"81","81","828","828","#3d3846","experiment","legacy","legacy","legacy","1","undefined","1","right","98","98","98","0","0","98","98","0","0","98","98","98","0","98","0","Sun Oct 15 08:25:54 2023","The main experiment item","False","Sternbergtask.osexp","C:/Users/User/Desktop","False","mono","False","18","no","white","no","yes","768","legacy","86","11","C:/Users/User/Desktop/subject-1.csv","legacy","1 6 4","Melodramatic Milgram","4.0.5","0","n","0","right","left","right","right","NA","651.0","1039","1682","651","NA","2","legacy","3","1024","2","48000","-16","experiment","1","odd","7","611222","605285","606366","3497","78806","606367","599304","3519","77124","608569","610570","607368","4558","610570","NA","Sternberg task","81","82023.0","99","1024"
"81","81","824","824","#3d3846","experiment","legacy","legacy","legacy","0","undefined","0","left","99","99","99","0","0","99","99","0","0","99","99","99","0","99","0","Sun Oct 15 08:25:54 2023","The main experiment item","False","Sternbergtask.osexp","C:/Users/User/Desktop","False","mono","False","18","no","white","no","yes","768","legacy","87","11","C:/Users/User/Desktop/subject-1.csv","legacy","5 7 3 6 2","Melodramatic Milgram","4.0.5","5","y","0","right","left","right","right","NA","475.0","1039","1682","475","NA","2","legacy","5","1024","2","48000","-16","experiment","1","odd","2","616998","611229","612318","3497","78806","612319","599304","3519","77124","614521","616523","613320","4558","616522","NA","Sternberg task","81","82498.0","100","1024"
"80","80","836","836","#3d3846","experiment","legacy","legacy","legacy","0","undefined","0","right","100","100","100","0","0","100","100","0","0","100","100","100","0","100","0","Sun Oct 15 08:25:54 2023","The main experiment item","False","Sternbergtask.osexp","C:/Users/User/Desktop","False","mono","False","18","no","white","no","yes","768","legacy","88","11","C:/Users/User/Desktop/subject-1.csv","legacy","2 8 9","Melodramatic Milgram","4.0.5","0","n","0","None","left","right","None","NA","2001.0","1039","1682","2001","NA","2","legacy","3","1024","2","48000","-16","experiment","1","odd","6","624288","611229","618084","3497","78806","618084","617005","3519","77124","620286","622287","619085","4558","622287","NA","Sternberg task","81","84499.0","101","1024"
"80","80","837","837","#3d3846","experiment","legacy","legacy","legacy","1","undefined","1","right","101","101","101","0","0","101","101","0","0","101","101","101","0","101","0","Sun Oct 15 08:25:54 2023","The main experiment item","False","Sternbergtask.osexp","C:/Users/User/Desktop","False","mono","False","18","no","white","no","yes","768","legacy","89","11","C:/Users/User/Desktop/subject-1.csv","legacy","6 9 4 5 3 2","Melodramatic Milgram","4.0.5","0","n","0","right","left","right","right","NA","880.0","1039","1682","880","NA","2","legacy","6","1024","2","48000","-16","experiment","1","odd","8","630452","611229","625367","3497","78806","625368","624294","3519","77124","627570","629571","626369","4558","629571","NA","Sternberg task","82","85379.0","102","1024"
"79","79","839","839","#3d3846","experiment","legacy","legacy","legacy","0","undefined","0","right","102","102","102","0","0","102","102","0","0","102","102","102","0","102","0","Sun Oct 15 08:25:54 2023","The main experiment item","False","Sternbergtask.osexp","C:/Users/User/Desktop","False","mono","False","18","no","white","no","yes","768","legacy","90","11","C:/Users/User/Desktop/subject-1.csv","legacy","2 8 9 4 1","Melodramatic Milgram","4.0.5","0","n","0","left","left","right","left","NA","1101.0","1039","1682","1101","NA","2","legacy","5","1024","2","48000","-16","experiment","1","odd","5","636845","630459","631538","3497","78806","631539","624294","3519","77124","633741","635743","632540","4558","635742","NA","Sternberg task","82","86480.0","103","1024"
"78","78","850","850","#3d3846","experiment","legacy","legacy","legacy","0","undefined","0","right","103","103","103","0","0","103","103","0","0","103","103","103","0","103","0","Sun Oct 15 08:25:54 2023","The main experiment item","False","Sternbergtask.osexp","C:/Users/User/Desktop","False","mono","False","18","no","white","no","yes","768","legacy","91","11","C:/Users/User/Desktop/subject-1.csv","legacy","7 1 8 4 9 3","Melodramatic Milgram","4.0.5","0","n","0","None","left","right","None","NA","2000.0","1039","1682","2000","NA","2","legacy","6","1024","2","48000","-16","experiment","1","odd","6","644140","630459","637935","3497","78806","637936","636851","3519","77124","640138","642140","638937","4558","642140","NA","Sternberg task","82","88480.0","104","1024"
"78","78","861","861","#3d3846","experiment","legacy","legacy","legacy","0","undefined","0","right","104","104","104","0","0","104","104","0","0","104","104","104","0","104","0","Sun Oct 15 08:25:54 2023","The main experiment item","False","Sternbergtask.osexp","C:/Users/User/Desktop","False","mono","False","18","no","white","no","yes","768","legacy","92","11","C:/Users/User/Desktop/subject-1.csv","legacy","6 9 7 3 8 2","Melodramatic Milgram","4.0.5","0","n","0","None","left","right","None","NA","2000.0","1039","1682","2000","NA","2","legacy","6","1024","2","48000","-16","experiment","1","odd","5","651430","630459","645224","3497","78806","645225","644146","3519","77124","647428","649430","646226","4558","649430","NA","Sternberg task","82","90480.0","105","1024"
"77","77","872","872","#3d3846","experiment","legacy","legacy","legacy","0","undefined","0","left","105","105","105","0","0","105","105","0","0","105","105","105","0","105","0","Sun Oct 15 08:25:54 2023","The main experiment item","False","Sternbergtask.osexp","C:/Users/User/Desktop","False","mono","False","18","no","white","no","yes","768","legacy","93","11","C:/Users/User/Desktop/subject-1.csv","legacy","4 6 2 5 1","Melodramatic Milgram","4.0.5","5","y","0","None","left","right","None","NA","2000.0","1039","1682","2000","NA","2","legacy","5","1024","2","48000","-16","experiment","1","odd","1","658720","630459","652516","3497","78806","652517","651436","3519","77124","654719","656720","653518","4558","656720","NA","Sternberg task","82","92480.0","106","1024"
"76","76","869","869","#3d3846","experiment","legacy","legacy","legacy","0","undefined","0","left","106","106","106","0","0","106","106","0","0","106","106","106","0","106","0","Sun Oct 15 08:25:54 2023","The main experiment item","False","Sternbergtask.osexp","C:/Users/User/Desktop","False","mono","False","18","no","white","no","yes","768","legacy","94","11","C:/Users/User/Desktop/subject-1.csv","legacy","3 4 9 6 2 9","Melodramatic Milgram","4.0.5","5","y","0","right","left","right","right","NA","521.0","1039","1682","521","NA","2","legacy","6","1024","2","48000","-16","experiment","1","odd","2","664537","630459","659812","3497","78806","659813","658727","3519","77124","662015","664016","660814","4558","664016","NA","Sternberg task","82","93001.0","107","1024"
"76","76","864","864","#3d3846","experiment","legacy","legacy","legacy","1","undefined","1","left","107","107","107","0","0","107","107","0","0","107","107","107","0","107","0","Sun Oct 15 08:25:54 2023","The main experiment item","False","Sternbergtask.osexp","C:/Users/User/Desktop","False","mono","False","18","no","white","no","yes","768","legacy","95","11","C:/Users/User/Desktop/subject-1.csv","legacy","2 4 8 5 1 3","Melodramatic Milgram","4.0.5","1","y","0","left","left","right","left","NA","393.0","1039","1682","393","NA","2","legacy","6","1024","2","48000","-16","experiment","1","odd","2","670222","630459","665624","3497","78806","665625","664544","3519","77124","667827","669829","666626","4558","669828","NA","Sternberg task","83","93394.0","108","1024"
"77","77","863","863","#3d3846","experiment","legacy","legacy","legacy","1","undefined","1","left","108","108","108","0","0","108","108","0","0","108","108","108","0","108","0","Sun Oct 15 08:25:54 2023","The main experiment item","False","Sternbergtask.osexp","C:/Users/User/Desktop","False","mono","False","18","no","white","no","yes","768","legacy","96","11","C:/Users/User/Desktop/subject-1.csv","legacy","9 5 3 8 4","Melodramatic Milgram","4.0.5","1","y","0","left","left","right","left","NA","696.0","1039","1682","696","NA","2","legacy","5","1024","2","48000","-16","experiment","1","odd","9","676206","670229","671305","3497","78806","671307","664544","3519","77124","673509","675510","672308","4558","675510","NA","Sternberg task","84","94090.0","109","1024"
"77","77","859","859","#3d3846","experiment","legacy","legacy","legacy","1","undefined","1","right","109","109","109","0","0","109","109","0","0","109","109","109","0","109","0","Sun Oct 15 08:25:54 2023","The main experiment item","False","Sternbergtask.osexp","C:/Users/User/Desktop","False","mono","False","18","no","white","no","yes","768","legacy","97","11","C:/Users/User/Desktop/subject-1.csv","legacy","8 5 7 3 6","Melodramatic Milgram","4.0.5","0","n","0","right","left","right","right","NA","442.0","1039","1682","442","NA","2","legacy","5","1024","2","48000","-16","experiment","1","odd","9","681946","676213","677299","3497","78806","677300","664544","3519","77124","679502","681503","678301","4558","681503","NA","Sternberg task","85","94532.0","110","1024"
"76","76","856","856","#3d3846","experiment","legacy","legacy","legacy","0","undefined","0","right","110","110","110","0","0","110","110","0","0","110","110","110","0","110","0","Sun Oct 15 08:25:54 2023","The main experiment item","False","Sternbergtask.osexp","C:/Users/User/Desktop","False","mono","False","18","no","white","no","yes","768","legacy","98","11","C:/Users/User/Desktop/subject-1.csv","legacy","1 3 2 6 9","Melodramatic Milgram","4.0.5","0","n","0","left","left","right","left","NA","594.0","1039","1682","594","NA","2","legacy","5","1024","2","48000","-16","experiment","1","odd","5","687830","681952","683031","3497","78806","683032","664544","3519","77124","685234","687235","684033","4558","687235","NA","Sternberg task","85","95126.0","111","1024"
"75","75","854","854","#3d3846","experiment","legacy","legacy","legacy","0","undefined","0","right","111","111","111","0","0","111","111","0","0","111","111","111","0","111","0","Sun Oct 15 08:25:54 2023","The main experiment item","False","Sternbergtask.osexp","C:/Users/User/Desktop","False","mono","False","18","no","white","no","yes","768","legacy","99","11","C:/Users/User/Desktop/subject-1.csv","legacy","9","Melodramatic Milgram","4.0.5","0","n","0","left","left","right","left","NA","571.0","1039","1682","571","NA","2","legacy","1","1024","2","48000","-16","experiment","1","odd","6","693694","681952","688916","3497","78806","688917","687837","3519","77124","691119","693122","689918","4558","693120","NA","Sternberg task","85","95697.0","112","1024"
"75","75","853","853","#3d3846","experiment","legacy","legacy","legacy","0","undefined","0","right","112","112","112","0","0","112","112","0","0","112","112","112","0","112","0","Sun Oct 15 08:25:54 2023","The main experiment item","False","Sternbergtask.osexp","C:/Users/User/Desktop","False","mono","False","18","no","white","no","yes","768","legacy","100","11","C:/Users/User/Desktop/subject-1.csv","legacy","8 6 3 4 7","Melodramatic Milgram","4.0.5","0","n","0","left","left","right","left","NA","795.0","1039","1682","795","NA","2","legacy","5","1024","2","48000","-16","experiment","1","odd","1","699786","681952","694785","3497","78806","694786","693700","3519","77124","696988","698990","695787","4558","698989","NA","Sternberg task","85","96492.0","113","1024"
"74","74","851","851","#3d3846","experiment","legacy","legacy","legacy","0","undefined","0","left","113","113","113","0","0","113","113","0","0","113","113","113","0","113","0","Sun Oct 15 08:25:54 2023","The main experiment item","False","Sternbergtask.osexp","C:/Users/User/Desktop","False","mono","False","18","no","white","no","yes","768","legacy","101","11","C:/Users/User/Desktop/subject-1.csv","legacy","3 9 7 6 4","Melodramatic Milgram","4.0.5","3","y","0","right","left","right","right","NA","577.0","1039","1682","577","NA","2","legacy","5","1024","2","48000","-16","experiment","1","odd","7","705650","681952","700867","3497","78806","700868","699793","3519","77124","703071","705073","701869","4558","705072","NA","Sternberg task","85","97069.0","114","1024"
"74","74","850","850","#3d3846","experiment","legacy","legacy","legacy","1","undefined","1","left","114","114","114","0","0","114","114","0","0","114","114","114","0","114","0","Sun Oct 15 08:25:54 2023","The main experiment item","False","Sternbergtask.osexp","C:/Users/User/Desktop","False","mono","False","18","no","white","no","yes","768","legacy","102","11","C:/Users/User/Desktop/subject-1.csv","legacy","5 7 8 2 3 8","Melodramatic Milgram","4.0.5","5","y","0","left","left","right","left","NA","685.0","1039","1682","685","NA","2","legacy","6","1024","2","48000","-16","experiment","1","odd","3","711635","681952","706744","3497","78806","706745","705657","3519","77124","708947","710949","707746","4558","710948","NA","Sternberg task","86","97754.0","115","1024"
"75","75","856","856","#3d3846","experiment","legacy","legacy","legacy","1","undefined","1","right","115","115","115","0","0","115","115","0","0","115","115","115","0","115","0","Sun Oct 15 08:25:54 2023","The main experiment item","False","Sternbergtask.osexp","C:/Users/User/Desktop","False","mono","False","18","no","white","no","yes","768","legacy","103","11","C:/Users/User/Desktop/subject-1.csv","legacy","8 4 3 5","Melodramatic Milgram","4.0.5","0","n","0","right","left","right","right","NA","1546.0","1039","1682","1546","NA","2","legacy","4","1024","2","48000","-16","experiment","1","odd","6","718472","711642","712722","3497","78806","712722","705657","3519","77124","714925","716926","713724","4558","716926","NA","Sternberg task","87","99300.0","116","1024"
"74","74","865","865","#3d3846","experiment","legacy","legacy","legacy","0","undefined","0","right","116","116","116","0","0","116","116","0","0","116","116","116","0","116","0","Sun Oct 15 08:25:54 2023","The main experiment item","False","Sternbergtask.osexp","C:/Users/User/Desktop","False","mono","False","18","no","white","no","yes","768","legacy","104","11","C:/Users/User/Desktop/subject-1.csv","legacy","7 1","Melodramatic Milgram","4.0.5","0","n","0","None","left","right","None","NA","2000.0","1039","1682","2000","NA","2","legacy","2","1024","2","48000","-16","experiment","1","odd","8","725760","718479","719556","3497","78806","719557","705657","3519","77124","721759","723760","720558","4558","723760","NA","Sternberg task","87","101300.0","117","1024"
"74","74","864","864","#3d3846","experiment","legacy","legacy","legacy","1","undefined","1","right","117","117","117","0","0","117","117","0","0","117","117","117","0","117","0","Sun Oct 15 08:25:54 2023","The main experiment item","False","Sternbergtask.osexp","C:/Users/User/Desktop","False","mono","False","18","no","white","no","yes","768","legacy","105","11","C:/Users/User/Desktop/subject-1.csv","legacy","2 5 1 4","Melodramatic Milgram","4.0.5","0","n","0","right","left","right","right","NA","717.0","1039","1682","717","NA","2","legacy","4","1024","2","48000","-16","experiment","1","odd","6","731762","718479","726842","3497","78806","726842","725766","3519","77124","729044","731045","727843","4558","731045","NA","Sternberg task","88","102017.0","118","1024"
"73","73","874","874","#3d3846","experiment","legacy","legacy","legacy","0","undefined","0","right","118","118","118","0","0","118","118","0","0","118","118","118","0","118","0","Sun Oct 15 08:25:54 2023","The main experiment item","False","Sternbergtask.osexp","C:/Users/User/Desktop","False","mono","False","18","no","white","no","yes","768","legacy","106","11","C:/Users/User/Desktop/subject-1.csv","legacy","5 7 3","Melodramatic Milgram","4.0.5","0","n","0","None","left","right","None","NA","2000.0","1039","1682","2000","NA","2","legacy","3","1024","2","48000","-16","experiment","1","odd","9","739052","731769","732848","3497","78806","732849","725766","3519","77124","735051","737052","733850","4558","737052","NA","Sternberg task","88","104017.0","119","1024"
"73","73","883","883","#3d3846","experiment","legacy","legacy","legacy","0","undefined","0","right","119","119","119","0","0","119","119","0","0","119","119","119","0","119","0","Sun Oct 15 08:25:54 2023","The main experiment item","False","Sternbergtask.osexp","C:/Users/User/Desktop","False","mono","False","18","no","white","no","yes","768","legacy","107","11","C:/Users/User/Desktop/subject-1.csv","legacy","1 4 9 3","Melodramatic Milgram","4.0.5","0","n","0","None","left","right","None","NA","2000.0","1039","1682","2000","NA","2","legacy","4","1024","2","48000","-16","experiment","1","odd","5","746343","731769","740139","3497","78806","740139","739058","3519","77124","742341","744343","741140","4558","744342","NA","Sternberg task","88","106017.0","120","1024"
"72","72","892","892","#3d3846","experiment","legacy","legacy","legacy","0","undefined","0","left","120","120","120","0","0","120","120","0","0","120","120","120","0","120","0","Sun Oct 15 08:25:54 2023","The main experiment item","False","Sternbergtask.osexp","C:/Users/User/Desktop","False","mono","False","18","no","white","no","yes","768","legacy","108","11","C:/Users/User/Desktop/subject-1.csv","legacy","7","Melodramatic Milgram","4.0.5","1","y","0","None","left","right","None","NA","2000.0","1039","1682","2000","NA","2","legacy","1","1024","2","48000","-16","experiment","1","odd","7","753631","731769","747427","3497","78806","747428","746350","3519","77124","749630","751631","748429","4558","751631","NA","Sternberg task","88","108017.0","121","1024"
"72","72","894","894","#3d3846","experiment","legacy","legacy","legacy","1","undefined","1","right","121","121","121","0","0","121","121","0","0","121","121","121","0","121","0","Sun Oct 15 08:25:54 2023","The main experiment item","False","Sternbergtask.osexp","C:/Users/User/Desktop","False","mono","False","18","no","white","no","yes","768","legacy","109","11","C:/Users/User/Desktop/subject-1.csv","legacy","6 9 4 5 2","Melodramatic Milgram","4.0.5","0","n","0","right","left","right","right","NA","1166.0","1039","1682","1166","NA","2","legacy","5","1024","2","48000","-16","experiment","1","odd","1","760092","731769","754721","3497","78806","754722","753638","3519","77124","756924","758925","755723","4558","758925","NA","Sternberg task","89","109183.0","122","1024"
"72","72","903","903","#3d3846","experiment","legacy","legacy","legacy","0","undefined","0","left","122","122","122","0","0","122","122","0","0","122","122","122","0","122","0","Sun Oct 15 08:25:54 2023","The main experiment item","False","Sternbergtask.osexp","C:/Users/User/Desktop","False","mono","False","18","no","white","no","yes","768","legacy","110","11","C:/Users/User/Desktop/subject-1.csv","legacy","7 1 8 5 6 2","Melodramatic Milgram","4.0.5","2","y","0","None","left","right","None","NA","2000.0","1039","1682","2000","NA","2","legacy","6","1024","2","48000","-16","experiment","1","odd","1","767382","760099","761178","3497","78806","761179","753638","3519","77124","763381","765382","762180","4558","765382","NA","Sternberg task","89","111183.0","123","1024"
"71","71","912","912","#3d3846","experiment","legacy","legacy","legacy","0","undefined","0","right","123","123","123","0","0","123","123","0","0","123","123","123","0","123","0","Sun Oct 15 08:25:54 2023","The main experiment item","False","Sternbergtask.osexp","C:/Users/User/Desktop","False","mono","False","18","no","white","no","yes","768","legacy","111","11","C:/Users/User/Desktop/subject-1.csv","legacy","7 1 5 6 3","Melodramatic Milgram","4.0.5","0","n","0","None","left","right","None","NA","2000.0","1039","1682","2000","NA","2","legacy","5","1024","2","48000","-16","experiment","1","odd","8","774677","760099","768474","3497","78806","768474","767388","3519","77124","770676","772677","769475","4558","772677","NA","Sternberg task","89","113183.0","124","1024"
"71","71","921","921","#3d3846","experiment","legacy","legacy","legacy","0","undefined","0","left","124","124","124","0","0","124","124","0","0","124","124","124","0","124","0","Sun Oct 15 08:25:54 2023","The main experiment item","False","Sternbergtask.osexp","C:/Users/User/Desktop","False","mono","False","18","no","white","no","yes","768","legacy","112","11","C:/Users/User/Desktop/subject-1.csv","legacy","9 6 2 4 1","Melodramatic Milgram","4.0.5","4","y","0","None","left","right","None","NA","2000.0","1039","1682","2000","NA","2","legacy","5","1024","2","48000","-16","experiment","1","odd","4","781961","760099","775757","3497","78806","775758","774680","3519","77124","777960","779961","776759","4558","779961","NA","Sternberg task","89","115183.0","125","1024"
"70","70","921","921","#3d3846","experiment","legacy","legacy","legacy","0","undefined","0","right","125","125","125","0","0","125","125","0","0","125","125","125","0","125","0","Sun Oct 15 08:25:54 2023","The main experiment item","False","Sternbergtask.osexp","C:/Users/User/Desktop","False","mono","False","18","no","white","no","yes","768","legacy","113","11","C:/Users/User/Desktop/subject-1.csv","legacy","4 2 6 9","Melodramatic Milgram","4.0.5","0","n","0","left","left","right","left","NA","937.0","1039","1682","937","NA","2","legacy","4","1024","2","48000","-16","experiment","1","odd","7","788185","760099","783043","3497","78806","783043","781967","3519","77124","785245","787246","784044","4558","787246","NA","Sternberg task","89","116120.0","126","1024"
"70","70","930","930","#3d3846","experiment","legacy","legacy","legacy","0","undefined","0","right","126","126","126","0","0","126","126","0","0","126","126","126","0","126","0","Sun Oct 15 08:25:54 2023","The main experiment item","False","Sternbergtask.osexp","C:/Users/User/Desktop","False","mono","False","18","no","white","no","yes","768","legacy","114","11","C:/Users/User/Desktop/subject-1.csv","legacy","7 8 6 1","Melodramatic Milgram","4.0.5","0","n","0","None","left","right","None","NA","2000.0","1039","1682","2000","NA","2","legacy","4","1024","2","48000","-16","experiment","1","odd","3","795475","760099","789271","3497","78806","789272","788191","3519","77124","791474","793475","790273","4558","793475","NA","Sternberg task","89","118120.0","127","1024"
"69","69","938","938","#3d3846","experiment","legacy","legacy","legacy","0","undefined","0","left","127","127","127","0","0","127","127","0","0","127","127","127","0","127","0","Sun Oct 15 08:25:54 2023","The main experiment item","False","Sternbergtask.osexp","C:/Users/User/Desktop","False","mono","False","18","no","white","no","yes","768","legacy","115","11","C:/Users/User/Desktop/subject-1.csv","legacy","8 9 5 6 7","Melodramatic Milgram","4.0.5","1","y","0","None","left","right","None","NA","2000.0","1039","1682","2000","NA","2","legacy","5","1024","2","48000","-16","experiment","1","odd","8","802764","760099","796559","3497","78806","796560","795482","3519","77124","798763","800764","797562","4558","800764","NA","Sternberg task","89","120120.0","128","1024"
"68","68","946","946","#3d3846","experiment","legacy","legacy","legacy","0","undefined","0","right","128","128","128","0","0","128","128","0","0","128","128","128","0","128","0","Sun Oct 15 08:25:54 2023","The main experiment item","False","Sternbergtask.osexp","C:/Users/User/Desktop","False","mono","False","18","no","white","no","yes","768","legacy","116","11","C:/Users/User/Desktop/subject-1.csv","legacy","4 8 1 2","Melodramatic Milgram","4.0.5","0","n","0","None","left","right","None","NA","2000.0","1039","1682","2000","NA","2","legacy","4","1024","2","48000","-16","experiment","1","odd","7","810055","760099","803851","3497","78806","803852","802772","3519","77124","806054","808055","804853","4558","808055","NA","Sternberg task","89","122120.0","129","1024"
