"acc","accuracy","average_response_time","avg_rt","background","block","canvas_backend","clock_backend","color_backend","correct","correct_instruction1","correct_new_keyboard_response","correct_response","count_ISI","count_correctFeedback","count_expSequence","count_experiment","count_experimentLoop","count_fixation","count_incorrectFeedback","count_instruction1","count_instructions2","count_memorySet","count_new_keyboard_response","count_new_logger","count_practiceLoop","count_probe","count_thankYou","datetime","description","disable_garbage_collection","experiment_file","experiment_path","font_bold","font_family","font_italic","font_size","font_underline","foreground","form_clicks","fullscreen","height","keyboard_backend","live_row","live_row_practiceLoop","logfile","mouse_backend","numberSet","opensesame_codename","opensesame_version","posInSet","present","repeat_cycle","response","response_instruction1","response_instructions2","response_new_keyboard_response","response_thankYou","response_time","response_time_instruction1","response_time_instructions2","response_time_new_keyboard_response","response_time_thankYou","round_decimals","sampler_backend","setSize","sound_buf_size","sound_channels","sound_freq","sound_sample_size","start","subject_nr","subject_parity","target","time_ISI","time_correctFeedback","time_expSequence","time_experiment","time_experimentLoop","time_fixation","time_incorrectFeedback","time_instruction1","time_instructions2","time_memorySet","time_new_keyboard_response","time_new_logger","time_practiceLoop","time_probe","time_thankYou","title","total_correct","total_response_time","total_responses","width"
"0","0","2000","2000","black","practice","legacy","legacy","legacy","0","undefined","0","left","0","0","0","0","0","0","0","0","0","0","0","0","0","0","0","Tue Oct 17 16:23:19 2023","The main experiment item","True","SternbergTask.osexp","/Users/test/Desktop","False","mono","False","18","no","white","no","yes","768","legacy","0","0","/Users/test/Desktop/AT-subject-3.csv","legacy","4 8","Melodramatic Milgram","4.0.5","1","y","0","None","right","NA","None","NA","2000.0","73722","NA","2000","NA","2","legacy","2","1024","2","48000","-16","experiment","3","odd","4","82180","NA","79915","4503","NA","79957","NA","4613","NA","80977","84183","86183","78417","84183","NA","Sternberg Task","0","2000.0","1","1024"
"50","50","1477","1477","black","practice","legacy","legacy","legacy","1","undefined","1","left","1","1","1","0","0","1","1","0","0","1","1","1","0","1","0","Tue Oct 17 16:23:19 2023","The main experiment item","True","SternbergTask.osexp","/Users/test/Desktop","False","mono","False","18","no","white","no","yes","768","legacy","1","1","/Users/test/Desktop/AT-subject-3.csv","legacy","1 7 9 8 5","Melodramatic Milgram","4.0.5","4","y","0","left","right","NA","left","NA","955.0","73722","NA","955","NA","2","legacy","5","1024","2","48000","-16","experiment","3","odd","8","89483","NA","87276","4503","NA","87278","86218","4613","NA","88280","91487","92443","78417","91487","NA","Sternberg Task","1","2955.0","2","1024"
"66","66","1360","1360","black","practice","legacy","legacy","legacy","1","undefined","1","right","2","2","2","0","0","2","2","0","0","2","2","2","0","2","0","Tue Oct 17 16:23:19 2023","The main experiment item","True","SternbergTask.osexp","/Users/test/Desktop","False","mono","False","18","no","white","no","yes","768","legacy","2","2","/Users/test/Desktop/AT-subject-3.csv","legacy","5 7 8 4 1 2","Melodramatic Milgram","4.0.5","0","n","0","right","right","NA","right","NA","1127.0","73722","NA","1127","NA","2","legacy","6","1024","2","48000","-16","experiment","3","odd","6","95713","92446","93505","4503","NA","93507","86218","4613","NA","94510","97716","98844","78417","97716","NA","Sternberg Task","2","4082.0","3","1024"
"50","50","1520","1520","black","practice","legacy","legacy","legacy","0","undefined","0","right","3","3","3","0","0","3","3","0","0","3","3","3","0","3","0","Tue Oct 17 16:23:19 2023","The main experiment item","True","SternbergTask.osexp","/Users/test/Desktop","False","mono","False","18","no","white","no","yes","768","legacy","3","3","/Users/test/Desktop/AT-subject-3.csv","legacy","5","Melodramatic Milgram","4.0.5","0","n","0","None","right","NA","None","NA","2000.0","73722","NA","2000","NA","2","legacy","1","1024","2","48000","-16","experiment","3","odd","3","102109","98849","99899","4503","NA","99902","86218","4613","NA","100906","104112","106112","78417","104112","NA","Sternberg Task","2","6082.0","4","1024"
"60","60","1228","1228","black","practice","legacy","legacy","legacy","1","undefined","1","right","4","4","4","0","0","4","4","0","0","4","4","4","0","4","0","Tue Oct 17 16:23:19 2023","The main experiment item","True","SternbergTask.osexp","/Users/test/Desktop","False","mono","False","18","no","white","no","yes","768","legacy","4","4","/Users/test/Desktop/AT-subject-3.csv","legacy","4 1 5","Melodramatic Milgram","4.0.5","0","n","0","right","right","NA","right","NA","61.0","73722","NA","61","NA","2","legacy","3","1024","2","48000","-16","experiment","3","odd","2","109376","98849","107167","4503","NA","107170","106115","4613","NA","108174","111380","111442","78417","111380","NA","Sternberg Task","3","6143.0","5","1024"
"66","66","1228","1228","black","practice","legacy","legacy","legacy","1","undefined","1","right","5","5","5","0","0","5","5","0","0","5","5","5","0","5","0","Tue Oct 17 16:23:19 2023","The main experiment item","True","SternbergTask.osexp","/Users/test/Desktop","False","mono","False","18","no","white","no","yes","768","legacy","5","5","/Users/test/Desktop/AT-subject-3.csv","legacy","9 6 7 4 5","Melodramatic Milgram","4.0.5","0","n","0","right","right","NA","right","NA","1227.0","73722","NA","1227","NA","2","legacy","5","1024","2","48000","-16","experiment","3","odd","3","114709","111445","112500","4503","NA","112502","106115","4613","NA","113506","116713","117940","78417","116713","NA","Sternberg Task","4","7370.0","6","1024"
"71","71","1211","1211","black","practice","legacy","legacy","legacy","1","undefined","1","left","6","6","6","0","0","6","6","0","0","6","6","6","0","6","0","Tue Oct 17 16:23:19 2023","The main experiment item","True","SternbergTask.osexp","/Users/test/Desktop","False","mono","False","18","no","white","no","yes","768","legacy","6","6","/Users/test/Desktop/AT-subject-3.csv","legacy","4 3 1 7 9 8","Melodramatic Milgram","4.0.5","1","y","0","left","right","NA","left","NA","1107.0","73722","NA","1107","NA","2","legacy","6","1024","2","48000","-16","experiment","3","odd","4","121216","117944","119007","4503","NA","119009","106115","4613","NA","120013","123220","124328","78417","123220","NA","Sternberg Task","5","8477.0","7","1024"
"75","75","1206","1206","black","practice","legacy","legacy","legacy","1","undefined","1","right","7","7","7","0","0","7","7","0","0","7","7","7","0","7","0","Tue Oct 17 16:23:19 2023","The main experiment item","True","SternbergTask.osexp","/Users/test/Desktop","False","mono","False","18","no","white","no","yes","768","legacy","7","7","/Users/test/Desktop/AT-subject-3.csv","legacy","2 1","Melodramatic Milgram","4.0.5","0","n","0","right","right","NA","right","NA","1177.0","73722","NA","1177","NA","2","legacy","2","1024","2","48000","-16","experiment","3","odd","5","127588","124332","125379","4503","NA","125382","106115","4613","NA","126384","129592","130770","78417","129592","NA","Sternberg Task","6","9654.0","8","1024"
"66","66","1150","1150","black","practice","legacy","legacy","legacy","0","undefined","0","left","8","8","8","0","0","8","8","0","0","8","8","8","0","8","0","Tue Oct 17 16:23:19 2023","The main experiment item","True","SternbergTask.osexp","/Users/test/Desktop","False","mono","False","18","no","white","no","yes","768","legacy","8","8","/Users/test/Desktop/AT-subject-3.csv","legacy","6","Melodramatic Milgram","4.0.5","1","y","0","right","right","NA","right","NA","701.0","73722","NA","701","NA","2","legacy","1","1024","2","48000","-16","experiment","3","odd","6","134025","130773","131816","4503","NA","131819","106115","4613","NA","132822","136028","136730","78417","136028","NA","Sternberg Task","6","10355.0","9","1024"
"70","70","1049","1049","black","practice","legacy","legacy","legacy","1","undefined","1","left","9","9","9","0","0","9","9","0","0","9","9","9","0","9","0","Tue Oct 17 16:23:19 2023","The main experiment item","True","SternbergTask.osexp","/Users/test/Desktop","False","mono","False","18","no","white","no","yes","768","legacy","9","9","/Users/test/Desktop/AT-subject-3.csv","legacy","2 9 4","Melodramatic Milgram","4.0.5","3","y","0","left","right","NA","left","NA","140.0","73722","NA","140","NA","2","legacy","3","1024","2","48000","-16","experiment","3","odd","4","139994","130773","137785","4503","NA","137788","136733","4613","NA","138791","141998","142138","78417","141997","NA","Sternberg Task","7","10495.0","10","1024"
"63","63","1028","1028","black","practice","legacy","legacy","legacy","0","undefined","0","left","10","10","10","0","0","10","10","0","0","10","10","10","0","10","0","Tue Oct 17 16:23:19 2023","The main experiment item","True","SternbergTask.osexp","/Users/test/Desktop","False","mono","False","18","no","white","no","yes","768","legacy","10","10","/Users/test/Desktop/AT-subject-3.csv","legacy","1 5 2 9","Melodramatic Milgram","4.0.5","2","y","0","right","right","NA","right","NA","819.0","73722","NA","819","NA","2","legacy","4","1024","2","48000","-16","experiment","3","odd","5","145399","142142","143191","4503","NA","143193","136733","4613","NA","144197","147402","148222","78417","147402","NA","Sternberg Task","7","11314.0","11","1024"
"66","66","1010","1010","black","practice","legacy","legacy","legacy","1","undefined","1","right","11","11","11","0","0","11","11","0","0","11","11","11","0","11","0","Tue Oct 17 16:23:19 2023","The main experiment item","True","SternbergTask.osexp","/Users/test/Desktop","False","mono","False","18","no","white","no","yes","768","legacy","11","11","/Users/test/Desktop/AT-subject-3.csv","legacy","3 1 9 4","Melodramatic Milgram","4.0.5","0","n","0","right","right","NA","right","NA","810.0","73722","NA","810","NA","2","legacy","4","1024","2","48000","-16","experiment","3","odd","6","151493","142142","149284","4503","NA","149287","148226","4613","NA","150289","153496","154307","78417","153495","NA","Sternberg Task","8","12124.0","12","1024"
"69","69","990","990","black","experiment","legacy","legacy","legacy","1","undefined","1","right","12","12","12","0","0","12","12","0","0","12","12","12","0","12","0","Tue Oct 17 16:23:19 2023","The main experiment item","True","SternbergTask.osexp","/Users/test/Desktop","False","mono","False","18","no","white","no","yes","768","legacy","0","11","/Users/test/Desktop/AT-subject-3.csv","legacy","8 4 3 5","Melodramatic Milgram","4.0.5","0","n","0","right","right","up","right","NA","757.0","73722","13574","757","NA","2","legacy","4","1024","2","48000","-16","experiment","3","odd","6","171187","154311","168974","4503","168890","168979","148226","4613","155315","169983","173190","173948","78417","173190","NA","Sternberg Task","9","12881.0","13","1024"
"71","71","973","973","black","experiment","legacy","legacy","legacy","1","undefined","1","left","13","13","13","0","0","13","13","0","0","13","13","13","0","13","0","Tue Oct 17 16:23:19 2023","The main experiment item","True","SternbergTask.osexp","/Users/test/Desktop","False","mono","False","18","no","white","no","yes","768","legacy","1","11","/Users/test/Desktop/AT-subject-3.csv","legacy","6 7 9 3 1 2","Melodramatic Milgram","4.0.5","1","y","0","left","right","up","left","NA","744.0","73722","13574","744","NA","2","legacy","6","1024","2","48000","-16","experiment","3","odd","6","177201","173951","174992","4503","168890","174994","148226","4613","155315","175998","179204","179949","78417","179204","NA","Sternberg Task","10","13625.0","14","1024"
"73","73","976","976","black","experiment","legacy","legacy","legacy","1","undefined","1","left","14","14","14","0","0","14","14","0","0","14","14","14","0","14","0","Tue Oct 17 16:23:19 2023","The main experiment item","True","SternbergTask.osexp","/Users/test/Desktop","False","mono","False","18","no","white","no","yes","768","legacy","2","11","/Users/test/Desktop/AT-subject-3.csv","legacy","8 5 4 7 3 1","Melodramatic Milgram","4.0.5","2","y","0","left","right","up","left","NA","1016.0","73722","13574","1016","NA","2","legacy","6","1024","2","48000","-16","experiment","3","odd","5","183210","179952","181001","4503","168890","181004","148226","4613","155315","182007","185213","186230","78417","185212","NA","Sternberg Task","11","14641.0","15","1024"
"75","75","968","968","black","experiment","legacy","legacy","legacy","1","undefined","1","right","15","15","15","0","0","15","15","0","0","15","15","15","0","15","0","Tue Oct 17 16:23:19 2023","The main experiment item","True","SternbergTask.osexp","/Users/test/Desktop","False","mono","False","18","no","white","no","yes","768","legacy","3","11","/Users/test/Desktop/AT-subject-3.csv","legacy","2 3 8 5 6 7","Melodramatic Milgram","4.0.5","0","n","0","right","right","up","right","NA","847.0","73722","13574","847","NA","2","legacy","6","1024","2","48000","-16","experiment","3","odd","1","189503","186234","187293","4503","168890","187297","148226","4613","155315","188299","191507","192355","78417","191507","NA","Sternberg Task","12","15488.0","16","1024"
"76","76","942","942","black","experiment","legacy","legacy","legacy","1","undefined","1","left","16","16","16","0","0","16","16","0","0","16","16","16","0","16","0","Tue Oct 17 16:23:19 2023","The main experiment item","True","SternbergTask.osexp","/Users/test/Desktop","False","mono","False","18","no","white","no","yes","768","legacy","4","11","/Users/test/Desktop/AT-subject-3.csv","legacy","2 8 5 1","Melodramatic Milgram","4.0.5","4","y","0","left","right","up","left","NA","528.0","73722","13574","528","NA","2","legacy","4","1024","2","48000","-16","experiment","3","odd","1","195608","192359","193400","4503","168890","193403","148226","4613","155315","194405","197611","198140","78417","197610","NA","Sternberg Task","13","16016.0","17","1024"
"77","77","932","932","black","experiment","legacy","legacy","legacy","1","undefined","1","right","17","17","17","0","0","17","17","0","0","17","17","17","0","17","0","Tue Oct 17 16:23:19 2023","The main experiment item","True","SternbergTask.osexp","/Users/test/Desktop","False","mono","False","18","no","white","no","yes","768","legacy","5","11","/Users/test/Desktop/AT-subject-3.csv","legacy","1 7 8 3 9","Melodramatic Milgram","4.0.5","0","n","0","right","right","up","right","NA","772.0","73722","13574","772","NA","2","legacy","5","1024","2","48000","-16","experiment","3","odd","2","201396","198143","199187","4503","168890","199191","148226","4613","155315","200194","203399","204172","78417","203398","NA","Sternberg Task","14","16788.0","18","1024"
"78","78","923","923","black","experiment","legacy","legacy","legacy","1","undefined","1","left","18","18","18","0","0","18","18","0","0","18","18","18","0","18","0","Tue Oct 17 16:23:19 2023","The main experiment item","True","SternbergTask.osexp","/Users/test/Desktop","False","mono","False","18","no","white","no","yes","768","legacy","6","11","/Users/test/Desktop/AT-subject-3.csv","legacy","4 3 2 5 8","Melodramatic Milgram","4.0.5","2","y","0","left","right","up","left","NA","757.0","73722","13574","757","NA","2","legacy","5","1024","2","48000","-16","experiment","3","odd","3","207432","204176","205224","4503","168890","205227","148226","4613","155315","206230","209436","210194","78417","209435","NA","Sternberg Task","15","17545.0","19","1024"
"75","75","910","910","black","experiment","legacy","legacy","legacy","0","undefined","0","left","19","19","19","0","0","19","19","0","0","19","19","19","0","19","0","Tue Oct 17 16:23:19 2023","The main experiment item","True","SternbergTask.osexp","/Users/test/Desktop","False","mono","False","18","no","white","no","yes","768","legacy","7","11","/Users/test/Desktop/AT-subject-3.csv","legacy","5 7 3 6 2","Melodramatic Milgram","4.0.5","5","y","0","right","right","up","right","NA","665.0","73722","13574","665","NA","2","legacy","5","1024","2","48000","-16","experiment","3","odd","2","213460","210198","211250","4503","168890","211253","148226","4613","155315","212257","215463","216129","78417","215463","NA","Sternberg Task","15","18210.0","20","1024"
"76","76","907","907","black","experiment","legacy","legacy","legacy","1","undefined","1","right","20","20","20","0","0","20","20","0","0","20","20","20","0","20","0","Tue Oct 17 16:23:19 2023","The main experiment item","True","SternbergTask.osexp","/Users/test/Desktop","False","mono","False","18","no","white","no","yes","768","legacy","8","11","/Users/test/Desktop/AT-subject-3.csv","legacy","1 6 4","Melodramatic Milgram","4.0.5","0","n","0","right","right","up","right","NA","845.0","73722","13574","845","NA","2","legacy","3","1024","2","48000","-16","experiment","3","odd","7","219390","210198","217182","4503","168890","217184","216134","4613","155315","218188","221393","222240","78417","221392","NA","Sternberg Task","16","19055.0","21","1024"
"77","77","911","911","black","experiment","legacy","legacy","legacy","1","undefined","1","right","21","21","21","0","0","21","21","0","0","21","21","21","0","21","0","Tue Oct 17 16:23:19 2023","The main experiment item","True","SternbergTask.osexp","/Users/test/Desktop","False","mono","False","18","no","white","no","yes","768","legacy","9","11","/Users/test/Desktop/AT-subject-3.csv","legacy","7 3 2 8","Melodramatic Milgram","4.0.5","0","n","0","right","right","up","right","NA","988.0","73722","13574","988","NA","2","legacy","4","1024","2","48000","-16","experiment","3","odd","4","225524","222244","223314","4503","168890","223317","216134","4613","155315","224319","227527","228522","78417","227526","NA","Sternberg Task","17","20043.0","22","1024"
"78","78","914","914","black","experiment","legacy","legacy","legacy","1","undefined","1","left","22","22","22","0","0","22","22","0","0","22","22","22","0","22","0","Tue Oct 17 16:23:19 2023","The main experiment item","True","SternbergTask.osexp","/Users/test/Desktop","False","mono","False","18","no","white","no","yes","768","legacy","10","11","/Users/test/Desktop/AT-subject-3.csv","legacy","4 1 5","Melodramatic Milgram","4.0.5","2","y","0","left","right","up","left","NA","998.0","73722","13574","998","NA","2","legacy","3","1024","2","48000","-16","experiment","3","odd","1","231781","228531","229572","4503","168890","229575","216134","4613","155315","230578","233784","234783","78417","233784","NA","Sternberg Task","18","21041.0","23","1024"
"79","79","911","911","black","experiment","legacy","legacy","legacy","1","undefined","1","left","23","23","23","0","0","23","23","0","0","23","23","23","0","23","0","Tue Oct 17 16:23:19 2023","The main experiment item","True","SternbergTask.osexp","/Users/test/Desktop","False","mono","False","18","no","white","no","yes","768","legacy","11","11","/Users/test/Desktop/AT-subject-3.csv","legacy","6 1 2","Melodramatic Milgram","4.0.5","3","y","0","left","right","up","left","NA","839.0","73722","13574","839","NA","2","legacy","3","1024","2","48000","-16","experiment","3","odd","2","238043","234786","235834","4503","168890","235837","216134","4613","155315","236840","240046","240886","78417","240045","NA","Sternberg Task","19","21880.0","24","1024"
"80","80","903","903","black","experiment","legacy","legacy","legacy","1","undefined","1","left","24","24","24","0","0","24","24","0","0","24","24","24","0","24","0","Tue Oct 17 16:23:19 2023","The main experiment item","True","SternbergTask.osexp","/Users/test/Desktop","False","mono","False","18","no","white","no","yes","768","legacy","12","11","/Users/test/Desktop/AT-subject-3.csv","legacy","7 8 6 3 1","Melodramatic Milgram","4.0.5","5","y","0","left","right","up","left","NA","695.0","73722","13574","695","NA","2","legacy","5","1024","2","48000","-16","experiment","3","odd","1","244147","240890","241938","4503","168890","241941","216134","4613","155315","242944","246150","246846","78417","246150","NA","Sternberg Task","20","22575.0","25","1024"
"80","80","895","895","black","experiment","legacy","legacy","legacy","1","undefined","1","left","25","25","25","0","0","25","25","0","0","25","25","25","0","25","0","Tue Oct 17 16:23:19 2023","The main experiment item","True","SternbergTask.osexp","/Users/test/Desktop","False","mono","False","18","no","white","no","yes","768","legacy","13","11","/Users/test/Desktop/AT-subject-3.csv","legacy","8 5 3 7 4 6","Melodramatic Milgram","4.0.5","6","y","0","left","right","up","left","NA","706.0","73722","13574","706","NA","2","legacy","6","1024","2","48000","-16","experiment","3","odd","6","250114","246850","247904","4503","168890","247907","216134","4613","155315","248910","252117","252824","78417","252116","NA","Sternberg Task","21","23281.0","26","1024"
"81","81","891","891","black","experiment","legacy","legacy","legacy","1","undefined","1","right","26","26","26","0","0","26","26","0","0","26","26","26","0","26","0","Tue Oct 17 16:23:19 2023","The main experiment item","True","SternbergTask.osexp","/Users/test/Desktop","False","mono","False","18","no","white","no","yes","768","legacy","14","11","/Users/test/Desktop/AT-subject-3.csv","legacy","7 1","Melodramatic Milgram","4.0.5","0","n","0","right","right","up","right","NA","789.0","73722","13574","789","NA","2","legacy","2","1024","2","48000","-16","experiment","3","odd","8","256097","252828","253886","4503","168890","253889","216134","4613","155315","254892","258100","258890","78417","258100","NA","Sternberg Task","22","24070.0","27","1024"
"82","82","902","902","black","experiment","legacy","legacy","legacy","1","undefined","1","left","27","27","27","0","0","27","27","0","0","27","27","27","0","27","0","Tue Oct 17 16:23:19 2023","The main experiment item","True","SternbergTask.osexp","/Users/test/Desktop","False","mono","False","18","no","white","no","yes","768","legacy","15","11","/Users/test/Desktop/AT-subject-3.csv","legacy","4 7 6 8 2 3","Melodramatic Milgram","4.0.5","6","y","0","left","right","up","left","NA","1209.0","73722","13574","1209","NA","2","legacy","6","1024","2","48000","-16","experiment","3","odd","3","262216","258933","260006","4503","168890","260009","216134","4613","155315","261013","264219","265429","78417","264218","NA","Sternberg Task","23","25279.0","28","1024"
"82","82","890","890","black","experiment","legacy","legacy","legacy","1","undefined","1","left","28","28","28","0","0","28","28","0","0","28","28","28","0","28","0","Tue Oct 17 16:23:19 2023","The main experiment item","True","SternbergTask.osexp","/Users/test/Desktop","False","mono","False","18","no","white","no","yes","768","legacy","16","11","/Users/test/Desktop/AT-subject-3.csv","legacy","2 3","Melodramatic Milgram","4.0.5","1","y","0","left","right","up","left","NA","545.0","73722","13574","545","NA","2","legacy","2","1024","2","48000","-16","experiment","3","odd","2","268678","265433","266469","4503","168890","266472","216134","4613","155315","267475","270682","271228","78417","270682","NA","Sternberg Task","24","25824.0","29","1024"
"83","83","881","881","black","experiment","legacy","legacy","legacy","1","undefined","1","left","29","29","29","0","0","29","29","0","0","29","29","29","0","29","0","Tue Oct 17 16:23:19 2023","The main experiment item","True","SternbergTask.osexp","/Users/test/Desktop","False","mono","False","18","no","white","no","yes","768","legacy","17","11","/Users/test/Desktop/AT-subject-3.csv","legacy","6 9 3 1","Melodramatic Milgram","4.0.5","4","y","0","left","right","up","left","NA","613.0","73722","13574","613","NA","2","legacy","4","1024","2","48000","-16","experiment","3","odd","1","274488","271232","272278","4503","168890","272282","216134","4613","155315","273284","276491","277105","78417","276491","NA","Sternberg Task","25","26437.0","30","1024"
"83","83","878","878","black","experiment","legacy","legacy","legacy","1","undefined","1","right","30","30","30","0","0","30","30","0","0","30","30","30","0","30","0","Tue Oct 17 16:23:19 2023","The main experiment item","True","SternbergTask.osexp","/Users/test/Desktop","False","mono","False","18","no","white","no","yes","768","legacy","18","11","/Users/test/Desktop/AT-subject-3.csv","legacy","5 9 2 3","Melodramatic Milgram","4.0.5","0","n","0","right","right","up","right","NA","797.0","73722","13574","797","NA","2","legacy","4","1024","2","48000","-16","experiment","3","odd","8","280365","277109","278158","4503","168890","278160","216134","4613","155315","279163","282369","283167","78417","282368","NA","Sternberg Task","26","27234.0","31","1024"
"84","84","871","871","black","experiment","legacy","legacy","legacy","1","undefined","1","left","31","31","31","0","0","31","31","0","0","31","31","31","0","31","0","Tue Oct 17 16:23:19 2023","The main experiment item","True","SternbergTask.osexp","/Users/test/Desktop","False","mono","False","18","no","white","no","yes","768","legacy","19","11","/Users/test/Desktop/AT-subject-3.csv","legacy","4 9 7 8 5 3","Melodramatic Milgram","4.0.5","4","y","0","left","right","up","left","NA","669.0","73722","13574","669","NA","2","legacy","6","1024","2","48000","-16","experiment","3","odd","8","286431","283173","284222","4503","168890","284225","216134","4613","155315","285228","288435","289105","78417","288434","NA","Sternberg Task","27","27903.0","32","1024"
"84","84","868","868","black","experiment","legacy","legacy","legacy","1","undefined","1","left","32","32","32","0","0","32","32","0","0","32","32","32","0","32","0","Tue Oct 17 16:23:19 2023","The main experiment item","True","SternbergTask.osexp","/Users/test/Desktop","False","mono","False","18","no","white","no","yes","768","legacy","20","11","/Users/test/Desktop/AT-subject-3.csv","legacy","3 9 6 2","Melodramatic Milgram","4.0.5","4","y","0","left","right","up","left","NA","758.0","73722","13574","758","NA","2","legacy","4","1024","2","48000","-16","experiment","3","odd","2","292368","289108","290159","4503","168890","290162","216134","4613","155315","291165","294371","295130","78417","294370","NA","Sternberg Task","28","28661.0","33","1024"
"85","85","868","868","black","experiment","legacy","legacy","legacy","1","undefined","1","right","33","33","33","0","0","33","33","0","0","33","33","33","0","33","0","Tue Oct 17 16:23:19 2023","The main experiment item","True","SternbergTask.osexp","/Users/test/Desktop","False","mono","False","18","no","white","no","yes","768","legacy","21","11","/Users/test/Desktop/AT-subject-3.csv","legacy","9 5 3 2 8 6","Melodramatic Milgram","4.0.5","0","n","0","right","right","up","right","NA","866.0","73722","13574","866","NA","2","legacy","6","1024","2","48000","-16","experiment","3","odd","7","298400","295134","296192","4503","168890","296195","216134","4613","155315","297198","300403","301270","78417","300403","NA","Sternberg Task","29","29527.0","34","1024"
"85","85","861","861","black","experiment","legacy","legacy","legacy","1","undefined","1","left","34","34","34","0","0","34","34","0","0","34","34","34","0","34","0","Tue Oct 17 16:23:19 2023","The main experiment item","True","SternbergTask.osexp","/Users/test/Desktop","False","mono","False","18","no","white","no","yes","768","legacy","22","11","/Users/test/Desktop/AT-subject-3.csv","legacy","9 8 4","Melodramatic Milgram","4.0.5","1","y","0","left","right","up","left","NA","633.0","73722","13574","633","NA","2","legacy","3","1024","2","48000","-16","experiment","3","odd","9","304533","301274","302325","4503","168890","302328","216134","4613","155315","303330","306536","307170","78417","306535","NA","Sternberg Task","30","30160.0","35","1024"
"86","86","854","854","black","experiment","legacy","legacy","legacy","1","undefined","1","left","35","35","35","0","0","35","35","0","0","35","35","35","0","35","0","Tue Oct 17 16:23:19 2023","The main experiment item","True","SternbergTask.osexp","/Users/test/Desktop","False","mono","False","18","no","white","no","yes","768","legacy","23","11","/Users/test/Desktop/AT-subject-3.csv","legacy","9 5 3 8 4","Melodramatic Milgram","4.0.5","1","y","0","left","right","up","left","NA","611.0","73722","13574","611","NA","2","legacy","5","1024","2","48000","-16","experiment","3","odd","9","310425","307174","308218","4503","168890","308220","216134","4613","155315","309223","312427","313039","78417","312427","NA","Sternberg Task","31","30771.0","36","1024"
"86","86","853","853","black","experiment","legacy","legacy","legacy","1","undefined","1","left","36","36","36","0","0","36","36","0","0","36","36","36","0","36","0","Tue Oct 17 16:23:19 2023","The main experiment item","True","SternbergTask.osexp","/Users/test/Desktop","False","mono","False","18","no","white","no","yes","768","legacy","24","11","/Users/test/Desktop/AT-subject-3.csv","legacy","5 7 8 2 3 8","Melodramatic Milgram","4.0.5","5","y","0","left","right","up","left","NA","823.0","73722","13574","823","NA","2","legacy","6","1024","2","48000","-16","experiment","3","odd","3","316299","313043","314091","4503","168890","314094","216134","4613","155315","315097","318302","319126","78417","318301","NA","Sternberg Task","32","31594.0","37","1024"
"86","86","854","854","black","experiment","legacy","legacy","legacy","1","undefined","1","right","37","37","37","0","0","37","37","0","0","37","37","37","0","37","0","Tue Oct 17 16:23:19 2023","The main experiment item","True","SternbergTask.osexp","/Users/test/Desktop","False","mono","False","18","no","white","no","yes","768","legacy","25","11","/Users/test/Desktop/AT-subject-3.csv","legacy","1 5 3 2 8","Melodramatic Milgram","4.0.5","0","n","0","right","right","up","right","NA","861.0","73722","13574","861","NA","2","legacy","5","1024","2","48000","-16","experiment","3","odd","4","322385","319130","320178","4503","168890","320180","216134","4613","155315","321183","324387","325249","78417","324387","NA","Sternberg Task","33","32455.0","38","1024"
"84","84","883","883","black","experiment","legacy","legacy","legacy","0","undefined","0","right","38","38","38","0","0","38","38","0","0","38","38","38","0","38","0","Tue Oct 17 16:23:19 2023","The main experiment item","True","SternbergTask.osexp","/Users/test/Desktop","False","mono","False","18","no","white","no","yes","768","legacy","26","11","/Users/test/Desktop/AT-subject-3.csv","legacy","5","Melodramatic Milgram","4.0.5","0","n","0","None","right","up","None","NA","2000.0","73722","13574","2000","NA","2","legacy","1","1024","2","48000","-16","experiment","3","odd","8","328525","325253","326316","4503","168890","326319","216134","4613","155315","327321","330529","332529","78417","330529","NA","Sternberg Task","33","34455.0","39","1024"
"85","85","890","890","black","experiment","legacy","legacy","legacy","1","undefined","1","right","39","39","39","0","0","39","39","0","0","39","39","39","0","39","0","Tue Oct 17 16:23:19 2023","The main experiment item","True","SternbergTask.osexp","/Users/test/Desktop","False","mono","False","18","no","white","no","yes","768","legacy","27","11","/Users/test/Desktop/AT-subject-3.csv","legacy","5 2","Melodramatic Milgram","4.0.5","0","n","0","right","right","up","right","NA","1157.0","73722","13574","1157","NA","2","legacy","2","1024","2","48000","-16","experiment","3","odd","7","335801","325253","333590","4503","168890","333593","332533","4613","155315","334596","337804","338962","78417","337803","NA","Sternberg Task","34","35612.0","40","1024"
"85","85","891","891","black","experiment","legacy","legacy","legacy","1","undefined","1","right","40","40","40","0","0","40","40","0","0","40","40","40","0","40","0","Tue Oct 17 16:23:19 2023","The main experiment item","True","SternbergTask.osexp","/Users/test/Desktop","False","mono","False","18","no","white","no","yes","768","legacy","28","11","/Users/test/Desktop/AT-subject-3.csv","legacy","5 3 8 7 2 4","Melodramatic Milgram","4.0.5","0","n","0","right","right","up","right","NA","933.0","73722","13574","933","NA","2","legacy","6","1024","2","48000","-16","experiment","3","odd","9","342214","338965","340005","4503","168890","340008","332533","4613","155315","341011","344217","345151","78417","344216","NA","Sternberg Task","35","36545.0","41","1024"
"85","85","905","905","black","experiment","legacy","legacy","legacy","1","undefined","1","right","41","41","41","0","0","41","41","0","0","41","41","41","0","41","0","Tue Oct 17 16:23:19 2023","The main experiment item","True","SternbergTask.osexp","/Users/test/Desktop","False","mono","False","18","no","white","no","yes","768","legacy","29","11","/Users/test/Desktop/AT-subject-3.csv","legacy","1","Melodramatic Milgram","4.0.5","0","n","0","right","right","up","right","NA","1485.0","73722","13574","1485","NA","2","legacy","1","1024","2","48000","-16","experiment","3","odd","7","348406","345154","346196","4503","168890","346199","332533","4613","155315","347202","350409","351895","78417","350409","NA","Sternberg Task","36","38030.0","42","1024"
"86","86","906","906","black","experiment","legacy","legacy","legacy","1","undefined","1","right","42","42","42","0","0","42","42","0","0","42","42","42","0","42","0","Tue Oct 17 16:23:19 2023","The main experiment item","True","SternbergTask.osexp","/Users/test/Desktop","False","mono","False","18","no","white","no","yes","768","legacy","30","11","/Users/test/Desktop/AT-subject-3.csv","legacy","6 9 5","Melodramatic Milgram","4.0.5","0","n","0","right","right","up","right","NA","962.0","73722","13574","962","NA","2","legacy","3","1024","2","48000","-16","experiment","3","odd","8","355156","351898","352947","4503","168890","352950","332533","4613","155315","353953","357159","358122","78417","357158","NA","Sternberg Task","37","38992.0","43","1024"
"86","86","904","904","black","experiment","legacy","legacy","legacy","1","undefined","1","right","43","43","43","0","0","43","43","0","0","43","43","43","0","43","0","Tue Oct 17 16:23:19 2023","The main experiment item","True","SternbergTask.osexp","/Users/test/Desktop","False","mono","False","18","no","white","no","yes","768","legacy","31","11","/Users/test/Desktop/AT-subject-3.csv","legacy","1 4 9 2 5","Melodramatic Milgram","4.0.5","0","n","0","right","right","up","right","NA","812.0","73722","13574","812","NA","2","legacy","5","1024","2","48000","-16","experiment","3","odd","7","361383","358126","359174","4503","168890","359177","332533","4613","155315","360181","363385","364198","78417","363385","NA","Sternberg Task","38","39804.0","44","1024"
"86","86","905","905","black","experiment","legacy","legacy","legacy","1","undefined","1","left","44","44","44","0","0","44","44","0","0","44","44","44","0","44","0","Tue Oct 17 16:23:19 2023","The main experiment item","True","SternbergTask.osexp","/Users/test/Desktop","False","mono","False","18","no","white","no","yes","768","legacy","32","11","/Users/test/Desktop/AT-subject-3.csv","legacy","6 9 7 4 5 1","Melodramatic Milgram","4.0.5","2","y","0","left","right","up","left","NA","943.0","73722","13574","943","NA","2","legacy","6","1024","2","48000","-16","experiment","3","odd","9","367461","364202","365250","4503","168890","365254","332533","4613","155315","366258","369464","370408","78417","369463","NA","Sternberg Task","39","40747.0","45","1024"
"86","86","899","899","black","experiment","legacy","legacy","legacy","1","undefined","1","left","45","45","45","0","0","45","45","0","0","45","45","45","0","45","0","Tue Oct 17 16:23:19 2023","The main experiment item","True","SternbergTask.osexp","/Users/test/Desktop","False","mono","False","18","no","white","no","yes","768","legacy","33","11","/Users/test/Desktop/AT-subject-3.csv","legacy","7 1 8 5 6 2","Melodramatic Milgram","4.0.5","2","y","0","left","right","up","left","NA","629.0","73722","13574","629","NA","2","legacy","6","1024","2","48000","-16","experiment","3","odd","1","373676","370412","371467","4503","168890","371470","332533","4613","155315","372473","375679","376310","78417","375679","NA","Sternberg Task","40","41376.0","46","1024"
"87","87","898","898","black","experiment","legacy","legacy","legacy","1","undefined","1","right","46","46","46","0","0","46","46","0","0","46","46","46","0","46","0","Tue Oct 17 16:23:19 2023","The main experiment item","True","SternbergTask.osexp","/Users/test/Desktop","False","mono","False","18","no","white","no","yes","768","legacy","34","11","/Users/test/Desktop/AT-subject-3.csv","legacy","4 2 7 6 1 3","Melodramatic Milgram","4.0.5","0","n","0","right","right","up","right","NA","871.0","73722","13574","871","NA","2","legacy","6","1024","2","48000","-16","experiment","3","odd","8","379602","376351","377394","4503","168890","377397","332533","4613","155315","378399","381605","382478","78417","381604","NA","Sternberg Task","41","42247.0","47","1024"
"87","87","894","894","black","experiment","legacy","legacy","legacy","1","undefined","1","left","47","47","47","0","0","47","47","0","0","47","47","47","0","47","0","Tue Oct 17 16:23:19 2023","The main experiment item","True","SternbergTask.osexp","/Users/test/Desktop","False","mono","False","18","no","white","no","yes","768","legacy","35","11","/Users/test/Desktop/AT-subject-3.csv","legacy","2 4 8 5 1 3","Melodramatic Milgram","4.0.5","1","y","0","left","right","up","left","NA","694.0","73722","13574","694","NA","2","legacy","6","1024","2","48000","-16","experiment","3","odd","2","385735","382482","383526","4503","168890","383529","332533","4613","155315","384532","387738","388433","78417","387738","NA","Sternberg Task","42","42941.0","48","1024"
"87","87","895","895","black","experiment","legacy","legacy","legacy","1","undefined","1","right","48","48","48","0","0","48","48","0","0","48","48","48","0","48","0","Tue Oct 17 16:23:19 2023","The main experiment item","True","SternbergTask.osexp","/Users/test/Desktop","False","mono","False","18","no","white","no","yes","768","legacy","36","11","/Users/test/Desktop/AT-subject-3.csv","legacy","8 4 3 9","Melodramatic Milgram","4.0.5","0","n","0","right","right","up","right","NA","949.0","73722","13574","949","NA","2","legacy","4","1024","2","48000","-16","experiment","3","odd","5","391693","388436","389484","4503","168890","389487","332533","4613","155315","390490","393696","394646","78417","393695","NA","Sternberg Task","43","43890.0","49","1024"
"86","86","895","895","black","experiment","legacy","legacy","legacy","0","undefined","0","left","49","49","49","0","0","49","49","0","0","49","49","49","0","49","0","Tue Oct 17 16:23:19 2023","The main experiment item","True","SternbergTask.osexp","/Users/test/Desktop","False","mono","False","18","no","white","no","yes","768","legacy","37","11","/Users/test/Desktop/AT-subject-3.csv","legacy","7","Melodramatic Milgram","4.0.5","1","y","0","right","right","up","right","NA","865.0","73722","13574","865","NA","2","legacy","1","1024","2","48000","-16","experiment","3","odd","7","397908","394650","395697","4503","168890","395701","332533","4613","155315","396704","399911","400776","78417","399911","NA","Sternberg Task","43","44755.0","50","1024"
"86","86","896","896","black","experiment","legacy","legacy","legacy","1","undefined","1","right","50","50","50","0","0","50","50","0","0","50","50","50","0","50","0","Tue Oct 17 16:23:19 2023","The main experiment item","True","SternbergTask.osexp","/Users/test/Desktop","False","mono","False","18","no","white","no","yes","768","legacy","38","11","/Users/test/Desktop/AT-subject-3.csv","legacy","5 7 3","Melodramatic Milgram","4.0.5","0","n","0","right","right","up","right","NA","946.0","73722","13574","946","NA","2","legacy","3","1024","2","48000","-16","experiment","3","odd","9","404038","394650","401828","4503","168890","401831","400780","4613","155315","402835","406041","406988","78417","406040","NA","Sternberg Task","44","45701.0","51","1024"
"86","86","895","895","black","experiment","legacy","legacy","legacy","1","undefined","1","left","51","51","51","0","0","51","51","0","0","51","51","51","0","51","0","Tue Oct 17 16:23:19 2023","The main experiment item","True","SternbergTask.osexp","/Users/test/Desktop","False","mono","False","18","no","white","no","yes","768","legacy","39","11","/Users/test/Desktop/AT-subject-3.csv","legacy","7 8 4 6 9 5","Melodramatic Milgram","4.0.5","4","y","0","left","right","up","left","NA","846.0","73722","13574","846","NA","2","legacy","6","1024","2","48000","-16","experiment","3","odd","6","410267","406992","408050","4503","168890","408053","400780","4613","155315","409056","412272","413119","78417","412272","NA","Sternberg Task","45","46547.0","52","1024"
"86","86","905","905","black","experiment","legacy","legacy","legacy","1","undefined","1","right","52","52","52","0","0","52","52","0","0","52","52","52","0","52","0","Tue Oct 17 16:23:19 2023","The main experiment item","True","SternbergTask.osexp","/Users/test/Desktop","False","mono","False","18","no","white","no","yes","768","legacy","40","11","/Users/test/Desktop/AT-subject-3.csv","legacy","6 3 1 7 9 8","Melodramatic Milgram","4.0.5","0","n","0","right","right","up","right","NA","1420.0","73722","13574","1420","NA","2","legacy","6","1024","2","48000","-16","experiment","3","odd","4","416373","413124","414164","4503","168890","414167","400780","4613","155315","415170","418376","419797","78417","418375","NA","Sternberg Task","46","47967.0","53","1024"
"87","87","900","900","black","experiment","legacy","legacy","legacy","1","undefined","1","left","53","53","53","0","0","53","53","0","0","53","53","53","0","53","0","Tue Oct 17 16:23:19 2023","The main experiment item","True","SternbergTask.osexp","/Users/test/Desktop","False","mono","False","18","no","white","no","yes","768","legacy","41","11","/Users/test/Desktop/AT-subject-3.csv","legacy","8 9 5 6 7","Melodramatic Milgram","4.0.5","1","y","0","left","right","up","left","NA","660.0","73722","13574","660","NA","2","legacy","5","1024","2","48000","-16","experiment","3","odd","8","423054","419800","420845","4503","168890","420848","400780","4613","155315","421851","425057","425718","78417","425057","NA","Sternberg Task","47","48627.0","54","1024"
"87","87","899","899","black","experiment","legacy","legacy","legacy","1","undefined","1","right","54","54","54","0","0","54","54","0","0","54","54","54","0","54","0","Tue Oct 17 16:23:19 2023","The main experiment item","True","SternbergTask.osexp","/Users/test/Desktop","False","mono","False","18","no","white","no","yes","768","legacy","42","11","/Users/test/Desktop/AT-subject-3.csv","legacy","8 5 4 2 9 6","Melodramatic Milgram","4.0.5","0","n","0","right","right","up","right","NA","828.0","73722","13574","828","NA","2","legacy","6","1024","2","48000","-16","experiment","3","odd","3","428979","425723","426770","4503","168890","426773","400780","4613","155315","427776","430982","431811","78417","430981","NA","Sternberg Task","48","49455.0","55","1024"
"85","85","900","900","black","experiment","legacy","legacy","legacy","0","undefined","0","left","55","55","55","0","0","55","55","0","0","55","55","55","0","55","0","Tue Oct 17 16:23:19 2023","The main experiment item","True","SternbergTask.osexp","/Users/test/Desktop","False","mono","False","18","no","white","no","yes","768","legacy","43","11","/Users/test/Desktop/AT-subject-3.csv","legacy","3 4","Melodramatic Milgram","4.0.5","1","y","0","right","right","up","right","NA","991.0","73722","13574","991","NA","2","legacy","2","1024","2","48000","-16","experiment","3","odd","3","435113","431855","432903","4503","168890","432906","400780","4613","155315","433909","437116","438108","78417","437116","NA","Sternberg Task","48","50446.0","56","1024"
"85","85","895","895","black","experiment","legacy","legacy","legacy","1","undefined","1","left","56","56","56","0","0","56","56","0","0","56","56","56","0","56","0","Tue Oct 17 16:23:19 2023","The main experiment item","True","SternbergTask.osexp","/Users/test/Desktop","False","mono","False","18","no","white","no","yes","768","legacy","44","11","/Users/test/Desktop/AT-subject-3.csv","legacy","4 6 5 8","Melodramatic Milgram","4.0.5","1","y","0","left","right","up","left","NA","583.0","73722","13574","583","NA","2","legacy","4","1024","2","48000","-16","experiment","3","odd","4","441370","431855","439162","4503","168890","439165","438111","4613","155315","440168","443374","443959","78417","443373","NA","Sternberg Task","49","51029.0","57","1024"
"86","86","896","896","black","experiment","legacy","legacy","legacy","1","undefined","1","left","57","57","57","0","0","57","57","0","0","57","57","57","0","57","0","Tue Oct 17 16:23:19 2023","The main experiment item","True","SternbergTask.osexp","/Users/test/Desktop","False","mono","False","18","no","white","no","yes","768","legacy","45","11","/Users/test/Desktop/AT-subject-3.csv","legacy","9 1 7 2","Melodramatic Milgram","4.0.5","2","y","0","left","right","up","left","NA","940.0","73722","13574","940","NA","2","legacy","4","1024","2","48000","-16","experiment","3","odd","1","447232","443963","445022","4503","168890","445025","438111","4613","155315","446028","449235","450176","78417","449235","NA","Sternberg Task","50","51969.0","58","1024"
"86","86","895","895","black","experiment","legacy","legacy","legacy","1","undefined","1","right","58","58","58","0","0","58","58","0","0","58","58","58","0","58","0","Tue Oct 17 16:23:19 2023","The main experiment item","True","SternbergTask.osexp","/Users/test/Desktop","False","mono","False","18","no","white","no","yes","768","legacy","46","11","/Users/test/Desktop/AT-subject-3.csv","legacy","6 9 4 5 3 2","Melodramatic Milgram","4.0.5","0","n","0","right","right","up","right","NA","869.0","73722","13574","869","NA","2","legacy","6","1024","2","48000","-16","experiment","3","odd","8","453430","450180","451220","4503","168890","451224","438111","4613","155315","452228","455433","456304","78417","455433","NA","Sternberg Task","51","52838.0","59","1024"
"86","86","894","894","black","experiment","legacy","legacy","legacy","1","undefined","1","left","59","59","59","0","0","59","59","0","0","59","59","59","0","59","0","Tue Oct 17 16:23:19 2023","The main experiment item","True","SternbergTask.osexp","/Users/test/Desktop","False","mono","False","18","no","white","no","yes","768","legacy","47","11","/Users/test/Desktop/AT-subject-3.csv","legacy","8 9 6 1","Melodramatic Milgram","4.0.5","2","y","0","left","right","up","left","NA","858.0","73722","13574","858","NA","2","legacy","4","1024","2","48000","-16","experiment","3","odd","9","459572","456307","457363","4503","168890","457366","438111","4613","155315","458369","461576","462435","78417","461575","NA","Sternberg Task","52","53696.0","60","1024"
"86","86","895","895","black","experiment","legacy","legacy","legacy","1","undefined","1","right","60","60","60","0","0","60","60","0","0","60","60","60","0","60","0","Tue Oct 17 16:23:19 2023","The main experiment item","True","SternbergTask.osexp","/Users/test/Desktop","False","mono","False","18","no","white","no","yes","768","legacy","48","11","/Users/test/Desktop/AT-subject-3.csv","legacy","6 9 7 3 8 2","Melodramatic Milgram","4.0.5","0","n","0","right","right","up","right","NA","909.0","73722","13574","909","NA","2","legacy","6","1024","2","48000","-16","experiment","3","odd","5","465695","462440","463486","4503","168890","463489","438111","4613","155315","464492","467699","468609","78417","467699","NA","Sternberg Task","53","54605.0","61","1024"
"87","87","897","897","black","experiment","legacy","legacy","legacy","1","undefined","1","left","61","61","61","0","0","61","61","0","0","61","61","61","0","61","0","Tue Oct 17 16:23:19 2023","The main experiment item","True","SternbergTask.osexp","/Users/test/Desktop","False","mono","False","18","no","white","no","yes","768","legacy","49","11","/Users/test/Desktop/AT-subject-3.csv","legacy","7 2 3","Melodramatic Milgram","4.0.5","3","y","0","left","right","up","left","NA","1058.0","73722","13574","1058","NA","2","legacy","3","1024","2","48000","-16","experiment","3","odd","3","471868","468612","469660","4503","168890","469662","438111","4613","155315","470665","473872","474932","78417","473872","NA","Sternberg Task","54","55663.0","62","1024"
"87","87","896","896","black","experiment","legacy","legacy","legacy","1","undefined","1","right","62","62","62","0","0","62","62","0","0","62","62","62","0","62","0","Tue Oct 17 16:23:19 2023","The main experiment item","True","SternbergTask.osexp","/Users/test/Desktop","False","mono","False","18","no","white","no","yes","768","legacy","50","11","/Users/test/Desktop/AT-subject-3.csv","legacy","1 8 7","Melodramatic Milgram","4.0.5","0","n","0","right","right","up","right","NA","793.0","73722","13574","793","NA","2","legacy","3","1024","2","48000","-16","experiment","3","odd","4","478204","474936","475992","4503","168890","475996","438111","4613","155315","477001","480208","481003","78417","480208","NA","Sternberg Task","55","56456.0","63","1024"
"87","87","895","895","black","experiment","legacy","legacy","legacy","1","undefined","1","left","63","63","63","0","0","63","63","0","0","63","63","63","0","63","0","Tue Oct 17 16:23:19 2023","The main experiment item","True","SternbergTask.osexp","/Users/test/Desktop","False","mono","False","18","no","white","no","yes","768","legacy","51","11","/Users/test/Desktop/AT-subject-3.csv","legacy","2 6 1 7 4","Melodramatic Milgram","4.0.5","2","y","0","left","right","up","left","NA","885.0","73722","13574","885","NA","2","legacy","5","1024","2","48000","-16","experiment","3","odd","6","484287","481007","482078","4503","168890","482081","438111","4613","155315","483084","486290","487176","78417","486290","NA","Sternberg Task","56","57341.0","64","1024"
"87","87","897","897","black","experiment","legacy","legacy","legacy","1","undefined","1","right","64","64","64","0","0","64","64","0","0","64","64","64","0","64","0","Tue Oct 17 16:23:19 2023","The main experiment item","True","SternbergTask.osexp","/Users/test/Desktop","False","mono","False","18","no","white","no","yes","768","legacy","52","11","/Users/test/Desktop/AT-subject-3.csv","legacy","2 5 1 4","Melodramatic Milgram","4.0.5","0","n","0","right","right","up","right","NA","1013.0","73722","13574","1013","NA","2","legacy","4","1024","2","48000","-16","experiment","3","odd","6","490433","487180","488220","4503","168890","488225","438111","4613","155315","489230","492435","493450","78417","492435","NA","Sternberg Task","57","58354.0","65","1024"
"87","87","895","895","black","experiment","legacy","legacy","legacy","1","undefined","1","left","65","65","65","0","0","65","65","0","0","65","65","65","0","65","0","Tue Oct 17 16:23:19 2023","The main experiment item","True","SternbergTask.osexp","/Users/test/Desktop","False","mono","False","18","no","white","no","yes","768","legacy","53","11","/Users/test/Desktop/AT-subject-3.csv","legacy","2 3 7 4","Melodramatic Milgram","4.0.5","1","y","0","left","right","up","left","NA","750.0","73722","13574","750","NA","2","legacy","4","1024","2","48000","-16","experiment","3","odd","2","496708","493453","494497","4503","168890","494501","438111","4613","155315","495504","498713","499465","78417","498712","NA","Sternberg Task","58","59104.0","66","1024"
"88","88","898","898","black","experiment","legacy","legacy","legacy","1","undefined","1","right","66","66","66","0","0","66","66","0","0","66","66","66","0","66","0","Tue Oct 17 16:23:19 2023","The main experiment item","True","SternbergTask.osexp","/Users/test/Desktop","False","mono","False","18","no","white","no","yes","768","legacy","54","11","/Users/test/Desktop/AT-subject-3.csv","legacy","8 2 1 4 5 9","Melodramatic Milgram","4.0.5","0","n","0","right","right","up","right","NA","1091.0","73722","13574","1091","NA","2","legacy","6","1024","2","48000","-16","experiment","3","odd","7","502755","499468","500541","4503","168890","500547","438111","4613","155315","501551","504759","505852","78417","504759","NA","Sternberg Task","59","60195.0","67","1024"
"88","88","895","895","black","experiment","legacy","legacy","legacy","1","undefined","1","right","67","67","67","0","0","67","67","0","0","67","67","67","0","67","0","Tue Oct 17 16:23:19 2023","The main experiment item","True","SternbergTask.osexp","/Users/test/Desktop","False","mono","False","18","no","white","no","yes","768","legacy","55","11","/Users/test/Desktop/AT-subject-3.csv","legacy","4 1","Melodramatic Milgram","4.0.5","0","n","0","right","right","up","right","NA","720.0","73722","13574","720","NA","2","legacy","2","1024","2","48000","-16","experiment","3","odd","6","509131","505857","506919","4503","168890","506923","438111","4613","155315","507927","511136","511857","78417","511135","NA","Sternberg Task","60","60915.0","68","1024"
"88","88","899","899","black","experiment","legacy","legacy","legacy","1","undefined","1","right","68","68","68","0","0","68","68","0","0","68","68","68","0","68","0","Tue Oct 17 16:23:19 2023","The main experiment item","True","SternbergTask.osexp","/Users/test/Desktop","False","mono","False","18","no","white","no","yes","768","legacy","56","11","/Users/test/Desktop/AT-subject-3.csv","legacy","2 6 4 3 9","Melodramatic Milgram","4.0.5","0","n","0","right","right","up","right","NA","1126.0","73722","13574","1126","NA","2","legacy","5","1024","2","48000","-16","experiment","3","odd","1","515134","511861","512923","4503","168890","512926","438111","4613","155315","513930","517137","518265","78417","517137","NA","Sternberg Task","61","62041.0","69","1024"
"88","88","897","897","black","experiment","legacy","legacy","legacy","1","undefined","1","right","69","69","69","0","0","69","69","0","0","69","69","69","0","69","0","Tue Oct 17 16:23:19 2023","The main experiment item","True","SternbergTask.osexp","/Users/test/Desktop","False","mono","False","18","no","white","no","yes","768","legacy","57","11","/Users/test/Desktop/AT-subject-3.csv","legacy","9","Melodramatic Milgram","4.0.5","0","n","0","right","right","up","right","NA","758.0","73722","13574","758","NA","2","legacy","1","1024","2","48000","-16","experiment","3","odd","6","521554","518269","519343","4503","168890","519346","438111","4613","155315","520350","523559","524319","78417","523559","NA","Sternberg Task","62","62799.0","70","1024"
"88","88","895","895","black","experiment","legacy","legacy","legacy","1","undefined","1","left","70","70","70","0","0","70","70","0","0","70","70","70","0","70","0","Tue Oct 17 16:23:19 2023","The main experiment item","True","SternbergTask.osexp","/Users/test/Desktop","False","mono","False","18","no","white","no","yes","768","legacy","58","11","/Users/test/Desktop/AT-subject-3.csv","legacy","3 9 7 6 4","Melodramatic Milgram","4.0.5","3","y","0","left","right","up","left","NA","750.0","73722","13574","750","NA","2","legacy","5","1024","2","48000","-16","experiment","3","odd","7","527582","524323","525371","4503","168890","525375","438111","4613","155315","526378","529586","530338","78417","529586","NA","Sternberg Task","63","63549.0","71","1024"
"88","88","896","896","black","experiment","legacy","legacy","legacy","1","undefined","1","right","71","71","71","0","0","71","71","0","0","71","71","71","0","71","0","Tue Oct 17 16:23:19 2023","The main experiment item","True","SternbergTask.osexp","/Users/test/Desktop","False","mono","False","18","no","white","no","yes","768","legacy","59","11","/Users/test/Desktop/AT-subject-3.csv","legacy","6 8 4","Melodramatic Milgram","4.0.5","0","n","0","right","right","up","right","NA","1002.0","73722","13574","1002","NA","2","legacy","3","1024","2","48000","-16","experiment","3","odd","1","533634","530380","531423","4503","168890","531427","438111","4613","155315","532431","535639","536642","78417","535639","NA","Sternberg Task","64","64551.0","72","1024"
"89","89","895","895","black","experiment","legacy","legacy","legacy","1","undefined","1","right","72","72","72","0","0","72","72","0","0","72","72","72","0","72","0","Tue Oct 17 16:23:19 2023","The main experiment item","True","SternbergTask.osexp","/Users/test/Desktop","False","mono","False","18","no","white","no","yes","768","legacy","60","11","/Users/test/Desktop/AT-subject-3.csv","legacy","1 3 2 6 9","Melodramatic Milgram","4.0.5","0","n","0","right","right","up","right","NA","835.0","73722","13574","835","NA","2","legacy","5","1024","2","48000","-16","experiment","3","odd","5","539904","536646","537695","4503","168890","537698","438111","4613","155315","538701","541907","542743","78417","541907","NA","Sternberg Task","65","65386.0","73","1024"
"89","89","898","898","black","experiment","legacy","legacy","legacy","1","undefined","1","left","73","73","73","0","0","73","73","0","0","73","73","73","0","73","0","Tue Oct 17 16:23:19 2023","The main experiment item","True","SternbergTask.osexp","/Users/test/Desktop","False","mono","False","18","no","white","no","yes","768","legacy","61","11","/Users/test/Desktop/AT-subject-3.csv","legacy","9 6 2 4 1","Melodramatic Milgram","4.0.5","4","y","0","left","right","up","left","NA","1088.0","73722","13574","1088","NA","2","legacy","5","1024","2","48000","-16","experiment","3","odd","4","546048","542787","543836","4503","168890","543840","438111","4613","155315","544845","548053","549142","78417","548053","NA","Sternberg Task","66","66474.0","74","1024"
"89","89","904","904","black","experiment","legacy","legacy","legacy","1","undefined","1","right","74","74","74","0","0","74","74","0","0","74","74","74","0","74","0","Tue Oct 17 16:23:19 2023","The main experiment item","True","SternbergTask.osexp","/Users/test/Desktop","False","mono","False","18","no","white","no","yes","768","legacy","62","11","/Users/test/Desktop/AT-subject-3.csv","legacy","1 7 5 2","Melodramatic Milgram","4.0.5","0","n","0","right","right","up","right","NA","1340.0","73722","13574","1340","NA","2","legacy","4","1024","2","48000","-16","experiment","3","odd","3","552408","549145","550195","4503","168890","550201","438111","4613","155315","551205","554411","555753","78417","554411","NA","Sternberg Task","67","67814.0","75","1024"
"89","89","902","902","black","experiment","legacy","legacy","legacy","1","undefined","1","left","75","75","75","0","0","75","75","0","0","75","75","75","0","75","0","Tue Oct 17 16:23:19 2023","The main experiment item","True","SternbergTask.osexp","/Users/test/Desktop","False","mono","False","18","no","white","no","yes","768","legacy","63","11","/Users/test/Desktop/AT-subject-3.csv","legacy","6 5","Melodramatic Milgram","4.0.5","2","y","0","left","right","up","left","NA","784.0","73722","13574","784","NA","2","legacy","2","1024","2","48000","-16","experiment","3","odd","5","559026","555757","556816","4503","168890","556819","438111","4613","155315","557823","561030","561815","78417","561030","NA","Sternberg Task","68","68598.0","76","1024"
"89","89","900","900","black","experiment","legacy","legacy","legacy","1","undefined","1","left","76","76","76","0","0","76","76","0","0","76","76","76","0","76","0","Tue Oct 17 16:23:19 2023","The main experiment item","True","SternbergTask.osexp","/Users/test/Desktop","False","mono","False","18","no","white","no","yes","768","legacy","64","11","/Users/test/Desktop/AT-subject-3.csv","legacy","2 4 6 9","Melodramatic Milgram","4.0.5","3","y","0","left","right","up","left","NA","746.0","73722","13574","746","NA","2","legacy","4","1024","2","48000","-16","experiment","3","odd","6","565068","561819","562859","4503","168890","562861","438111","4613","155315","563865","567071","567818","78417","567071","NA","Sternberg Task","69","69344.0","77","1024"
"89","89","900","900","black","experiment","legacy","legacy","legacy","1","undefined","1","left","77","77","77","0","0","77","77","0","0","77","77","77","0","77","0","Tue Oct 17 16:23:19 2023","The main experiment item","True","SternbergTask.osexp","/Users/test/Desktop","False","mono","False","18","no","white","no","yes","768","legacy","65","11","/Users/test/Desktop/AT-subject-3.csv","legacy","5 2 9 6 1 7","Melodramatic Milgram","4.0.5","3","y","0","left","right","up","left","NA","887.0","73722","13574","887","NA","2","legacy","6","1024","2","48000","-16","experiment","3","odd","9","571077","567822","568868","4503","168890","568870","438111","4613","155315","569874","573080","573968","78417","573079","NA","Sternberg Task","70","70231.0","78","1024"
"89","89","898","898","black","experiment","legacy","legacy","legacy","1","undefined","1","left","78","78","78","0","0","78","78","0","0","78","78","78","0","78","0","Tue Oct 17 16:23:19 2023","The main experiment item","True","SternbergTask.osexp","/Users/test/Desktop","False","mono","False","18","no","white","no","yes","768","legacy","66","11","/Users/test/Desktop/AT-subject-3.csv","legacy","2 5 4 8 7","Melodramatic Milgram","4.0.5","3","y","0","left","right","up","left","NA","724.0","73722","13574","724","NA","2","legacy","5","1024","2","48000","-16","experiment","3","odd","4","577229","573972","575020","4503","168890","575023","438111","4613","155315","576026","579232","579958","78417","579232","NA","Sternberg Task","71","70955.0","79","1024"
"90","90","899","899","black","experiment","legacy","legacy","legacy","1","undefined","1","right","79","79","79","0","0","79","79","0","0","79","79","79","0","79","0","Tue Oct 17 16:23:19 2023","The main experiment item","True","SternbergTask.osexp","/Users/test/Desktop","False","mono","False","18","no","white","no","yes","768","legacy","67","11","/Users/test/Desktop/AT-subject-3.csv","legacy","3 4 9 6 7 8","Melodramatic Milgram","4.0.5","0","n","0","right","right","up","right","NA","1033.0","73722","13574","1033","NA","2","legacy","6","1024","2","48000","-16","experiment","3","odd","2","583260","580001","581050","4503","168890","581053","438111","4613","155315","582056","585263","586298","78417","585263","NA","Sternberg Task","72","71988.0","80","1024"
"90","90","899","899","black","experiment","legacy","legacy","legacy","1","undefined","1","right","80","80","80","0","0","80","80","0","0","80","80","80","0","80","0","Tue Oct 17 16:23:19 2023","The main experiment item","True","SternbergTask.osexp","/Users/test/Desktop","False","mono","False","18","no","white","no","yes","768","legacy","68","11","/Users/test/Desktop/AT-subject-3.csv","legacy","6 8","Melodramatic Milgram","4.0.5","0","n","0","right","right","up","right","NA","893.0","73722","13574","893","NA","2","legacy","2","1024","2","48000","-16","experiment","3","odd","9","589603","586340","587395","4503","168890","587398","438111","4613","155315","588400","591606","592501","78417","591606","NA","Sternberg Task","73","72881.0","81","1024"
"90","90","899","899","black","experiment","legacy","legacy","legacy","1","undefined","1","right","81","81","81","0","0","81","81","0","0","81","81","81","0","81","0","Tue Oct 17 16:23:19 2023","The main experiment item","True","SternbergTask.osexp","/Users/test/Desktop","False","mono","False","18","no","white","no","yes","768","legacy","69","11","/Users/test/Desktop/AT-subject-3.csv","legacy","6 9 4 5 2","Melodramatic Milgram","4.0.5","0","n","0","right","right","up","right","NA","852.0","73722","13574","852","NA","2","legacy","5","1024","2","48000","-16","experiment","3","odd","1","595775","592504","593566","4503","168890","593568","438111","4613","155315","594571","597777","598631","78417","597777","NA","Sternberg Task","74","73733.0","82","1024"
"89","89","898","898","black","experiment","legacy","legacy","legacy","0","undefined","0","left","82","82","82","0","0","82","82","0","0","82","82","82","0","82","0","Tue Oct 17 16:23:19 2023","The main experiment item","True","SternbergTask.osexp","/Users/test/Desktop","False","mono","False","18","no","white","no","yes","768","legacy","70","11","/Users/test/Desktop/AT-subject-3.csv","legacy","3 5 4 7","Melodramatic Milgram","4.0.5","1","y","0","right","right","up","right","NA","849.0","73722","13574","849","NA","2","legacy","4","1024","2","48000","-16","experiment","3","odd","3","601883","598635","599674","4503","168890","599677","438111","4613","155315","600680","603886","604737","78417","603886","NA","Sternberg Task","74","74582.0","83","1024"
"89","89","900","900","black","experiment","legacy","legacy","legacy","1","undefined","1","left","83","83","83","0","0","83","83","0","0","83","83","83","0","83","0","Tue Oct 17 16:23:19 2023","The main experiment item","True","SternbergTask.osexp","/Users/test/Desktop","False","mono","False","18","no","white","no","yes","768","legacy","71","11","/Users/test/Desktop/AT-subject-3.csv","legacy","4 1 8 7 5","Melodramatic Milgram","4.0.5","3","y","0","left","right","up","left","NA","1093.0","73722","13574","1093","NA","2","legacy","5","1024","2","48000","-16","experiment","3","odd","8","607993","598635","605785","4503","168890","605787","604740","4613","155315","606790","609996","611091","78417","609995","NA","Sternberg Task","75","75675.0","84","1024"
"89","89","897","897","black","experiment","legacy","legacy","legacy","1","undefined","1","left","84","84","84","0","0","84","84","0","0","84","84","84","0","84","0","Tue Oct 17 16:23:19 2023","The main experiment item","True","SternbergTask.osexp","/Users/test/Desktop","False","mono","False","18","no","white","no","yes","768","legacy","72","11","/Users/test/Desktop/AT-subject-3.csv","legacy","4","Melodramatic Milgram","4.0.5","1","y","0","left","right","up","left","NA","637.0","73722","13574","637","NA","2","legacy","1","1024","2","48000","-16","experiment","3","odd","4","614391","611134","612182","4503","168890","612185","604740","4613","155315","613188","616394","617033","78417","616393","NA","Sternberg Task","76","76312.0","85","1024"
"89","89","897","897","black","experiment","legacy","legacy","legacy","1","undefined","1","right","85","85","85","0","0","85","85","0","0","85","85","85","0","85","0","Tue Oct 17 16:23:19 2023","The main experiment item","True","SternbergTask.osexp","/Users/test/Desktop","False","mono","False","18","no","white","no","yes","768","legacy","73","11","/Users/test/Desktop/AT-subject-3.csv","legacy","2 8 9 4 1","Melodramatic Milgram","4.0.5","0","n","0","right","right","up","right","NA","903.0","73722","13574","903","NA","2","legacy","5","1024","2","48000","-16","experiment","3","odd","5","620293","617036","618085","4503","168890","618088","604740","4613","155315","619091","622295","623200","78417","622295","NA","Sternberg Task","77","77215.0","86","1024"
"89","89","899","899","black","experiment","legacy","legacy","legacy","1","undefined","1","right","86","86","86","0","0","86","86","0","0","86","86","86","0","86","0","Tue Oct 17 16:23:19 2023","The main experiment item","True","SternbergTask.osexp","/Users/test/Desktop","False","mono","False","18","no","white","no","yes","768","legacy","74","11","/Users/test/Desktop/AT-subject-3.csv","legacy","7 1 5 6 3","Melodramatic Milgram","4.0.5","0","n","0","right","right","up","right","NA","1028.0","73722","13574","1028","NA","2","legacy","5","1024","2","48000","-16","experiment","3","odd","8","626465","623203","624254","4503","168890","624258","604740","4613","155315","625261","628469","629499","78417","628469","NA","Sternberg Task","78","78243.0","87","1024"
"89","89","898","898","black","experiment","legacy","legacy","legacy","1","undefined","1","right","87","87","87","0","0","87","87","0","0","87","87","87","0","87","0","Tue Oct 17 16:23:19 2023","The main experiment item","True","SternbergTask.osexp","/Users/test/Desktop","False","mono","False","18","no","white","no","yes","768","legacy","75","11","/Users/test/Desktop/AT-subject-3.csv","legacy","7 1 8 4 9 3","Melodramatic Milgram","4.0.5","0","n","0","right","right","up","right","NA","849.0","73722","13574","849","NA","2","legacy","6","1024","2","48000","-16","experiment","3","odd","6","632775","629502","630566","4503","168890","630569","604740","4613","155315","631572","634778","635629","78417","634777","NA","Sternberg Task","79","79092.0","88","1024"
"89","89","897","897","black","experiment","legacy","legacy","legacy","1","undefined","1","left","88","88","88","0","0","88","88","0","0","88","88","88","0","88","0","Tue Oct 17 16:23:19 2023","The main experiment item","True","SternbergTask.osexp","/Users/test/Desktop","False","mono","False","18","no","white","no","yes","768","legacy","76","11","/Users/test/Desktop/AT-subject-3.csv","legacy","9 3 8 2 1 4","Melodramatic Milgram","4.0.5","3","y","0","left","right","up","left","NA","761.0","73722","13574","761","NA","2","legacy","6","1024","2","48000","-16","experiment","3","odd","8","638884","635633","636674","4503","168890","636677","604740","4613","155315","637680","640887","641650","78417","640886","NA","Sternberg Task","80","79853.0","89","1024"
"90","90","897","897","black","experiment","legacy","legacy","legacy","1","undefined","1","right","89","89","89","0","0","89","89","0","0","89","89","89","0","89","0","Tue Oct 17 16:23:19 2023","The main experiment item","True","SternbergTask.osexp","/Users/test/Desktop","False","mono","False","18","no","white","no","yes","768","legacy","77","11","/Users/test/Desktop/AT-subject-3.csv","legacy","7 4 2 8 1 9","Melodramatic Milgram","4.0.5","0","n","0","right","right","up","right","NA","939.0","73722","13574","939","NA","2","legacy","6","1024","2","48000","-16","experiment","3","odd","5","644947","641692","642738","4503","168890","642740","604740","4613","155315","643744","646951","647892","78417","646950","NA","Sternberg Task","81","80792.0","90","1024"
"90","90","897","897","black","experiment","legacy","legacy","legacy","1","undefined","1","right","90","90","90","0","0","90","90","0","0","90","90","90","0","90","0","Tue Oct 17 16:23:19 2023","The main experiment item","True","SternbergTask.osexp","/Users/test/Desktop","False","mono","False","18","no","white","no","yes","768","legacy","78","11","/Users/test/Desktop/AT-subject-3.csv","legacy","4 8 1 2","Melodramatic Milgram","4.0.5","0","n","0","right","right","up","right","NA","918.0","73722","13574","918","NA","2","legacy","4","1024","2","48000","-16","experiment","3","odd","7","651154","647896","648945","4503","168890","648947","604740","4613","155315","649951","653157","654077","78417","653157","NA","Sternberg Task","82","81710.0","91","1024"
"90","90","897","897","black","experiment","legacy","legacy","legacy","1","undefined","1","right","91","91","91","0","0","91","91","0","0","91","91","91","0","91","0","Tue Oct 17 16:23:19 2023","The main experiment item","True","SternbergTask.osexp","/Users/test/Desktop","False","mono","False","18","no","white","no","yes","768","legacy","79","11","/Users/test/Desktop/AT-subject-3.csv","legacy","8 6 3 4 7","Melodramatic Milgram","4.0.5","0","n","0","right","right","up","right","NA","873.0","73722","13574","873","NA","2","legacy","5","1024","2","48000","-16","experiment","3","odd","1","657336","654080","655128","4503","168890","655131","604740","4613","155315","656134","659339","660214","78417","659339","NA","Sternberg Task","83","82583.0","92","1024"
"90","90","899","899","black","experiment","legacy","legacy","legacy","1","undefined","1","left","92","92","92","0","0","92","92","0","0","92","92","92","0","92","0","Tue Oct 17 16:23:19 2023","The main experiment item","True","SternbergTask.osexp","/Users/test/Desktop","False","mono","False","18","no","white","no","yes","768","legacy","80","11","/Users/test/Desktop/AT-subject-3.csv","legacy","9 5 8 1","Melodramatic Milgram","4.0.5","2","y","0","left","right","up","left","NA","1111.0","73722","13574","1111","NA","2","legacy","4","1024","2","48000","-16","experiment","3","odd","5","663479","660218","661270","4503","168890","661274","604740","4613","155315","662276","665483","666596","78417","665483","NA","Sternberg Task","84","83694.0","93","1024"
"90","90","899","899","black","experiment","legacy","legacy","legacy","1","undefined","1","left","93","93","93","0","0","93","93","0","0","93","93","93","0","93","0","Tue Oct 17 16:23:19 2023","The main experiment item","True","SternbergTask.osexp","/Users/test/Desktop","False","mono","False","18","no","white","no","yes","768","legacy","81","11","/Users/test/Desktop/AT-subject-3.csv","legacy","6 7 8 5","Melodramatic Milgram","4.0.5","3","y","0","left","right","up","left","NA","845.0","73722","13574","845","NA","2","legacy","4","1024","2","48000","-16","experiment","3","odd","8","669869","666599","667660","4503","168890","667662","604740","4613","155315","668666","671872","672719","78417","671872","NA","Sternberg Task","85","84539.0","94","1024"
"90","90","899","899","black","experiment","legacy","legacy","legacy","1","undefined","1","left","94","94","94","0","0","94","94","0","0","94","94","94","0","94","0","Tue Oct 17 16:23:19 2023","The main experiment item","True","SternbergTask.osexp","/Users/test/Desktop","False","mono","False","18","no","white","no","yes","768","legacy","82","11","/Users/test/Desktop/AT-subject-3.csv","legacy","3 5 7 1","Melodramatic Milgram","4.0.5","3","y","0","left","right","up","left","NA","868.0","73722","13574","868","NA","2","legacy","4","1024","2","48000","-16","experiment","3","odd","7","676012","672762","673802","4503","168890","673804","604740","4613","155315","674809","678015","678885","78417","678015","NA","Sternberg Task","86","85407.0","95","1024"
"90","90","899","899","black","experiment","legacy","legacy","legacy","1","undefined","1","right","95","95","95","0","0","95","95","0","0","95","95","95","0","95","0","Tue Oct 17 16:23:19 2023","The main experiment item","True","SternbergTask.osexp","/Users/test/Desktop","False","mono","False","18","no","white","no","yes","768","legacy","83","11","/Users/test/Desktop/AT-subject-3.csv","legacy","8 9","Melodramatic Milgram","4.0.5","0","n","0","right","right","up","right","NA","914.0","73722","13574","914","NA","2","legacy","2","1024","2","48000","-16","experiment","3","odd","5","682279","679028","680071","4503","168890","680073","604740","4613","155315","681077","684281","685197","78417","684281","NA","Sternberg Task","87","86321.0","96","1024"
"90","90","903","903","black","experiment","legacy","legacy","legacy","1","undefined","1","right","96","96","96","0","0","96","96","0","0","96","96","96","0","96","0","Tue Oct 17 16:23:19 2023","The main experiment item","True","SternbergTask.osexp","/Users/test/Desktop","False","mono","False","18","no","white","no","yes","768","legacy","84","11","/Users/test/Desktop/AT-subject-3.csv","legacy","1 4 3 6 5","Melodramatic Milgram","4.0.5","0","n","0","right","right","up","right","NA","1363.0","73722","13574","1363","NA","2","legacy","5","1024","2","48000","-16","experiment","3","odd","8","688563","685292","686353","4503","168890","686357","604740","4613","155315","687359","690566","691931","78417","690566","NA","Sternberg Task","88","87684.0","97","1024"
"90","90","907","907","black","experiment","legacy","legacy","legacy","1","undefined","1","right","97","97","97","0","0","97","97","0","0","97","97","97","0","97","0","Tue Oct 17 16:23:19 2023","The main experiment item","True","SternbergTask.osexp","/Users/test/Desktop","False","mono","False","18","no","white","no","yes","768","legacy","85","11","/Users/test/Desktop/AT-subject-3.csv","legacy","2 8 6 3 1","Melodramatic Milgram","4.0.5","0","n","0","right","right","up","right","NA","1216.0","73722","13574","1216","NA","2","legacy","5","1024","2","48000","-16","experiment","3","odd","7","695193","691934","692983","4503","168890","692986","604740","4613","155315","693989","697196","698414","78417","697195","NA","Sternberg Task","89","88900.0","98","1024"
"90","90","907","907","black","experiment","legacy","legacy","legacy","1","undefined","1","right","98","98","98","0","0","98","98","0","0","98","98","98","0","98","0","Tue Oct 17 16:23:19 2023","The main experiment item","True","SternbergTask.osexp","/Users/test/Desktop","False","mono","False","18","no","white","no","yes","768","legacy","86","11","/Users/test/Desktop/AT-subject-3.csv","legacy","3 9 8 1 6 4","Melodramatic Milgram","4.0.5","0","n","0","right","right","up","right","NA","916.0","73722","13574","916","NA","2","legacy","6","1024","2","48000","-16","experiment","3","odd","7","701676","698418","699467","4503","168890","699470","604740","4613","155315","700473","703680","704598","78417","703679","NA","Sternberg Task","90","89816.0","99","1024"
"91","91","907","907","black","experiment","legacy","legacy","legacy","1","undefined","1","right","99","99","99","0","0","99","99","0","0","99","99","99","0","99","0","Tue Oct 17 16:23:19 2023","The main experiment item","True","SternbergTask.osexp","/Users/test/Desktop","False","mono","False","18","no","white","no","yes","768","legacy","87","11","/Users/test/Desktop/AT-subject-3.csv","legacy","6 7 5 9","Melodramatic Milgram","4.0.5","0","n","0","right","right","up","right","NA","907.0","73722","13574","907","NA","2","legacy","4","1024","2","48000","-16","experiment","3","odd","2","707908","704601","705698","4503","168890","705701","604740","4613","155315","706704","709911","710819","78417","709911","NA","Sternberg Task","91","90723.0","100","1024"
"91","91","906","906","black","experiment","legacy","legacy","legacy","1","undefined","1","left","100","100","100","0","0","100","100","0","0","100","100","100","0","100","0","Tue Oct 17 16:23:19 2023","The main experiment item","True","SternbergTask.osexp","/Users/test/Desktop","False","mono","False","18","no","white","no","yes","768","legacy","88","11","/Users/test/Desktop/AT-subject-3.csv","legacy","8 7 3","Melodramatic Milgram","4.0.5","1","y","0","left","right","up","left","NA","833.0","73722","13574","833","NA","2","legacy","3","1024","2","48000","-16","experiment","3","odd","8","714072","710823","711863","4503","168890","711865","604740","4613","155315","712869","716075","716910","78417","716075","NA","Sternberg Task","92","91556.0","101","1024"
"91","91","905","905","black","experiment","legacy","legacy","legacy","1","undefined","1","right","101","101","101","0","0","101","101","0","0","101","101","101","0","101","0","Tue Oct 17 16:23:19 2023","The main experiment item","True","SternbergTask.osexp","/Users/test/Desktop","False","mono","False","18","no","white","no","yes","768","legacy","89","11","/Users/test/Desktop/AT-subject-3.csv","legacy","3 9 1","Melodramatic Milgram","4.0.5","0","n","0","right","right","up","right","NA","835.0","73722","13574","835","NA","2","legacy","3","1024","2","48000","-16","experiment","3","odd","7","720167","716913","717958","4503","168890","717961","604740","4613","155315","718964","722170","723006","78417","722170","NA","Sternberg Task","93","92391.0","102","1024"
"91","91","904","904","black","experiment","legacy","legacy","legacy","1","undefined","1","right","102","102","102","0","0","102","102","0","0","102","102","102","0","102","0","Tue Oct 17 16:23:19 2023","The main experiment item","True","SternbergTask.osexp","/Users/test/Desktop","False","mono","False","18","no","white","no","yes","768","legacy","90","11","/Users/test/Desktop/AT-subject-3.csv","legacy","9 8 2 7 4","Melodramatic Milgram","4.0.5","0","n","0","right","right","up","right","NA","737.0","73722","13574","737","NA","2","legacy","5","1024","2","48000","-16","experiment","3","odd","5","726267","723009","724058","4503","168890","724061","604740","4613","155315","725064","728270","729008","78417","728270","NA","Sternberg Task","94","93128.0","103","1024"
"91","91","906","906","black","experiment","legacy","legacy","legacy","1","undefined","1","left","103","103","103","0","0","103","103","0","0","103","103","103","0","103","0","Tue Oct 17 16:23:19 2023","The main experiment item","True","SternbergTask.osexp","/Users/test/Desktop","False","mono","False","18","no","white","no","yes","768","legacy","91","11","/Users/test/Desktop/AT-subject-3.csv","legacy","7 6","Melodramatic Milgram","4.0.5","2","y","0","left","right","up","left","NA","1139.0","73722","13574","1139","NA","2","legacy","2","1024","2","48000","-16","experiment","3","odd","6","732307","729052","730099","4503","168890","730101","604740","4613","155315","731105","734310","735451","78417","734309","NA","Sternberg Task","95","94267.0","104","1024"
"91","91","906","906","black","experiment","legacy","legacy","legacy","1","undefined","1","right","104","104","104","0","0","104","104","0","0","104","104","104","0","104","0","Tue Oct 17 16:23:19 2023","The main experiment item","True","SternbergTask.osexp","/Users/test/Desktop","False","mono","False","18","no","white","no","yes","768","legacy","92","11","/Users/test/Desktop/AT-subject-3.csv","legacy","5 3 2 6 9 8","Melodramatic Milgram","4.0.5","0","n","0","right","right","up","right","NA","959.0","73722","13574","959","NA","2","legacy","6","1024","2","48000","-16","experiment","3","odd","4","738712","735454","736502","4503","168890","736505","604740","4613","155315","737509","740715","741676","78417","740715","NA","Sternberg Task","96","95226.0","105","1024"
"91","91","909","909","black","experiment","legacy","legacy","legacy","1","undefined","1","left","105","105","105","0","0","105","105","0","0","105","105","105","0","105","0","Tue Oct 17 16:23:19 2023","The main experiment item","True","SternbergTask.osexp","/Users/test/Desktop","False","mono","False","18","no","white","no","yes","768","legacy","93","11","/Users/test/Desktop/AT-subject-3.csv","legacy","7 4 2 6 3 5","Melodramatic Milgram","4.0.5","6","y","0","left","right","up","left","NA","1200.0","73722","13574","1200","NA","2","legacy","6","1024","2","48000","-16","experiment","3","odd","5","744951","741680","742741","4503","168890","742744","604740","4613","155315","743747","746955","748157","78417","746955","NA","Sternberg Task","97","96426.0","106","1024"
"91","91","908","908","black","experiment","legacy","legacy","legacy","1","undefined","1","right","106","106","106","0","0","106","106","0","0","106","106","106","0","106","0","Tue Oct 17 16:23:19 2023","The main experiment item","True","SternbergTask.osexp","/Users/test/Desktop","False","mono","False","18","no","white","no","yes","768","legacy","94","11","/Users/test/Desktop/AT-subject-3.csv","legacy","2 7 5","Melodramatic Milgram","4.0.5","0","n","0","right","right","up","right","NA","826.0","73722","13574","826","NA","2","legacy","3","1024","2","48000","-16","experiment","3","odd","8","751408","748161","749200","4503","168890","749203","604740","4613","155315","750206","753410","754237","78417","753410","NA","Sternberg Task","98","97252.0","107","1024"
"91","91","907","907","black","experiment","legacy","legacy","legacy","1","undefined","1","left","107","107","107","0","0","107","107","0","0","107","107","107","0","107","0","Tue Oct 17 16:23:19 2023","The main experiment item","True","SternbergTask.osexp","/Users/test/Desktop","False","mono","False","18","no","white","no","yes","768","legacy","95","11","/Users/test/Desktop/AT-subject-3.csv","legacy","3 5 9 6 2 4","Melodramatic Milgram","4.0.5","1","y","0","left","right","up","left","NA","735.0","73722","13574","735","NA","2","legacy","6","1024","2","48000","-16","experiment","3","odd","3","757499","754241","755291","4503","168890","755294","604740","4613","155315","756296","759502","760238","78417","759501","NA","Sternberg Task","99","97987.0","108","1024"
"91","91","907","907","black","experiment","legacy","legacy","legacy","1","undefined","1","right","108","108","108","0","0","108","108","0","0","108","108","108","0","108","0","Tue Oct 17 16:23:19 2023","The main experiment item","True","SternbergTask.osexp","/Users/test/Desktop","False","mono","False","18","no","white","no","yes","768","legacy","96","11","/Users/test/Desktop/AT-subject-3.csv","legacy","1 6 4 3 9 7","Melodramatic Milgram","4.0.5","0","n","0","right","right","up","right","NA","910.0","73722","13574","910","NA","2","legacy","6","1024","2","48000","-16","experiment","3","odd","8","763548","760279","761340","4503","168890","761343","604740","4613","155315","762345","765551","766462","78417","765551","NA","Sternberg Task","100","98897.0","109","1024"
"90","90","909","909","black","experiment","legacy","legacy","legacy","0","undefined","0","left","109","109","109","0","0","109","109","0","0","109","109","109","0","109","0","Tue Oct 17 16:23:19 2023","The main experiment item","True","SternbergTask.osexp","/Users/test/Desktop","False","mono","False","18","no","white","no","yes","768","legacy","97","11","/Users/test/Desktop/AT-subject-3.csv","legacy","9 3 1 2 5","Melodramatic Milgram","4.0.5","4","y","0","right","right","up","right","NA","1107.0","73722","13574","1107","NA","2","legacy","5","1024","2","48000","-16","experiment","3","odd","2","769724","766466","767514","4503","168890","767517","604740","4613","155315","768520","771726","772835","78417","771726","NA","Sternberg Task","100","100004.0","110","1024"
"90","90","910","910","black","experiment","legacy","legacy","legacy","1","undefined","1","right","110","110","110","0","0","110","110","0","0","110","110","110","0","110","0","Tue Oct 17 16:23:19 2023","The main experiment item","True","SternbergTask.osexp","/Users/test/Desktop","False","mono","False","18","no","white","no","yes","768","legacy","98","11","/Users/test/Desktop/AT-subject-3.csv","legacy","2 8 7 9 5 3","Melodramatic Milgram","4.0.5","0","n","0","right","right","up","right","NA","1014.0","73722","13574","1014","NA","2","legacy","6","1024","2","48000","-16","experiment","3","odd","6","776137","766466","773927","4503","168890","773930","772878","4613","155315","774933","778140","779156","78417","778140","NA","Sternberg Task","101","101018.0","111","1024"
"91","91","909","909","black","experiment","legacy","legacy","legacy","1","undefined","1","left","111","111","111","0","0","111","111","0","0","111","111","111","0","111","0","Tue Oct 17 16:23:19 2023","The main experiment item","True","SternbergTask.osexp","/Users/test/Desktop","False","mono","False","18","no","white","no","yes","768","legacy","99","11","/Users/test/Desktop/AT-subject-3.csv","legacy","8 9 5 7 1 6","Melodramatic Milgram","4.0.5","4","y","0","left","right","up","left","NA","847.0","73722","13574","847","NA","2","legacy","6","1024","2","48000","-16","experiment","3","odd","7","782427","779160","780218","4503","168890","780221","772878","4613","155315","781224","784431","785279","78417","784430","NA","Sternberg Task","102","101865.0","112","1024"
"91","91","908","908","black","experiment","legacy","legacy","legacy","1","undefined","1","left","112","112","112","0","0","112","112","0","0","112","112","112","0","112","0","Tue Oct 17 16:23:19 2023","The main experiment item","True","SternbergTask.osexp","/Users/test/Desktop","False","mono","False","18","no","white","no","yes","768","legacy","100","11","/Users/test/Desktop/AT-subject-3.csv","legacy","3 2 1 4 7","Melodramatic Milgram","4.0.5","2","y","0","left","right","up","left","NA","764.0","73722","13574","764","NA","2","legacy","5","1024","2","48000","-16","experiment","3","odd","2","788544","785283","786335","4503","168890","786339","772878","4613","155315","787341","790547","791314","78417","790546","NA","Sternberg Task","103","102629.0","113","1024"
"91","91","906","906","black","experiment","legacy","legacy","legacy","1","undefined","1","left","113","113","113","0","0","113","113","0","0","113","113","113","0","113","0","Tue Oct 17 16:23:19 2023","The main experiment item","True","SternbergTask.osexp","/Users/test/Desktop","False","mono","False","18","no","white","no","yes","768","legacy","101","11","/Users/test/Desktop/AT-subject-3.csv","legacy","8 5 1 3 9","Melodramatic Milgram","4.0.5","4","y","0","left","right","up","left","NA","721.0","73722","13574","721","NA","2","legacy","5","1024","2","48000","-16","experiment","3","odd","3","794583","791317","792374","4503","168890","792377","772878","4613","155315","793380","796586","797310","78417","796586","NA","Sternberg Task","104","103350.0","114","1024"
"91","91","905","905","black","experiment","legacy","legacy","legacy","1","undefined","1","right","114","114","114","0","0","114","114","0","0","114","114","114","0","114","0","Tue Oct 17 16:23:19 2023","The main experiment item","True","SternbergTask.osexp","/Users/test/Desktop","False","mono","False","18","no","white","no","yes","768","legacy","102","11","/Users/test/Desktop/AT-subject-3.csv","legacy","2 8 9","Melodramatic Milgram","4.0.5","0","n","0","right","right","up","right","NA","838.0","73722","13574","838","NA","2","legacy","3","1024","2","48000","-16","experiment","3","odd","6","800579","797314","798370","4503","168890","798373","772878","4613","155315","799376","802583","803423","78417","802582","NA","Sternberg Task","105","104188.0","115","1024"
"91","91","906","906","black","experiment","legacy","legacy","legacy","1","undefined","1","left","115","115","115","0","0","115","115","0","0","115","115","115","0","115","0","Tue Oct 17 16:23:19 2023","The main experiment item","True","SternbergTask.osexp","/Users/test/Desktop","False","mono","False","18","no","white","no","yes","768","legacy","103","11","/Users/test/Desktop/AT-subject-3.csv","legacy","3 4 9 6 2 9","Melodramatic Milgram","4.0.5","5","y","0","left","right","up","left","NA","987.0","73722","13574","987","NA","2","legacy","6","1024","2","48000","-16","experiment","3","odd","2","806684","803427","804475","4503","168890","804478","772878","4613","155315","805481","808687","809675","78417","808687","NA","Sternberg Task","106","105175.0","116","1024"
"90","90","905","905","black","experiment","legacy","legacy","legacy","0","undefined","0","right","116","116","116","0","0","116","116","0","0","116","116","116","0","116","0","Tue Oct 17 16:23:19 2023","The main experiment item","True","SternbergTask.osexp","/Users/test/Desktop","False","mono","False","18","no","white","no","yes","768","legacy","104","11","/Users/test/Desktop/AT-subject-3.csv","legacy","7 9 1 6","Melodramatic Milgram","4.0.5","0","n","0","left","right","up","left","NA","812.0","73722","13574","812","NA","2","legacy","4","1024","2","48000","-16","experiment","3","odd","4","812936","809678","810727","4503","168890","810730","772878","4613","155315","811733","814939","815752","78417","814939","NA","Sternberg Task","106","105987.0","117","1024"
"89","89","910","910","black","experiment","legacy","legacy","legacy","0","undefined","0","left","117","117","117","0","0","117","117","0","0","117","117","117","0","117","0","Tue Oct 17 16:23:19 2023","The main experiment item","True","SternbergTask.osexp","/Users/test/Desktop","False","mono","False","18","no","white","no","yes","768","legacy","105","11","/Users/test/Desktop/AT-subject-3.csv","legacy","8 3","Melodramatic Milgram","4.0.5","2","y","0","right","right","up","right","NA","1495.0","73722","13574","1495","NA","2","legacy","2","1024","2","48000","-16","experiment","3","odd","3","819024","809678","816814","4503","168890","816817","815757","4613","155315","817820","821027","822525","78417","821026","NA","Sternberg Task","106","107482.0","118","1024"
"89","89","909","909","black","experiment","legacy","legacy","legacy","1","undefined","1","left","118","118","118","0","0","118","118","0","0","118","118","118","0","118","0","Tue Oct 17 16:23:19 2023","The main experiment item","True","SternbergTask.osexp","/Users/test/Desktop","False","mono","False","18","no","white","no","yes","768","legacy","106","11","/Users/test/Desktop/AT-subject-3.csv","legacy","9 1 6 7 8","Melodramatic Milgram","4.0.5","1","y","0","left","right","up","left","NA","778.0","73722","13574","778","NA","2","legacy","5","1024","2","48000","-16","experiment","3","odd","9","825780","809678","823570","4503","168890","823573","822529","4613","155315","824577","827783","828564","78417","827783","NA","Sternberg Task","107","108260.0","119","1024"
"90","90","909","909","black","experiment","legacy","legacy","legacy","1","undefined","1","left","119","119","119","0","0","119","119","0","0","119","119","119","0","119","0","Tue Oct 17 16:23:19 2023","The main experiment item","True","SternbergTask.osexp","/Users/test/Desktop","False","mono","False","18","no","white","no","yes","768","legacy","107","11","/Users/test/Desktop/AT-subject-3.csv","legacy","6 2","Melodramatic Milgram","4.0.5","1","y","0","left","right","up","left","NA","820.0","73722","13574","820","NA","2","legacy","2","1024","2","48000","-16","experiment","3","odd","6","831822","828567","829613","4503","168890","829616","822529","4613","155315","830618","833826","834647","78417","833826","NA","Sternberg Task","108","109080.0","120","1024"
"90","90","907","907","black","experiment","legacy","legacy","legacy","1","undefined","1","left","120","120","120","0","0","120","120","0","0","120","120","120","0","120","0","Tue Oct 17 16:23:19 2023","The main experiment item","True","SternbergTask.osexp","/Users/test/Desktop","False","mono","False","18","no","white","no","yes","768","legacy","108","11","/Users/test/Desktop/AT-subject-3.csv","legacy","9 4 2","Melodramatic Milgram","4.0.5","1","y","0","left","right","up","left","NA","677.0","73722","13574","677","NA","2","legacy","3","1024","2","48000","-16","experiment","3","odd","9","837915","834650","835706","4503","168890","835709","822529","4613","155315","836712","839918","840599","78417","839918","NA","Sternberg Task","109","109757.0","121","1024"
"90","90","906","906","black","experiment","legacy","legacy","legacy","1","undefined","1","right","121","121","121","0","0","121","121","0","0","121","121","121","0","121","0","Tue Oct 17 16:23:19 2023","The main experiment item","True","SternbergTask.osexp","/Users/test/Desktop","False","mono","False","18","no","white","no","yes","768","legacy","109","11","/Users/test/Desktop/AT-subject-3.csv","legacy","7 9","Melodramatic Milgram","4.0.5","0","n","0","right","right","up","right","NA","825.0","73722","13574","825","NA","2","legacy","2","1024","2","48000","-16","experiment","3","odd","1","843897","840603","841687","4503","168890","841691","822529","4613","155315","842693","845900","846727","78417","845900","NA","Sternberg Task","110","110582.0","122","1024"
"90","90","906","906","black","experiment","legacy","legacy","legacy","1","undefined","1","right","122","122","122","0","0","122","122","0","0","122","122","122","0","122","0","Tue Oct 17 16:23:19 2023","The main experiment item","True","SternbergTask.osexp","/Users/test/Desktop","False","mono","False","18","no","white","no","yes","768","legacy","110","11","/Users/test/Desktop/AT-subject-3.csv","legacy","1 7 5 2 9","Melodramatic Milgram","4.0.5","0","n","0","right","right","up","right","NA","925.0","73722","13574","925","NA","2","legacy","5","1024","2","48000","-16","experiment","3","odd","3","849989","846730","847780","4503","168890","847783","822529","4613","155315","848786","851992","852918","78417","851992","NA","Sternberg Task","111","111507.0","123","1024"
"90","90","908","908","black","experiment","legacy","legacy","legacy","1","undefined","1","left","123","123","123","0","0","123","123","0","0","123","123","123","0","123","0","Tue Oct 17 16:23:19 2023","The main experiment item","True","SternbergTask.osexp","/Users/test/Desktop","False","mono","False","18","no","white","no","yes","768","legacy","111","11","/Users/test/Desktop/AT-subject-3.csv","legacy","4 6 2 5 1","Melodramatic Milgram","4.0.5","5","y","0","left","right","up","left","NA","1194.0","73722","13574","1194","NA","2","legacy","5","1024","2","48000","-16","experiment","3","odd","1","856400","853134","854192","4503","168890","854194","822529","4613","155315","855198","858402","859598","78417","858402","NA","Sternberg Task","112","112701.0","124","1024"
"90","90","908","908","black","experiment","legacy","legacy","legacy","1","undefined","1","left","124","124","124","0","0","124","124","0","0","124","124","124","0","124","0","Tue Oct 17 16:23:19 2023","The main experiment item","True","SternbergTask.osexp","/Users/test/Desktop","False","mono","False","18","no","white","no","yes","768","legacy","112","11","/Users/test/Desktop/AT-subject-3.csv","legacy","1 4 9 3 2 5","Melodramatic Milgram","4.0.5","3","y","0","left","right","up","left","NA","873.0","73722","13574","873","NA","2","legacy","6","1024","2","48000","-16","experiment","3","odd","9","862850","859602","860642","4503","168890","860644","822529","4613","155315","861647","864853","865728","78417","864853","NA","Sternberg Task","113","113574.0","125","1024"
"90","90","905","905","black","experiment","legacy","legacy","legacy","1","undefined","1","left","125","125","125","0","0","125","125","0","0","125","125","125","0","125","0","Tue Oct 17 16:23:19 2023","The main experiment item","True","SternbergTask.osexp","/Users/test/Desktop","False","mono","False","18","no","white","no","yes","768","legacy","113","11","/Users/test/Desktop/AT-subject-3.csv","legacy","8","Melodramatic Milgram","4.0.5","1","y","0","left","right","up","left","NA","513.0","73722","13574","513","NA","2","legacy","1","1024","2","48000","-16","experiment","3","odd","8","868984","865731","866775","4503","168890","866778","822529","4613","155315","867781","870987","871502","78417","870987","NA","Sternberg Task","114","114087.0","126","1024"
"90","90","904","904","black","experiment","legacy","legacy","legacy","1","undefined","1","left","126","126","126","0","0","126","126","0","0","126","126","126","0","126","0","Tue Oct 17 16:23:19 2023","The main experiment item","True","SternbergTask.osexp","/Users/test/Desktop","False","mono","False","18","no","white","no","yes","768","legacy","114","11","/Users/test/Desktop/AT-subject-3.csv","legacy","8 1 6","Melodramatic Milgram","4.0.5","3","y","0","left","right","up","left","NA","766.0","73722","13574","766","NA","2","legacy","3","1024","2","48000","-16","experiment","3","odd","6","874764","871506","872554","4503","168890","872558","822529","4613","155315","873561","876767","877536","78417","876767","NA","Sternberg Task","115","114853.0","127","1024"
"90","90","902","902","black","experiment","legacy","legacy","legacy","1","undefined","1","left","127","127","127","0","0","127","127","0","0","127","127","127","0","127","0","Tue Oct 17 16:23:19 2023","The main experiment item","True","SternbergTask.osexp","/Users/test/Desktop","False","mono","False","18","no","white","no","yes","768","legacy","115","11","/Users/test/Desktop/AT-subject-3.csv","legacy","7 1 3","Melodramatic Milgram","4.0.5","2","y","0","left","right","up","left","NA","654.0","73722","13574","654","NA","2","legacy","3","1024","2","48000","-16","experiment","3","odd","1","880798","877540","878589","4503","168890","878591","822529","4613","155315","879595","882801","883456","78417","882800","NA","Sternberg Task","116","115507.0","128","1024"
"90","90","900","900","black","experiment","legacy","legacy","legacy","1","undefined","1","left","128","128","128","0","0","128","128","0","0","128","128","128","0","128","0","Tue Oct 17 16:23:19 2023","The main experiment item","True","SternbergTask.osexp","/Users/test/Desktop","False","mono","False","18","no","white","no","yes","768","legacy","116","11","/Users/test/Desktop/AT-subject-3.csv","legacy","6 8 9 3 4 9","Melodramatic Milgram","4.0.5","5","y","0","left","right","up","left","NA","654.0","73722","13574","654","NA","2","legacy","6","1024","2","48000","-16","experiment","3","odd","4","886718","883460","884509","4503","168890","884512","822529","4613","155315","885515","888722","889379","78417","888721","NA","Sternberg Task","117","116161.0","129","1024"
