"acc","accuracy","average_response_time","avg_rt","background","block","canvas_backend","clock_backend","color_backend","compensation","coordinates","correct","correct_instruction1","correct_keyboard_response","correct_response","count_ISI","count_correctFeedback","count_expSequence","count_experiment","count_experimentLoop","count_fixation","count_incorrectFeedback","count_instruction1","count_instructions2","count_keyboard_response","count_memorySet","count_new_logger","count_practiceLoop","count_probe","count_thankYou","datetime","description","disable_garbage_collection","experiment_file","experiment_path","expyriment_opengl","font_bold","font_family","font_italic","font_size","font_underline","foreground","form_clicks","fullscreen","height","keyboard_backend","live_row","live_row_practiceLoop","logfile","mouse_backend","numberSet","opensesame_codename","opensesame_version","posInSet","present","repeat_cycle","response","response_instruction1","response_instructions2","response_keyboard_response","response_thankYou","response_time","response_time_instruction1","response_time_instructions2","response_time_keyboard_response","response_time_thankYou","round_decimals","sampler_backend","setSize","sound_buf_size","sound_channels","sound_freq","sound_sample_size","start","subject_nr","subject_parity","target","time_ISI","time_correctFeedback","time_expSequence","time_experiment","time_experimentLoop","time_fixation","time_incorrectFeedback","time_instruction1","time_instructions2","time_keyboard_response","time_memorySet","time_new_logger","time_practiceLoop","time_probe","time_thankYou","title","total_correct","total_response_time","total_responses","uniform_coordinates","width"
"0","0","773","773","black","practice","legacy","legacy","legacy","0","uniform","0","undefined","0","left","0","0","0","0","0","0","0","0","0","0","0","0","0","0","0","10/17/21 11:53:32","The main experiment item","yes","Sternbergtask.osexp","C:\Users\Brian\Desktop\College - Graduate\Graduate Work\Advanced Quant","yes","no","mono","no","18","no","white","no","yes","768","legacy","0","0","C:/Users/Brian/Desktop/College - Graduate/Graduate Work/Advanced Quant/Lab 3/subject-1.csv","legacy","6","Kafkaesque Koffka","3.2.8","1","y","0","right","right","NA","right","NA","773","15800","NA","773","NA","2","legacy","1","1024","2","48000","-16","experiment","1","odd","6","20469","NA","18261","1938","NA","18263","NA","1948","NA","22471","19266","23245","17749","22470","NA","Sternberg task","0","773","1","yes","1024"
"0","0","964.5","964.5","black","practice","legacy","legacy","legacy","0","uniform","0","undefined","0","left","1","1","1","0","0","1","1","0","0","1","1","1","0","1","0","10/17/21 11:53:32","The main experiment item","yes","Sternbergtask.osexp","C:\Users\Brian\Desktop\College - Graduate\Graduate Work\Advanced Quant","yes","no","mono","no","18","no","white","no","yes","768","legacy","1","1","C:/Users/Brian/Desktop/College - Graduate/Graduate Work/Advanced Quant/Lab 3/subject-1.csv","legacy","2 9 4","Kafkaesque Koffka","3.2.8","3","y","0","right","right","NA","right","NA","1156","15800","NA","1156","NA","2","legacy","3","1024","2","48000","-16","experiment","1","odd","4","26607","NA","24399","1938","NA","24401","23307","1948","NA","28608","25404","29764","17749","28608","NA","Sternberg task","0","1929","2","yes","1024"
"33.3333333333","33.3333333333","840.666666667","840.666666667","black","practice","legacy","legacy","legacy","0","uniform","1","undefined","1","left","2","2","2","0","0","2","2","0","0","2","2","2","0","2","0","10/17/21 11:53:32","The main experiment item","yes","Sternbergtask.osexp","C:\Users\Brian\Desktop\College - Graduate\Graduate Work\Advanced Quant","yes","no","mono","no","18","no","white","no","yes","768","legacy","2","2","C:/Users/Brian/Desktop/College - Graduate/Graduate Work/Advanced Quant/Lab 3/subject-1.csv","legacy","1 5 2 9","Kafkaesque Koffka","3.2.8","2","y","0","left","right","NA","left","NA","593","15800","NA","593","NA","2","legacy","4","1024","2","48000","-16","experiment","1","odd","5","33063","NA","30856","1938","NA","30858","29768","1948","NA","35066","31859","35659","17749","35066","NA","Sternberg task","1","2522","3","yes","1024"
"50","50","763","763","black","practice","legacy","legacy","legacy","0","uniform","1","undefined","1","right","3","3","3","0","0","3","3","0","0","3","3","3","0","3","0","10/17/21 11:53:32","The main experiment item","yes","Sternbergtask.osexp","C:\Users\Brian\Desktop\College - Graduate\Graduate Work\Advanced Quant","yes","no","mono","no","18","no","white","no","yes","768","legacy","3","3","C:/Users/Brian/Desktop/College - Graduate/Graduate Work/Advanced Quant/Lab 3/subject-1.csv","legacy","4 1 5","Kafkaesque Koffka","3.2.8","0","n","0","right","right","NA","right","NA","530","15800","NA","530","NA","2","legacy","3","1024","2","48000","-16","experiment","1","odd","2","38957","35664","36751","1938","NA","36752","29768","1948","NA","40960","37754","41490","17749","40960","NA","Sternberg task","2","3052","4","yes","1024"
"60","60","742.6","742.6","black","practice","legacy","legacy","legacy","0","uniform","1","undefined","1","right","4","4","4","0","0","4","4","0","0","4","4","4","0","4","0","10/17/21 11:53:32","The main experiment item","yes","Sternbergtask.osexp","C:\Users\Brian\Desktop\College - Graduate\Graduate Work\Advanced Quant","yes","no","mono","no","18","no","white","no","yes","768","legacy","4","4","C:/Users/Brian/Desktop/College - Graduate/Graduate Work/Advanced Quant/Lab 3/subject-1.csv","legacy","9 6 7 4 5","Kafkaesque Koffka","3.2.8","0","n","0","right","right","NA","right","NA","661","15800","NA","661","NA","2","legacy","5","1024","2","48000","-16","experiment","1","odd","3","44786","41494","42579","1938","NA","42581","29768","1948","NA","46788","43584","47449","17749","46787","NA","Sternberg task","3","3713","5","yes","1024"
"66.6666666667","66.6666666667","702.333333333","702.333333333","black","practice","legacy","legacy","legacy","0","uniform","1","undefined","1","right","5","5","5","0","0","5","5","0","0","5","5","5","0","5","0","10/17/21 11:53:32","The main experiment item","yes","Sternbergtask.osexp","C:\Users\Brian\Desktop\College - Graduate\Graduate Work\Advanced Quant","yes","no","mono","no","18","no","white","no","yes","768","legacy","5","5","C:/Users/Brian/Desktop/College - Graduate/Graduate Work/Advanced Quant/Lab 3/subject-1.csv","legacy","2 1","Kafkaesque Koffka","3.2.8","0","n","0","right","right","NA","right","NA","501","15800","NA","501","NA","2","legacy","2","1024","2","48000","-16","experiment","1","odd","5","50751","47458","48543","1938","NA","48545","29768","1948","NA","52753","49548","53255","17749","52753","NA","Sternberg task","4","4214","6","yes","1024"
"71.4285714286","71.4285714286","675","675","black","practice","legacy","legacy","legacy","0","uniform","1","undefined","1","left","6","6","6","0","0","6","6","0","0","6","6","6","0","6","0","10/17/21 11:53:32","The main experiment item","yes","Sternbergtask.osexp","C:\Users\Brian\Desktop\College - Graduate\Graduate Work\Advanced Quant","yes","no","mono","no","18","no","white","no","yes","768","legacy","6","6","C:/Users/Brian/Desktop/College - Graduate/Graduate Work/Advanced Quant/Lab 3/subject-1.csv","legacy","4 3 1 7 9 8","Kafkaesque Koffka","3.2.8","1","y","0","left","right","NA","left","NA","511","15800","NA","511","NA","2","legacy","6","1024","2","48000","-16","experiment","1","odd","4","56558","53263","54350","1938","NA","54352","29768","1948","NA","58560","55355","59071","17749","58559","NA","Sternberg task","5","4725","7","yes","1024"
"75","75","671.625","671.625","black","practice","legacy","legacy","legacy","0","uniform","1","undefined","1","right","7","7","7","0","0","7","7","0","0","7","7","7","0","7","0","10/17/21 11:53:32","The main experiment item","yes","Sternbergtask.osexp","C:\Users\Brian\Desktop\College - Graduate\Graduate Work\Advanced Quant","yes","no","mono","no","18","no","white","no","yes","768","legacy","7","7","C:/Users/Brian/Desktop/College - Graduate/Graduate Work/Advanced Quant/Lab 3/subject-1.csv","legacy","5","Kafkaesque Koffka","3.2.8","0","n","0","right","right","NA","right","NA","648","15800","NA","648","NA","2","legacy","1","1024","2","48000","-16","experiment","1","odd","3","62373","59080","60166","1938","NA","60168","29768","1948","NA","64376","61170","65025","17749","64376","NA","Sternberg task","6","5373","8","yes","1024"
"77.7777777778","77.7777777778","672.555555556","672.555555556","black","practice","legacy","legacy","legacy","0","uniform","1","undefined","1","right","8","8","8","0","0","8","8","0","0","8","8","8","0","8","0","10/17/21 11:53:32","The main experiment item","yes","Sternbergtask.osexp","C:\Users\Brian\Desktop\College - Graduate\Graduate Work\Advanced Quant","yes","no","mono","no","18","no","white","no","yes","768","legacy","8","8","C:/Users/Brian/Desktop/College - Graduate/Graduate Work/Advanced Quant/Lab 3/subject-1.csv","legacy","5 7 8 4 1 2","Kafkaesque Koffka","3.2.8","0","n","0","right","right","NA","right","NA","680","15800","NA","680","NA","2","legacy","6","1024","2","48000","-16","experiment","1","odd","6","68330","65034","66123","1938","NA","66124","29768","1948","NA","70333","67127","71014","17749","70333","NA","Sternberg task","7","6053","9","yes","1024"
"80","80","658","658","black","practice","legacy","legacy","legacy","0","uniform","1","undefined","1","left","9","9","9","0","0","9","9","0","0","9","9","9","0","9","0","10/17/21 11:53:32","The main experiment item","yes","Sternbergtask.osexp","C:\Users\Brian\Desktop\College - Graduate\Graduate Work\Advanced Quant","yes","no","mono","no","18","no","white","no","yes","768","legacy","9","9","C:/Users/Brian/Desktop/College - Graduate/Graduate Work/Advanced Quant/Lab 3/subject-1.csv","legacy","4 8","Kafkaesque Koffka","3.2.8","1","y","0","left","right","NA","left","NA","527","15800","NA","527","NA","2","legacy","2","1024","2","48000","-16","experiment","1","odd","4","74318","71023","72110","1938","NA","72112","29768","1948","NA","76320","73115","76848","17749","76320","NA","Sternberg task","8","6580","10","yes","1024"
"81.8181818182","81.8181818182","679.454545455","679.454545455","black","practice","legacy","legacy","legacy","0","uniform","1","undefined","1","left","10","10","10","0","0","10","10","0","0","10","10","10","0","10","0","10/17/21 11:53:32","The main experiment item","yes","Sternbergtask.osexp","C:\Users\Brian\Desktop\College - Graduate\Graduate Work\Advanced Quant","yes","no","mono","no","18","no","white","no","yes","768","legacy","10","10","C:/Users/Brian/Desktop/College - Graduate/Graduate Work/Advanced Quant/Lab 3/subject-1.csv","legacy","1 7 9 8 5","Kafkaesque Koffka","3.2.8","4","y","0","left","right","NA","left","NA","894","15800","NA","894","NA","2","legacy","5","1024","2","48000","-16","experiment","1","odd","8","80151","76857","77943","1938","NA","77945","29768","1948","NA","82153","78948","83047","17749","82153","NA","Sternberg task","9","7474","11","yes","1024"
"83.3333333333","83.3333333333","680.5","680.5","black","practice","legacy","legacy","legacy","0","uniform","1","undefined","1","right","11","11","11","0","0","11","11","0","0","11","11","11","0","11","0","10/17/21 11:53:32","The main experiment item","yes","Sternbergtask.osexp","C:\Users\Brian\Desktop\College - Graduate\Graduate Work\Advanced Quant","yes","no","mono","no","18","no","white","no","yes","768","legacy","11","11","C:/Users/Brian/Desktop/College - Graduate/Graduate Work/Advanced Quant/Lab 3/subject-1.csv","legacy","3 1 9 4","Kafkaesque Koffka","3.2.8","0","n","0","right","right","NA","right","NA","692","15800","NA","692","NA","2","legacy","4","1024","2","48000","-16","experiment","1","odd","6","86350","83055","84142","1938","NA","84144","29768","1948","NA","88352","85147","89045","17749","88352","NA","Sternberg task","10","8166","12","yes","1024"
"84.6153846154","84.6153846154","667.615384615","667.615384615","black","experiment","legacy","legacy","legacy","0","uniform","1","undefined","1","right","12","12","12","0","0","12","12","0","0","12","12","12","0","12","0","10/17/21 11:53:32","The main experiment item","yes","Sternbergtask.osexp","C:\Users\Brian\Desktop\College - Graduate\Graduate Work\Advanced Quant","yes","no","mono","no","18","no","white","no","yes","768","legacy","0","11","C:/Users/Brian/Desktop/College - Graduate/Graduate Work/Advanced Quant/Lab 3/subject-1.csv","legacy","3 4 2","Kafkaesque Koffka","3.2.8","0","n","0","right","right","left","right","NA","513","15800","4698","513","NA","2","legacy","3","1024","2","48000","-16","experiment","1","odd","5","97095","89053","94888","1938","94774","94889","29768","1948","90075","99097","95891","99611","17749","99096","NA","Sternberg task","11","8679","13","yes","1024"
"85.7142857143","85.7142857143","651.785714286","651.785714286","black","experiment","legacy","legacy","legacy","0","uniform","1","undefined","1","left","13","13","13","0","0","13","13","0","0","13","13","13","0","13","0","10/17/21 11:53:32","The main experiment item","yes","Sternbergtask.osexp","C:\Users\Brian\Desktop\College - Graduate\Graduate Work\Advanced Quant","yes","no","mono","no","18","no","white","no","yes","768","legacy","1","11","C:/Users/Brian/Desktop/College - Graduate/Graduate Work/Advanced Quant/Lab 3/subject-1.csv","legacy","8 5 1 3 9","Kafkaesque Koffka","3.2.8","4","y","0","left","right","left","left","NA","446","15800","4698","446","NA","2","legacy","5","1024","2","48000","-16","experiment","1","odd","3","102911","99619","100704","1938","94774","100706","29768","1948","90075","104913","101709","105359","17749","104913","NA","Sternberg task","12","9125","14","yes","1024"
"86.6666666667","86.6666666667","635.933333333","635.933333333","black","experiment","legacy","legacy","legacy","0","uniform","1","undefined","1","left","14","14","14","0","0","14","14","0","0","14","14","14","0","14","0","10/17/21 11:53:32","The main experiment item","yes","Sternbergtask.osexp","C:\Users\Brian\Desktop\College - Graduate\Graduate Work\Advanced Quant","yes","no","mono","no","18","no","white","no","yes","768","legacy","2","11","C:/Users/Brian/Desktop/College - Graduate/Graduate Work/Advanced Quant/Lab 3/subject-1.csv","legacy","8","Kafkaesque Koffka","3.2.8","1","y","0","left","right","left","left","NA","414","15800","4698","414","NA","2","legacy","1","1024","2","48000","-16","experiment","1","odd","8","108661","105368","106454","1938","94774","106456","29768","1948","90075","110664","107458","111078","17749","110664","NA","Sternberg task","13","9539","15","yes","1024"
"81.25","81.25","635.5625","635.5625","black","experiment","legacy","legacy","legacy","0","uniform","0","undefined","0","right","15","15","15","0","0","15","15","0","0","15","15","15","0","15","0","10/17/21 11:53:32","The main experiment item","yes","Sternbergtask.osexp","C:\Users\Brian\Desktop\College - Graduate\Graduate Work\Advanced Quant","yes","no","mono","no","18","no","white","no","yes","768","legacy","3","11","C:/Users/Brian/Desktop/College - Graduate/Graduate Work/Advanced Quant/Lab 3/subject-1.csv","legacy","7 4 2 8 1 9","Kafkaesque Koffka","3.2.8","0","n","0","left","right","left","left","NA","630","15800","4698","630","NA","2","legacy","6","1024","2","48000","-16","experiment","1","odd","5","114379","111087","112171","1938","94774","112173","29768","1948","90075","116382","113176","117012","17749","116382","NA","Sternberg task","13","10169","16","yes","1024"
"82.3529411765","82.3529411765","635.058823529","635.058823529","black","experiment","legacy","legacy","legacy","0","uniform","1","undefined","1","left","16","16","16","0","0","16","16","0","0","16","16","16","0","16","0","10/17/21 11:53:32","The main experiment item","yes","Sternbergtask.osexp","C:\Users\Brian\Desktop\College - Graduate\Graduate Work\Advanced Quant","yes","no","mono","no","18","no","white","no","yes","768","legacy","4","11","C:/Users/Brian/Desktop/College - Graduate/Graduate Work/Advanced Quant/Lab 3/subject-1.csv","legacy","8 3","Kafkaesque Koffka","3.2.8","2","y","0","left","right","left","left","NA","627","15800","4698","627","NA","2","legacy","2","1024","2","48000","-16","experiment","1","odd","3","120316","111087","118108","1938","94774","118110","117021","1948","90075","122317","119112","122945","17749","122317","NA","Sternberg task","14","10796","17","yes","1024"
"83.3333333333","83.3333333333","642.555555556","642.555555556","black","experiment","legacy","legacy","legacy","0","uniform","1","undefined","1","right","17","17","17","0","0","17","17","0","0","17","17","17","0","17","0","10/17/21 11:53:32","The main experiment item","yes","Sternbergtask.osexp","C:\Users\Brian\Desktop\College - Graduate\Graduate Work\Advanced Quant","yes","no","mono","no","18","no","white","no","yes","768","legacy","5","11","C:/Users/Brian/Desktop/College - Graduate/Graduate Work/Advanced Quant/Lab 3/subject-1.csv","legacy","2 8 6 3 1","Kafkaesque Koffka","3.2.8","0","n","0","right","right","left","right","NA","770","15800","4698","770","NA","2","legacy","5","1024","2","48000","-16","experiment","1","odd","7","126250","122954","124042","1938","94774","124043","117021","1948","90075","128252","125047","129023","17749","128252","NA","Sternberg task","15","11566","18","yes","1024"
"84.2105263158","84.2105263158","637.368421053","637.368421053","black","experiment","legacy","legacy","legacy","0","uniform","1","undefined","1","right","18","18","18","0","0","18","18","0","0","18","18","18","0","18","0","10/17/21 11:53:32","The main experiment item","yes","Sternbergtask.osexp","C:\Users\Brian\Desktop\College - Graduate\Graduate Work\Advanced Quant","yes","no","mono","no","18","no","white","no","yes","768","legacy","6","11","C:/Users/Brian/Desktop/College - Graduate/Graduate Work/Advanced Quant/Lab 3/subject-1.csv","legacy","6 2 9 3 8 4","Kafkaesque Koffka","3.2.8","0","n","0","right","right","left","right","NA","544","15800","4698","544","NA","2","legacy","6","1024","2","48000","-16","experiment","1","odd","1","132329","129031","130121","1938","94774","130123","117021","1948","90075","134332","131126","134876","17749","134332","NA","Sternberg task","16","12110","19","yes","1024"
"85","85","642.65","642.65","black","experiment","legacy","legacy","legacy","0","uniform","1","undefined","1","right","19","19","19","0","0","19","19","0","0","19","19","19","0","19","0","10/17/21 11:53:32","The main experiment item","yes","Sternbergtask.osexp","C:\Users\Brian\Desktop\College - Graduate\Graduate Work\Advanced Quant","yes","no","mono","no","18","no","white","no","yes","768","legacy","7","11","C:/Users/Brian/Desktop/College - Graduate/Graduate Work/Advanced Quant/Lab 3/subject-1.csv","legacy","7 8 6 1","Kafkaesque Koffka","3.2.8","0","n","0","right","right","left","right","NA","743","15800","4698","743","NA","2","legacy","4","1024","2","48000","-16","experiment","1","odd","3","138172","134880","135965","1938","94774","135966","117021","1948","90075","140174","136969","140918","17749","140174","NA","Sternberg task","17","12853","20","yes","1024"
"85.7142857143","85.7142857143","641.333333333","641.333333333","black","experiment","legacy","legacy","legacy","0","uniform","1","undefined","1","right","20","20","20","0","0","20","20","0","0","20","20","20","0","20","0","10/17/21 11:53:32","The main experiment item","yes","Sternbergtask.osexp","C:\Users\Brian\Desktop\College - Graduate\Graduate Work\Advanced Quant","yes","no","mono","no","18","no","white","no","yes","768","legacy","8","11","C:/Users/Brian/Desktop/College - Graduate/Graduate Work/Advanced Quant/Lab 3/subject-1.csv","legacy","7 1 5 6 3","Kafkaesque Koffka","3.2.8","0","n","0","right","right","left","right","NA","615","15800","4698","615","NA","2","legacy","5","1024","2","48000","-16","experiment","1","odd","8","144219","140922","142012","1938","94774","142013","117021","1948","90075","146220","143016","146836","17749","146220","NA","Sternberg task","18","13468","21","yes","1024"
"86.3636363636","86.3636363636","648.772727273","648.772727273","black","experiment","legacy","legacy","legacy","0","uniform","1","undefined","1","left","21","21","21","0","0","21","21","0","0","21","21","21","0","21","0","10/17/21 11:53:32","The main experiment item","yes","Sternbergtask.osexp","C:\Users\Brian\Desktop\College - Graduate\Graduate Work\Advanced Quant","yes","no","mono","no","18","no","white","no","yes","768","legacy","9","11","C:/Users/Brian/Desktop/College - Graduate/Graduate Work/Advanced Quant/Lab 3/subject-1.csv","legacy","7 4 2 6 3 5","Kafkaesque Koffka","3.2.8","6","y","0","left","right","left","left","NA","805","15800","4698","805","NA","2","legacy","6","1024","2","48000","-16","experiment","1","odd","5","150137","146844","147931","1938","94774","147933","117021","1948","90075","152140","148934","152946","17749","152140","NA","Sternberg task","19","14273","22","yes","1024"
"86.9565217391","86.9565217391","639.695652174","639.695652174","black","experiment","legacy","legacy","legacy","0","uniform","1","undefined","1","left","22","22","22","0","0","22","22","0","0","22","22","22","0","22","0","10/17/21 11:53:32","The main experiment item","yes","Sternbergtask.osexp","C:\Users\Brian\Desktop\College - Graduate\Graduate Work\Advanced Quant","yes","no","mono","no","18","no","white","no","yes","768","legacy","10","11","C:/Users/Brian/Desktop/College - Graduate/Graduate Work/Advanced Quant/Lab 3/subject-1.csv","legacy","8 7 3","Kafkaesque Koffka","3.2.8","1","y","0","left","right","left","left","NA","440","15800","4698","440","NA","2","legacy","3","1024","2","48000","-16","experiment","1","odd","8","156247","152955","154039","1938","94774","154041","117021","1948","90075","158249","155044","158690","17749","158249","NA","Sternberg task","20","14713","23","yes","1024"
"87.5","87.5","633.458333333","633.458333333","black","experiment","legacy","legacy","legacy","0","uniform","1","undefined","1","left","23","23","23","0","0","23","23","0","0","23","23","23","0","23","0","10/17/21 11:53:32","The main experiment item","yes","Sternbergtask.osexp","C:\Users\Brian\Desktop\College - Graduate\Graduate Work\Advanced Quant","yes","no","mono","no","18","no","white","no","yes","768","legacy","11","11","C:/Users/Brian/Desktop/College - Graduate/Graduate Work/Advanced Quant/Lab 3/subject-1.csv","legacy","4 7 6 8 2 3","Kafkaesque Koffka","3.2.8","6","y","0","left","right","left","left","NA","490","15800","4698","490","NA","2","legacy","6","1024","2","48000","-16","experiment","1","odd","3","161995","158698","159788","1938","94774","159789","117021","1948","90075","163996","160792","164487","17749","163996","NA","Sternberg task","21","15203","24","yes","1024"
"88","88","628.48","628.48","black","experiment","legacy","legacy","legacy","0","uniform","1","undefined","1","right","24","24","24","0","0","24","24","0","0","24","24","24","0","24","0","10/17/21 11:53:32","The main experiment item","yes","Sternbergtask.osexp","C:\Users\Brian\Desktop\College - Graduate\Graduate Work\Advanced Quant","yes","no","mono","no","18","no","white","no","yes","768","legacy","12","11","C:/Users/Brian/Desktop/College - Graduate/Graduate Work/Advanced Quant/Lab 3/subject-1.csv","legacy","6 9 4 5 3 2","Kafkaesque Koffka","3.2.8","0","n","0","right","right","left","right","NA","509","15800","4698","509","NA","2","legacy","6","1024","2","48000","-16","experiment","1","odd","8","167798","164494","165590","1938","94774","165592","117021","1948","90075","169799","166595","170309","17749","169799","NA","Sternberg task","22","15712","25","yes","1024"
"88.4615384615","88.4615384615","628.230769231","628.230769231","black","experiment","legacy","legacy","legacy","0","uniform","1","undefined","1","left","25","25","25","0","0","25","25","0","0","25","25","25","0","25","0","10/17/21 11:53:32","The main experiment item","yes","Sternbergtask.osexp","C:\Users\Brian\Desktop\College - Graduate\Graduate Work\Advanced Quant","yes","no","mono","no","18","no","white","no","yes","768","legacy","13","11","C:/Users/Brian/Desktop/College - Graduate/Graduate Work/Advanced Quant/Lab 3/subject-1.csv","legacy","4 3 2 5 8","Kafkaesque Koffka","3.2.8","2","y","0","left","right","left","left","NA","622","15800","4698","622","NA","2","legacy","5","1024","2","48000","-16","experiment","1","odd","3","173610","170313","171403","1938","94774","171404","117021","1948","90075","175613","172406","176236","17749","175613","NA","Sternberg task","23","16334","26","yes","1024"
"88.8888888889","88.8888888889","620.666666667","620.666666667","black","experiment","legacy","legacy","legacy","0","uniform","1","undefined","1","left","26","26","26","0","0","26","26","0","0","26","26","26","0","26","0","10/17/21 11:53:32","The main experiment item","yes","Sternbergtask.osexp","C:\Users\Brian\Desktop\College - Graduate\Graduate Work\Advanced Quant","yes","no","mono","no","18","no","white","no","yes","768","legacy","14","11","C:/Users/Brian/Desktop/College - Graduate/Graduate Work/Advanced Quant/Lab 3/subject-1.csv","legacy","6 7 9 3 1 2","Kafkaesque Koffka","3.2.8","1","y","0","left","right","left","left","NA","424","15800","4698","424","NA","2","legacy","6","1024","2","48000","-16","experiment","1","odd","6","179541","176245","177333","1938","94774","177335","117021","1948","90075","181543","178338","181968","17749","181543","NA","Sternberg task","24","16758","27","yes","1024"
"89.2857142857","89.2857142857","617.107142857","617.107142857","black","experiment","legacy","legacy","legacy","0","uniform","1","undefined","1","left","27","27","27","0","0","27","27","0","0","27","27","27","0","27","0","10/17/21 11:53:32","The main experiment item","yes","Sternbergtask.osexp","C:\Users\Brian\Desktop\College - Graduate\Graduate Work\Advanced Quant","yes","no","mono","no","18","no","white","no","yes","768","legacy","15","11","C:/Users/Brian/Desktop/College - Graduate/Graduate Work/Advanced Quant/Lab 3/subject-1.csv","legacy","6 2","Kafkaesque Koffka","3.2.8","1","y","0","left","right","left","left","NA","521","15800","4698","521","NA","2","legacy","2","1024","2","48000","-16","experiment","1","odd","6","185271","181975","183063","1938","94774","183064","117021","1948","90075","187273","184068","187795","17749","187272","NA","Sternberg task","25","17279","28","yes","1024"
"89.6551724138","89.6551724138","616.482758621","616.482758621","black","experiment","legacy","legacy","legacy","0","uniform","1","undefined","1","left","28","28","28","0","0","28","28","0","0","28","28","28","0","28","0","10/17/21 11:53:32","The main experiment item","yes","Sternbergtask.osexp","C:\Users\Brian\Desktop\College - Graduate\Graduate Work\Advanced Quant","yes","no","mono","no","18","no","white","no","yes","768","legacy","16","11","C:/Users/Brian/Desktop/College - Graduate/Graduate Work/Advanced Quant/Lab 3/subject-1.csv","legacy","3 5 7 1","Kafkaesque Koffka","3.2.8","3","y","0","left","right","left","left","NA","599","15800","4698","599","NA","2","legacy","4","1024","2","48000","-16","experiment","1","odd","7","191100","187804","188893","1938","94774","188895","117021","1948","90075","193103","189898","193703","17749","193103","NA","Sternberg task","26","17878","29","yes","1024"
"90","90","608.566666667","608.566666667","black","experiment","legacy","legacy","legacy","0","uniform","1","undefined","1","right","29","29","29","0","0","29","29","0","0","29","29","29","0","29","0","10/17/21 11:53:32","The main experiment item","yes","Sternbergtask.osexp","C:\Users\Brian\Desktop\College - Graduate\Graduate Work\Advanced Quant","yes","no","mono","no","18","no","white","no","yes","768","legacy","17","11","C:/Users/Brian/Desktop/College - Graduate/Graduate Work/Advanced Quant/Lab 3/subject-1.csv","legacy","9 8 2 7 4","Kafkaesque Koffka","3.2.8","0","n","0","right","right","left","right","NA","379","15800","4698","379","NA","2","legacy","5","1024","2","48000","-16","experiment","1","odd","5","197003","193711","194795","1938","94774","194797","117021","1948","90075","199004","195800","199384","17749","199004","NA","Sternberg task","27","18257","30","yes","1024"
"87.0967741935","87.0967741935","606.096774194","606.096774194","black","experiment","legacy","legacy","legacy","0","uniform","0","undefined","0","right","30","30","30","0","0","30","30","0","0","30","30","30","0","30","0","10/17/21 11:53:32","The main experiment item","yes","Sternbergtask.osexp","C:\Users\Brian\Desktop\College - Graduate\Graduate Work\Advanced Quant","yes","no","mono","no","18","no","white","no","yes","768","legacy","18","11","C:/Users/Brian/Desktop/College - Graduate/Graduate Work/Advanced Quant/Lab 3/subject-1.csv","legacy","2 5 1 4","Kafkaesque Koffka","3.2.8","0","n","0","left","right","left","left","NA","532","15800","4698","532","NA","2","legacy","4","1024","2","48000","-16","experiment","1","odd","6","202688","199393","200480","1938","94774","200482","117021","1948","90075","204689","201485","205222","17749","204689","NA","Sternberg task","27","18789","31","yes","1024"
"87.5","87.5","605.0625","605.0625","black","experiment","legacy","legacy","legacy","0","uniform","1","undefined","1","right","31","31","31","0","0","31","31","0","0","31","31","31","0","31","0","10/17/21 11:53:32","The main experiment item","yes","Sternbergtask.osexp","C:\Users\Brian\Desktop\College - Graduate\Graduate Work\Advanced Quant","yes","no","mono","no","18","no","white","no","yes","768","legacy","19","11","C:/Users/Brian/Desktop/College - Graduate/Graduate Work/Advanced Quant/Lab 3/subject-1.csv","legacy","7 9 1 6","Kafkaesque Koffka","3.2.8","0","n","0","right","right","left","right","NA","573","15800","4698","573","NA","2","legacy","4","1024","2","48000","-16","experiment","1","odd","4","208523","199393","206314","1938","94774","206316","205226","1948","90075","210524","207319","211098","17749","210524","NA","Sternberg task","28","19362","32","yes","1024"
"87.8787878788","87.8787878788","605.848484848","605.848484848","black","experiment","legacy","legacy","legacy","0","uniform","1","undefined","1","left","32","32","32","0","0","32","32","0","0","32","32","32","0","32","0","10/17/21 11:53:32","The main experiment item","yes","Sternbergtask.osexp","C:\Users\Brian\Desktop\College - Graduate\Graduate Work\Advanced Quant","yes","no","mono","no","18","no","white","no","yes","768","legacy","20","11","C:/Users/Brian/Desktop/College - Graduate/Graduate Work/Advanced Quant/Lab 3/subject-1.csv","legacy","3 4","Kafkaesque Koffka","3.2.8","1","y","0","left","right","left","left","NA","631","15800","4698","631","NA","2","legacy","2","1024","2","48000","-16","experiment","1","odd","3","214395","211101","212190","1938","94774","212191","205226","1948","90075","216398","213192","217029","17749","216398","NA","Sternberg task","29","19993","33","yes","1024"
"88.2352941176","88.2352941176","603.029411765","603.029411765","black","experiment","legacy","legacy","legacy","0","uniform","1","undefined","1","left","33","33","33","0","0","33","33","0","0","33","33","33","0","33","0","10/17/21 11:53:32","The main experiment item","yes","Sternbergtask.osexp","C:\Users\Brian\Desktop\College - Graduate\Graduate Work\Advanced Quant","yes","no","mono","no","18","no","white","no","yes","768","legacy","21","11","C:/Users/Brian/Desktop/College - Graduate/Graduate Work/Advanced Quant/Lab 3/subject-1.csv","legacy","9 1 6 7 8","Kafkaesque Koffka","3.2.8","1","y","0","left","right","left","left","NA","510","15800","4698","510","NA","2","legacy","5","1024","2","48000","-16","experiment","1","odd","9","220332","217037","218125","1938","94774","218126","205226","1948","90075","222335","219129","222846","17749","222335","NA","Sternberg task","30","20503","34","yes","1024"
"88.5714285714","88.5714285714","596.485714286","596.485714286","black","experiment","legacy","legacy","legacy","0","uniform","1","undefined","1","left","34","34","34","0","0","34","34","0","0","34","34","34","0","34","0","10/17/21 11:53:32","The main experiment item","yes","Sternbergtask.osexp","C:\Users\Brian\Desktop\College - Graduate\Graduate Work\Advanced Quant","yes","no","mono","no","18","no","white","no","yes","768","legacy","22","11","C:/Users/Brian/Desktop/College - Graduate/Graduate Work/Advanced Quant/Lab 3/subject-1.csv","legacy","2 4 8 5 1 3","Kafkaesque Koffka","3.2.8","1","y","0","left","right","left","left","NA","374","15800","4698","374","NA","2","legacy","6","1024","2","48000","-16","experiment","1","odd","2","226147","222854","223939","1938","94774","223941","205226","1948","90075","228149","224944","228524","17749","228149","NA","Sternberg task","31","20877","35","yes","1024"
"88.8888888889","88.8888888889","602.666666667","602.666666667","black","experiment","legacy","legacy","legacy","0","uniform","1","undefined","1","right","35","35","35","0","0","35","35","0","0","35","35","35","0","35","0","10/17/21 11:53:32","The main experiment item","yes","Sternbergtask.osexp","C:\Users\Brian\Desktop\College - Graduate\Graduate Work\Advanced Quant","yes","no","mono","no","18","no","white","no","yes","768","legacy","23","11","C:/Users/Brian/Desktop/College - Graduate/Graduate Work/Advanced Quant/Lab 3/subject-1.csv","legacy","2 8 9","Kafkaesque Koffka","3.2.8","0","n","0","right","right","left","right","NA","819","15800","4698","819","NA","2","legacy","3","1024","2","48000","-16","experiment","1","odd","6","231830","228532","229623","1938","94774","229624","205226","1948","90075","233833","230627","234653","17749","233833","NA","Sternberg task","32","21696","36","yes","1024"
"89.1891891892","89.1891891892","597.486486486","597.486486486","black","experiment","legacy","legacy","legacy","0","uniform","1","undefined","1","left","36","36","36","0","0","36","36","0","0","36","36","36","0","36","0","10/17/21 11:53:32","The main experiment item","yes","Sternbergtask.osexp","C:\Users\Brian\Desktop\College - Graduate\Graduate Work\Advanced Quant","yes","no","mono","no","18","no","white","no","yes","768","legacy","24","11","C:/Users/Brian/Desktop/College - Graduate/Graduate Work/Advanced Quant/Lab 3/subject-1.csv","legacy","2 8 5 1","Kafkaesque Koffka","3.2.8","4","y","0","left","right","left","left","NA","411","15800","4698","411","NA","2","legacy","4","1024","2","48000","-16","experiment","1","odd","1","237956","234662","235749","1938","94774","235751","205226","1948","90075","239958","236754","240370","17749","239958","NA","Sternberg task","33","22107","37","yes","1024"
"89.4736842105","89.4736842105","601.026315789","601.026315789","black","experiment","legacy","legacy","legacy","0","uniform","1","undefined","1","right","37","37","37","0","0","37","37","0","0","37","37","37","0","37","0","10/17/21 11:53:32","The main experiment item","yes","Sternbergtask.osexp","C:\Users\Brian\Desktop\College - Graduate\Graduate Work\Advanced Quant","yes","no","mono","no","18","no","white","no","yes","768","legacy","25","11","C:/Users/Brian/Desktop/College - Graduate/Graduate Work/Advanced Quant/Lab 3/subject-1.csv","legacy","8 6 3 4 7","Kafkaesque Koffka","3.2.8","0","n","0","right","right","left","right","NA","732","15800","4698","732","NA","2","legacy","5","1024","2","48000","-16","experiment","1","odd","1","243665","240374","241458","1938","94774","241460","205226","1948","90075","245668","242463","246401","17749","245667","NA","Sternberg task","34","22839","38","yes","1024"
"89.7435897436","89.7435897436","601.948717949","601.948717949","black","experiment","legacy","legacy","legacy","0","uniform","1","undefined","1","left","38","38","38","0","0","38","38","0","0","38","38","38","0","38","0","10/17/21 11:53:32","The main experiment item","yes","Sternbergtask.osexp","C:\Users\Brian\Desktop\College - Graduate\Graduate Work\Advanced Quant","yes","no","mono","no","18","no","white","no","yes","768","legacy","26","11","C:/Users/Brian/Desktop/College - Graduate/Graduate Work/Advanced Quant/Lab 3/subject-1.csv","legacy","4 1 8 7 5","Kafkaesque Koffka","3.2.8","3","y","0","left","right","left","left","NA","637","15800","4698","637","NA","2","legacy","5","1024","2","48000","-16","experiment","1","odd","8","249706","246409","247500","1938","94774","247502","205226","1948","90075","251709","248503","252347","17749","251709","NA","Sternberg task","35","23476","39","yes","1024"
"90","90","603.45","603.45","black","experiment","legacy","legacy","legacy","0","uniform","1","undefined","1","left","39","39","39","0","0","39","39","0","0","39","39","39","0","39","0","10/17/21 11:53:32","The main experiment item","yes","Sternbergtask.osexp","C:\Users\Brian\Desktop\College - Graduate\Graduate Work\Advanced Quant","yes","no","mono","no","18","no","white","no","yes","768","legacy","27","11","C:/Users/Brian/Desktop/College - Graduate/Graduate Work/Advanced Quant/Lab 3/subject-1.csv","legacy","6 9 3 1","Kafkaesque Koffka","3.2.8","4","y","0","left","right","left","left","NA","662","15800","4698","662","NA","2","legacy","4","1024","2","48000","-16","experiment","1","odd","1","255647","252355","253440","1938","94774","253442","205226","1948","90075","257650","254444","258313","17749","257650","NA","Sternberg task","36","24138","40","yes","1024"
"90.243902439","90.243902439","609.585365854","609.585365854","black","experiment","legacy","legacy","legacy","0","uniform","1","undefined","1","right","40","40","40","0","0","40","40","0","0","40","40","40","0","40","0","10/17/21 11:53:32","The main experiment item","yes","Sternbergtask.osexp","C:\Users\Brian\Desktop\College - Graduate\Graduate Work\Advanced Quant","yes","no","mono","no","18","no","white","no","yes","768","legacy","28","11","C:/Users/Brian/Desktop/College - Graduate/Graduate Work/Advanced Quant/Lab 3/subject-1.csv","legacy","6 9 7 3 8 2","Kafkaesque Koffka","3.2.8","0","n","0","right","right","left","right","NA","855","15800","4698","855","NA","2","legacy","6","1024","2","48000","-16","experiment","1","odd","5","261615","258321","259410","1938","94774","259411","205226","1948","90075","263618","260412","264474","17749","263618","NA","Sternberg task","37","24993","41","yes","1024"
"90.4761904762","90.4761904762","606.404761905","606.404761905","black","experiment","legacy","legacy","legacy","0","uniform","1","undefined","1","right","41","41","41","0","0","41","41","0","0","41","41","41","0","41","0","10/17/21 11:53:32","The main experiment item","yes","Sternbergtask.osexp","C:\Users\Brian\Desktop\College - Graduate\Graduate Work\Advanced Quant","yes","no","mono","no","18","no","white","no","yes","768","legacy","29","11","C:/Users/Brian/Desktop/College - Graduate/Graduate Work/Advanced Quant/Lab 3/subject-1.csv","legacy","9","Kafkaesque Koffka","3.2.8","0","n","0","right","right","left","right","NA","476","15800","4698","476","NA","2","legacy","1","1024","2","48000","-16","experiment","1","odd","6","267776","264482","265568","1938","94774","265570","205226","1948","90075","269778","266573","270255","17749","269778","NA","Sternberg task","38","25469","42","yes","1024"
"90.6976744186","90.6976744186","603.046511628","603.046511628","black","experiment","legacy","legacy","legacy","0","uniform","1","undefined","1","left","42","42","42","0","0","42","42","0","0","42","42","42","0","42","0","10/17/21 11:53:32","The main experiment item","yes","Sternbergtask.osexp","C:\Users\Brian\Desktop\College - Graduate\Graduate Work\Advanced Quant","yes","no","mono","no","18","no","white","no","yes","768","legacy","30","11","C:/Users/Brian/Desktop/College - Graduate/Graduate Work/Advanced Quant/Lab 3/subject-1.csv","legacy","4","Kafkaesque Koffka","3.2.8","1","y","0","left","right","left","left","NA","462","15800","4698","462","NA","2","legacy","1","1024","2","48000","-16","experiment","1","odd","4","273556","270260","271350","1938","94774","271351","205226","1948","90075","275559","272353","276023","17749","275559","NA","Sternberg task","39","25931","43","yes","1024"
"90.9090909091","90.9090909091","599.545454545","599.545454545","black","experiment","legacy","legacy","legacy","0","uniform","1","undefined","1","left","43","43","43","0","0","43","43","0","0","43","43","43","0","43","0","10/17/21 11:53:32","The main experiment item","yes","Sternbergtask.osexp","C:\Users\Brian\Desktop\College - Graduate\Graduate Work\Advanced Quant","yes","no","mono","no","18","no","white","no","yes","768","legacy","31","11","C:/Users/Brian/Desktop/College - Graduate/Graduate Work/Advanced Quant/Lab 3/subject-1.csv","legacy","7 1 3","Kafkaesque Koffka","3.2.8","2","y","0","left","right","left","left","NA","449","15800","4698","449","NA","2","legacy","3","1024","2","48000","-16","experiment","1","odd","1","279326","276032","277118","1938","94774","277120","205226","1948","90075","281328","278123","281778","17749","281328","NA","Sternberg task","40","26380","44","yes","1024"
"91.1111111111","91.1111111111","597.066666667","597.066666667","black","experiment","legacy","legacy","legacy","0","uniform","1","undefined","1","right","44","44","44","0","0","44","44","0","0","44","44","44","0","44","0","10/17/21 11:53:32","The main experiment item","yes","Sternbergtask.osexp","C:\Users\Brian\Desktop\College - Graduate\Graduate Work\Advanced Quant","yes","no","mono","no","18","no","white","no","yes","768","legacy","32","11","C:/Users/Brian/Desktop/College - Graduate/Graduate Work/Advanced Quant/Lab 3/subject-1.csv","legacy","7 1","Kafkaesque Koffka","3.2.8","0","n","0","right","right","left","right","NA","488","15800","4698","488","NA","2","legacy","2","1024","2","48000","-16","experiment","1","odd","8","285084","281787","282876","1938","94774","282878","205226","1948","90075","287085","283881","287574","17749","287085","NA","Sternberg task","41","26868","45","yes","1024"
"91.3043478261","91.3043478261","600.347826087","600.347826087","black","experiment","legacy","legacy","legacy","0","uniform","1","undefined","1","right","45","45","45","0","0","45","45","0","0","45","45","45","0","45","0","10/17/21 11:53:32","The main experiment item","yes","Sternbergtask.osexp","C:\Users\Brian\Desktop\College - Graduate\Graduate Work\Advanced Quant","yes","no","mono","no","18","no","white","no","yes","768","legacy","33","11","C:/Users/Brian/Desktop/College - Graduate/Graduate Work/Advanced Quant/Lab 3/subject-1.csv","legacy","9 5 3 2 8 6","Kafkaesque Koffka","3.2.8","0","n","0","right","right","left","right","NA","748","15800","4698","748","NA","2","legacy","6","1024","2","48000","-16","experiment","1","odd","7","290877","287583","288670","1938","94774","288672","205226","1948","90075","292880","289675","293629","17749","292880","NA","Sternberg task","42","27616","46","yes","1024"
"91.4893617021","91.4893617021","604.063829787","604.063829787","black","experiment","legacy","legacy","legacy","0","uniform","1","undefined","1","left","46","46","46","0","0","46","46","0","0","46","46","46","0","46","0","10/17/21 11:53:32","The main experiment item","yes","Sternbergtask.osexp","C:\Users\Brian\Desktop\College - Graduate\Graduate Work\Advanced Quant","yes","no","mono","no","18","no","white","no","yes","768","legacy","34","11","C:/Users/Brian/Desktop/College - Graduate/Graduate Work/Advanced Quant/Lab 3/subject-1.csv","legacy","3 2 1 4 7","Kafkaesque Koffka","3.2.8","2","y","0","left","right","left","left","NA","775","15800","4698","775","NA","2","legacy","5","1024","2","48000","-16","experiment","1","odd","2","296930","293636","294722","1938","94774","294724","205226","1948","90075","298933","295727","299709","17749","298932","NA","Sternberg task","43","28391","47","yes","1024"
"91.6666666667","91.6666666667","602.8125","602.8125","black","experiment","legacy","legacy","legacy","0","uniform","1","undefined","1","right","47","47","47","0","0","47","47","0","0","47","47","47","0","47","0","10/17/21 11:53:32","The main experiment item","yes","Sternbergtask.osexp","C:\Users\Brian\Desktop\College - Graduate\Graduate Work\Advanced Quant","yes","no","mono","no","18","no","white","no","yes","768","legacy","35","11","C:/Users/Brian/Desktop/College - Graduate/Graduate Work/Advanced Quant/Lab 3/subject-1.csv","legacy","9 7 4 5 8","Kafkaesque Koffka","3.2.8","0","n","0","right","right","left","right","NA","544","15800","4698","544","NA","2","legacy","5","1024","2","48000","-16","experiment","1","odd","6","303009","299717","300801","1938","94774","300803","205226","1948","90075","305010","301806","305555","17749","305010","NA","Sternberg task","44","28935","48","yes","1024"
"91.8367346939","91.8367346939","600.183673469","600.183673469","black","experiment","legacy","legacy","legacy","0","uniform","1","undefined","1","right","48","48","48","0","0","48","48","0","0","48","48","48","0","48","0","10/17/21 11:53:32","The main experiment item","yes","Sternbergtask.osexp","C:\Users\Brian\Desktop\College - Graduate\Graduate Work\Advanced Quant","yes","no","mono","no","18","no","white","no","yes","768","legacy","36","11","C:/Users/Brian/Desktop/College - Graduate/Graduate Work/Advanced Quant/Lab 3/subject-1.csv","legacy","5","Kafkaesque Koffka","3.2.8","0","n","0","right","right","left","right","NA","474","15800","4698","474","NA","2","legacy","1","1024","2","48000","-16","experiment","1","odd","8","308855","305563","306648","1938","94774","306649","205226","1948","90075","310857","307652","311332","17749","310857","NA","Sternberg task","45","29409","49","yes","1024"
"92","92","604.88","604.88","black","experiment","legacy","legacy","legacy","0","uniform","1","undefined","1","right","49","49","49","0","0","49","49","0","0","49","49","49","0","49","0","10/17/21 11:53:32","The main experiment item","yes","Sternbergtask.osexp","C:\Users\Brian\Desktop\College - Graduate\Graduate Work\Advanced Quant","yes","no","mono","no","18","no","white","no","yes","768","legacy","37","11","C:/Users/Brian/Desktop/College - Graduate/Graduate Work/Advanced Quant/Lab 3/subject-1.csv","legacy","8 5 4 2 9 6","Kafkaesque Koffka","3.2.8","0","n","0","right","right","left","right","NA","835","15800","4698","835","NA","2","legacy","6","1024","2","48000","-16","experiment","1","odd","3","314632","311340","312424","1938","94774","312426","205226","1948","90075","316634","313429","317470","17749","316633","NA","Sternberg task","46","30244","50","yes","1024"
"92.1568627451","92.1568627451","603.921568627","603.921568627","black","experiment","legacy","legacy","legacy","0","uniform","1","undefined","1","right","50","50","50","0","0","50","50","0","0","50","50","50","0","50","0","10/17/21 11:53:32","The main experiment item","yes","Sternbergtask.osexp","C:\Users\Brian\Desktop\College - Graduate\Graduate Work\Advanced Quant","yes","no","mono","no","18","no","white","no","yes","768","legacy","38","11","C:/Users/Brian/Desktop/College - Graduate/Graduate Work/Advanced Quant/Lab 3/subject-1.csv","legacy","6 9 4 5 2","Kafkaesque Koffka","3.2.8","0","n","0","right","right","left","right","NA","556","15800","4698","556","NA","2","legacy","5","1024","2","48000","-16","experiment","1","odd","1","320775","317479","318567","1938","94774","318569","205226","1948","90075","322778","319572","323335","17749","322778","NA","Sternberg task","47","30800","51","yes","1024"
"92.3076923077","92.3076923077","605.961538462","605.961538462","black","experiment","legacy","legacy","legacy","0","uniform","1","undefined","1","left","51","51","51","0","0","51","51","0","0","51","51","51","0","51","0","10/17/21 11:53:32","The main experiment item","yes","Sternbergtask.osexp","C:\Users\Brian\Desktop\College - Graduate\Graduate Work\Advanced Quant","yes","no","mono","no","18","no","white","no","yes","768","legacy","39","11","C:/Users/Brian/Desktop/College - Graduate/Graduate Work/Advanced Quant/Lab 3/subject-1.csv","legacy","3 9 7 6 4","Kafkaesque Koffka","3.2.8","3","y","0","left","right","left","left","NA","710","15800","4698","710","NA","2","legacy","5","1024","2","48000","-16","experiment","1","odd","7","326642","323343","324435","1938","94774","324437","205226","1948","90075","328645","325439","329356","17749","328645","NA","Sternberg task","48","31510","52","yes","1024"
"92.4528301887","92.4528301887","605.566037736","605.566037736","black","experiment","legacy","legacy","legacy","0","uniform","1","undefined","1","right","52","52","52","0","0","52","52","0","0","52","52","52","0","52","0","10/17/21 11:53:32","The main experiment item","yes","Sternbergtask.osexp","C:\Users\Brian\Desktop\College - Graduate\Graduate Work\Advanced Quant","yes","no","mono","no","18","no","white","no","yes","768","legacy","40","11","C:/Users/Brian/Desktop/College - Graduate/Graduate Work/Advanced Quant/Lab 3/subject-1.csv","legacy","1 7 5 2 9","Kafkaesque Koffka","3.2.8","0","n","0","right","right","left","right","NA","585","15800","4698","585","NA","2","legacy","5","1024","2","48000","-16","experiment","1","odd","3","332657","329364","330450","1938","94774","330452","205226","1948","90075","334660","331454","335246","17749","334660","NA","Sternberg task","49","32095","53","yes","1024"
"92.5925925926","92.5925925926","601.777777778","601.777777778","black","experiment","legacy","legacy","legacy","0","uniform","1","undefined","1","left","53","53","53","0","0","53","53","0","0","53","53","53","0","53","0","10/17/21 11:53:32","The main experiment item","yes","Sternbergtask.osexp","C:\Users\Brian\Desktop\College - Graduate\Graduate Work\Advanced Quant","yes","no","mono","no","18","no","white","no","yes","768","legacy","41","11","C:/Users/Brian/Desktop/College - Graduate/Graduate Work/Advanced Quant/Lab 3/subject-1.csv","legacy","8 5 3 7 4 6","Kafkaesque Koffka","3.2.8","6","y","0","left","right","left","left","NA","401","15800","4698","401","NA","2","legacy","6","1024","2","48000","-16","experiment","1","odd","6","338551","335254","336344","1938","94774","336346","205226","1948","90075","340554","337348","340956","17749","340554","NA","Sternberg task","50","32496","54","yes","1024"
"92.7272727273","92.7272727273","600.872727273","600.872727273","black","experiment","legacy","legacy","legacy","0","uniform","1","undefined","1","right","54","54","54","0","0","54","54","0","0","54","54","54","0","54","0","10/17/21 11:53:32","The main experiment item","yes","Sternbergtask.osexp","C:\Users\Brian\Desktop\College - Graduate\Graduate Work\Advanced Quant","yes","no","mono","no","18","no","white","no","yes","768","legacy","42","11","C:/Users/Brian/Desktop/College - Graduate/Graduate Work/Advanced Quant/Lab 3/subject-1.csv","legacy","6 8","Kafkaesque Koffka","3.2.8","0","n","0","right","right","left","right","NA","552","15800","4698","552","NA","2","legacy","2","1024","2","48000","-16","experiment","1","odd","9","344256","340964","342048","1938","94774","342050","205226","1948","90075","346258","343053","346811","17749","346258","NA","Sternberg task","51","33048","55","yes","1024"
"92.8571428571","92.8571428571","603","603","black","experiment","legacy","legacy","legacy","0","uniform","1","undefined","1","left","55","55","55","0","0","55","55","0","0","55","55","55","0","55","0","10/17/21 11:53:32","The main experiment item","yes","Sternbergtask.osexp","C:\Users\Brian\Desktop\College - Graduate\Graduate Work\Advanced Quant","yes","no","mono","no","18","no","white","no","yes","768","legacy","43","11","C:/Users/Brian/Desktop/College - Graduate/Graduate Work/Advanced Quant/Lab 3/subject-1.csv","legacy","1 4 9 3 2 5","Kafkaesque Koffka","3.2.8","3","y","0","left","right","left","left","NA","720","15800","4698","720","NA","2","legacy","6","1024","2","48000","-16","experiment","1","odd","9","350116","346819","347908","1938","94774","347909","205226","1948","90075","352119","348913","352840","17749","352119","NA","Sternberg task","52","33768","56","yes","1024"
"92.9824561404","92.9824561404","601.368421053","601.368421053","black","experiment","legacy","legacy","legacy","0","uniform","1","undefined","1","right","56","56","56","0","0","56","56","0","0","56","56","56","0","56","0","10/17/21 11:53:32","The main experiment item","yes","Sternbergtask.osexp","C:\Users\Brian\Desktop\College - Graduate\Graduate Work\Advanced Quant","yes","no","mono","no","18","no","white","no","yes","768","legacy","44","11","C:/Users/Brian/Desktop/College - Graduate/Graduate Work/Advanced Quant/Lab 3/subject-1.csv","legacy","1 4 3 6 5","Kafkaesque Koffka","3.2.8","0","n","0","right","right","left","right","NA","510","15800","4698","510","NA","2","legacy","5","1024","2","48000","-16","experiment","1","odd","8","356139","352849","353932","1938","94774","353933","205226","1948","90075","358140","354936","358651","17749","358140","NA","Sternberg task","53","34278","57","yes","1024"
"93.1034482759","93.1034482759","603.327586207","603.327586207","black","experiment","legacy","legacy","legacy","0","uniform","1","undefined","1","right","57","57","57","0","0","57","57","0","0","57","57","57","0","57","0","10/17/21 11:53:32","The main experiment item","yes","Sternbergtask.osexp","C:\Users\Brian\Desktop\College - Graduate\Graduate Work\Advanced Quant","yes","no","mono","no","18","no","white","no","yes","768","legacy","45","11","C:/Users/Brian/Desktop/College - Graduate/Graduate Work/Advanced Quant/Lab 3/subject-1.csv","legacy","3 4 9 6 7 8","Kafkaesque Koffka","3.2.8","0","n","0","right","right","left","right","NA","715","15800","4698","715","NA","2","legacy","6","1024","2","48000","-16","experiment","1","odd","2","361958","358659","359750","1938","94774","359752","205226","1948","90075","363959","360755","364675","17749","363959","NA","Sternberg task","54","34993","58","yes","1024"
"93.2203389831","93.2203389831","603.237288136","603.237288136","black","experiment","legacy","legacy","legacy","0","uniform","1","undefined","1","right","58","58","58","0","0","58","58","0","0","58","58","58","0","58","0","10/17/21 11:53:32","The main experiment item","yes","Sternbergtask.osexp","C:\Users\Brian\Desktop\College - Graduate\Graduate Work\Advanced Quant","yes","no","mono","no","18","no","white","no","yes","768","legacy","46","11","C:/Users/Brian/Desktop/College - Graduate/Graduate Work/Advanced Quant/Lab 3/subject-1.csv","legacy","7 6 4 8 1 2","Kafkaesque Koffka","3.2.8","0","n","0","right","right","left","right","NA","598","15800","4698","598","NA","2","legacy","6","1024","2","48000","-16","experiment","1","odd","9","367975","364683","365767","1938","94774","365769","205226","1948","90075","369976","366772","370575","17749","369976","NA","Sternberg task","55","35591","59","yes","1024"
"93.3333333333","93.3333333333","601.933333333","601.933333333","black","experiment","legacy","legacy","legacy","0","uniform","1","undefined","1","right","59","59","59","0","0","59","59","0","0","59","59","59","0","59","0","10/17/21 11:53:32","The main experiment item","yes","Sternbergtask.osexp","C:\Users\Brian\Desktop\College - Graduate\Graduate Work\Advanced Quant","yes","no","mono","no","18","no","white","no","yes","768","legacy","47","11","C:/Users/Brian/Desktop/College - Graduate/Graduate Work/Advanced Quant/Lab 3/subject-1.csv","legacy","6 8 4","Kafkaesque Koffka","3.2.8","0","n","0","right","right","left","right","NA","525","15800","4698","525","NA","2","legacy","3","1024","2","48000","-16","experiment","1","odd","1","373876","370583","371670","1938","94774","371672","205226","1948","90075","375879","372674","376405","17749","375879","NA","Sternberg task","56","36116","60","yes","1024"
"93.4426229508","93.4426229508","600.426229508","600.426229508","black","experiment","legacy","legacy","legacy","0","uniform","1","undefined","1","right","60","60","60","0","0","60","60","0","0","60","60","60","0","60","0","10/17/21 11:53:32","The main experiment item","yes","Sternbergtask.osexp","C:\Users\Brian\Desktop\College - Graduate\Graduate Work\Advanced Quant","yes","no","mono","no","18","no","white","no","yes","768","legacy","48","11","C:/Users/Brian/Desktop/College - Graduate/Graduate Work/Advanced Quant/Lab 3/subject-1.csv","legacy","8 4 3 5","Kafkaesque Koffka","3.2.8","0","n","0","right","right","left","right","NA","510","15800","4698","510","NA","2","legacy","4","1024","2","48000","-16","experiment","1","odd","6","379706","376413","377498","1938","94774","377500","205226","1948","90075","381707","378503","382219","17749","381707","NA","Sternberg task","57","36626","61","yes","1024"
"93.5483870968","93.5483870968","597.85483871","597.85483871","black","experiment","legacy","legacy","legacy","0","uniform","1","undefined","1","right","61","61","61","0","0","61","61","0","0","61","61","61","0","61","0","10/17/21 11:53:32","The main experiment item","yes","Sternbergtask.osexp","C:\Users\Brian\Desktop\College - Graduate\Graduate Work\Advanced Quant","yes","no","mono","no","18","no","white","no","yes","768","legacy","49","11","C:/Users/Brian/Desktop/College - Graduate/Graduate Work/Advanced Quant/Lab 3/subject-1.csv","legacy","5 2","Kafkaesque Koffka","3.2.8","0","n","0","right","right","left","right","NA","441","15800","4698","441","NA","2","legacy","2","1024","2","48000","-16","experiment","1","odd","7","385518","382226","383311","1938","94774","383313","205226","1948","90075","387521","384316","387964","17749","387521","NA","Sternberg task","58","37067","62","yes","1024"
"93.6507936508","93.6507936508","605.063492063","605.063492063","black","experiment","legacy","legacy","legacy","0","uniform","1","undefined","1","left","62","62","62","0","0","62","62","0","0","62","62","62","0","62","0","10/17/21 11:53:32","The main experiment item","yes","Sternbergtask.osexp","C:\Users\Brian\Desktop\College - Graduate\Graduate Work\Advanced Quant","yes","no","mono","no","18","no","white","no","yes","768","legacy","50","11","C:/Users/Brian/Desktop/College - Graduate/Graduate Work/Advanced Quant/Lab 3/subject-1.csv","legacy","6 8 9 3 4 9","Kafkaesque Koffka","3.2.8","5","y","0","left","right","left","left","NA","1052","15800","4698","1052","NA","2","legacy","6","1024","2","48000","-16","experiment","1","odd","4","391266","387973","389058","1938","94774","389059","205226","1948","90075","393268","390063","394322","17749","393268","NA","Sternberg task","59","38119","63","yes","1024"
"93.75","93.75","606.25","606.25","black","experiment","legacy","legacy","legacy","0","uniform","1","undefined","1","right","63","63","63","0","0","63","63","0","0","63","63","63","0","63","0","10/17/21 11:53:32","The main experiment item","yes","Sternbergtask.osexp","C:\Users\Brian\Desktop\College - Graduate\Graduate Work\Advanced Quant","yes","no","mono","no","18","no","white","no","yes","768","legacy","51","11","C:/Users/Brian/Desktop/College - Graduate/Graduate Work/Advanced Quant/Lab 3/subject-1.csv","legacy","4 2 6 9","Kafkaesque Koffka","3.2.8","0","n","0","right","right","left","right","NA","681","15800","4698","681","NA","2","legacy","4","1024","2","48000","-16","experiment","1","odd","7","397625","394330","395418","1938","94774","395419","205226","1948","90075","399628","396422","400310","17749","399628","NA","Sternberg task","60","38800","64","yes","1024"
"93.8461538462","93.8461538462","606.061538462","606.061538462","black","experiment","legacy","legacy","legacy","0","uniform","1","undefined","1","left","64","64","64","0","0","64","64","0","0","64","64","64","0","64","0","10/17/21 11:53:32","The main experiment item","yes","Sternbergtask.osexp","C:\Users\Brian\Desktop\College - Graduate\Graduate Work\Advanced Quant","yes","no","mono","no","18","no","white","no","yes","768","legacy","52","11","C:/Users/Brian/Desktop/College - Graduate/Graduate Work/Advanced Quant/Lab 3/subject-1.csv","legacy","9 8 4","Kafkaesque Koffka","3.2.8","1","y","0","left","right","left","left","NA","594","15800","4698","594","NA","2","legacy","3","1024","2","48000","-16","experiment","1","odd","9","403613","400318","401405","1938","94774","401407","205226","1948","90075","405614","402410","406209","17749","405614","NA","Sternberg task","61","39394","65","yes","1024"
"93.9393939394","93.9393939394","608.606060606","608.606060606","black","experiment","legacy","legacy","legacy","0","uniform","1","undefined","1","right","65","65","65","0","0","65","65","0","0","65","65","65","0","65","0","10/17/21 11:53:32","The main experiment item","yes","Sternbergtask.osexp","C:\Users\Brian\Desktop\College - Graduate\Graduate Work\Advanced Quant","yes","no","mono","no","18","no","white","no","yes","768","legacy","53","11","C:/Users/Brian/Desktop/College - Graduate/Graduate Work/Advanced Quant/Lab 3/subject-1.csv","legacy","6 3 1 7 9 8","Kafkaesque Koffka","3.2.8","0","n","0","right","right","left","right","NA","774","15800","4698","774","NA","2","legacy","6","1024","2","48000","-16","experiment","1","odd","4","409511","406217","407303","1938","94774","407305","205226","1948","90075","411512","408308","412287","17749","411512","NA","Sternberg task","62","40168","66","yes","1024"
"94.0298507463","94.0298507463","605.611940299","605.611940299","black","experiment","legacy","legacy","legacy","0","uniform","1","undefined","1","left","66","66","66","0","0","66","66","0","0","66","66","66","0","66","0","10/17/21 11:53:32","The main experiment item","yes","Sternbergtask.osexp","C:\Users\Brian\Desktop\College - Graduate\Graduate Work\Advanced Quant","yes","no","mono","no","18","no","white","no","yes","768","legacy","54","11","C:/Users/Brian/Desktop/College - Graduate/Graduate Work/Advanced Quant/Lab 3/subject-1.csv","legacy","8 1 6","Kafkaesque Koffka","3.2.8","3","y","0","left","right","left","left","NA","408","15800","4698","408","NA","2","legacy","3","1024","2","48000","-16","experiment","1","odd","6","415591","412295","413383","1938","94774","413385","205226","1948","90075","417594","414388","418003","17749","417594","NA","Sternberg task","63","40576","67","yes","1024"
"94.1176470588","94.1176470588","611.691176471","611.691176471","black","experiment","legacy","legacy","legacy","0","uniform","1","undefined","1","left","67","67","67","0","0","67","67","0","0","67","67","67","0","67","0","10/17/21 11:53:32","The main experiment item","yes","Sternbergtask.osexp","C:\Users\Brian\Desktop\College - Graduate\Graduate Work\Advanced Quant","yes","no","mono","no","18","no","white","no","yes","768","legacy","55","11","C:/Users/Brian/Desktop/College - Graduate/Graduate Work/Advanced Quant/Lab 3/subject-1.csv","legacy","2 5 4 8 7","Kafkaesque Koffka","3.2.8","3","y","0","left","right","left","left","NA","1019","15800","4698","1019","NA","2","legacy","5","1024","2","48000","-16","experiment","1","odd","4","421299","418007","419091","1938","94774","419093","205226","1948","90075","423300","420096","424320","17749","423300","NA","Sternberg task","64","41595","68","yes","1024"
"92.7536231884","92.7536231884","613.68115942","613.68115942","black","experiment","legacy","legacy","legacy","0","uniform","0","undefined","0","right","68","68","68","0","0","68","68","0","0","68","68","68","0","68","0","10/17/21 11:53:32","The main experiment item","yes","Sternbergtask.osexp","C:\Users\Brian\Desktop\College - Graduate\Graduate Work\Advanced Quant","yes","no","mono","no","18","no","white","no","yes","768","legacy","56","11","C:/Users/Brian/Desktop/College - Graduate/Graduate Work/Advanced Quant/Lab 3/subject-1.csv","legacy","1 6 4 3 9 7","Kafkaesque Koffka","3.2.8","0","n","0","left","right","left","left","NA","749","15800","4698","749","NA","2","legacy","6","1024","2","48000","-16","experiment","1","odd","8","427622","424330","425416","1938","94774","425418","205226","1948","90075","429625","426419","430375","17749","429625","NA","Sternberg task","64","42344","69","yes","1024"
"92.8571428571","92.8571428571","615.871428571","615.871428571","black","experiment","legacy","legacy","legacy","0","uniform","1","undefined","1","right","69","69","69","0","0","69","69","0","0","69","69","69","0","69","0","10/17/21 11:53:32","The main experiment item","yes","Sternbergtask.osexp","C:\Users\Brian\Desktop\College - Graduate\Graduate Work\Advanced Quant","yes","no","mono","no","18","no","white","no","yes","768","legacy","57","11","C:/Users/Brian/Desktop/College - Graduate/Graduate Work/Advanced Quant/Lab 3/subject-1.csv","legacy","5 7 3","Kafkaesque Koffka","3.2.8","0","n","0","right","right","left","right","NA","767","15800","4698","767","NA","2","legacy","3","1024","2","48000","-16","experiment","1","odd","9","433674","424330","431466","1938","94774","431468","430382","1948","90075","435675","432471","436444","17749","435675","NA","Sternberg task","65","43111","70","yes","1024"
"92.9577464789","92.9577464789","619.14084507","619.14084507","black","experiment","legacy","legacy","legacy","0","uniform","1","undefined","1","right","70","70","70","0","0","70","70","0","0","70","70","70","0","70","0","10/17/21 11:53:32","The main experiment item","yes","Sternbergtask.osexp","C:\Users\Brian\Desktop\College - Graduate\Graduate Work\Advanced Quant","yes","no","mono","no","18","no","white","no","yes","768","legacy","58","11","C:/Users/Brian/Desktop/College - Graduate/Graduate Work/Advanced Quant/Lab 3/subject-1.csv","legacy","1 7 5 2","Kafkaesque Koffka","3.2.8","0","n","0","right","right","left","right","NA","848","15800","4698","848","NA","2","legacy","4","1024","2","48000","-16","experiment","1","odd","3","439755","436452","437548","1938","94774","437549","430382","1948","90075","441758","438552","442607","17749","441758","NA","Sternberg task","66","43959","71","yes","1024"
"93.0555555556","93.0555555556","620.958333333","620.958333333","black","experiment","legacy","legacy","legacy","0","uniform","1","undefined","1","right","71","71","71","0","0","71","71","0","0","71","71","71","0","71","0","10/17/21 11:53:32","The main experiment item","yes","Sternbergtask.osexp","C:\Users\Brian\Desktop\College - Graduate\Graduate Work\Advanced Quant","yes","no","mono","no","18","no","white","no","yes","768","legacy","59","11","C:/Users/Brian/Desktop/College - Graduate/Graduate Work/Advanced Quant/Lab 3/subject-1.csv","legacy","5 9 2 3","Kafkaesque Koffka","3.2.8","0","n","0","right","right","left","right","NA","750","15800","4698","750","NA","2","legacy","4","1024","2","48000","-16","experiment","1","odd","8","445917","442614","443709","1938","94774","443711","430382","1948","90075","447918","444714","448669","17749","447918","NA","Sternberg task","67","44709","72","yes","1024"
"93.1506849315","93.1506849315","624.123287671","624.123287671","black","experiment","legacy","legacy","legacy","0","uniform","1","undefined","1","right","72","72","72","0","0","72","72","0","0","72","72","72","0","72","0","10/17/21 11:53:32","The main experiment item","yes","Sternbergtask.osexp","C:\Users\Brian\Desktop\College - Graduate\Graduate Work\Advanced Quant","yes","no","mono","no","18","no","white","no","yes","768","legacy","60","11","C:/Users/Brian/Desktop/College - Graduate/Graduate Work/Advanced Quant/Lab 3/subject-1.csv","legacy","8 4 3 9","Kafkaesque Koffka","3.2.8","0","n","0","right","right","left","right","NA","852","15800","4698","852","NA","2","legacy","4","1024","2","48000","-16","experiment","1","odd","5","451970","448677","449762","1938","94774","449764","430382","1948","90075","453971","450767","454824","17749","453971","NA","Sternberg task","68","45561","73","yes","1024"
"93.2432432432","93.2432432432","624.702702703","624.702702703","black","experiment","legacy","legacy","legacy","0","uniform","1","undefined","1","left","73","73","73","0","0","73","73","0","0","73","73","73","0","73","0","10/17/21 11:53:32","The main experiment item","yes","Sternbergtask.osexp","C:\Users\Brian\Desktop\College - Graduate\Graduate Work\Advanced Quant","yes","no","mono","no","18","no","white","no","yes","768","legacy","61","11","C:/Users/Brian/Desktop/College - Graduate/Graduate Work/Advanced Quant/Lab 3/subject-1.csv","legacy","9 6 2 4 1","Kafkaesque Koffka","3.2.8","4","y","0","left","right","left","left","NA","667","15800","4698","667","NA","2","legacy","5","1024","2","48000","-16","experiment","1","odd","4","458123","454828","455916","1938","94774","455917","430382","1948","90075","460124","456920","460792","17749","460124","NA","Sternberg task","69","46228","74","yes","1024"
"93.3333333333","93.3333333333","625.64","625.64","black","experiment","legacy","legacy","legacy","0","uniform","1","undefined","1","right","74","74","74","0","0","74","74","0","0","74","74","74","0","74","0","10/17/21 11:53:32","The main experiment item","yes","Sternbergtask.osexp","C:\Users\Brian\Desktop\College - Graduate\Graduate Work\Advanced Quant","yes","no","mono","no","18","no","white","no","yes","768","legacy","62","11","C:/Users/Brian/Desktop/College - Graduate/Graduate Work/Advanced Quant/Lab 3/subject-1.csv","legacy","8 5 7 3 6","Kafkaesque Koffka","3.2.8","0","n","0","right","right","left","right","NA","695","15800","4698","695","NA","2","legacy","5","1024","2","48000","-16","experiment","1","odd","9","464092","460800","461884","1938","94774","461886","430382","1948","90075","466094","462889","466791","17749","466094","NA","Sternberg task","70","46923","75","yes","1024"
"93.4210526316","93.4210526316","625.5","625.5","black","experiment","legacy","legacy","legacy","0","uniform","1","undefined","1","right","75","75","75","0","0","75","75","0","0","75","75","75","0","75","0","10/17/21 11:53:32","The main experiment item","yes","Sternbergtask.osexp","C:\Users\Brian\Desktop\College - Graduate\Graduate Work\Advanced Quant","yes","no","mono","no","18","no","white","no","yes","768","legacy","63","11","C:/Users/Brian/Desktop/College - Graduate/Graduate Work/Advanced Quant/Lab 3/subject-1.csv","legacy","2 7 5","Kafkaesque Koffka","3.2.8","0","n","0","right","right","left","right","NA","615","15800","4698","615","NA","2","legacy","3","1024","2","48000","-16","experiment","1","odd","8","470090","466799","467883","1938","94774","467884","430382","1948","90075","472093","468887","472709","17749","472093","NA","Sternberg task","71","47538","76","yes","1024"
"92.2077922078","92.2077922078","627.012987013","627.012987013","black","experiment","legacy","legacy","legacy","0","uniform","0","undefined","0","left","76","76","76","0","0","76","76","0","0","76","76","76","0","76","0","10/17/21 11:53:32","The main experiment item","yes","Sternbergtask.osexp","C:\Users\Brian\Desktop\College - Graduate\Graduate Work\Advanced Quant","yes","no","mono","no","18","no","white","no","yes","768","legacy","64","11","C:/Users/Brian/Desktop/College - Graduate/Graduate Work/Advanced Quant/Lab 3/subject-1.csv","legacy","5 2 9 6 1 7","Kafkaesque Koffka","3.2.8","3","y","0","right","right","left","right","NA","742","15800","4698","742","NA","2","legacy","6","1024","2","48000","-16","experiment","1","odd","9","476016","472717","473809","1938","94774","473810","430382","1948","90075","478019","474813","478762","17749","478018","NA","Sternberg task","71","48280","77","yes","1024"
"92.3076923077","92.3076923077","626.794871795","626.794871795","black","experiment","legacy","legacy","legacy","0","uniform","1","undefined","1","right","77","77","77","0","0","77","77","0","0","77","77","77","0","77","0","10/17/21 11:53:32","The main experiment item","yes","Sternbergtask.osexp","C:\Users\Brian\Desktop\College - Graduate\Graduate Work\Advanced Quant","yes","no","mono","no","18","no","white","no","yes","768","legacy","65","11","C:/Users/Brian/Desktop/College - Graduate/Graduate Work/Advanced Quant/Lab 3/subject-1.csv","legacy","3 9 1","Kafkaesque Koffka","3.2.8","0","n","0","right","right","left","right","NA","610","15800","4698","610","NA","2","legacy","3","1024","2","48000","-16","experiment","1","odd","7","482062","472717","479854","1938","94774","479856","478770","1948","90075","484064","480859","484676","17749","484064","NA","Sternberg task","72","48890","78","yes","1024"
"92.4050632911","92.4050632911","625.35443038","625.35443038","black","experiment","legacy","legacy","legacy","0","uniform","1","undefined","1","right","78","78","78","0","0","78","78","0","0","78","78","78","0","78","0","10/17/21 11:53:32","The main experiment item","yes","Sternbergtask.osexp","C:\Users\Brian\Desktop\College - Graduate\Graduate Work\Advanced Quant","yes","no","mono","no","18","no","white","no","yes","768","legacy","66","11","C:/Users/Brian/Desktop/College - Graduate/Graduate Work/Advanced Quant/Lab 3/subject-1.csv","legacy","1","Kafkaesque Koffka","3.2.8","0","n","0","right","right","left","right","NA","513","15800","4698","513","NA","2","legacy","1","1024","2","48000","-16","experiment","1","odd","7","487974","484683","485767","1938","94774","485768","478770","1948","90075","489975","486771","490489","17749","489975","NA","Sternberg task","73","49403","79","yes","1024"
"92.5","92.5","625.2625","625.2625","black","experiment","legacy","legacy","legacy","0","uniform","1","undefined","1","right","79","79","79","0","0","79","79","0","0","79","79","79","0","79","0","10/17/21 11:53:32","The main experiment item","yes","Sternbergtask.osexp","C:\Users\Brian\Desktop\College - Graduate\Graduate Work\Advanced Quant","yes","no","mono","no","18","no","white","no","yes","768","legacy","67","11","C:/Users/Brian/Desktop/College - Graduate/Graduate Work/Advanced Quant/Lab 3/subject-1.csv","legacy","4 2 7 6 1 3","Kafkaesque Koffka","3.2.8","0","n","0","right","right","left","right","NA","618","15800","4698","618","NA","2","legacy","6","1024","2","48000","-16","experiment","1","odd","8","493790","490496","491582","1938","94774","491584","478770","1948","90075","495793","492587","496412","17749","495792","NA","Sternberg task","74","50021","80","yes","1024"
"92.5925925926","92.5925925926","625.962962963","625.962962963","black","experiment","legacy","legacy","legacy","0","uniform","1","undefined","1","left","80","80","80","0","0","80","80","0","0","80","80","80","0","80","0","10/17/21 11:53:32","The main experiment item","yes","Sternbergtask.osexp","C:\Users\Brian\Desktop\College - Graduate\Graduate Work\Advanced Quant","yes","no","mono","no","18","no","white","no","yes","768","legacy","68","11","C:/Users/Brian/Desktop/College - Graduate/Graduate Work/Advanced Quant/Lab 3/subject-1.csv","legacy","5 2 6","Kafkaesque Koffka","3.2.8","2","y","0","left","right","left","left","NA","682","15800","4698","682","NA","2","legacy","3","1024","2","48000","-16","experiment","1","odd","2","499714","496420","497507","1938","94774","497508","478770","1948","90075","501717","498511","502401","17749","501717","NA","Sternberg task","75","50703","81","yes","1024"
"92.6829268293","92.6829268293","625.256097561","625.256097561","black","experiment","legacy","legacy","legacy","0","uniform","1","undefined","1","right","81","81","81","0","0","81","81","0","0","81","81","81","0","81","0","10/17/21 11:53:32","The main experiment item","yes","Sternbergtask.osexp","C:\Users\Brian\Desktop\College - Graduate\Graduate Work\Advanced Quant","yes","no","mono","no","18","no","white","no","yes","768","legacy","69","11","C:/Users/Brian/Desktop/College - Graduate/Graduate Work/Advanced Quant/Lab 3/subject-1.csv","legacy","3 9 8 1 6 4","Kafkaesque Koffka","3.2.8","0","n","0","right","right","left","right","NA","568","15800","4698","568","NA","2","legacy","6","1024","2","48000","-16","experiment","1","odd","7","505703","502410","503495","1938","94774","503497","478770","1948","90075","507705","504500","508274","17749","507704","NA","Sternberg task","76","51271","82","yes","1024"
"92.7710843373","92.7710843373","623.951807229","623.951807229","black","experiment","legacy","legacy","legacy","0","uniform","1","undefined","1","right","82","82","82","0","0","82","82","0","0","82","82","82","0","82","0","10/17/21 11:53:32","The main experiment item","yes","Sternbergtask.osexp","C:\Users\Brian\Desktop\College - Graduate\Graduate Work\Advanced Quant","yes","no","mono","no","18","no","white","no","yes","768","legacy","70","11","C:/Users/Brian/Desktop/College - Graduate/Graduate Work/Advanced Quant/Lab 3/subject-1.csv","legacy","1 3 2 6 9","Kafkaesque Koffka","3.2.8","0","n","0","right","right","left","right","NA","517","15800","4698","517","NA","2","legacy","5","1024","2","48000","-16","experiment","1","odd","5","511581","508283","509374","1938","94774","509375","478770","1948","90075","513584","510378","514102","17749","513584","NA","Sternberg task","77","51788","83","yes","1024"
"91.6666666667","91.6666666667","621.19047619","621.19047619","black","experiment","legacy","legacy","legacy","0","uniform","0","undefined","0","right","83","83","83","0","0","83","83","0","0","83","83","83","0","83","0","10/17/21 11:53:32","The main experiment item","yes","Sternbergtask.osexp","C:\Users\Brian\Desktop\College - Graduate\Graduate Work\Advanced Quant","yes","no","mono","no","18","no","white","no","yes","768","legacy","71","11","C:/Users/Brian/Desktop/College - Graduate/Graduate Work/Advanced Quant/Lab 3/subject-1.csv","legacy","2 6 4 3 9","Kafkaesque Koffka","3.2.8","0","n","0","left","right","left","left","NA","392","15800","4698","392","NA","2","legacy","5","1024","2","48000","-16","experiment","1","odd","1","517400","514106","515194","1938","94774","515196","478770","1948","90075","519403","516199","519797","17749","519402","NA","Sternberg task","77","52180","84","yes","1024"
"90.5882352941","90.5882352941","620.411764706","620.411764706","black","experiment","legacy","legacy","legacy","0","uniform","0","undefined","0","left","84","84","84","0","0","84","84","0","0","84","84","84","0","84","0","10/17/21 11:53:32","The main experiment item","yes","Sternbergtask.osexp","C:\Users\Brian\Desktop\College - Graduate\Graduate Work\Advanced Quant","yes","no","mono","no","18","no","white","no","yes","768","legacy","72","11","C:/Users/Brian/Desktop/College - Graduate/Graduate Work/Advanced Quant/Lab 3/subject-1.csv","legacy","5 7 3 6 2","Kafkaesque Koffka","3.2.8","5","y","0","right","right","left","right","NA","555","15800","4698","555","NA","2","legacy","5","1024","2","48000","-16","experiment","1","odd","2","523101","514106","520893","1938","94774","520895","519806","1948","90075","525103","521898","525660","17749","525103","NA","Sternberg task","77","52735","85","yes","1024"
"90.6976744186","90.6976744186","619.337209302","619.337209302","black","experiment","legacy","legacy","legacy","0","uniform","1","undefined","1","left","85","85","85","0","0","85","85","0","0","85","85","85","0","85","0","10/17/21 11:53:32","The main experiment item","yes","Sternbergtask.osexp","C:\Users\Brian\Desktop\College - Graduate\Graduate Work\Advanced Quant","yes","no","mono","no","18","no","white","no","yes","768","legacy","73","11","C:/Users/Brian/Desktop/College - Graduate/Graduate Work/Advanced Quant/Lab 3/subject-1.csv","legacy","7","Kafkaesque Koffka","3.2.8","1","y","0","left","right","left","left","NA","528","15800","4698","528","NA","2","legacy","1","1024","2","48000","-16","experiment","1","odd","7","528967","514106","526759","1938","94774","526760","525669","1948","90075","530969","527764","531499","17749","530969","NA","Sternberg task","78","53263","86","yes","1024"
"90.8045977011","90.8045977011","619.195402299","619.195402299","black","experiment","legacy","legacy","legacy","0","uniform","1","undefined","1","left","86","86","86","0","0","86","86","0","0","86","86","86","0","86","0","10/17/21 11:53:32","The main experiment item","yes","Sternbergtask.osexp","C:\Users\Brian\Desktop\College - Graduate\Graduate Work\Advanced Quant","yes","no","mono","no","18","no","white","no","yes","768","legacy","74","11","C:/Users/Brian/Desktop/College - Graduate/Graduate Work/Advanced Quant/Lab 3/subject-1.csv","legacy","9 1 7 2","Kafkaesque Koffka","3.2.8","2","y","0","left","right","left","left","NA","607","15800","4698","607","NA","2","legacy","4","1024","2","48000","-16","experiment","1","odd","1","534801","531503","532593","1938","94774","532595","525669","1948","90075","536803","533598","537411","17749","536803","NA","Sternberg task","79","53870","87","yes","1024"
"90.9090909091","90.9090909091","618.340909091","618.340909091","black","experiment","legacy","legacy","legacy","0","uniform","1","undefined","1","left","87","87","87","0","0","87","87","0","0","87","87","87","0","87","0","10/17/21 11:53:32","The main experiment item","yes","Sternbergtask.osexp","C:\Users\Brian\Desktop\College - Graduate\Graduate Work\Advanced Quant","yes","no","mono","no","18","no","white","no","yes","768","legacy","75","11","C:/Users/Brian/Desktop/College - Graduate/Graduate Work/Advanced Quant/Lab 3/subject-1.csv","legacy","9 4 2","Kafkaesque Koffka","3.2.8","1","y","0","left","right","left","left","NA","544","15800","4698","544","NA","2","legacy","3","1024","2","48000","-16","experiment","1","odd","9","540712","537420","538504","1938","94774","538506","525669","1948","90075","542714","539509","543260","17749","542714","NA","Sternberg task","80","54414","88","yes","1024"
"89.8876404494","89.8876404494","618.258426966","618.258426966","black","experiment","legacy","legacy","legacy","0","uniform","0","undefined","0","right","88","88","88","0","0","88","88","0","0","88","88","88","0","88","0","10/17/21 11:53:32","The main experiment item","yes","Sternbergtask.osexp","C:\Users\Brian\Desktop\College - Graduate\Graduate Work\Advanced Quant","yes","no","mono","no","18","no","white","no","yes","768","legacy","76","11","C:/Users/Brian/Desktop/College - Graduate/Graduate Work/Advanced Quant/Lab 3/subject-1.csv","legacy","5 3 8 7 2 4","Kafkaesque Koffka","3.2.8","0","n","0","left","right","left","left","NA","611","15800","4698","611","NA","2","legacy","6","1024","2","48000","-16","experiment","1","odd","9","546565","543268","544357","1938","94774","544359","525669","1948","90075","548566","545362","549178","17749","548566","NA","Sternberg task","80","55025","89","yes","1024"
"88.8888888889","88.8888888889","618.577777778","618.577777778","black","experiment","legacy","legacy","legacy","0","uniform","0","undefined","0","left","89","89","89","0","0","89","89","0","0","89","89","89","0","89","0","10/17/21 11:53:32","The main experiment item","yes","Sternbergtask.osexp","C:\Users\Brian\Desktop\College - Graduate\Graduate Work\Advanced Quant","yes","no","mono","no","18","no","white","no","yes","768","legacy","77","11","C:/Users/Brian/Desktop/College - Graduate/Graduate Work/Advanced Quant/Lab 3/subject-1.csv","legacy","3 4 9 6 2 9","Kafkaesque Koffka","3.2.8","5","y","0","right","right","left","right","NA","647","15800","4698","647","NA","2","legacy","6","1024","2","48000","-16","experiment","1","odd","2","552479","543268","550271","1938","94774","550273","549182","1948","90075","554482","551276","555131","17749","554482","NA","Sternberg task","80","55672","90","yes","1024"
"89.010989011","89.010989011","618.054945055","618.054945055","black","experiment","legacy","legacy","legacy","0","uniform","1","undefined","1","right","90","90","90","0","0","90","90","0","0","90","90","90","0","90","0","10/17/21 11:53:32","The main experiment item","yes","Sternbergtask.osexp","C:\Users\Brian\Desktop\College - Graduate\Graduate Work\Advanced Quant","yes","no","mono","no","18","no","white","no","yes","768","legacy","78","11","C:/Users/Brian/Desktop/College - Graduate/Graduate Work/Advanced Quant/Lab 3/subject-1.csv","legacy","1 6 4","Kafkaesque Koffka","3.2.8","0","n","0","right","right","left","right","NA","571","15800","4698","571","NA","2","legacy","3","1024","2","48000","-16","experiment","1","odd","7","558448","543268","556241","1938","94774","556242","555139","1948","90075","560451","557245","561023","17749","560451","NA","Sternberg task","81","56243","91","yes","1024"
"89.1304347826","89.1304347826","617.336956522","617.336956522","black","experiment","legacy","legacy","legacy","0","uniform","1","undefined","1","left","91","91","91","0","0","91","91","0","0","91","91","91","0","91","0","10/17/21 11:53:32","The main experiment item","yes","Sternbergtask.osexp","C:\Users\Brian\Desktop\College - Graduate\Graduate Work\Advanced Quant","yes","no","mono","no","18","no","white","no","yes","768","legacy","79","11","C:/Users/Brian/Desktop/College - Graduate/Graduate Work/Advanced Quant/Lab 3/subject-1.csv","legacy","3 5 4 7","Kafkaesque Koffka","3.2.8","1","y","0","left","right","left","left","NA","552","15800","4698","552","NA","2","legacy","4","1024","2","48000","-16","experiment","1","odd","3","564326","561031","562118","1938","94774","562120","555139","1948","90075","566327","563123","566880","17749","566327","NA","Sternberg task","82","56795","92","yes","1024"
"89.247311828","89.247311828","615.35483871","615.35483871","black","experiment","legacy","legacy","legacy","0","uniform","1","undefined","1","right","92","92","92","0","0","92","92","0","0","92","92","92","0","92","0","10/17/21 11:53:32","The main experiment item","yes","Sternbergtask.osexp","C:\Users\Brian\Desktop\College - Graduate\Graduate Work\Advanced Quant","yes","no","mono","no","18","no","white","no","yes","768","legacy","80","11","C:/Users/Brian/Desktop/College - Graduate/Graduate Work/Advanced Quant/Lab 3/subject-1.csv","legacy","8 9","Kafkaesque Koffka","3.2.8","0","n","0","right","right","left","right","NA","433","15800","4698","433","NA","2","legacy","2","1024","2","48000","-16","experiment","1","odd","5","570181","566888","567973","1938","94774","567975","555139","1948","90075","572184","568977","572619","17749","572184","NA","Sternberg task","83","57228","93","yes","1024"
"89.3617021277","89.3617021277","614.893617021","614.893617021","black","experiment","legacy","legacy","legacy","0","uniform","1","undefined","1","right","93","93","93","0","0","93","93","0","0","93","93","93","0","93","0","10/17/21 11:53:32","The main experiment item","yes","Sternbergtask.osexp","C:\Users\Brian\Desktop\College - Graduate\Graduate Work\Advanced Quant","yes","no","mono","no","18","no","white","no","yes","768","legacy","81","11","C:/Users/Brian/Desktop/College - Graduate/Graduate Work/Advanced Quant/Lab 3/subject-1.csv","legacy","7 9","Kafkaesque Koffka","3.2.8","0","n","0","right","right","left","right","NA","572","15800","4698","572","NA","2","legacy","2","1024","2","48000","-16","experiment","1","odd","1","575925","572628","573717","1938","94774","573719","555139","1948","90075","577928","574722","578501","17749","577928","NA","Sternberg task","84","57800","94","yes","1024"
"89.4736842105","89.4736842105","615.136842105","615.136842105","black","experiment","legacy","legacy","legacy","0","uniform","1","undefined","1","left","94","94","94","0","0","94","94","0","0","94","94","94","0","94","0","10/17/21 11:53:32","The main experiment item","yes","Sternbergtask.osexp","C:\Users\Brian\Desktop\College - Graduate\Graduate Work\Advanced Quant","yes","no","mono","no","18","no","white","no","yes","768","legacy","82","11","C:/Users/Brian/Desktop/College - Graduate/Graduate Work/Advanced Quant/Lab 3/subject-1.csv","legacy","2 6 1 7 4","Kafkaesque Koffka","3.2.8","2","y","0","left","right","left","left","NA","638","15800","4698","638","NA","2","legacy","5","1024","2","48000","-16","experiment","1","odd","6","581797","578505","579589","1938","94774","579591","555139","1948","90075","583799","580594","584439","17749","583798","NA","Sternberg task","85","58438","95","yes","1024"
"89.5833333333","89.5833333333","617.291666667","617.291666667","black","experiment","legacy","legacy","legacy","0","uniform","1","undefined","1","right","95","95","95","0","0","95","95","0","0","95","95","95","0","95","0","10/17/21 11:53:32","The main experiment item","yes","Sternbergtask.osexp","C:\Users\Brian\Desktop\College - Graduate\Graduate Work\Advanced Quant","yes","no","mono","no","18","no","white","no","yes","768","legacy","83","11","C:/Users/Brian/Desktop/College - Graduate/Graduate Work/Advanced Quant/Lab 3/subject-1.csv","legacy","2 8 7 9 5 3","Kafkaesque Koffka","3.2.8","0","n","0","right","right","left","right","NA","822","15800","4698","822","NA","2","legacy","6","1024","2","48000","-16","experiment","1","odd","6","587741","584448","585533","1938","94774","585535","555139","1948","90075","589742","586538","590565","17749","589742","NA","Sternberg task","86","59260","96","yes","1024"
"89.6907216495","89.6907216495","616.06185567","616.06185567","black","experiment","legacy","legacy","legacy","0","uniform","1","undefined","1","left","96","96","96","0","0","96","96","0","0","96","96","96","0","96","0","10/17/21 11:53:32","The main experiment item","yes","Sternbergtask.osexp","C:\Users\Brian\Desktop\College - Graduate\Graduate Work\Advanced Quant","yes","no","mono","no","18","no","white","no","yes","768","legacy","84","11","C:/Users/Brian/Desktop/College - Graduate/Graduate Work/Advanced Quant/Lab 3/subject-1.csv","legacy","8 9 5 6 7","Kafkaesque Koffka","3.2.8","1","y","0","left","right","left","left","NA","498","15800","4698","498","NA","2","legacy","5","1024","2","48000","-16","experiment","1","odd","8","593866","590573","591659","1938","94774","591661","555139","1948","90075","595869","592663","596369","17749","595869","NA","Sternberg task","87","59758","97","yes","1024"
"89.7959183673","89.7959183673","616.43877551","616.43877551","black","experiment","legacy","legacy","legacy","0","uniform","1","undefined","1","right","97","97","97","0","0","97","97","0","0","97","97","97","0","97","0","10/17/21 11:53:32","The main experiment item","yes","Sternbergtask.osexp","C:\Users\Brian\Desktop\College - Graduate\Graduate Work\Advanced Quant","yes","no","mono","no","18","no","white","no","yes","768","legacy","85","11","C:/Users/Brian/Desktop/College - Graduate/Graduate Work/Advanced Quant/Lab 3/subject-1.csv","legacy","1 5 3 2 8","Kafkaesque Koffka","3.2.8","0","n","0","right","right","left","right","NA","653","15800","4698","653","NA","2","legacy","5","1024","2","48000","-16","experiment","1","odd","4","599665","596373","597458","1938","94774","597459","555139","1948","90075","601666","598462","602321","17749","601666","NA","Sternberg task","88","60411","98","yes","1024"
"89.898989899","89.898989899","615.484848485","615.484848485","black","experiment","legacy","legacy","legacy","0","uniform","1","undefined","1","right","98","98","98","0","0","98","98","0","0","98","98","98","0","98","0","10/17/21 11:53:32","The main experiment item","yes","Sternbergtask.osexp","C:\Users\Brian\Desktop\College - Graduate\Graduate Work\Advanced Quant","yes","no","mono","no","18","no","white","no","yes","768","legacy","86","11","C:/Users/Brian/Desktop/College - Graduate/Graduate Work/Advanced Quant/Lab 3/subject-1.csv","legacy","6 7 5 9","Kafkaesque Koffka","3.2.8","0","n","0","right","right","left","right","NA","522","15800","4698","522","NA","2","legacy","4","1024","2","48000","-16","experiment","1","odd","2","605626","602330","603421","1938","94774","603422","555139","1948","90075","607629","604423","608153","17749","607629","NA","Sternberg task","89","60933","99","yes","1024"
"90","90","616.68","616.68","black","experiment","legacy","legacy","legacy","0","uniform","1","undefined","1","left","99","99","99","0","0","99","99","0","0","99","99","99","0","99","0","10/17/21 11:53:32","The main experiment item","yes","Sternbergtask.osexp","C:\Users\Brian\Desktop\College - Graduate\Graduate Work\Advanced Quant","yes","no","mono","no","18","no","white","no","yes","768","legacy","87","11","C:/Users/Brian/Desktop/College - Graduate/Graduate Work/Advanced Quant/Lab 3/subject-1.csv","legacy","9 3 8 2 1 4","Kafkaesque Koffka","3.2.8","3","y","0","left","right","left","left","NA","735","15800","4698","735","NA","2","legacy","6","1024","2","48000","-16","experiment","1","odd","8","611453","608161","609245","1938","94774","609247","555139","1948","90075","613454","610250","614191","17749","613454","NA","Sternberg task","90","61668","100","yes","1024"
"90.099009901","90.099009901","617.277227723","617.277227723","black","experiment","legacy","legacy","legacy","0","uniform","1","undefined","1","right","100","100","100","0","0","100","100","0","0","100","100","100","0","100","0","10/17/21 11:53:32","The main experiment item","yes","Sternbergtask.osexp","C:\Users\Brian\Desktop\College - Graduate\Graduate Work\Advanced Quant","yes","no","mono","no","18","no","white","no","yes","768","legacy","88","11","C:/Users/Brian/Desktop/College - Graduate/Graduate Work/Advanced Quant/Lab 3/subject-1.csv","legacy","1 7 8 3 9","Kafkaesque Koffka","3.2.8","0","n","0","right","right","left","right","NA","677","15800","4698","677","NA","2","legacy","5","1024","2","48000","-16","experiment","1","odd","2","617491","614199","615285","1938","94774","615286","555139","1948","90075","619494","616288","620173","17749","619494","NA","Sternberg task","91","62345","101","yes","1024"
"89.2156862745","89.2156862745","616.843137255","616.843137255","black","experiment","legacy","legacy","legacy","0","uniform","0","undefined","0","left","101","101","101","0","0","101","101","0","0","101","101","101","0","101","0","10/17/21 11:53:32","The main experiment item","yes","Sternbergtask.osexp","C:\Users\Brian\Desktop\College - Graduate\Graduate Work\Advanced Quant","yes","no","mono","no","18","no","white","no","yes","768","legacy","89","11","C:/Users/Brian/Desktop/College - Graduate/Graduate Work/Advanced Quant/Lab 3/subject-1.csv","legacy","6 1 2","Kafkaesque Koffka","3.2.8","3","y","0","right","right","left","right","NA","573","15800","4698","573","NA","2","legacy","3","1024","2","48000","-16","experiment","1","odd","2","623477","620181","621271","1938","94774","621273","555139","1948","90075","625480","622274","626054","17749","625480","NA","Sternberg task","91","62918","102","yes","1024"
"88.3495145631","88.3495145631","616.330097087","616.330097087","black","experiment","legacy","legacy","legacy","0","uniform","0","undefined","0","left","102","102","102","0","0","102","102","0","0","102","102","102","0","102","0","10/17/21 11:53:32","The main experiment item","yes","Sternbergtask.osexp","C:\Users\Brian\Desktop\College - Graduate\Graduate Work\Advanced Quant","yes","no","mono","no","18","no","white","no","yes","768","legacy","90","11","C:/Users/Brian/Desktop/College - Graduate/Graduate Work/Advanced Quant/Lab 3/subject-1.csv","legacy","8 5 4 7 3 1","Kafkaesque Koffka","3.2.8","2","y","0","right","right","left","right","NA","564","15800","4698","564","NA","2","legacy","6","1024","2","48000","-16","experiment","1","odd","5","629359","620181","627151","1938","94774","627153","626063","1948","90075","631362","628156","631927","17749","631362","NA","Sternberg task","91","63482","103","yes","1024"
"88.4615384615","88.4615384615","617.778846154","617.778846154","black","experiment","legacy","legacy","legacy","0","uniform","1","undefined","1","left","103","103","103","0","0","103","103","0","0","103","103","103","0","103","0","10/17/21 11:53:32","The main experiment item","yes","Sternbergtask.osexp","C:\Users\Brian\Desktop\College - Graduate\Graduate Work\Advanced Quant","yes","no","mono","no","18","no","white","no","yes","768","legacy","91","11","C:/Users/Brian/Desktop/College - Graduate/Graduate Work/Advanced Quant/Lab 3/subject-1.csv","legacy","7 8 6 3 1","Kafkaesque Koffka","3.2.8","5","y","0","left","right","left","left","NA","767","15800","4698","767","NA","2","legacy","5","1024","2","48000","-16","experiment","1","odd","1","635228","620181","633020","1938","94774","633022","631936","1948","90075","637230","634025","637999","17749","637229","NA","Sternberg task","92","64249","104","yes","1024"
"88.5714285714","88.5714285714","616.666666667","616.666666667","black","experiment","legacy","legacy","legacy","0","uniform","1","undefined","1","left","104","104","104","0","0","104","104","0","0","104","104","104","0","104","0","10/17/21 11:53:32","The main experiment item","yes","Sternbergtask.osexp","C:\Users\Brian\Desktop\College - Graduate\Graduate Work\Advanced Quant","yes","no","mono","no","18","no","white","no","yes","768","legacy","92","11","C:/Users/Brian/Desktop/College - Graduate/Graduate Work/Advanced Quant/Lab 3/subject-1.csv","legacy","2 3 7 4","Kafkaesque Koffka","3.2.8","1","y","0","left","right","left","left","NA","501","15800","4698","501","NA","2","legacy","4","1024","2","48000","-16","experiment","1","odd","2","641300","638007","639093","1938","94774","639094","631936","1948","90075","643303","640097","643806","17749","643302","NA","Sternberg task","93","64750","105","yes","1024"
"87.7358490566","87.7358490566","617.471698113","617.471698113","black","experiment","legacy","legacy","legacy","0","uniform","0","undefined","0","left","105","105","105","0","0","105","105","0","0","105","105","105","0","105","0","10/17/21 11:53:32","The main experiment item","yes","Sternbergtask.osexp","C:\Users\Brian\Desktop\College - Graduate\Graduate Work\Advanced Quant","yes","no","mono","no","18","no","white","no","yes","768","legacy","93","11","C:/Users/Brian/Desktop/College - Graduate/Graduate Work/Advanced Quant/Lab 3/subject-1.csv","legacy","4 6 2 5 1","Kafkaesque Koffka","3.2.8","5","y","0","right","right","left","right","NA","702","15800","4698","702","NA","2","legacy","5","1024","2","48000","-16","experiment","1","odd","1","647108","643809","644900","1938","94774","644902","631936","1948","90075","649109","645905","649813","17749","649109","NA","Sternberg task","93","65452","106","yes","1024"
"87.8504672897","87.8504672897","617.61682243","617.61682243","black","experiment","legacy","legacy","legacy","0","uniform","1","undefined","1","right","106","106","106","0","0","106","106","0","0","106","106","106","0","106","0","10/17/21 11:53:32","The main experiment item","yes","Sternbergtask.osexp","C:\Users\Brian\Desktop\College - Graduate\Graduate Work\Advanced Quant","yes","no","mono","no","18","no","white","no","yes","768","legacy","94","11","C:/Users/Brian/Desktop/College - Graduate/Graduate Work/Advanced Quant/Lab 3/subject-1.csv","legacy","5 3 2 6 9 8","Kafkaesque Koffka","3.2.8","0","n","0","right","right","left","right","NA","633","15800","4698","633","NA","2","legacy","6","1024","2","48000","-16","experiment","1","odd","4","653117","643809","650910","1938","94774","650912","649821","1948","90075","655120","651914","655755","17749","655120","NA","Sternberg task","94","66085","107","yes","1024"
"87.962962963","87.962962963","617","617","black","experiment","legacy","legacy","legacy","0","uniform","1","undefined","1","right","107","107","107","0","0","107","107","0","0","107","107","107","0","107","0","10/17/21 11:53:32","The main experiment item","yes","Sternbergtask.osexp","C:\Users\Brian\Desktop\College - Graduate\Graduate Work\Advanced Quant","yes","no","mono","no","18","no","white","no","yes","768","legacy","95","11","C:/Users/Brian/Desktop/College - Graduate/Graduate Work/Advanced Quant/Lab 3/subject-1.csv","legacy","1 4 9 3","Kafkaesque Koffka","3.2.8","0","n","0","right","right","left","right","NA","551","15800","4698","551","NA","2","legacy","4","1024","2","48000","-16","experiment","1","odd","5","659056","655763","656850","1938","94774","656852","649821","1948","90075","661059","657853","661612","17749","661059","NA","Sternberg task","95","66636","108","yes","1024"
"88.0733944954","88.0733944954","616.19266055","616.19266055","black","experiment","legacy","legacy","legacy","0","uniform","1","undefined","1","right","108","108","108","0","0","108","108","0","0","108","108","108","0","108","0","10/17/21 11:53:32","The main experiment item","yes","Sternbergtask.osexp","C:\Users\Brian\Desktop\College - Graduate\Graduate Work\Advanced Quant","yes","no","mono","no","18","no","white","no","yes","768","legacy","96","11","C:/Users/Brian/Desktop/College - Graduate/Graduate Work/Advanced Quant/Lab 3/subject-1.csv","legacy","2 8 9 4 1","Kafkaesque Koffka","3.2.8","0","n","0","right","right","left","right","NA","529","15800","4698","529","NA","2","legacy","5","1024","2","48000","-16","experiment","1","odd","5","664911","661616","662703","1938","94774","662705","649821","1948","90075","666913","663708","667444","17749","666913","NA","Sternberg task","96","67165","109","yes","1024"
