"acc","accuracy","average_response_time","avg_rt","background","block","canvas_backend","clock_backend","color_backend","compensation","coordinates","correct","correct_instruction1","correct_keyboard_response","correct_response","count_ISI","count_correctFeedback","count_expSequence","count_experiment","count_experimentLoop","count_fixation","count_incorrectFeedback","count_instruction1","count_instruction2","count_instructional","count_keyboard_response","count_logger","count_memorySet","count_practiceLoop","count_probe","count_thankYou","datetime","description","disable_garbage_collection","empty_column","experiment_file","experiment_path","font_bold","font_family","font_italic","font_size","font_underline","foreground","form_clicks","fullscreen","height","keyboard_backend","live_row","live_row_practiceLoop","logfile","mouse_backend","numberSet","opensesame_codename","opensesame_version","posInSet","present","repeat_cycle","response","response_instruction1","response_instruction2","response_keyboard_response","response_thankYou","response_time","response_time_instruction1","response_time_instruction2","response_time_keyboard_response","response_time_thankYou","round_decimals","sampler_backend","setSize","sound_buf_size","sound_channels","sound_freq","sound_sample_size","start","subject_nr","subject_parity","target","time_ISI","time_correctFeedback","time_expSequence","time_experiment","time_experimentLoop","time_fixation","time_incorrectFeedback","time_instruction1","time_instruction2","time_instructional","time_keyboard_response","time_logger","time_memorySet","time_practiceLoop","time_probe","time_thankYou","title","total_correct","total_response_time","total_responses","uniform_coordinates","width"
"100","100","921","921","black","practice","legacy","legacy","legacy","0","uniform","1","undefined","1","left","0","0","0","0","0","0","0","0","0","NA","0","0","0","0","0","0","Sun Oct 25 11:38:57 2020","The main experiment item","yes","NA","SternbergTask.osexp","C:/Users/chelsea/OneDrive - Tarleton State University/psych 5316- adv/Sternberg test","no","mono","no","18","no","white","no","no","768","legacy","0","0","C:/Users/chelsea/OneDrive - Tarleton State University/psych 5316- adv/Sternberg test/subject-3 VG.csv","legacy","4 8","Lentiform Loewenfeld","3.3.3","1","y","0","left","left","NA","left","NA","921","197305","NA","921","NA","2","legacy","2","1024","2","48000","-16","experiment","3","odd","4","226357","NA","224136","25941","NA","224142","NA","26014","NA","NA","228365","229287","225152","223354","228365","NA","Sternberg Task","1","921","1","yes","1024"
"100","100","784.5","784.5","black","practice","legacy","legacy","legacy","0","uniform","1","undefined","1","left","1","1","1","0","0","1","1","0","0","NA","1","1","1","0","1","0","Sun Oct 25 11:38:57 2020","The main experiment item","yes","NA","SternbergTask.osexp","C:/Users/chelsea/OneDrive - Tarleton State University/psych 5316- adv/Sternberg test","no","mono","no","18","no","white","no","no","768","legacy","1","1","C:/Users/chelsea/OneDrive - Tarleton State University/psych 5316- adv/Sternberg test/subject-3 VG.csv","legacy","4 3 1 7 9 8","Lentiform Loewenfeld","3.3.3","1","y","0","left","left","NA","left","NA","648","197305","NA","648","NA","2","legacy","6","1024","2","48000","-16","experiment","3","odd","4","234115","229725","231892","25941","NA","231897","NA","26014","NA","NA","236124","236774","232903","223354","236124","NA","Sternberg Task","2","1569","2","yes","1024"
"100","100","752.6666666666666","752.6666666666666","black","practice","legacy","legacy","legacy","0","uniform","1","undefined","1","right","2","2","2","0","0","2","2","0","0","NA","2","2","2","0","2","0","Sun Oct 25 11:38:57 2020","The main experiment item","yes","NA","SternbergTask.osexp","C:/Users/chelsea/OneDrive - Tarleton State University/psych 5316- adv/Sternberg test","no","mono","no","18","no","white","no","no","768","legacy","2","2","C:/Users/chelsea/OneDrive - Tarleton State University/psych 5316- adv/Sternberg test/subject-3 VG.csv","legacy","2 1","Lentiform Loewenfeld","3.3.3","0","n","0","right","left","NA","right","NA","689","197305","NA","689","NA","2","legacy","2","1024","2","48000","-16","experiment","3","odd","5","240484","236887","238266","25941","NA","238272","NA","26014","NA","NA","242491","243181","239280","223354","242490","NA","Sternberg Task","3","2258","3","yes","1024"
"100","100","778.75","778.75","black","practice","legacy","legacy","legacy","0","uniform","1","undefined","1","right","3","3","3","0","0","3","3","0","0","NA","3","3","3","0","3","0","Sun Oct 25 11:38:57 2020","The main experiment item","yes","NA","SternbergTask.osexp","C:/Users/chelsea/OneDrive - Tarleton State University/psych 5316- adv/Sternberg test","no","mono","no","18","no","white","no","no","768","legacy","3","3","C:/Users/chelsea/OneDrive - Tarleton State University/psych 5316- adv/Sternberg test/subject-3 VG.csv","legacy","9 6 7 4 5","Lentiform Loewenfeld","3.3.3","0","n","0","right","left","NA","right","NA","857","197305","NA","857","NA","2","legacy","5","1024","2","48000","-16","experiment","3","odd","3","246836","243221","244597","25941","NA","244614","NA","26014","NA","NA","248851","249709","245621","223354","248851","NA","Sternberg Task","4","3115","4","yes","1024"
"100","100","777","777","black","practice","legacy","legacy","legacy","0","uniform","1","undefined","1","right","4","4","4","0","0","4","4","0","0","NA","4","4","4","0","4","0","Sun Oct 25 11:38:57 2020","The main experiment item","yes","NA","SternbergTask.osexp","C:/Users/chelsea/OneDrive - Tarleton State University/psych 5316- adv/Sternberg test","no","mono","no","18","no","white","no","no","768","legacy","4","4","C:/Users/chelsea/OneDrive - Tarleton State University/psych 5316- adv/Sternberg test/subject-3 VG.csv","legacy","4 1 5","Lentiform Loewenfeld","3.3.3","0","n","0","right","left","NA","right","NA","770","197305","NA","770","NA","2","legacy","3","1024","2","48000","-16","experiment","3","odd","2","253412","249836","251194","25941","NA","251199","NA","26014","NA","NA","255416","256187","252207","223354","255415","NA","Sternberg Task","5","3885","5","yes","1024"
"100","100","744.3333333333334","744.3333333333334","black","practice","legacy","legacy","legacy","0","uniform","1","undefined","1","left","5","5","5","0","0","5","5","0","0","NA","5","5","5","0","5","0","Sun Oct 25 11:38:57 2020","The main experiment item","yes","NA","SternbergTask.osexp","C:/Users/chelsea/OneDrive - Tarleton State University/psych 5316- adv/Sternberg test","no","mono","no","18","no","white","no","no","768","legacy","5","5","C:/Users/chelsea/OneDrive - Tarleton State University/psych 5316- adv/Sternberg test/subject-3 VG.csv","legacy","6","Lentiform Loewenfeld","3.3.3","1","y","0","left","left","NA","left","NA","581","197305","NA","581","NA","2","legacy","1","1024","2","48000","-16","experiment","3","odd","6","259846","256225","257629","25941","NA","257634","NA","26014","NA","NA","261850","262432","258641","223354","261850","NA","Sternberg Task","6","4466","6","yes","1024"
"100","100","711","711","black","practice","legacy","legacy","legacy","0","uniform","1","undefined","1","right","6","6","6","0","0","6","6","0","0","NA","6","6","6","0","6","0","Sun Oct 25 11:38:57 2020","The main experiment item","yes","NA","SternbergTask.osexp","C:/Users/chelsea/OneDrive - Tarleton State University/psych 5316- adv/Sternberg test","no","mono","no","18","no","white","no","no","768","legacy","6","6","C:/Users/chelsea/OneDrive - Tarleton State University/psych 5316- adv/Sternberg test/subject-3 VG.csv","legacy","5","Lentiform Loewenfeld","3.3.3","0","n","0","right","left","NA","right","NA","511","197305","NA","511","NA","2","legacy","1","1024","2","48000","-16","experiment","3","odd","3","266131","262496","263916","25941","NA","263920","NA","26014","NA","NA","268137","268649","264926","223354","268136","NA","Sternberg Task","7","4977","7","yes","1024"
"87.5","87.5","710.625","710.625","black","practice","legacy","legacy","legacy","0","uniform","0","undefined","0","right","7","7","7","0","0","7","7","0","0","NA","7","7","7","0","7","0","Sun Oct 25 11:38:57 2020","The main experiment item","yes","NA","SternbergTask.osexp","C:/Users/chelsea/OneDrive - Tarleton State University/psych 5316- adv/Sternberg test","no","mono","no","18","no","white","no","no","768","legacy","7","7","C:/Users/chelsea/OneDrive - Tarleton State University/psych 5316- adv/Sternberg test/subject-3 VG.csv","legacy","5 7 8 4 1 2","Lentiform Loewenfeld","3.3.3","0","n","0","left","left","NA","left","NA","708","197305","NA","708","NA","2","legacy","6","1024","2","48000","-16","experiment","3","odd","6","272351","268707","270132","25941","NA","270137","NA","26014","NA","NA","274356","275065","271147","223354","274356","NA","Sternberg Task","7","5685","8","yes","1024"
"88.88888888888889","88.88888888888889","742.6666666666666","742.6666666666666","black","practice","legacy","legacy","legacy","0","uniform","1","undefined","1","left","8","8","8","0","0","8","8","0","0","NA","8","8","8","0","8","0","Sun Oct 25 11:38:57 2020","The main experiment item","yes","NA","SternbergTask.osexp","C:/Users/chelsea/OneDrive - Tarleton State University/psych 5316- adv/Sternberg test","no","mono","no","18","no","white","no","no","768","legacy","8","8","C:/Users/chelsea/OneDrive - Tarleton State University/psych 5316- adv/Sternberg test/subject-3 VG.csv","legacy","2 9 4","Lentiform Loewenfeld","3.3.3","3","y","0","left","left","NA","left","NA","999","197305","NA","999","NA","2","legacy","3","1024","2","48000","-16","experiment","3","odd","4","278750","268707","276534","25941","NA","276539","275117","26014","NA","NA","280755","281755","277545","223354","280755","NA","Sternberg Task","8","6684","9","yes","1024"
"80","80","785.7","785.7","black","practice","legacy","legacy","legacy","0","uniform","0","undefined","0","left","9","9","9","0","0","9","9","0","0","NA","9","9","9","0","9","0","Sun Oct 25 11:38:57 2020","The main experiment item","yes","NA","SternbergTask.osexp","C:/Users/chelsea/OneDrive - Tarleton State University/psych 5316- adv/Sternberg test","no","mono","no","18","no","white","no","no","768","legacy","9","9","C:/Users/chelsea/OneDrive - Tarleton State University/psych 5316- adv/Sternberg test/subject-3 VG.csv","legacy","1 7 9 8 5","Lentiform Loewenfeld","3.3.3","4","y","0","right","left","NA","right","NA","1173","197305","NA","1173","NA","2","legacy","5","1024","2","48000","-16","experiment","3","odd","8","285492","281847","283270","25941","NA","283275","275117","26014","NA","NA","287497","288671","284287","223354","287497","NA","Sternberg Task","8","7857","10","yes","1024"
"81.81818181818181","81.81818181818181","765.1818181818181","765.1818181818181","black","practice","legacy","legacy","legacy","0","uniform","1","undefined","1","left","10","10","10","0","0","10","10","0","0","NA","10","10","10","0","10","0","Sun Oct 25 11:38:57 2020","The main experiment item","yes","NA","SternbergTask.osexp","C:/Users/chelsea/OneDrive - Tarleton State University/psych 5316- adv/Sternberg test","no","mono","no","18","no","white","no","no","768","legacy","10","10","C:/Users/chelsea/OneDrive - Tarleton State University/psych 5316- adv/Sternberg test/subject-3 VG.csv","legacy","1 5 2 9","Lentiform Loewenfeld","3.3.3","2","y","0","left","left","NA","left","NA","560","197305","NA","560","NA","2","legacy","4","1024","2","48000","-16","experiment","3","odd","5","292304","281847","290089","25941","NA","290095","288720","26014","NA","NA","294311","294872","291101","223354","294310","NA","Sternberg Task","9","8417","11","yes","1024"
"83.33333333333333","83.33333333333333","772.6666666666666","772.6666666666666","black","practice","legacy","legacy","legacy","0","uniform","1","undefined","1","right","11","11","11","0","0","11","11","0","0","NA","11","11","11","0","11","0","Sun Oct 25 11:38:57 2020","The main experiment item","yes","NA","SternbergTask.osexp","C:/Users/chelsea/OneDrive - Tarleton State University/psych 5316- adv/Sternberg test","no","mono","no","18","no","white","no","no","768","legacy","11","11","C:/Users/chelsea/OneDrive - Tarleton State University/psych 5316- adv/Sternberg test/subject-3 VG.csv","legacy","3 1 9 4","Lentiform Loewenfeld","3.3.3","0","n","0","right","left","NA","right","NA","855","197305","NA","855","NA","2","legacy","4","1024","2","48000","-16","experiment","3","odd","6","298570","294923","296353","25941","NA","296359","288720","26014","NA","NA","300575","301431","297366","223354","300574","NA","Sternberg Task","10","9272","12","yes","1024"
"84.61538461538461","84.61538461538461","756.2307692307693","756.2307692307693","black","experiment","legacy","legacy","legacy","0","uniform","1","undefined","1","left","12","12","12","0","0","12","12","0","0","NA","12","12","12","0","12","0","Sun Oct 25 11:38:57 2020","The main experiment item","yes","NA","SternbergTask.osexp","C:/Users/chelsea/OneDrive - Tarleton State University/psych 5316- adv/Sternberg test","no","mono","no","18","no","white","no","no","768","legacy","0","11","C:/Users/chelsea/OneDrive - Tarleton State University/psych 5316- adv/Sternberg test/subject-3 VG.csv","legacy","9 8 4","Lentiform Loewenfeld","3.3.3","1","y","0","left","left","left","left","NA","559","197305","199676","559","NA","2","legacy","3","1024","2","48000","-16","experiment","3","odd","9","505129","301467","502902","25941","502348","502911","288720","26014","302670","NA","507145","507706","503915","223354","507145","NA","Sternberg Task","11","9831","13","yes","1024"
"85.71428571428571","85.71428571428571","746.8571428571429","746.8571428571429","black","experiment","legacy","legacy","legacy","0","uniform","1","undefined","1","right","13","13","13","0","0","13","13","0","0","NA","13","13","13","0","13","0","Sun Oct 25 11:38:57 2020","The main experiment item","yes","NA","SternbergTask.osexp","C:/Users/chelsea/OneDrive - Tarleton State University/psych 5316- adv/Sternberg test","no","mono","no","18","no","white","no","no","768","legacy","1","11","C:/Users/chelsea/OneDrive - Tarleton State University/psych 5316- adv/Sternberg test/subject-3 VG.csv","legacy","3 4 2","Lentiform Loewenfeld","3.3.3","0","n","0","right","left","left","right","NA","625","197305","199676","625","NA","2","legacy","3","1024","2","48000","-16","experiment","3","odd","5","512212","507761","509993","25941","502348","510003","288720","26014","302670","NA","514223","514851","511007","223354","514223","NA","Sternberg Task","12","10456","14","yes","1024"
"86.66666666666667","86.66666666666667","758.7333333333333","758.7333333333333","black","experiment","legacy","legacy","legacy","0","uniform","1","undefined","1","right","14","14","14","0","0","14","14","0","0","NA","14","14","14","0","14","0","Sun Oct 25 11:38:57 2020","The main experiment item","yes","NA","SternbergTask.osexp","C:/Users/chelsea/OneDrive - Tarleton State University/psych 5316- adv/Sternberg test","no","mono","no","18","no","white","no","no","768","legacy","2","11","C:/Users/chelsea/OneDrive - Tarleton State University/psych 5316- adv/Sternberg test/subject-3 VG.csv","legacy","1 4 9 2 5","Lentiform Loewenfeld","3.3.3","0","n","0","right","left","left","right","NA","925","197305","199676","925","NA","2","legacy","5","1024","2","48000","-16","experiment","3","odd","7","518491","514912","516270","25941","502348","516275","288720","26014","302670","NA","520505","521432","517280","223354","520505","NA","Sternberg Task","13","11381","15","yes","1024"
"87.5","87.5","767.3125","767.3125","black","experiment","legacy","legacy","legacy","0","uniform","1","undefined","1","right","15","15","15","0","0","15","15","0","0","NA","15","15","15","0","15","0","Sun Oct 25 11:38:57 2020","The main experiment item","yes","NA","SternbergTask.osexp","C:/Users/chelsea/OneDrive - Tarleton State University/psych 5316- adv/Sternberg test","no","mono","no","18","no","white","no","no","768","legacy","3","11","C:/Users/chelsea/OneDrive - Tarleton State University/psych 5316- adv/Sternberg test/subject-3 VG.csv","legacy","1 5 3 2 8","Lentiform Loewenfeld","3.3.3","0","n","0","right","left","left","right","NA","896","197305","199676","896","NA","2","legacy","5","1024","2","48000","-16","experiment","3","odd","4","525073","521478","522852","25941","502348","522857","288720","26014","302670","NA","527078","527975","523868","223354","527078","NA","Sternberg Task","14","12277","16","yes","1024"
"88.23529411764706","88.23529411764706","787.7647058823529","787.7647058823529","black","experiment","legacy","legacy","legacy","0","uniform","1","undefined","1","right","16","16","16","0","0","16","16","0","0","NA","16","16","16","0","16","0","Sun Oct 25 11:38:57 2020","The main experiment item","yes","NA","SternbergTask.osexp","C:/Users/chelsea/OneDrive - Tarleton State University/psych 5316- adv/Sternberg test","no","mono","no","18","no","white","no","no","768","legacy","4","11","C:/Users/chelsea/OneDrive - Tarleton State University/psych 5316- adv/Sternberg test/subject-3 VG.csv","legacy","9 8 2 7 4","Lentiform Loewenfeld","3.3.3","0","n","0","right","left","left","right","NA","1115","197305","199676","1115","NA","2","legacy","5","1024","2","48000","-16","experiment","3","odd","5","531642","528066","529427","25941","502348","529433","288720","26014","302670","NA","533646","534762","530437","223354","533645","NA","Sternberg Task","15","13392","17","yes","1024"
"88.88888888888889","88.88888888888889","808.8888888888889","808.8888888888889","black","experiment","legacy","legacy","legacy","0","uniform","1","undefined","1","left","17","17","17","0","0","17","17","0","0","NA","17","17","17","0","17","0","Sun Oct 25 11:38:57 2020","The main experiment item","yes","NA","SternbergTask.osexp","C:/Users/chelsea/OneDrive - Tarleton State University/psych 5316- adv/Sternberg test","no","mono","no","18","no","white","no","no","768","legacy","5","11","C:/Users/chelsea/OneDrive - Tarleton State University/psych 5316- adv/Sternberg test/subject-3 VG.csv","legacy","8 9 6 1","Lentiform Loewenfeld","3.3.3","2","y","0","left","left","left","left","NA","1168","197305","199676","1168","NA","2","legacy","4","1024","2","48000","-16","experiment","3","odd","9","538423","534845","536208","25941","502348","536213","288720","26014","302670","NA","540428","541598","537219","223354","540427","NA","Sternberg Task","16","14560","18","yes","1024"
"89.47368421052632","89.47368421052632","807.6842105263158","807.6842105263158","black","experiment","legacy","legacy","legacy","0","uniform","1","undefined","1","right","18","18","18","0","0","18","18","0","0","NA","18","18","18","0","18","0","Sun Oct 25 11:38:57 2020","The main experiment item","yes","NA","SternbergTask.osexp","C:/Users/chelsea/OneDrive - Tarleton State University/psych 5316- adv/Sternberg test","no","mono","no","18","no","white","no","no","768","legacy","6","11","C:/Users/chelsea/OneDrive - Tarleton State University/psych 5316- adv/Sternberg test/subject-3 VG.csv","legacy","2 8 6 3 1","Lentiform Loewenfeld","3.3.3","0","n","0","right","left","left","right","NA","786","197305","199676","786","NA","2","legacy","5","1024","2","48000","-16","experiment","3","odd","7","545222","541635","543006","25941","502348","543010","288720","26014","302670","NA","547226","548018","544017","223354","547225","NA","Sternberg Task","17","15346","19","yes","1024"
"90","90","805.85","805.85","black","experiment","legacy","legacy","legacy","0","uniform","1","undefined","1","left","19","19","19","0","0","19","19","0","0","NA","19","19","19","0","19","0","Sun Oct 25 11:38:57 2020","The main experiment item","yes","NA","SternbergTask.osexp","C:/Users/chelsea/OneDrive - Tarleton State University/psych 5316- adv/Sternberg test","no","mono","no","18","no","white","no","no","768","legacy","7","11","C:/Users/chelsea/OneDrive - Tarleton State University/psych 5316- adv/Sternberg test/subject-3 VG.csv","legacy","2 3 7 4","Lentiform Loewenfeld","3.3.3","1","y","0","left","left","left","left","NA","771","197305","199676","771","NA","2","legacy","4","1024","2","48000","-16","experiment","3","odd","2","551697","548084","549472","25941","502348","549477","288720","26014","302670","NA","553703","554483","550493","223354","553703","NA","Sternberg Task","18","16117","20","yes","1024"
"90.47619047619048","90.47619047619048","804.3809523809524","804.3809523809524","black","experiment","legacy","legacy","legacy","0","uniform","1","undefined","1","right","20","20","20","0","0","20","20","0","0","NA","20","20","20","0","20","0","Sun Oct 25 11:38:57 2020","The main experiment item","yes","NA","SternbergTask.osexp","C:/Users/chelsea/OneDrive - Tarleton State University/psych 5316- adv/Sternberg test","no","mono","no","18","no","white","no","no","768","legacy","8","11","C:/Users/chelsea/OneDrive - Tarleton State University/psych 5316- adv/Sternberg test/subject-3 VG.csv","legacy","2 3 8 5 6 7","Lentiform Loewenfeld","3.3.3","0","n","0","right","left","left","right","NA","775","197305","199676","775","NA","2","legacy","6","1024","2","48000","-16","experiment","3","odd","1","558224","554628","556004","25941","502348","556009","288720","26014","302670","NA","560229","561006","557021","223354","560229","NA","Sternberg Task","19","16892","21","yes","1024"
"90.9090909090909","90.9090909090909","808.2272727272727","808.2272727272727","black","experiment","legacy","legacy","legacy","0","uniform","1","undefined","1","right","21","21","21","0","0","21","21","0","0","NA","21","21","21","0","21","0","Sun Oct 25 11:38:57 2020","The main experiment item","yes","NA","SternbergTask.osexp","C:/Users/chelsea/OneDrive - Tarleton State University/psych 5316- adv/Sternberg test","no","mono","no","18","no","white","no","no","768","legacy","9","11","C:/Users/chelsea/OneDrive - Tarleton State University/psych 5316- adv/Sternberg test/subject-3 VG.csv","legacy","7 9 1 6","Lentiform Loewenfeld","3.3.3","0","n","0","right","left","left","right","NA","889","197305","199676","889","NA","2","legacy","4","1024","2","48000","-16","experiment","3","odd","4","564660","561078","562443","25941","502348","562448","288720","26014","302670","NA","566664","567555","563455","223354","566664","NA","Sternberg Task","20","17781","22","yes","1024"
"91.30434782608695","91.30434782608695","816.0869565217391","816.0869565217391","black","experiment","legacy","legacy","legacy","0","uniform","1","undefined","1","left","22","22","22","0","0","22","22","0","0","NA","22","22","22","0","22","0","Sun Oct 25 11:38:57 2020","The main experiment item","yes","NA","SternbergTask.osexp","C:/Users/chelsea/OneDrive - Tarleton State University/psych 5316- adv/Sternberg test","no","mono","no","18","no","white","no","no","768","legacy","10","11","C:/Users/chelsea/OneDrive - Tarleton State University/psych 5316- adv/Sternberg test/subject-3 VG.csv","legacy","8 1 6","Lentiform Loewenfeld","3.3.3","3","y","0","left","left","left","left","NA","989","197305","199676","989","NA","2","legacy","3","1024","2","48000","-16","experiment","3","odd","6","571221","567622","569004","25941","502348","569010","288720","26014","302670","NA","573227","574221","570017","223354","573226","NA","Sternberg Task","21","18770","23","yes","1024"
"91.66666666666667","91.66666666666667","838.5416666666666","838.5416666666666","black","experiment","legacy","legacy","legacy","0","uniform","1","undefined","1","left","23","23","23","0","0","23","23","0","0","NA","23","23","23","0","23","0","Sun Oct 25 11:38:57 2020","The main experiment item","yes","NA","SternbergTask.osexp","C:/Users/chelsea/OneDrive - Tarleton State University/psych 5316- adv/Sternberg test","no","mono","no","18","no","white","no","no","768","legacy","11","11","C:/Users/chelsea/OneDrive - Tarleton State University/psych 5316- adv/Sternberg test/subject-3 VG.csv","legacy","8 5 3 7 4 6","Lentiform Loewenfeld","3.3.3","6","y","0","left","left","left","left","NA","1355","197305","199676","1355","NA","2","legacy","6","1024","2","48000","-16","experiment","3","odd","6","578086","574296","575866","25941","502348","575871","288720","26014","302670","NA","580092","581454","576881","223354","580092","NA","Sternberg Task","22","20125","24","yes","1024"
"92","92","834.96","834.96","black","experiment","legacy","legacy","legacy","0","uniform","1","undefined","1","left","24","24","24","0","0","24","24","0","0","NA","24","24","24","0","24","0","Sun Oct 25 11:38:57 2020","The main experiment item","yes","NA","SternbergTask.osexp","C:/Users/chelsea/OneDrive - Tarleton State University/psych 5316- adv/Sternberg test","no","mono","no","18","no","white","no","no","768","legacy","12","11","C:/Users/chelsea/OneDrive - Tarleton State University/psych 5316- adv/Sternberg test/subject-3 VG.csv","legacy","2 4 6 9","Lentiform Loewenfeld","3.3.3","3","y","0","left","left","left","left","NA","749","197305","199676","749","NA","2","legacy","4","1024","2","48000","-16","experiment","3","odd","6","585236","581518","583013","25941","502348","583018","288720","26014","302670","NA","587241","587992","584031","223354","587241","NA","Sternberg Task","23","20874","25","yes","1024"
"88.46153846153847","88.46153846153847","830.1153846153846","830.1153846153846","black","experiment","legacy","legacy","legacy","0","uniform","0","undefined","0","left","25","25","25","0","0","25","25","0","0","NA","25","25","25","0","25","0","Sun Oct 25 11:38:57 2020","The main experiment item","yes","NA","SternbergTask.osexp","C:/Users/chelsea/OneDrive - Tarleton State University/psych 5316- adv/Sternberg test","no","mono","no","18","no","white","no","no","768","legacy","13","11","C:/Users/chelsea/OneDrive - Tarleton State University/psych 5316- adv/Sternberg test/subject-3 VG.csv","legacy","4 1 8 7 5","Lentiform Loewenfeld","3.3.3","3","y","0","right","left","left","right","NA","709","197305","199676","709","NA","2","legacy","5","1024","2","48000","-16","experiment","3","odd","8","591657","588058","589440","25941","502348","589445","288720","26014","302670","NA","593661","594372","590452","223354","593660","NA","Sternberg Task","23","21583","26","yes","1024"
"88.88888888888889","88.88888888888889","823.8888888888889","823.8888888888889","black","experiment","legacy","legacy","legacy","0","uniform","1","undefined","1","left","26","26","26","0","0","26","26","0","0","NA","26","26","26","0","26","0","Sun Oct 25 11:38:57 2020","The main experiment item","yes","NA","SternbergTask.osexp","C:/Users/chelsea/OneDrive - Tarleton State University/psych 5316- adv/Sternberg test","no","mono","no","18","no","white","no","no","768","legacy","14","11","C:/Users/chelsea/OneDrive - Tarleton State University/psych 5316- adv/Sternberg test/subject-3 VG.csv","legacy","2 3","Lentiform Loewenfeld","3.3.3","1","y","0","left","left","left","left","NA","662","197305","199676","662","NA","2","legacy","2","1024","2","48000","-16","experiment","3","odd","2","598096","588058","595874","25941","502348","595880","594450","26014","302670","NA","600103","600767","596892","223354","600102","NA","Sternberg Task","24","22245","27","yes","1024"
"89.28571428571429","89.28571428571429","827.7142857142857","827.7142857142857","black","experiment","legacy","legacy","legacy","0","uniform","1","undefined","1","right","27","27","27","0","0","27","27","0","0","NA","27","27","27","0","27","0","Sun Oct 25 11:38:57 2020","The main experiment item","yes","NA","SternbergTask.osexp","C:/Users/chelsea/OneDrive - Tarleton State University/psych 5316- adv/Sternberg test","no","mono","no","18","no","white","no","no","768","legacy","15","11","C:/Users/chelsea/OneDrive - Tarleton State University/psych 5316- adv/Sternberg test/subject-3 VG.csv","legacy","9 5 3 2 8 6","Lentiform Loewenfeld","3.3.3","0","n","0","right","left","left","right","NA","931","197305","199676","931","NA","2","legacy","6","1024","2","48000","-16","experiment","3","odd","7","604468","600855","602253","25941","502348","602258","594450","26014","302670","NA","606473","607407","603263","223354","606473","NA","Sternberg Task","25","23176","28","yes","1024"
"89.65517241379311","89.65517241379311","833.8275862068965","833.8275862068965","black","experiment","legacy","legacy","legacy","0","uniform","1","undefined","1","right","28","28","28","0","0","28","28","0","0","NA","28","28","28","0","28","0","Sun Oct 25 11:38:57 2020","The main experiment item","yes","NA","SternbergTask.osexp","C:/Users/chelsea/OneDrive - Tarleton State University/psych 5316- adv/Sternberg test","no","mono","no","18","no","white","no","no","768","legacy","16","11","C:/Users/chelsea/OneDrive - Tarleton State University/psych 5316- adv/Sternberg test/subject-3 VG.csv","legacy","1 7 5 2 9","Lentiform Loewenfeld","3.3.3","0","n","0","right","left","left","right","NA","1005","197305","199676","1005","NA","2","legacy","5","1024","2","48000","-16","experiment","3","odd","3","611073","607453","608852","25941","502348","608858","594450","26014","302670","NA","613077","614087","609868","223354","613076","NA","Sternberg Task","26","24181","29","yes","1024"
"90","90","841.8666666666667","841.8666666666667","black","experiment","legacy","legacy","legacy","0","uniform","1","undefined","1","right","29","29","29","0","0","29","29","0","0","NA","29","29","29","0","29","0","Sun Oct 25 11:38:57 2020","The main experiment item","yes","NA","SternbergTask.osexp","C:/Users/chelsea/OneDrive - Tarleton State University/psych 5316- adv/Sternberg test","no","mono","no","18","no","white","no","no","768","legacy","17","11","C:/Users/chelsea/OneDrive - Tarleton State University/psych 5316- adv/Sternberg test/subject-3 VG.csv","legacy","3 9 8 1 6 4","Lentiform Loewenfeld","3.3.3","0","n","0","right","left","left","right","NA","1075","197305","199676","1075","NA","2","legacy","6","1024","2","48000","-16","experiment","3","odd","7","617769","614162","615545","25941","502348","615550","594450","26014","302670","NA","619774","620852","616564","223354","619774","NA","Sternberg Task","27","25256","30","yes","1024"
"90.3225806451613","90.3225806451613","841.3225806451613","841.3225806451613","black","experiment","legacy","legacy","legacy","0","uniform","1","undefined","1","left","30","30","30","0","0","30","30","0","0","NA","30","30","30","0","30","0","Sun Oct 25 11:38:57 2020","The main experiment item","yes","NA","SternbergTask.osexp","C:/Users/chelsea/OneDrive - Tarleton State University/psych 5316- adv/Sternberg test","no","mono","no","18","no","white","no","no","768","legacy","18","11","C:/Users/chelsea/OneDrive - Tarleton State University/psych 5316- adv/Sternberg test/subject-3 VG.csv","legacy","7","Lentiform Loewenfeld","3.3.3","1","y","0","left","left","left","left","NA","825","197305","199676","825","NA","2","legacy","1","1024","2","48000","-16","experiment","3","odd","7","753651","620898","622273","25941","502348","751442","594450","26014","302670","NA","755655","756482","752447","223354","755654","NA","Sternberg Task","28","26081","31","yes","1024"
"90.625","90.625","845.78125","845.78125","black","experiment","legacy","legacy","legacy","0","uniform","1","undefined","1","left","31","31","31","0","0","31","31","0","0","NA","31","31","31","0","31","0","Sun Oct 25 11:38:57 2020","The main experiment item","yes","NA","SternbergTask.osexp","C:/Users/chelsea/OneDrive - Tarleton State University/psych 5316- adv/Sternberg test","no","mono","no","18","no","white","no","no","768","legacy","19","11","C:/Users/chelsea/OneDrive - Tarleton State University/psych 5316- adv/Sternberg test/subject-3 VG.csv","legacy","6 1 2","Lentiform Loewenfeld","3.3.3","3","y","0","left","left","left","left","NA","984","197305","199676","984","NA","2","legacy","3","1024","2","48000","-16","experiment","3","odd","2","761597","756525","759366","25941","502348","759377","594450","26014","302670","NA","763607","764593","760387","223354","763607","NA","Sternberg Task","29","27065","32","yes","1024"
"90.9090909090909","90.9090909090909","846.6666666666666","846.6666666666666","black","experiment","legacy","legacy","legacy","0","uniform","1","undefined","1","left","32","32","32","0","0","32","32","0","0","NA","32","32","32","0","32","0","Sun Oct 25 11:38:57 2020","The main experiment item","yes","NA","SternbergTask.osexp","C:/Users/chelsea/OneDrive - Tarleton State University/psych 5316- adv/Sternberg test","no","mono","no","18","no","white","no","no","768","legacy","20","11","C:/Users/chelsea/OneDrive - Tarleton State University/psych 5316- adv/Sternberg test/subject-3 VG.csv","legacy","9 5 3 8 4","Lentiform Loewenfeld","3.3.3","1","y","0","left","left","left","left","NA","875","197305","199676","875","NA","2","legacy","5","1024","2","48000","-16","experiment","3","odd","9","768253","764637","766021","25941","502348","766028","594450","26014","302670","NA","770267","771146","767038","223354","770267","NA","Sternberg Task","30","27940","33","yes","1024"
"91.17647058823529","91.17647058823529","847.7647058823529","847.7647058823529","black","experiment","legacy","legacy","legacy","0","uniform","1","undefined","1","right","33","33","33","0","0","33","33","0","0","NA","33","33","33","0","33","0","Sun Oct 25 11:38:57 2020","The main experiment item","yes","NA","SternbergTask.osexp","C:/Users/chelsea/OneDrive - Tarleton State University/psych 5316- adv/Sternberg test","no","mono","no","18","no","white","no","no","768","legacy","21","11","C:/Users/chelsea/OneDrive - Tarleton State University/psych 5316- adv/Sternberg test/subject-3 VG.csv","legacy","2 5 1 4","Lentiform Loewenfeld","3.3.3","0","n","0","right","left","left","right","NA","884","197305","199676","884","NA","2","legacy","4","1024","2","48000","-16","experiment","3","odd","6","774816","771226","772586","25941","502348","772591","594450","26014","302670","NA","776832","777719","773602","223354","776832","NA","Sternberg Task","31","28824","34","yes","1024"
"91.42857142857143","91.42857142857143","849.2","849.2","black","experiment","legacy","legacy","legacy","0","uniform","1","undefined","1","left","34","34","34","0","0","34","34","0","0","NA","34","34","34","0","34","0","Sun Oct 25 11:38:57 2020","The main experiment item","yes","NA","SternbergTask.osexp","C:/Users/chelsea/OneDrive - Tarleton State University/psych 5316- adv/Sternberg test","no","mono","no","18","no","white","no","no","768","legacy","22","11","C:/Users/chelsea/OneDrive - Tarleton State University/psych 5316- adv/Sternberg test/subject-3 VG.csv","legacy","9 1 7 2","Lentiform Loewenfeld","3.3.3","2","y","0","left","left","left","left","NA","898","197305","199676","898","NA","2","legacy","4","1024","2","48000","-16","experiment","3","odd","1","781382","777791","779163","25941","502348","779168","594450","26014","302670","NA","783386","784286","780178","223354","783386","NA","Sternberg Task","32","29722","35","yes","1024"
"91.66666666666667","91.66666666666667","856.2222222222222","856.2222222222222","black","experiment","legacy","legacy","legacy","0","uniform","1","undefined","1","right","35","35","35","0","0","35","35","0","0","NA","35","35","35","0","35","0","Sun Oct 25 11:38:57 2020","The main experiment item","yes","NA","SternbergTask.osexp","C:/Users/chelsea/OneDrive - Tarleton State University/psych 5316- adv/Sternberg test","no","mono","no","18","no","white","no","no","768","legacy","23","11","C:/Users/chelsea/OneDrive - Tarleton State University/psych 5316- adv/Sternberg test/subject-3 VG.csv","legacy","5 3 2 6 9 8","Lentiform Loewenfeld","3.3.3","0","n","0","right","left","left","right","NA","1102","197305","199676","1102","NA","2","legacy","6","1024","2","48000","-16","experiment","3","odd","4","787954","784359","785730","25941","502348","785735","594450","26014","302670","NA","789959","791066","786750","223354","789959","NA","Sternberg Task","33","30824","36","yes","1024"
"91.89189189189189","91.89189189189189","857.918918918919","857.918918918919","black","experiment","legacy","legacy","legacy","0","uniform","1","undefined","1","right","36","36","36","0","0","36","36","0","0","NA","36","36","36","0","36","0","Sun Oct 25 11:38:57 2020","The main experiment item","yes","NA","SternbergTask.osexp","C:/Users/chelsea/OneDrive - Tarleton State University/psych 5316- adv/Sternberg test","no","mono","no","18","no","white","no","no","768","legacy","24","11","C:/Users/chelsea/OneDrive - Tarleton State University/psych 5316- adv/Sternberg test/subject-3 VG.csv","legacy","6 7 5 9","Lentiform Loewenfeld","3.3.3","0","n","0","right","left","left","right","NA","919","197305","199676","919","NA","2","legacy","4","1024","2","48000","-16","experiment","3","odd","2","794718","791117","792499","25941","502348","792504","594450","26014","302670","NA","796723","797645","793513","223354","796722","NA","Sternberg Task","34","31743","37","yes","1024"
"92.10526315789474","92.10526315789474","865.7631578947369","865.7631578947369","black","experiment","legacy","legacy","legacy","0","uniform","1","undefined","1","right","37","37","37","0","0","37","37","0","0","NA","37","37","37","0","37","0","Sun Oct 25 11:38:57 2020","The main experiment item","yes","NA","SternbergTask.osexp","C:/Users/chelsea/OneDrive - Tarleton State University/psych 5316- adv/Sternberg test","no","mono","no","18","no","white","no","no","768","legacy","25","11","C:/Users/chelsea/OneDrive - Tarleton State University/psych 5316- adv/Sternberg test/subject-3 VG.csv","legacy","1 7 8 3 9","Lentiform Loewenfeld","3.3.3","0","n","0","right","left","left","right","NA","1156","197305","199676","1156","NA","2","legacy","5","1024","2","48000","-16","experiment","3","odd","2","801335","797725","799113","25941","502348","799118","594450","26014","302670","NA","803341","804505","800132","223354","803340","NA","Sternberg Task","35","32899","38","yes","1024"
"92.3076923076923","92.3076923076923","867.4615384615385","867.4615384615385","black","experiment","legacy","legacy","legacy","0","uniform","1","undefined","1","right","38","38","38","0","0","38","38","0","0","NA","38","38","38","0","38","0","Sun Oct 25 11:38:57 2020","The main experiment item","yes","NA","SternbergTask.osexp","C:/Users/chelsea/OneDrive - Tarleton State University/psych 5316- adv/Sternberg test","no","mono","no","18","no","white","no","no","768","legacy","26","11","C:/Users/chelsea/OneDrive - Tarleton State University/psych 5316- adv/Sternberg test/subject-3 VG.csv","legacy","9","Lentiform Loewenfeld","3.3.3","0","n","0","right","left","left","right","NA","932","197305","199676","932","NA","2","legacy","1","1024","2","48000","-16","experiment","3","odd","6","808158","804573","805942","25941","502348","805947","594450","26014","302670","NA","810164","811099","806953","223354","810163","NA","Sternberg Task","36","33831","39","yes","1024"
"92.5","92.5","868.55","868.55","black","experiment","legacy","legacy","legacy","0","uniform","1","undefined","1","right","39","39","39","0","0","39","39","0","0","NA","39","39","39","0","39","0","Sun Oct 25 11:38:57 2020","The main experiment item","yes","NA","SternbergTask.osexp","C:/Users/chelsea/OneDrive - Tarleton State University/psych 5316- adv/Sternberg test","no","mono","no","18","no","white","no","no","768","legacy","27","11","C:/Users/chelsea/OneDrive - Tarleton State University/psych 5316- adv/Sternberg test/subject-3 VG.csv","legacy","4 2 7 6 1 3","Lentiform Loewenfeld","3.3.3","0","n","0","right","left","left","right","NA","911","197305","199676","911","NA","2","legacy","6","1024","2","48000","-16","experiment","3","odd","8","814772","811146","812546","25941","502348","812551","594450","26014","302670","NA","816776","817690","813568","223354","816776","NA","Sternberg Task","37","34742","40","yes","1024"
"92.6829268292683","92.6829268292683","881.6829268292682","881.6829268292682","black","experiment","legacy","legacy","legacy","0","uniform","1","undefined","1","left","40","40","40","0","0","40","40","0","0","NA","40","40","40","0","40","0","Sun Oct 25 11:38:57 2020","The main experiment item","yes","NA","SternbergTask.osexp","C:/Users/chelsea/OneDrive - Tarleton State University/psych 5316- adv/Sternberg test","no","mono","no","18","no","white","no","no","768","legacy","28","11","C:/Users/chelsea/OneDrive - Tarleton State University/psych 5316- adv/Sternberg test/subject-3 VG.csv","legacy","1 4 9 3 2 5","Lentiform Loewenfeld","3.3.3","3","y","0","left","left","left","left","NA","1407","197305","199676","1407","NA","2","legacy","6","1024","2","48000","-16","experiment","3","odd","9","821355","817734","819137","25941","502348","819142","594450","26014","302670","NA","823362","824771","820152","223354","823362","NA","Sternberg Task","38","36149","41","yes","1024"
"92.85714285714286","92.85714285714286","884.9047619047619","884.9047619047619","black","experiment","legacy","legacy","legacy","0","uniform","1","undefined","1","left","41","41","41","0","0","41","41","0","0","NA","41","41","41","0","41","0","Sun Oct 25 11:38:57 2020","The main experiment item","yes","NA","SternbergTask.osexp","C:/Users/chelsea/OneDrive - Tarleton State University/psych 5316- adv/Sternberg test","no","mono","no","18","no","white","no","no","768","legacy","29","11","C:/Users/chelsea/OneDrive - Tarleton State University/psych 5316- adv/Sternberg test/subject-3 VG.csv","legacy","7 1 8 5 6 2","Lentiform Loewenfeld","3.3.3","2","y","0","left","left","left","left","NA","1017","197305","199676","1017","NA","2","legacy","6","1024","2","48000","-16","experiment","3","odd","1","828448","824853","826229","25941","502348","826234","594450","26014","302670","NA","830452","831472","827241","223354","830452","NA","Sternberg Task","39","37166","42","yes","1024"
"93.02325581395348","93.02325581395348","882.953488372093","882.953488372093","black","experiment","legacy","legacy","legacy","0","uniform","1","undefined","1","left","42","42","42","0","0","42","42","0","0","NA","42","42","42","0","42","0","Sun Oct 25 11:38:57 2020","The main experiment item","yes","NA","SternbergTask.osexp","C:/Users/chelsea/OneDrive - Tarleton State University/psych 5316- adv/Sternberg test","no","mono","no","18","no","white","no","no","768","legacy","30","11","C:/Users/chelsea/OneDrive - Tarleton State University/psych 5316- adv/Sternberg test/subject-3 VG.csv","legacy","4 6 5 8","Lentiform Loewenfeld","3.3.3","1","y","0","left","left","left","left","NA","801","197305","199676","801","NA","2","legacy","4","1024","2","48000","-16","experiment","3","odd","4","835107","831516","832889","25941","502348","832895","594450","26014","302670","NA","837117","837920","833903","223354","837117","NA","Sternberg Task","40","37967","43","yes","1024"
"90.9090909090909","90.9090909090909","908.3409090909091","908.3409090909091","black","experiment","legacy","legacy","legacy","0","uniform","0","undefined","0","left","43","43","43","0","0","43","43","0","0","NA","43","43","43","0","43","0","Sun Oct 25 11:38:57 2020","The main experiment item","yes","NA","SternbergTask.osexp","C:/Users/chelsea/OneDrive - Tarleton State University/psych 5316- adv/Sternberg test","no","mono","no","18","no","white","no","no","768","legacy","31","11","C:/Users/chelsea/OneDrive - Tarleton State University/psych 5316- adv/Sternberg test/subject-3 VG.csv","legacy","4 9 7 8 5 3","Lentiform Loewenfeld","3.3.3","4","y","0","None","left","left","None","NA","2000","197305","199676","2000","NA","2","legacy","6","1024","2","48000","-16","experiment","3","odd","8","841617","838021","839398","25941","502348","839403","594450","26014","302670","NA","843621","845628","840412","223354","843621","NA","Sternberg Task","40","39967","44","yes","1024"
"91.11111111111111","91.11111111111111","911.1777777777778","911.1777777777778","black","experiment","legacy","legacy","legacy","0","uniform","1","undefined","1","right","44","44","44","0","0","44","44","0","0","NA","44","44","44","0","44","0","Sun Oct 25 11:38:57 2020","The main experiment item","yes","NA","SternbergTask.osexp","C:/Users/chelsea/OneDrive - Tarleton State University/psych 5316- adv/Sternberg test","no","mono","no","18","no","white","no","no","768","legacy","32","11","C:/Users/chelsea/OneDrive - Tarleton State University/psych 5316- adv/Sternberg test/subject-3 VG.csv","legacy","5 7 3","Lentiform Loewenfeld","3.3.3","0","n","0","right","left","left","right","NA","1036","197305","199676","1036","NA","2","legacy","3","1024","2","48000","-16","experiment","3","odd","9","849314","838021","847096","25941","502348","847102","845710","26014","302670","NA","851318","852357","848107","223354","851318","NA","Sternberg Task","41","41003","45","yes","1024"
"91.30434782608695","91.30434782608695","921.0217391304348","921.0217391304348","black","experiment","legacy","legacy","legacy","0","uniform","1","undefined","1","left","45","45","45","0","0","45","45","0","0","NA","45","45","45","0","45","0","Sun Oct 25 11:38:57 2020","The main experiment item","yes","NA","SternbergTask.osexp","C:/Users/chelsea/OneDrive - Tarleton State University/psych 5316- adv/Sternberg test","no","mono","no","18","no","white","no","no","768","legacy","33","11","C:/Users/chelsea/OneDrive - Tarleton State University/psych 5316- adv/Sternberg test/subject-3 VG.csv","legacy","2 4 8 5 1 3","Lentiform Loewenfeld","3.3.3","1","y","0","left","left","left","left","NA","1364","197305","199676","1364","NA","2","legacy","6","1024","2","48000","-16","experiment","3","odd","2","856034","852438","853806","25941","502348","853813","845710","26014","302670","NA","858038","859405","854825","223354","858037","NA","Sternberg Task","42","42367","46","yes","1024"
"91.48936170212765","91.48936170212765","926.7234042553191","926.7234042553191","black","experiment","legacy","legacy","legacy","0","uniform","1","undefined","1","left","46","46","46","0","0","46","46","0","0","NA","46","46","46","0","46","0","Sun Oct 25 11:38:57 2020","The main experiment item","yes","NA","SternbergTask.osexp","C:/Users/chelsea/OneDrive - Tarleton State University/psych 5316- adv/Sternberg test","no","mono","no","18","no","white","no","no","768","legacy","34","11","C:/Users/chelsea/OneDrive - Tarleton State University/psych 5316- adv/Sternberg test/subject-3 VG.csv","legacy","8 9 5 7 1 6","Lentiform Loewenfeld","3.3.3","4","y","0","left","left","left","left","NA","1189","197305","199676","1189","NA","2","legacy","6","1024","2","48000","-16","experiment","3","odd","7","863040","859450","860817","25941","502348","860823","845710","26014","302670","NA","865044","866236","861836","223354","865044","NA","Sternberg Task","43","43556","47","yes","1024"
"91.66666666666667","91.66666666666667","928.9583333333334","928.9583333333334","black","experiment","legacy","legacy","legacy","0","uniform","1","undefined","1","right","47","47","47","0","0","47","47","0","0","NA","47","47","47","0","47","0","Sun Oct 25 11:38:57 2020","The main experiment item","yes","NA","SternbergTask.osexp","C:/Users/chelsea/OneDrive - Tarleton State University/psych 5316- adv/Sternberg test","no","mono","no","18","no","white","no","no","768","legacy","35","11","C:/Users/chelsea/OneDrive - Tarleton State University/psych 5316- adv/Sternberg test/subject-3 VG.csv","legacy","7 6 4 8 1 2","Lentiform Loewenfeld","3.3.3","0","n","0","right","left","left","right","NA","1034","197305","199676","1034","NA","2","legacy","6","1024","2","48000","-16","experiment","3","odd","9","869915","866324","867696","25941","502348","867701","845710","26014","302670","NA","871920","872957","868712","223354","871920","NA","Sternberg Task","44","44590","48","yes","1024"
"89.79591836734694","89.79591836734694","930.9183673469388","930.9183673469388","black","experiment","legacy","legacy","legacy","0","uniform","0","undefined","0","right","48","48","48","0","0","48","48","0","0","NA","48","48","48","0","48","0","Sun Oct 25 11:38:57 2020","The main experiment item","yes","NA","SternbergTask.osexp","C:/Users/chelsea/OneDrive - Tarleton State University/psych 5316- adv/Sternberg test","no","mono","no","18","no","white","no","no","768","legacy","36","11","C:/Users/chelsea/OneDrive - Tarleton State University/psych 5316- adv/Sternberg test/subject-3 VG.csv","legacy","6 2 9 3 8 4","Lentiform Loewenfeld","3.3.3","0","n","0","left","left","left","left","NA","1025","197305","199676","1025","NA","2","legacy","6","1024","2","48000","-16","experiment","3","odd","1","876617","873030","874399","25941","502348","874403","845710","26014","302670","NA","878622","879650","875414","223354","878622","NA","Sternberg Task","44","45615","49","yes","1024"
"90","90","932.22","932.22","black","experiment","legacy","legacy","legacy","0","uniform","1","undefined","1","right","49","49","49","0","0","49","49","0","0","NA","49","49","49","0","49","0","Sun Oct 25 11:38:57 2020","The main experiment item","yes","NA","SternbergTask.osexp","C:/Users/chelsea/OneDrive - Tarleton State University/psych 5316- adv/Sternberg test","no","mono","no","18","no","white","no","no","768","legacy","37","11","C:/Users/chelsea/OneDrive - Tarleton State University/psych 5316- adv/Sternberg test/subject-3 VG.csv","legacy","6 9 7 3 8 2","Lentiform Loewenfeld","3.3.3","0","n","0","right","left","left","right","NA","996","197305","199676","996","NA","2","legacy","6","1024","2","48000","-16","experiment","3","odd","5","883285","873030","881068","25941","502348","881072","879692","26014","302670","NA","885290","886289","882081","223354","885289","NA","Sternberg Task","45","46611","50","yes","1024"
"90.19607843137256","90.19607843137256","932.4901960784314","932.4901960784314","black","experiment","legacy","legacy","legacy","0","uniform","1","undefined","1","right","50","50","50","0","0","50","50","0","0","NA","50","50","50","0","50","0","Sun Oct 25 11:38:57 2020","The main experiment item","yes","NA","SternbergTask.osexp","C:/Users/chelsea/OneDrive - Tarleton State University/psych 5316- adv/Sternberg test","no","mono","no","18","no","white","no","no","768","legacy","38","11","C:/Users/chelsea/OneDrive - Tarleton State University/psych 5316- adv/Sternberg test/subject-3 VG.csv","legacy","8 6 3 4 7","Lentiform Loewenfeld","3.3.3","0","n","0","right","left","left","right","NA","946","197305","199676","946","NA","2","legacy","5","1024","2","48000","-16","experiment","3","odd","1","889957","886360","887742","25941","502348","887749","879692","26014","302670","NA","891964","892913","888754","223354","891963","NA","Sternberg Task","46","47557","51","yes","1024"
"90.38461538461539","90.38461538461539","927.8269230769231","927.8269230769231","black","experiment","legacy","legacy","legacy","0","uniform","1","undefined","1","right","51","51","51","0","0","51","51","0","0","NA","51","51","51","0","51","0","Sun Oct 25 11:38:57 2020","The main experiment item","yes","NA","SternbergTask.osexp","C:/Users/chelsea/OneDrive - Tarleton State University/psych 5316- adv/Sternberg test","no","mono","no","18","no","white","no","no","768","legacy","39","11","C:/Users/chelsea/OneDrive - Tarleton State University/psych 5316- adv/Sternberg test/subject-3 VG.csv","legacy","4 2 6 9","Lentiform Loewenfeld","3.3.3","0","n","0","right","left","left","right","NA","690","197305","199676","690","NA","2","legacy","4","1024","2","48000","-16","experiment","3","odd","7","896578","892995","894358","25941","502348","894364","879692","26014","302670","NA","898587","899286","895374","223354","898587","NA","Sternberg Task","47","48247","52","yes","1024"
"88.67924528301887","88.67924528301887","930.8301886792453","930.8301886792453","black","experiment","legacy","legacy","legacy","0","uniform","0","undefined","0","left","52","52","52","0","0","52","52","0","0","NA","52","52","52","0","52","0","Sun Oct 25 11:38:57 2020","The main experiment item","yes","NA","SternbergTask.osexp","C:/Users/chelsea/OneDrive - Tarleton State University/psych 5316- adv/Sternberg test","no","mono","no","18","no","white","no","no","768","legacy","40","11","C:/Users/chelsea/OneDrive - Tarleton State University/psych 5316- adv/Sternberg test/subject-3 VG.csv","legacy","6 9 3 1","Lentiform Loewenfeld","3.3.3","4","y","0","right","left","left","right","NA","1087","197305","199676","1087","NA","2","legacy","4","1024","2","48000","-16","experiment","3","odd","1","902958","899366","900736","25941","502348","900741","879692","26014","302670","NA","904964","906055","901754","223354","904964","NA","Sternberg Task","47","49334","53","yes","1024"
"88.88888888888889","88.88888888888889","936.7407407407408","936.7407407407408","black","experiment","legacy","legacy","legacy","0","uniform","1","undefined","1","right","53","53","53","0","0","53","53","0","0","NA","53","53","53","0","53","0","Sun Oct 25 11:38:57 2020","The main experiment item","yes","NA","SternbergTask.osexp","C:/Users/chelsea/OneDrive - Tarleton State University/psych 5316- adv/Sternberg test","no","mono","no","18","no","white","no","no","768","legacy","41","11","C:/Users/chelsea/OneDrive - Tarleton State University/psych 5316- adv/Sternberg test/subject-3 VG.csv","legacy","2 8 9","Lentiform Loewenfeld","3.3.3","0","n","0","right","left","left","right","NA","1250","197305","199676","1250","NA","2","legacy","3","1024","2","48000","-16","experiment","3","odd","6","909717","899366","907498","25941","502348","907503","906131","26014","302670","NA","911721","912974","908509","223354","911721","NA","Sternberg Task","48","50584","54","yes","1024"
"89.0909090909091","89.0909090909091","935.2727272727273","935.2727272727273","black","experiment","legacy","legacy","legacy","0","uniform","1","undefined","1","right","54","54","54","0","0","54","54","0","0","NA","54","54","54","0","54","0","Sun Oct 25 11:38:57 2020","The main experiment item","yes","NA","SternbergTask.osexp","C:/Users/chelsea/OneDrive - Tarleton State University/psych 5316- adv/Sternberg test","no","mono","no","18","no","white","no","no","768","legacy","42","11","C:/Users/chelsea/OneDrive - Tarleton State University/psych 5316- adv/Sternberg test/subject-3 VG.csv","legacy","8 5 7 3 6","Lentiform Loewenfeld","3.3.3","0","n","0","right","left","left","right","NA","856","197305","199676","856","NA","2","legacy","5","1024","2","48000","-16","experiment","3","odd","9","916636","913049","914417","25941","502348","914423","906131","26014","302670","NA","918641","919501","915433","223354","918641","NA","Sternberg Task","49","51440","55","yes","1024"
"89.28571428571429","89.28571428571429","938.2857142857143","938.2857142857143","black","experiment","legacy","legacy","legacy","0","uniform","1","undefined","1","right","55","55","55","0","0","55","55","0","0","NA","55","55","55","0","55","0","Sun Oct 25 11:38:57 2020","The main experiment item","yes","NA","SternbergTask.osexp","C:/Users/chelsea/OneDrive - Tarleton State University/psych 5316- adv/Sternberg test","no","mono","no","18","no","white","no","no","768","legacy","43","11","C:/Users/chelsea/OneDrive - Tarleton State University/psych 5316- adv/Sternberg test/subject-3 VG.csv","legacy","8 4 3 5","Lentiform Loewenfeld","3.3.3","0","n","0","right","left","left","right","NA","1104","197305","199676","1104","NA","2","legacy","4","1024","2","48000","-16","experiment","3","odd","6","923187","919571","920964","25941","502348","920969","906131","26014","302670","NA","925193","926300","921978","223354","925193","NA","Sternberg Task","50","52544","56","yes","1024"
"87.71929824561404","87.71929824561404","931.7543859649123","931.7543859649123","black","experiment","legacy","legacy","legacy","0","uniform","0","undefined","0","right","56","56","56","0","0","56","56","0","0","NA","56","56","56","0","56","0","Sun Oct 25 11:38:57 2020","The main experiment item","yes","NA","SternbergTask.osexp","C:/Users/chelsea/OneDrive - Tarleton State University/psych 5316- adv/Sternberg test","no","mono","no","18","no","white","no","no","768","legacy","44","11","C:/Users/chelsea/OneDrive - Tarleton State University/psych 5316- adv/Sternberg test/subject-3 VG.csv","legacy","7 9","Lentiform Loewenfeld","3.3.3","0","n","0","left","left","left","left","NA","566","197305","199676","566","NA","2","legacy","2","1024","2","48000","-16","experiment","3","odd","1","930003","926342","927773","25941","502348","927788","906131","26014","302670","NA","932007","932576","928797","223354","932007","NA","Sternberg Task","50","53110","57","yes","1024"
"87.93103448275862","87.93103448275862","931.8793103448276","931.8793103448276","black","experiment","legacy","legacy","legacy","0","uniform","1","undefined","1","right","57","57","57","0","0","57","57","0","0","NA","57","57","57","0","57","0","Sun Oct 25 11:38:57 2020","The main experiment item","yes","NA","SternbergTask.osexp","C:/Users/chelsea/OneDrive - Tarleton State University/psych 5316- adv/Sternberg test","no","mono","no","18","no","white","no","no","768","legacy","45","11","C:/Users/chelsea/OneDrive - Tarleton State University/psych 5316- adv/Sternberg test/subject-3 VG.csv","legacy","1 8 7","Lentiform Loewenfeld","3.3.3","0","n","0","right","left","left","right","NA","939","197305","199676","939","NA","2","legacy","3","1024","2","48000","-16","experiment","3","odd","4","936321","926342","934107","25941","502348","934112","932651","26014","302670","NA","938325","939268","935117","223354","938325","NA","Sternberg Task","51","54049","58","yes","1024"
"86.44067796610169","86.44067796610169","938.1694915254237","938.1694915254237","black","experiment","legacy","legacy","legacy","0","uniform","0","undefined","0","left","58","58","58","0","0","58","58","0","0","NA","58","58","58","0","58","0","Sun Oct 25 11:38:57 2020","The main experiment item","yes","NA","SternbergTask.osexp","C:/Users/chelsea/OneDrive - Tarleton State University/psych 5316- adv/Sternberg test","no","mono","no","18","no","white","no","no","768","legacy","46","11","C:/Users/chelsea/OneDrive - Tarleton State University/psych 5316- adv/Sternberg test/subject-3 VG.csv","legacy","3 5 9 6 2 4","Lentiform Loewenfeld","3.3.3","1","y","0","right","left","left","right","NA","1303","197305","199676","1303","NA","2","legacy","6","1024","2","48000","-16","experiment","3","odd","3","943009","939340","940789","25941","502348","940795","932651","26014","302670","NA","945015","946322","941805","223354","945015","NA","Sternberg Task","51","55352","59","yes","1024"
"86.66666666666667","86.66666666666667","939.0166666666667","939.0166666666667","black","experiment","legacy","legacy","legacy","0","uniform","1","undefined","1","right","59","59","59","0","0","59","59","0","0","NA","59","59","59","0","59","0","Sun Oct 25 11:38:57 2020","The main experiment item","yes","NA","SternbergTask.osexp","C:/Users/chelsea/OneDrive - Tarleton State University/psych 5316- adv/Sternberg test","no","mono","no","18","no","white","no","no","768","legacy","47","11","C:/Users/chelsea/OneDrive - Tarleton State University/psych 5316- adv/Sternberg test/subject-3 VG.csv","legacy","5 2","Lentiform Loewenfeld","3.3.3","0","n","0","right","left","left","right","NA","989","197305","199676","989","NA","2","legacy","2","1024","2","48000","-16","experiment","3","odd","7","950005","939340","947781","25941","502348","947787","946419","26014","302670","NA","952009","953003","948801","223354","952009","NA","Sternberg Task","52","56341","60","yes","1024"
"86.88524590163935","86.88524590163935","941.7704918032787","941.7704918032787","black","experiment","legacy","legacy","legacy","0","uniform","1","undefined","1","right","60","60","60","0","0","60","60","0","0","NA","60","60","60","0","60","0","Sun Oct 25 11:38:57 2020","The main experiment item","yes","NA","SternbergTask.osexp","C:/Users/chelsea/OneDrive - Tarleton State University/psych 5316- adv/Sternberg test","no","mono","no","18","no","white","no","no","768","legacy","48","11","C:/Users/chelsea/OneDrive - Tarleton State University/psych 5316- adv/Sternberg test/subject-3 VG.csv","legacy","1 4 9 3","Lentiform Loewenfeld","3.3.3","0","n","0","right","left","left","right","NA","1107","197305","199676","1107","NA","2","legacy","4","1024","2","48000","-16","experiment","3","odd","5","956672","953082","954453","25941","502348","954458","946419","26014","302670","NA","958677","959787","955467","223354","958676","NA","Sternberg Task","53","57448","61","yes","1024"
"87.09677419354838","87.09677419354838","938.7258064516129","938.7258064516129","black","experiment","legacy","legacy","legacy","0","uniform","1","undefined","1","right","61","61","61","0","0","61","61","0","0","NA","61","61","61","0","61","0","Sun Oct 25 11:38:57 2020","The main experiment item","yes","NA","SternbergTask.osexp","C:/Users/chelsea/OneDrive - Tarleton State University/psych 5316- adv/Sternberg test","no","mono","no","18","no","white","no","no","768","legacy","49","11","C:/Users/chelsea/OneDrive - Tarleton State University/psych 5316- adv/Sternberg test/subject-3 VG.csv","legacy","4 1","Lentiform Loewenfeld","3.3.3","0","n","0","right","left","left","right","NA","753","197305","199676","753","NA","2","legacy","2","1024","2","48000","-16","experiment","3","odd","6","963449","959865","961232","25941","502348","961237","946419","26014","302670","NA","965454","966211","962242","223354","965454","NA","Sternberg Task","54","58201","62","yes","1024"
"87.3015873015873","87.3015873015873","939.3492063492064","939.3492063492064","black","experiment","legacy","legacy","legacy","0","uniform","1","undefined","1","right","62","62","62","0","0","62","62","0","0","NA","62","62","62","0","62","0","Sun Oct 25 11:38:57 2020","The main experiment item","yes","NA","SternbergTask.osexp","C:/Users/chelsea/OneDrive - Tarleton State University/psych 5316- adv/Sternberg test","no","mono","no","18","no","white","no","no","768","legacy","50","11","C:/Users/chelsea/OneDrive - Tarleton State University/psych 5316- adv/Sternberg test/subject-3 VG.csv","legacy","2 8 9 4 1","Lentiform Loewenfeld","3.3.3","0","n","0","right","left","left","right","NA","978","197305","199676","978","NA","2","legacy","5","1024","2","48000","-16","experiment","3","odd","5","969891","966260","967671","25941","502348","967676","946419","26014","302670","NA","971896","972878","968687","223354","971896","NA","Sternberg Task","55","59179","63","yes","1024"
"87.5","87.5","934.609375","934.609375","black","experiment","legacy","legacy","legacy","0","uniform","1","undefined","1","right","63","63","63","0","0","63","63","0","0","NA","63","63","63","0","63","0","Sun Oct 25 11:38:57 2020","The main experiment item","yes","NA","SternbergTask.osexp","C:/Users/chelsea/OneDrive - Tarleton State University/psych 5316- adv/Sternberg test","no","mono","no","18","no","white","no","no","768","legacy","51","11","C:/Users/chelsea/OneDrive - Tarleton State University/psych 5316- adv/Sternberg test/subject-3 VG.csv","legacy","5","Lentiform Loewenfeld","3.3.3","0","n","0","right","left","left","right","NA","636","197305","199676","636","NA","2","legacy","1","1024","2","48000","-16","experiment","3","odd","8","976538","972950","974322","25941","502348","974326","946419","26014","302670","NA","978542","979182","975334","223354","978542","NA","Sternberg Task","56","59815","64","yes","1024"
"87.6923076923077","87.6923076923077","936.6923076923077","936.6923076923077","black","experiment","legacy","legacy","legacy","0","uniform","1","undefined","1","right","64","64","64","0","0","64","64","0","0","NA","64","64","64","0","64","0","Sun Oct 25 11:38:57 2020","The main experiment item","yes","NA","SternbergTask.osexp","C:/Users/chelsea/OneDrive - Tarleton State University/psych 5316- adv/Sternberg test","no","mono","no","18","no","white","no","no","768","legacy","52","11","C:/Users/chelsea/OneDrive - Tarleton State University/psych 5316- adv/Sternberg test/subject-3 VG.csv","legacy","7 1 5 6 3","Lentiform Loewenfeld","3.3.3","0","n","0","right","left","left","right","NA","1070","197305","199676","1070","NA","2","legacy","5","1024","2","48000","-16","experiment","3","odd","8","982862","979251","980632","25941","502348","980637","946419","26014","302670","NA","984867","985941","981657","223354","984867","NA","Sternberg Task","57","60885","65","yes","1024"
"87.87878787878788","87.87878787878788","943.1515151515151","943.1515151515151","black","experiment","legacy","legacy","legacy","0","uniform","1","undefined","1","left","65","65","65","0","0","65","65","0","0","NA","65","65","65","0","65","0","Sun Oct 25 11:38:57 2020","The main experiment item","yes","NA","SternbergTask.osexp","C:/Users/chelsea/OneDrive - Tarleton State University/psych 5316- adv/Sternberg test","no","mono","no","18","no","white","no","no","768","legacy","53","11","C:/Users/chelsea/OneDrive - Tarleton State University/psych 5316- adv/Sternberg test/subject-3 VG.csv","legacy","2 5 4 8 7","Lentiform Loewenfeld","3.3.3","3","y","0","left","left","left","left","NA","1363","197305","199676","1363","NA","2","legacy","5","1024","2","48000","-16","experiment","3","odd","4","989617","986019","987398","25941","502348","987403","946419","26014","302670","NA","991621","992989","988412","223354","991621","NA","Sternberg Task","58","62248","66","yes","1024"
"86.56716417910448","86.56716417910448","945.9402985074627","945.9402985074627","black","experiment","legacy","legacy","legacy","0","uniform","0","undefined","0","right","66","66","66","0","0","66","66","0","0","NA","66","66","66","0","66","0","Sun Oct 25 11:38:57 2020","The main experiment item","yes","NA","SternbergTask.osexp","C:/Users/chelsea/OneDrive - Tarleton State University/psych 5316- adv/Sternberg test","no","mono","no","18","no","white","no","no","768","legacy","54","11","C:/Users/chelsea/OneDrive - Tarleton State University/psych 5316- adv/Sternberg test/subject-3 VG.csv","legacy","2 8 7 9 5 3","Lentiform Loewenfeld","3.3.3","0","n","0","left","left","left","left","NA","1130","197305","199676","1130","NA","2","legacy","6","1024","2","48000","-16","experiment","3","odd","6","996912","993062","994689","25941","502348","994695","946419","26014","302670","NA","998917","1000051","995705","223354","998917","NA","Sternberg Task","58","63378","67","yes","1024"
"86.76470588235294","86.76470588235294","945.6617647058823","945.6617647058823","black","experiment","legacy","legacy","legacy","0","uniform","1","undefined","1","right","67","67","67","0","0","67","67","0","0","NA","67","67","67","0","67","0","Sun Oct 25 11:38:57 2020","The main experiment item","yes","NA","SternbergTask.osexp","C:/Users/chelsea/OneDrive - Tarleton State University/psych 5316- adv/Sternberg test","no","mono","no","18","no","white","no","no","768","legacy","55","11","C:/Users/chelsea/OneDrive - Tarleton State University/psych 5316- adv/Sternberg test/subject-3 VG.csv","legacy","2 7 5","Lentiform Loewenfeld","3.3.3","0","n","0","right","left","left","right","NA","927","197305","199676","927","NA","2","legacy","3","1024","2","48000","-16","experiment","3","odd","8","1003789","993062","1001573","25941","502348","1001578","1000119","26014","302670","NA","1005793","1006723","1002585","223354","1005793","NA","Sternberg Task","59","64305","68","yes","1024"
"86.95652173913044","86.95652173913044","951.1014492753624","951.1014492753624","black","experiment","legacy","legacy","legacy","0","uniform","1","undefined","1","right","68","68","68","0","0","68","68","0","0","NA","68","68","68","0","68","0","Sun Oct 25 11:38:57 2020","The main experiment item","yes","NA","SternbergTask.osexp","C:/Users/chelsea/OneDrive - Tarleton State University/psych 5316- adv/Sternberg test","no","mono","no","18","no","white","no","no","768","legacy","56","11","C:/Users/chelsea/OneDrive - Tarleton State University/psych 5316- adv/Sternberg test/subject-3 VG.csv","legacy","6 3 1 7 9 8","Lentiform Loewenfeld","3.3.3","0","n","0","right","left","left","right","NA","1321","197305","199676","1321","NA","2","legacy","6","1024","2","48000","-16","experiment","3","odd","4","1010445","1006793","1008224","25941","502348","1008233","1000119","26014","302670","NA","1012451","1013776","1009239","223354","1012451","NA","Sternberg Task","60","65626","69","yes","1024"
"87.14285714285714","87.14285714285714","950.1142857142858","950.1142857142858","black","experiment","legacy","legacy","legacy","0","uniform","1","undefined","1","right","69","69","69","0","0","69","69","0","0","NA","69","69","69","0","69","0","Sun Oct 25 11:38:57 2020","The main experiment item","yes","NA","SternbergTask.osexp","C:/Users/chelsea/OneDrive - Tarleton State University/psych 5316- adv/Sternberg test","no","mono","no","18","no","white","no","no","768","legacy","57","11","C:/Users/chelsea/OneDrive - Tarleton State University/psych 5316- adv/Sternberg test/subject-3 VG.csv","legacy","7 8 6 1","Lentiform Loewenfeld","3.3.3","0","n","0","right","left","left","right","NA","882","197305","199676","882","NA","2","legacy","4","1024","2","48000","-16","experiment","3","odd","3","1017460","1013825","1015240","25941","502348","1015244","1000119","26014","302670","NA","1019466","1020355","1016256","223354","1019465","NA","Sternberg Task","61","66508","70","yes","1024"
"87.32394366197182","87.32394366197182","951.2535211267606","951.2535211267606","black","experiment","legacy","legacy","legacy","0","uniform","1","undefined","1","left","70","70","70","0","0","70","70","0","0","NA","70","70","70","0","70","0","Sun Oct 25 11:38:57 2020","The main experiment item","yes","NA","SternbergTask.osexp","C:/Users/chelsea/OneDrive - Tarleton State University/psych 5316- adv/Sternberg test","no","mono","no","18","no","white","no","no","768","legacy","58","11","C:/Users/chelsea/OneDrive - Tarleton State University/psych 5316- adv/Sternberg test/subject-3 VG.csv","legacy","8 5 1 3 9","Lentiform Loewenfeld","3.3.3","4","y","0","left","left","left","left","NA","1031","197305","199676","1031","NA","2","legacy","5","1024","2","48000","-16","experiment","3","odd","3","1024104","1020435","1021885","25941","502348","1021890","1000119","26014","302670","NA","1026109","1027144","1022900","223354","1026109","NA","Sternberg Task","62","67539","71","yes","1024"
"86.11111111111111","86.11111111111111","949.9444444444445","949.9444444444445","black","experiment","legacy","legacy","legacy","0","uniform","0","undefined","0","left","71","71","71","0","0","71","71","0","0","NA","71","71","71","0","71","0","Sun Oct 25 11:38:57 2020","The main experiment item","yes","NA","SternbergTask.osexp","C:/Users/chelsea/OneDrive - Tarleton State University/psych 5316- adv/Sternberg test","no","mono","no","18","no","white","no","no","768","legacy","59","11","C:/Users/chelsea/OneDrive - Tarleton State University/psych 5316- adv/Sternberg test/subject-3 VG.csv","legacy","4 3 2 5 8","Lentiform Loewenfeld","3.3.3","2","y","0","right","left","left","right","NA","857","197305","199676","857","NA","2","legacy","5","1024","2","48000","-16","experiment","3","odd","3","1030834","1027186","1028612","25941","502348","1028618","1000119","26014","302670","NA","1032841","1033705","1029629","223354","1032840","NA","Sternberg Task","62","68396","72","yes","1024"
"86.3013698630137","86.3013698630137","958.7671232876712","958.7671232876712","black","experiment","legacy","legacy","legacy","0","uniform","1","undefined","1","right","72","72","72","0","0","72","72","0","0","NA","72","72","72","0","72","0","Sun Oct 25 11:38:57 2020","The main experiment item","yes","NA","SternbergTask.osexp","C:/Users/chelsea/OneDrive - Tarleton State University/psych 5316- adv/Sternberg test","no","mono","no","18","no","white","no","no","768","legacy","60","11","C:/Users/chelsea/OneDrive - Tarleton State University/psych 5316- adv/Sternberg test/subject-3 VG.csv","legacy","1 3 2 6 9","Lentiform Loewenfeld","3.3.3","0","n","0","right","left","left","right","NA","1594","197305","199676","1594","NA","2","legacy","5","1024","2","48000","-16","experiment","3","odd","5","1265295","1027186","1035195","25941","502348","1263077","1033767","26014","302670","NA","1267305","1268904","1264087","223354","1267304","NA","Sternberg Task","63","69990","73","yes","1024"
"86.48648648648648","86.48648648648648","971.5405405405405","971.5405405405405","black","experiment","legacy","legacy","legacy","0","uniform","1","undefined","1","left","73","73","73","0","0","73","73","0","0","NA","73","73","73","0","73","0","Sun Oct 25 11:38:57 2020","The main experiment item","yes","NA","SternbergTask.osexp","C:/Users/chelsea/OneDrive - Tarleton State University/psych 5316- adv/Sternberg test","no","mono","no","18","no","white","no","no","768","legacy","61","11","C:/Users/chelsea/OneDrive - Tarleton State University/psych 5316- adv/Sternberg test/subject-3 VG.csv","legacy","5 7 8 2 3 8","Lentiform Loewenfeld","3.3.3","5","y","0","left","left","left","left","NA","1904","197305","199676","1904","NA","2","legacy","6","1024","2","48000","-16","experiment","3","odd","3","1274864","1268978","1272650","25941","502348","1272655","1033767","26014","302670","NA","1276874","1278782","1273660","223354","1276874","NA","Sternberg Task","64","71894","74","yes","1024"
"86.66666666666667","86.66666666666667","976.2933333333333","976.2933333333333","black","experiment","legacy","legacy","legacy","0","uniform","1","undefined","1","left","74","74","74","0","0","74","74","0","0","NA","74","74","74","0","74","0","Sun Oct 25 11:38:57 2020","The main experiment item","yes","NA","SternbergTask.osexp","C:/Users/chelsea/OneDrive - Tarleton State University/psych 5316- adv/Sternberg test","no","mono","no","18","no","white","no","no","768","legacy","62","11","C:/Users/chelsea/OneDrive - Tarleton State University/psych 5316- adv/Sternberg test/subject-3 VG.csv","legacy","7 1 3","Lentiform Loewenfeld","3.3.3","2","y","0","left","left","left","left","NA","1328","197305","199676","1328","NA","2","legacy","3","1024","2","48000","-16","experiment","3","odd","1","1282550","1278854","1280332","25941","502348","1280338","1033767","26014","302670","NA","1284554","1285886","1281346","223354","1284554","NA","Sternberg Task","65","73222","75","yes","1024"
"86.84210526315789","86.84210526315789","979.828947368421","979.828947368421","black","experiment","legacy","legacy","legacy","0","uniform","1","undefined","1","left","75","75","75","0","0","75","75","0","0","NA","75","75","75","0","75","0","Sun Oct 25 11:38:57 2020","The main experiment item","yes","NA","SternbergTask.osexp","C:/Users/chelsea/OneDrive - Tarleton State University/psych 5316- adv/Sternberg test","no","mono","no","18","no","white","no","no","768","legacy","63","11","C:/Users/chelsea/OneDrive - Tarleton State University/psych 5316- adv/Sternberg test/subject-3 VG.csv","legacy","5 2 6","Lentiform Loewenfeld","3.3.3","2","y","0","left","left","left","left","NA","1245","197305","199676","1245","NA","2","legacy","3","1024","2","48000","-16","experiment","3","odd","2","1289594","1285956","1287358","25941","502348","1287368","1033767","26014","302670","NA","1291603","1292853","1288379","223354","1291603","NA","Sternberg Task","66","74467","76","yes","1024"
"87.01298701298701","87.01298701298701","981.5844155844156","981.5844155844156","black","experiment","legacy","legacy","legacy","0","uniform","1","undefined","1","left","76","76","76","0","0","76","76","0","0","NA","76","76","76","0","76","0","Sun Oct 25 11:38:57 2020","The main experiment item","yes","NA","SternbergTask.osexp","C:/Users/chelsea/OneDrive - Tarleton State University/psych 5316- adv/Sternberg test","no","mono","no","18","no","white","no","no","768","legacy","64","11","C:/Users/chelsea/OneDrive - Tarleton State University/psych 5316- adv/Sternberg test/subject-3 VG.csv","legacy","6 8 9 3 4 9","Lentiform Loewenfeld","3.3.3","5","y","0","left","left","left","left","NA","1115","197305","199676","1115","NA","2","legacy","6","1024","2","48000","-16","experiment","3","odd","4","1296484","1292900","1294266","25941","502348","1294271","1033767","26014","302670","NA","1298492","1299612","1295278","223354","1298492","NA","Sternberg Task","67","75582","77","yes","1024"
"87.17948717948718","87.17948717948718","976.4358974358975","976.4358974358975","black","experiment","legacy","legacy","legacy","0","uniform","1","undefined","1","left","77","77","77","0","0","77","77","0","0","NA","77","77","77","0","77","0","Sun Oct 25 11:38:57 2020","The main experiment item","yes","NA","SternbergTask.osexp","C:/Users/chelsea/OneDrive - Tarleton State University/psych 5316- adv/Sternberg test","no","mono","no","18","no","white","no","no","768","legacy","65","11","C:/Users/chelsea/OneDrive - Tarleton State University/psych 5316- adv/Sternberg test/subject-3 VG.csv","legacy","6 2","Lentiform Loewenfeld","3.3.3","1","y","0","left","left","left","left","NA","580","197305","199676","580","NA","2","legacy","2","1024","2","48000","-16","experiment","3","odd","6","1303236","1299647","1301015","25941","502348","1301020","1033767","26014","302670","NA","1305250","1305835","1302026","223354","1305250","NA","Sternberg Task","68","76162","78","yes","1024"
"87.34177215189874","87.34177215189874","984.126582278481","984.126582278481","black","experiment","legacy","legacy","legacy","0","uniform","1","undefined","1","left","78","78","78","0","0","78","78","0","0","NA","78","78","78","0","78","0","Sun Oct 25 11:38:57 2020","The main experiment item","yes","NA","SternbergTask.osexp","C:/Users/chelsea/OneDrive - Tarleton State University/psych 5316- adv/Sternberg test","no","mono","no","18","no","white","no","no","768","legacy","66","11","C:/Users/chelsea/OneDrive - Tarleton State University/psych 5316- adv/Sternberg test/subject-3 VG.csv","legacy","9 4 2","Lentiform Loewenfeld","3.3.3","1","y","0","left","left","left","left","NA","1584","197305","199676","1584","NA","2","legacy","3","1024","2","48000","-16","experiment","3","odd","9","1309510","1305870","1307296","25941","502348","1307301","1033767","26014","302670","NA","1311518","1313108","1308306","223354","1311517","NA","Sternberg Task","69","77746","79","yes","1024"
"87.5","87.5","982.275","982.275","black","experiment","legacy","legacy","legacy","0","uniform","1","undefined","1","left","79","79","79","0","0","79","79","0","0","NA","79","79","79","0","79","0","Sun Oct 25 11:38:57 2020","The main experiment item","yes","NA","SternbergTask.osexp","C:/Users/chelsea/OneDrive - Tarleton State University/psych 5316- adv/Sternberg test","no","mono","no","18","no","white","no","no","768","legacy","67","11","C:/Users/chelsea/OneDrive - Tarleton State University/psych 5316- adv/Sternberg test/subject-3 VG.csv","legacy","6 7 9 3 1 2","Lentiform Loewenfeld","3.3.3","1","y","0","left","left","left","left","NA","836","197305","199676","836","NA","2","legacy","6","1024","2","48000","-16","experiment","3","odd","6","1316764","1313178","1314548","25941","502348","1314552","1033767","26014","302670","NA","1318769","1319615","1315561","223354","1318769","NA","Sternberg Task","70","78582","80","yes","1024"
"87.65432098765432","87.65432098765432","980.0246913580247","980.0246913580247","black","experiment","legacy","legacy","legacy","0","uniform","1","undefined","1","left","80","80","80","0","0","80","80","0","0","NA","80","80","80","0","80","0","Sun Oct 25 11:38:57 2020","The main experiment item","yes","NA","SternbergTask.osexp","C:/Users/chelsea/OneDrive - Tarleton State University/psych 5316- adv/Sternberg test","no","mono","no","18","no","white","no","no","768","legacy","68","11","C:/Users/chelsea/OneDrive - Tarleton State University/psych 5316- adv/Sternberg test/subject-3 VG.csv","legacy","4 1 5","Lentiform Loewenfeld","3.3.3","2","y","0","left","left","left","left","NA","800","197305","199676","800","NA","2","legacy","3","1024","2","48000","-16","experiment","3","odd","1","1323254","1319654","1321032","25941","502348","1321037","1033767","26014","302670","NA","1325259","1326067","1322050","223354","1325259","NA","Sternberg Task","71","79382","81","yes","1024"
"86.58536585365853","86.58536585365853","992.4634146341464","992.4634146341464","black","experiment","legacy","legacy","legacy","0","uniform","0","undefined","0","left","81","81","81","0","0","81","81","0","0","NA","81","81","81","0","81","0","Sun Oct 25 11:38:57 2020","The main experiment item","yes","NA","SternbergTask.osexp","C:/Users/chelsea/OneDrive - Tarleton State University/psych 5316- adv/Sternberg test","no","mono","no","18","no","white","no","no","768","legacy","69","11","C:/Users/chelsea/OneDrive - Tarleton State University/psych 5316- adv/Sternberg test/subject-3 VG.csv","legacy","3 4","Lentiform Loewenfeld","3.3.3","1","y","0","None","left","left","None","NA","2000","197305","199676","2000","NA","2","legacy","2","1024","2","48000","-16","experiment","3","odd","3","1329771","1326135","1327552","25941","502348","1327558","1033767","26014","302670","NA","1331779","1333783","1328568","223354","1331778","NA","Sternberg Task","71","81382","82","yes","1024"
"86.74698795180723","86.74698795180723","991.9759036144578","991.9759036144578","black","experiment","legacy","legacy","legacy","0","uniform","1","undefined","1","left","82","82","82","0","0","82","82","0","0","NA","82","82","82","0","82","0","Sun Oct 25 11:38:57 2020","The main experiment item","yes","NA","SternbergTask.osexp","C:/Users/chelsea/OneDrive - Tarleton State University/psych 5316- adv/Sternberg test","no","mono","no","18","no","white","no","no","768","legacy","70","11","C:/Users/chelsea/OneDrive - Tarleton State University/psych 5316- adv/Sternberg test/subject-3 VG.csv","legacy","5 7 3 6 2","Lentiform Loewenfeld","3.3.3","5","y","0","left","left","left","left","NA","952","197305","199676","952","NA","2","legacy","5","1024","2","48000","-16","experiment","3","odd","2","1337452","1326135","1335235","25941","502348","1335240","1333857","26014","302670","NA","1339457","1340414","1336248","223354","1339456","NA","Sternberg Task","72","82334","83","yes","1024"
"86.9047619047619","86.9047619047619","991.0238095238095","991.0238095238095","black","experiment","legacy","legacy","legacy","0","uniform","1","undefined","1","left","83","83","83","0","0","83","83","0","0","NA","83","83","83","0","83","0","Sun Oct 25 11:38:57 2020","The main experiment item","yes","NA","SternbergTask.osexp","C:/Users/chelsea/OneDrive - Tarleton State University/psych 5316- adv/Sternberg test","no","mono","no","18","no","white","no","no","768","legacy","71","11","C:/Users/chelsea/OneDrive - Tarleton State University/psych 5316- adv/Sternberg test/subject-3 VG.csv","legacy","3 9 6 2","Lentiform Loewenfeld","3.3.3","4","y","0","left","left","left","left","NA","912","197305","199676","912","NA","2","legacy","4","1024","2","48000","-16","experiment","3","odd","2","1344074","1340484","1341861","25941","502348","1341865","1333857","26014","302670","NA","1346078","1346995","1342869","223354","1346078","NA","Sternberg Task","73","83246","84","yes","1024"
"87.05882352941177","87.05882352941177","989.0117647058823","989.0117647058823","black","experiment","legacy","legacy","legacy","0","uniform","1","undefined","1","left","84","84","84","0","0","84","84","0","0","NA","84","84","84","0","84","0","Sun Oct 25 11:38:57 2020","The main experiment item","yes","NA","SternbergTask.osexp","C:/Users/chelsea/OneDrive - Tarleton State University/psych 5316- adv/Sternberg test","no","mono","no","18","no","white","no","no","768","legacy","72","11","C:/Users/chelsea/OneDrive - Tarleton State University/psych 5316- adv/Sternberg test/subject-3 VG.csv","legacy","3 5 7 1","Lentiform Loewenfeld","3.3.3","3","y","0","left","left","left","left","NA","820","197305","199676","820","NA","2","legacy","4","1024","2","48000","-16","experiment","3","odd","7","1350655","1347070","1348438","25941","502348","1348444","1333857","26014","302670","NA","1352660","1353484","1349450","223354","1352660","NA","Sternberg Task","74","84066","85","yes","1024"
"86.04651162790698","86.04651162790698","990.2093023255813","990.2093023255813","black","experiment","legacy","legacy","legacy","0","uniform","0","undefined","0","right","85","85","85","0","0","85","85","0","0","NA","85","85","85","0","85","0","Sun Oct 25 11:38:57 2020","The main experiment item","yes","NA","SternbergTask.osexp","C:/Users/chelsea/OneDrive - Tarleton State University/psych 5316- adv/Sternberg test","no","mono","no","18","no","white","no","no","768","legacy","73","11","C:/Users/chelsea/OneDrive - Tarleton State University/psych 5316- adv/Sternberg test/subject-3 VG.csv","legacy","6 9 4 5 2","Lentiform Loewenfeld","3.3.3","0","n","0","left","left","left","left","NA","1092","197305","199676","1092","NA","2","legacy","5","1024","2","48000","-16","experiment","3","odd","1","1357140","1353520","1354924","25941","502348","1354929","1333857","26014","302670","NA","1359147","1360244","1355936","223354","1359146","NA","Sternberg Task","74","85158","86","yes","1024"
"85.05747126436782","85.05747126436782","990.7931034482758","990.7931034482758","black","experiment","legacy","legacy","legacy","0","uniform","0","undefined","0","left","86","86","86","0","0","86","86","0","0","NA","86","86","86","0","86","0","Sun Oct 25 11:38:57 2020","The main experiment item","yes","NA","SternbergTask.osexp","C:/Users/chelsea/OneDrive - Tarleton State University/psych 5316- adv/Sternberg test","no","mono","no","18","no","white","no","no","768","legacy","74","11","C:/Users/chelsea/OneDrive - Tarleton State University/psych 5316- adv/Sternberg test/subject-3 VG.csv","legacy","3 2 1 4 7","Lentiform Loewenfeld","3.3.3","2","y","0","right","left","left","right","NA","1041","197305","199676","1041","NA","2","legacy","5","1024","2","48000","-16","experiment","3","odd","2","1363897","1353520","1361682","25941","502348","1361686","1360311","26014","302670","NA","1365901","1366946","1362691","223354","1365901","NA","Sternberg Task","74","86199","87","yes","1024"
"85.22727272727273","85.22727272727273","989.625","989.625","black","experiment","legacy","legacy","legacy","0","uniform","1","undefined","1","right","87","87","87","0","0","87","87","0","0","NA","87","87","87","0","87","0","Sun Oct 25 11:38:57 2020","The main experiment item","yes","NA","SternbergTask.osexp","C:/Users/chelsea/OneDrive - Tarleton State University/psych 5316- adv/Sternberg test","no","mono","no","18","no","white","no","no","768","legacy","75","11","C:/Users/chelsea/OneDrive - Tarleton State University/psych 5316- adv/Sternberg test/subject-3 VG.csv","legacy","7 1","Lentiform Loewenfeld","3.3.3","0","n","0","right","left","left","right","NA","888","197305","199676","888","NA","2","legacy","2","1024","2","48000","-16","experiment","3","odd","8","1370637","1353520","1368422","25941","502348","1368427","1367056","26014","302670","NA","1372645","1373538","1369433","223354","1372644","NA","Sternberg Task","75","87087","88","yes","1024"
"84.26966292134831","84.26966292134831","990.4719101123595","990.4719101123595","black","experiment","legacy","legacy","legacy","0","uniform","0","undefined","0","left","88","88","88","0","0","88","88","0","0","NA","88","88","88","0","88","0","Sun Oct 25 11:38:57 2020","The main experiment item","yes","NA","SternbergTask.osexp","C:/Users/chelsea/OneDrive - Tarleton State University/psych 5316- adv/Sternberg test","no","mono","no","18","no","white","no","no","768","legacy","76","11","C:/Users/chelsea/OneDrive - Tarleton State University/psych 5316- adv/Sternberg test/subject-3 VG.csv","legacy","7 8 4 6 9 5","Lentiform Loewenfeld","3.3.3","4","y","0","right","left","left","right","NA","1065","197305","199676","1065","NA","2","legacy","6","1024","2","48000","-16","experiment","3","odd","6","1377207","1373603","1374987","25941","502348","1374993","1367056","26014","302670","NA","1379213","1380282","1376003","223354","1379212","NA","Sternberg Task","75","88152","89","yes","1024"
"84.44444444444444","84.44444444444444","988.3333333333334","988.3333333333334","black","experiment","legacy","legacy","legacy","0","uniform","1","undefined","1","right","89","89","89","0","0","89","89","0","0","NA","89","89","89","0","89","0","Sun Oct 25 11:38:57 2020","The main experiment item","yes","NA","SternbergTask.osexp","C:/Users/chelsea/OneDrive - Tarleton State University/psych 5316- adv/Sternberg test","no","mono","no","18","no","white","no","no","768","legacy","77","11","C:/Users/chelsea/OneDrive - Tarleton State University/psych 5316- adv/Sternberg test/subject-3 VG.csv","legacy","4 8 1 2","Lentiform Loewenfeld","3.3.3","0","n","0","right","left","left","right","NA","798","197305","199676","798","NA","2","legacy","4","1024","2","48000","-16","experiment","3","odd","7","1383937","1373603","1381722","25941","502348","1381728","1380357","26014","302670","NA","1385942","1386745","1382733","223354","1385941","NA","Sternberg Task","76","88950","90","yes","1024"
"83.51648351648352","83.51648351648352","989.054945054945","989.054945054945","black","experiment","legacy","legacy","legacy","0","uniform","0","undefined","0","left","90","90","90","0","0","90","90","0","0","NA","90","90","90","0","90","0","Sun Oct 25 11:38:57 2020","The main experiment item","yes","NA","SternbergTask.osexp","C:/Users/chelsea/OneDrive - Tarleton State University/psych 5316- adv/Sternberg test","no","mono","no","18","no","white","no","no","768","legacy","78","11","C:/Users/chelsea/OneDrive - Tarleton State University/psych 5316- adv/Sternberg test/subject-3 VG.csv","legacy","2 6 1 7 4","Lentiform Loewenfeld","3.3.3","2","y","0","right","left","left","right","NA","1054","197305","199676","1054","NA","2","legacy","5","1024","2","48000","-16","experiment","3","odd","6","1390418","1386806","1388198","25941","502348","1388203","1380357","26014","302670","NA","1392422","1393481","1389213","223354","1392422","NA","Sternberg Task","76","90004","91","yes","1024"
"82.6086956521739","82.6086956521739","987.4239130434783","987.4239130434783","black","experiment","legacy","legacy","legacy","0","uniform","0","undefined","0","left","91","91","91","0","0","91","91","0","0","NA","91","91","91","0","91","0","Sun Oct 25 11:38:57 2020","The main experiment item","yes","NA","SternbergTask.osexp","C:/Users/chelsea/OneDrive - Tarleton State University/psych 5316- adv/Sternberg test","no","mono","no","18","no","white","no","no","768","legacy","79","11","C:/Users/chelsea/OneDrive - Tarleton State University/psych 5316- adv/Sternberg test/subject-3 VG.csv","legacy","5 2 9 6 1 7","Lentiform Loewenfeld","3.3.3","3","y","0","right","left","left","right","NA","839","197305","199676","839","NA","2","legacy","6","1024","2","48000","-16","experiment","3","odd","9","1397134","1386806","1394916","25941","502348","1394920","1393546","26014","302670","NA","1399140","1399985","1395930","223354","1399138","NA","Sternberg Task","76","90843","92","yes","1024"
"82.79569892473118","82.79569892473118","986.6236559139785","986.6236559139785","black","experiment","legacy","legacy","legacy","0","uniform","1","undefined","1","right","92","92","92","0","0","92","92","0","0","NA","92","92","92","0","92","0","Sun Oct 25 11:38:57 2020","The main experiment item","yes","NA","SternbergTask.osexp","C:/Users/chelsea/OneDrive - Tarleton State University/psych 5316- adv/Sternberg test","no","mono","no","18","no","white","no","no","768","legacy","80","11","C:/Users/chelsea/OneDrive - Tarleton State University/psych 5316- adv/Sternberg test/subject-3 VG.csv","legacy","8 4 3 9","Lentiform Loewenfeld","3.3.3","0","n","0","right","left","left","right","NA","913","197305","199676","913","NA","2","legacy","4","1024","2","48000","-16","experiment","3","odd","5","1403767","1386806","1401547","25941","502348","1401553","1400040","26014","302670","NA","1405784","1406702","1402562","223354","1405782","NA","Sternberg Task","77","91756","93","yes","1024"
"82.97872340425532","82.97872340425532","984.3297872340426","984.3297872340426","black","experiment","legacy","legacy","legacy","0","uniform","1","undefined","1","right","93","93","93","0","0","93","93","0","0","NA","93","93","93","0","93","0","Sun Oct 25 11:38:57 2020","The main experiment item","yes","NA","SternbergTask.osexp","C:/Users/chelsea/OneDrive - Tarleton State University/psych 5316- adv/Sternberg test","no","mono","no","18","no","white","no","no","768","legacy","81","11","C:/Users/chelsea/OneDrive - Tarleton State University/psych 5316- adv/Sternberg test/subject-3 VG.csv","legacy","7 4 2 8 1 9","Lentiform Loewenfeld","3.3.3","0","n","0","right","left","left","right","NA","771","197305","199676","771","NA","2","legacy","6","1024","2","48000","-16","experiment","3","odd","5","1410592","1406743","1408360","25941","502348","1408373","1400040","26014","302670","NA","1412600","1413376","1409378","223354","1412599","NA","Sternberg Task","78","92527","94","yes","1024"
"83.15789473684211","83.15789473684211","990.0105263157894","990.0105263157894","black","experiment","legacy","legacy","legacy","0","uniform","1","undefined","1","right","94","94","94","0","0","94","94","0","0","NA","94","94","94","0","94","0","Sun Oct 25 11:38:57 2020","The main experiment item","yes","NA","SternbergTask.osexp","C:/Users/chelsea/OneDrive - Tarleton State University/psych 5316- adv/Sternberg test","no","mono","no","18","no","white","no","no","768","legacy","82","11","C:/Users/chelsea/OneDrive - Tarleton State University/psych 5316- adv/Sternberg test/subject-3 VG.csv","legacy","5 9 2 3","Lentiform Loewenfeld","3.3.3","0","n","0","right","left","left","right","NA","1524","197305","199676","1524","NA","2","legacy","4","1024","2","48000","-16","experiment","3","odd","8","1417242","1413452","1415021","25941","502348","1415031","1400040","26014","302670","NA","1419252","1420782","1416037","223354","1419251","NA","Sternberg Task","79","94051","95","yes","1024"
"82.29166666666667","82.29166666666667","990.3958333333334","990.3958333333334","black","experiment","legacy","legacy","legacy","0","uniform","0","undefined","0","left","95","95","95","0","0","95","95","0","0","NA","95","95","95","0","95","0","Sun Oct 25 11:38:57 2020","The main experiment item","yes","NA","SternbergTask.osexp","C:/Users/chelsea/OneDrive - Tarleton State University/psych 5316- adv/Sternberg test","no","mono","no","18","no","white","no","no","768","legacy","83","11","C:/Users/chelsea/OneDrive - Tarleton State University/psych 5316- adv/Sternberg test/subject-3 VG.csv","legacy","3 4 9 6 2 9","Lentiform Loewenfeld","3.3.3","5","y","0","right","left","left","right","NA","1027","197305","199676","1027","NA","2","legacy","6","1024","2","48000","-16","experiment","3","odd","2","1424682","1420860","1422447","25941","502348","1422462","1400040","26014","302670","NA","1426693","1427726","1423466","223354","1426693","NA","Sternberg Task","79","95078","96","yes","1024"
"81.44329896907216","81.44329896907216","993.5051546391752","993.5051546391752","black","experiment","legacy","legacy","legacy","0","uniform","0","undefined","0","left","96","96","96","0","0","96","96","0","0","NA","96","96","96","0","96","0","Sun Oct 25 11:38:57 2020","The main experiment item","yes","NA","SternbergTask.osexp","C:/Users/chelsea/OneDrive - Tarleton State University/psych 5316- adv/Sternberg test","no","mono","no","18","no","white","no","no","768","legacy","84","11","C:/Users/chelsea/OneDrive - Tarleton State University/psych 5316- adv/Sternberg test/subject-3 VG.csv","legacy","6 9 7 4 5 1","Lentiform Loewenfeld","3.3.3","2","y","0","right","left","left","right","NA","1292","197305","199676","1292","NA","2","legacy","6","1024","2","48000","-16","experiment","3","odd","9","1431429","1420860","1429202","25941","502348","1429209","1427784","26014","302670","NA","1433434","1434735","1430219","223354","1433434","NA","Sternberg Task","79","96370","97","yes","1024"
"80.61224489795919","80.61224489795919","996.1428571428571","996.1428571428571","black","experiment","legacy","legacy","legacy","0","uniform","0","undefined","0","left","97","97","97","0","0","97","97","0","0","NA","97","97","97","0","97","0","Sun Oct 25 11:38:57 2020","The main experiment item","yes","NA","SternbergTask.osexp","C:/Users/chelsea/OneDrive - Tarleton State University/psych 5316- adv/Sternberg test","no","mono","no","18","no","white","no","no","768","legacy","85","11","C:/Users/chelsea/OneDrive - Tarleton State University/psych 5316- adv/Sternberg test/subject-3 VG.csv","legacy","2 8 5 1","Lentiform Loewenfeld","3.3.3","4","y","0","right","left","left","right","NA","1252","197305","199676","1252","NA","2","legacy","4","1024","2","48000","-16","experiment","3","odd","1","1438493","1420860","1436270","25941","502348","1436278","1434802","26014","302670","NA","1440499","1441756","1437287","223354","1440498","NA","Sternberg Task","79","97622","98","yes","1024"
"80.8080808080808","80.8080808080808","995.7979797979798","995.7979797979798","black","experiment","legacy","legacy","legacy","0","uniform","1","undefined","1","left","98","98","98","0","0","98","98","0","0","NA","98","98","98","0","98","0","Sun Oct 25 11:38:57 2020","The main experiment item","yes","NA","SternbergTask.osexp","C:/Users/chelsea/OneDrive - Tarleton State University/psych 5316- adv/Sternberg test","no","mono","no","18","no","white","no","no","768","legacy","86","11","C:/Users/chelsea/OneDrive - Tarleton State University/psych 5316- adv/Sternberg test/subject-3 VG.csv","legacy","6 5","Lentiform Loewenfeld","3.3.3","2","y","0","left","left","left","left","NA","962","197305","199676","962","NA","2","legacy","2","1024","2","48000","-16","experiment","3","odd","5","1445525","1420860","1443302","25941","502348","1443309","1441820","26014","302670","NA","1447529","1448497","1444318","223354","1447529","NA","Sternberg Task","80","98584","99","yes","1024"
"81","81","996.62","996.62","black","experiment","legacy","legacy","legacy","0","uniform","1","undefined","1","left","99","99","99","0","0","99","99","0","0","NA","99","99","99","0","99","0","Sun Oct 25 11:38:57 2020","The main experiment item","yes","NA","SternbergTask.osexp","C:/Users/chelsea/OneDrive - Tarleton State University/psych 5316- adv/Sternberg test","no","mono","no","18","no","white","no","no","768","legacy","87","11","C:/Users/chelsea/OneDrive - Tarleton State University/psych 5316- adv/Sternberg test/subject-3 VG.csv","legacy","7 8 6 3 1","Lentiform Loewenfeld","3.3.3","5","y","0","left","left","left","left","NA","1078","197305","199676","1078","NA","2","legacy","5","1024","2","48000","-16","experiment","3","odd","1","1452112","1448556","1449899","25941","502348","1449903","1441820","26014","302670","NA","1454117","1455208","1450908","223354","1454116","NA","Sternberg Task","81","99662","100","yes","1024"
"81.18811881188118","81.18811881188118","999.5544554455446","999.5544554455446","black","experiment","legacy","legacy","legacy","0","uniform","1","undefined","1","right","100","100","100","0","0","100","100","0","0","NA","100","100","100","0","100","0","Sun Oct 25 11:38:57 2020","The main experiment item","yes","NA","SternbergTask.osexp","C:/Users/chelsea/OneDrive - Tarleton State University/psych 5316- adv/Sternberg test","no","mono","no","18","no","white","no","no","768","legacy","88","11","C:/Users/chelsea/OneDrive - Tarleton State University/psych 5316- adv/Sternberg test/subject-3 VG.csv","legacy","8 2 1 4 5 9","Lentiform Loewenfeld","3.3.3","0","n","0","right","left","left","right","NA","1293","197305","199676","1293","NA","2","legacy","6","1024","2","48000","-16","experiment","3","odd","7","1458902","1455299","1456685","25941","502348","1456691","1441820","26014","302670","NA","1460906","1462210","1457697","223354","1460906","NA","Sternberg Task","82","100955","101","yes","1024"
