"acc","accuracy","average_response_time","avg_rt","background","block","canvas_backend","clock_backend","color_backend","compensation","coordinates","correct","correct_instruction1","correct_keyboard_response","correct_response","count_Instructions2","count_correctFeedback","count_experiment","count_experiment_loop","count_fixation","count_incorrectFeedback","count_instruction1","count_isi","count_keyboard_response","count_logger","count_memory_set","count_practiceloop","count_probe","count_thankYou","count_x_sequence","datetime","description","disable_garbage_collection","experiment_file","experiment_path","font_bold","font_family","font_italic","font_size","font_underline","foreground","form_clicks","fullscreen","height","keyboard_backend","live_row","live_row_practiceloop","logfile","mouse_backend","numberSet","opensesame_codename","opensesame_version","posInSet","present","repeat_cycle","response","response_Instructions2","response_instruction1","response_keyboard_response","response_thankYou","response_time","response_time_Instructions2","response_time_instruction1","response_time_keyboard_response","response_time_thankYou","round_decimals","sampler_backend","setSize","sound_buf_size","sound_channels","sound_freq","sound_sample_size","start","subject_nr","subject_parity","target","time_Instructions2","time_correctFeedback","time_experiment","time_experiment_loop","time_fixation","time_incorrectFeedback","time_instruction1","time_isi","time_keyboard_response","time_logger","time_memory_set","time_practiceloop","time_probe","time_thankYou","time_x_sequence","title","total_correct","total_response_time","total_responses","uniform_coordinates","width"
"0","0","2000","2000","black","practice","legacy","legacy","legacy","0","uniform","0","undefined","0","right","0","0","0","0","0","0","0","0","0","0","0","0","0","0","0","10/18/21 09:26:36","The main experiment item","yes","SternburgTask.osexp","C:/Users/borna.000/Documents/PSYC/PSYC5316/Sternburg","no","mono","no","18","no","white","no","yes","768","legacy","0","0","C:/Users/borna.000/Documents/PSYC/PSYC5316/Sternburg/DH-subject-4.csv","legacy","5","Lentiform Loewenfeld","3.3.9","0","n","0","None","NA","enter","None","NA","2000","NA","34543","2000","NA","2","legacy","1","1024","2","48000","-16","experiment","4","even","3","NA","NA","2448","NA","39974","NA","2452","42178","44180","46180","40976","36996","44179","NA","39971","Sternburg Task","0","2000","1","yes","1024"
"50","50","1388.5","1388.5","black","practice","legacy","legacy","legacy","0","uniform","1","undefined","1","left","0","1","0","0","1","1","0","1","1","1","1","0","1","0","1","10/18/21 09:26:36","The main experiment item","yes","SternburgTask.osexp","C:/Users/borna.000/Documents/PSYC/PSYC5316/Sternburg","no","mono","no","18","no","white","no","yes","768","legacy","1","1","C:/Users/borna.000/Documents/PSYC/PSYC5316/Sternburg/DH-subject-4.csv","legacy","4 8","Lentiform Loewenfeld","3.3.9","1","y","0","left","NA","enter","left","NA","777","NA","34543","777","NA","2","legacy","2","1024","2","48000","-16","experiment","4","even","4","NA","NA","2448","NA","47360","46250","2452","49561","51562","52339","48361","36996","51562","NA","47358","Sternburg Task","1","2777","2","yes","1024"
"66.6666666667","66.6666666667","1092.33333333","1092.33333333","black","practice","legacy","legacy","legacy","0","uniform","1","undefined","1","left","0","2","0","0","2","2","0","2","2","2","2","0","2","0","2","10/18/21 09:26:36","The main experiment item","yes","SternburgTask.osexp","C:/Users/borna.000/Documents/PSYC/PSYC5316/Sternburg","no","mono","no","18","no","white","no","yes","768","legacy","2","2","C:/Users/borna.000/Documents/PSYC/PSYC5316/Sternburg/DH-subject-4.csv","legacy","2 9 4","Lentiform Loewenfeld","3.3.9","3","y","0","left","NA","enter","left","NA","500","NA","34543","500","NA","2","legacy","3","1024","2","48000","-16","experiment","4","even","4","NA","52343","2448","NA","53426","46250","2452","55628","57630","58131","54427","36996","57630","NA","53424","Sternburg Task","2","3277","3","yes","1024"
"75","75","973.5","973.5","black","practice","legacy","legacy","legacy","0","uniform","1","undefined","1","left","0","3","0","0","3","3","0","3","3","3","3","0","3","0","3","10/18/21 09:26:36","The main experiment item","yes","SternburgTask.osexp","C:/Users/borna.000/Documents/PSYC/PSYC5316/Sternburg","no","mono","no","18","no","white","no","yes","768","legacy","3","3","C:/Users/borna.000/Documents/PSYC/PSYC5316/Sternburg/DH-subject-4.csv","legacy","1 5 2 9","Lentiform Loewenfeld","3.3.9","2","y","0","left","NA","enter","left","NA","617","NA","34543","617","NA","2","legacy","4","1024","2","48000","-16","experiment","4","even","5","NA","58134","2448","NA","59218","46250","2452","61420","63421","64039","60219","36996","63421","NA","59216","Sternburg Task","3","3894","4","yes","1024"
"80","80","881.8","881.8","black","practice","legacy","legacy","legacy","0","uniform","1","undefined","1","right","0","4","0","0","4","4","0","4","4","4","4","0","4","0","4","10/18/21 09:26:36","The main experiment item","yes","SternburgTask.osexp","C:/Users/borna.000/Documents/PSYC/PSYC5316/Sternburg","no","mono","no","18","no","white","no","yes","768","legacy","4","4","C:/Users/borna.000/Documents/PSYC/PSYC5316/Sternburg/DH-subject-4.csv","legacy","5 7 8 4 1 2","Lentiform Loewenfeld","3.3.9","0","n","0","right","NA","enter","right","NA","515","NA","34543","515","NA","2","legacy","6","1024","2","48000","-16","experiment","4","even","6","NA","64048","2448","NA","65129","46250","2452","67332","69333","69848","66131","36996","69333","NA","65127","Sternburg Task","4","4409","5","yes","1024"
"83.3333333333","83.3333333333","835","835","black","practice","legacy","legacy","legacy","0","uniform","1","undefined","1","left","0","5","0","0","5","5","0","5","5","5","5","0","5","0","5","10/18/21 09:26:36","The main experiment item","yes","SternburgTask.osexp","C:/Users/borna.000/Documents/PSYC/PSYC5316/Sternburg","no","mono","no","18","no","white","no","yes","768","legacy","5","5","C:/Users/borna.000/Documents/PSYC/PSYC5316/Sternburg/DH-subject-4.csv","legacy","1 7 9 8 5","Lentiform Loewenfeld","3.3.9","4","y","0","left","NA","enter","left","NA","601","NA","34543","601","NA","2","legacy","5","1024","2","48000","-16","experiment","4","even","8","NA","69858","2448","NA","70937","46250","2452","73139","75141","75742","71938","36996","75140","NA","70935","Sternburg Task","5","5010","6","yes","1024"
"85.7142857143","85.7142857143","823.142857143","823.142857143","black","practice","legacy","legacy","legacy","0","uniform","1","undefined","1","right","0","6","0","0","6","6","0","6","6","6","6","0","6","0","6","10/18/21 09:26:36","The main experiment item","yes","SternburgTask.osexp","C:/Users/borna.000/Documents/PSYC/PSYC5316/Sternburg","no","mono","no","18","no","white","no","yes","768","legacy","6","6","C:/Users/borna.000/Documents/PSYC/PSYC5316/Sternburg/DH-subject-4.csv","legacy","9 6 7 4 5","Lentiform Loewenfeld","3.3.9","0","n","0","right","NA","enter","right","NA","752","NA","34543","752","NA","2","legacy","5","1024","2","48000","-16","experiment","4","even","3","NA","75746","2448","NA","76827","46250","2452","79029","81030","81783","77828","36996","81030","NA","76825","Sternburg Task","6","5762","7","yes","1024"
"87.5","87.5","781","781","black","practice","legacy","legacy","legacy","0","uniform","1","undefined","1","right","0","7","0","0","7","7","0","7","7","7","7","0","7","0","7","10/18/21 09:26:36","The main experiment item","yes","SternburgTask.osexp","C:/Users/borna.000/Documents/PSYC/PSYC5316/Sternburg","no","mono","no","18","no","white","no","yes","768","legacy","7","7","C:/Users/borna.000/Documents/PSYC/PSYC5316/Sternburg/DH-subject-4.csv","legacy","3 1 9 4","Lentiform Loewenfeld","3.3.9","0","n","0","right","NA","enter","right","NA","486","NA","34543","486","NA","2","legacy","4","1024","2","48000","-16","experiment","4","even","6","NA","81791","2448","NA","82870","46250","2452","85073","87074","87561","83872","36996","87074","NA","82868","Sternburg Task","7","6248","8","yes","1024"
"77.7777777778","77.7777777778","747.888888889","747.888888889","black","practice","legacy","legacy","legacy","0","uniform","0","undefined","0","right","0","8","0","0","8","8","0","8","8","8","8","0","8","0","8","10/18/21 09:26:36","The main experiment item","yes","SternburgTask.osexp","C:/Users/borna.000/Documents/PSYC/PSYC5316/Sternburg","no","mono","no","18","no","white","no","yes","768","legacy","8","8","C:/Users/borna.000/Documents/PSYC/PSYC5316/Sternburg/DH-subject-4.csv","legacy","2 1","Lentiform Loewenfeld","3.3.9","0","n","0","left","NA","enter","left","NA","483","NA","34543","483","NA","2","legacy","2","1024","2","48000","-16","experiment","4","even","5","NA","87570","2448","NA","88653","46250","2452","90855","92857","93341","89654","36996","92857","NA","88651","Sternburg Task","7","6731","9","yes","1024"
"80","80","755.6","755.6","black","practice","legacy","legacy","legacy","0","uniform","1","undefined","1","left","0","9","0","0","9","9","0","9","9","9","9","0","9","0","9","10/18/21 09:26:36","The main experiment item","yes","SternburgTask.osexp","C:/Users/borna.000/Documents/PSYC/PSYC5316/Sternburg","no","mono","no","18","no","white","no","yes","768","legacy","9","9","C:/Users/borna.000/Documents/PSYC/PSYC5316/Sternburg/DH-subject-4.csv","legacy","4 3 1 7 9 8","Lentiform Loewenfeld","3.3.9","1","y","0","left","NA","enter","left","NA","825","NA","34543","825","NA","2","legacy","6","1024","2","48000","-16","experiment","4","even","4","NA","87570","2448","NA","94426","93350","2452","96628","98629","99455","95427","36996","98629","NA","94424","Sternburg Task","8","7556","10","yes","1024"
"81.8181818182","81.8181818182","740.181818182","740.181818182","black","practice","legacy","legacy","legacy","0","uniform","1","undefined","1","right","0","10","0","0","10","10","0","10","10","10","10","0","10","0","10","10/18/21 09:26:36","The main experiment item","yes","SternburgTask.osexp","C:/Users/borna.000/Documents/PSYC/PSYC5316/Sternburg","no","mono","no","18","no","white","no","yes","768","legacy","10","10","C:/Users/borna.000/Documents/PSYC/PSYC5316/Sternburg/DH-subject-4.csv","legacy","4 1 5","Lentiform Loewenfeld","3.3.9","0","n","0","right","NA","enter","right","NA","586","NA","34543","586","NA","2","legacy","3","1024","2","48000","-16","experiment","4","even","2","NA","99459","2448","NA","100569","93350","2452","102771","104772","105359","101570","36996","104772","NA","100567","Sternburg Task","9","8142","11","yes","1024"
"83.3333333333","83.3333333333","743.833333333","743.833333333","black","practice","legacy","legacy","legacy","0","uniform","1","undefined","1","left","0","11","0","0","11","11","0","11","11","11","11","0","11","0","11","10/18/21 09:26:36","The main experiment item","yes","SternburgTask.osexp","C:/Users/borna.000/Documents/PSYC/PSYC5316/Sternburg","no","mono","no","18","no","white","no","yes","768","legacy","11","11","C:/Users/borna.000/Documents/PSYC/PSYC5316/Sternburg/DH-subject-4.csv","legacy","6","Lentiform Loewenfeld","3.3.9","1","y","0","left","NA","enter","left","NA","784","NA","34543","784","NA","2","legacy","1","1024","2","48000","-16","experiment","4","even","6","NA","105364","2448","NA","106465","93350","2452","108667","110668","111452","107466","36996","110668","NA","106463","Sternburg Task","10","8926","12","yes","1024"
"84.6153846154","84.6153846154","741.076923077","741.076923077","black","experiment","legacy","legacy","legacy","0","uniform","1","undefined","1","right","0","12","0","0","12","12","0","12","12","12","12","0","12","0","12","10/18/21 09:26:36","The main experiment item","yes","SternburgTask.osexp","C:/Users/borna.000/Documents/PSYC/PSYC5316/Sternburg","no","mono","no","18","no","white","no","yes","768","legacy","0","11","C:/Users/borna.000/Documents/PSYC/PSYC5316/Sternburg/DH-subject-4.csv","legacy","1 4 3 6 5","Lentiform Loewenfeld","3.3.9","0","n","0","right","right","enter","right","NA","708","5759","34543","708","NA","2","legacy","5","1024","2","48000","-16","experiment","4","even","8","112477","111460","2448","118236","118337","93350","2452","120540","122542","123250","119338","36996","122541","NA","118335","Sternburg Task","11","9634","13","yes","1024"
"85.7142857143","85.7142857143","736.928571429","736.928571429","black","experiment","legacy","legacy","legacy","0","uniform","1","undefined","1","left","0","13","0","0","13","13","0","13","13","13","13","0","13","0","13","10/18/21 09:26:36","The main experiment item","yes","SternburgTask.osexp","C:/Users/borna.000/Documents/PSYC/PSYC5316/Sternburg","no","mono","no","18","no","white","no","yes","768","legacy","1","11","C:/Users/borna.000/Documents/PSYC/PSYC5316/Sternburg/DH-subject-4.csv","legacy","9 5 8 1","Lentiform Loewenfeld","3.3.9","2","y","0","left","right","enter","left","NA","683","5759","34543","683","NA","2","legacy","4","1024","2","48000","-16","experiment","4","even","5","112477","123255","2448","118236","124363","93350","2452","126566","128569","129252","125364","36996","128568","NA","124361","Sternburg Task","12","10317","14","yes","1024"
"86.6666666667","86.6666666667","719.266666667","719.266666667","black","experiment","legacy","legacy","legacy","0","uniform","1","undefined","1","right","0","14","0","0","14","14","0","14","14","14","14","0","14","0","14","10/18/21 09:26:36","The main experiment item","yes","SternburgTask.osexp","C:/Users/borna.000/Documents/PSYC/PSYC5316/Sternburg","no","mono","no","18","no","white","no","yes","768","legacy","2","11","C:/Users/borna.000/Documents/PSYC/PSYC5316/Sternburg/DH-subject-4.csv","legacy","2 8 9","Lentiform Loewenfeld","3.3.9","0","n","0","right","right","enter","right","NA","472","5759","34543","472","NA","2","legacy","3","1024","2","48000","-16","experiment","4","even","6","112477","129257","2448","118236","130352","93350","2452","132556","134557","135030","131354","36996","134557","NA","130350","Sternburg Task","13","10789","15","yes","1024"
"87.5","87.5","710.3125","710.3125","black","experiment","legacy","legacy","legacy","0","uniform","1","undefined","1","right","0","15","0","0","15","15","0","15","15","15","15","0","15","0","15","10/18/21 09:26:36","The main experiment item","yes","SternburgTask.osexp","C:/Users/borna.000/Documents/PSYC/PSYC5316/Sternburg","no","mono","no","18","no","white","no","yes","768","legacy","3","11","C:/Users/borna.000/Documents/PSYC/PSYC5316/Sternburg/DH-subject-4.csv","legacy","1 7 8 3 9","Lentiform Loewenfeld","3.3.9","0","n","0","right","right","enter","right","NA","576","5759","34543","576","NA","2","legacy","5","1024","2","48000","-16","experiment","4","even","2","112477","135039","2448","118236","136135","93350","2452","138337","140338","140914","137136","36996","140338","NA","136133","Sternburg Task","14","11365","16","yes","1024"
"88.2352941176","88.2352941176","712.647058824","712.647058824","black","experiment","legacy","legacy","legacy","0","uniform","1","undefined","1","left","0","16","0","0","16","16","0","16","16","16","16","0","16","0","16","10/18/21 09:26:36","The main experiment item","yes","SternburgTask.osexp","C:/Users/borna.000/Documents/PSYC/PSYC5316/Sternburg","no","mono","no","18","no","white","no","yes","768","legacy","4","11","C:/Users/borna.000/Documents/PSYC/PSYC5316/Sternburg/DH-subject-4.csv","legacy","8 5 3 7 4 6","Lentiform Loewenfeld","3.3.9","6","y","0","left","right","enter","left","NA","750","5759","34543","750","NA","2","legacy","6","1024","2","48000","-16","experiment","4","even","6","112477","140922","2448","118236","141994","93350","2452","144196","146197","146947","142995","36996","146197","NA","141992","Sternburg Task","15","12115","17","yes","1024"
"88.8888888889","88.8888888889","716.5","716.5","black","experiment","legacy","legacy","legacy","0","uniform","1","undefined","1","left","0","17","0","0","17","17","0","17","17","17","17","0","17","0","17","10/18/21 09:26:36","The main experiment item","yes","SternburgTask.osexp","C:/Users/borna.000/Documents/PSYC/PSYC5316/Sternburg","no","mono","no","18","no","white","no","yes","768","legacy","5","11","C:/Users/borna.000/Documents/PSYC/PSYC5316/Sternburg/DH-subject-4.csv","legacy","4 7 6 8 2 3","Lentiform Loewenfeld","3.3.9","6","y","0","left","right","enter","left","NA","782","5759","34543","782","NA","2","legacy","6","1024","2","48000","-16","experiment","4","even","3","112477","146956","2448","118236","148027","93350","2452","150229","152230","153013","149028","36996","152230","NA","148025","Sternburg Task","16","12897","18","yes","1024"
"89.4736842105","89.4736842105","722.736842105","722.736842105","black","experiment","legacy","legacy","legacy","0","uniform","1","undefined","1","left","0","18","0","0","18","18","0","18","18","18","18","0","18","0","18","10/18/21 09:26:36","The main experiment item","yes","SternburgTask.osexp","C:/Users/borna.000/Documents/PSYC/PSYC5316/Sternburg","no","mono","no","18","no","white","no","yes","768","legacy","6","11","C:/Users/borna.000/Documents/PSYC/PSYC5316/Sternburg/DH-subject-4.csv","legacy","4 3 2 5 8","Lentiform Loewenfeld","3.3.9","2","y","0","left","right","enter","left","NA","835","5759","34543","835","NA","2","legacy","5","1024","2","48000","-16","experiment","4","even","3","112477","153022","2448","118236","154094","93350","2452","156296","158297","159133","155095","36996","158297","NA","154092","Sternburg Task","17","13732","19","yes","1024"
"90","90","713.8","713.8","black","experiment","legacy","legacy","legacy","0","uniform","1","undefined","1","left","0","19","0","0","19","19","0","19","19","19","19","0","19","0","19","10/18/21 09:26:36","The main experiment item","yes","SternburgTask.osexp","C:/Users/borna.000/Documents/PSYC/PSYC5316/Sternburg","no","mono","no","18","no","white","no","yes","768","legacy","7","11","C:/Users/borna.000/Documents/PSYC/PSYC5316/Sternburg/DH-subject-4.csv","legacy","4","Lentiform Loewenfeld","3.3.9","1","y","0","left","right","enter","left","NA","544","5759","34543","544","NA","2","legacy","1","1024","2","48000","-16","experiment","4","even","4","112477","159141","2448","118236","160214","93350","2452","162416","164417","164962","161215","36996","164417","NA","160212","Sternburg Task","18","14276","20","yes","1024"
"85.7142857143","85.7142857143","709.047619048","709.047619048","black","experiment","legacy","legacy","legacy","0","uniform","0","undefined","0","left","0","20","0","0","20","20","0","20","20","20","20","0","20","0","20","10/18/21 09:26:36","The main experiment item","yes","SternburgTask.osexp","C:/Users/borna.000/Documents/PSYC/PSYC5316/Sternburg","no","mono","no","18","no","white","no","yes","768","legacy","8","11","C:/Users/borna.000/Documents/PSYC/PSYC5316/Sternburg/DH-subject-4.csv","legacy","3 9 7 6 4","Lentiform Loewenfeld","3.3.9","3","y","0","right","right","enter","right","NA","614","5759","34543","614","NA","2","legacy","5","1024","2","48000","-16","experiment","4","even","7","112477","164970","2448","118236","166042","93350","2452","168244","170245","170859","167043","36996","170245","NA","166040","Sternburg Task","18","14890","21","yes","1024"
"86.3636363636","86.3636363636","724.045454545","724.045454545","black","experiment","legacy","legacy","legacy","0","uniform","1","undefined","1","left","0","21","0","0","21","21","0","21","21","21","21","0","21","0","21","10/18/21 09:26:36","The main experiment item","yes","SternburgTask.osexp","C:/Users/borna.000/Documents/PSYC/PSYC5316/Sternburg","no","mono","no","18","no","white","no","yes","768","legacy","9","11","C:/Users/borna.000/Documents/PSYC/PSYC5316/Sternburg/DH-subject-4.csv","legacy","9 1 6 7 8","Lentiform Loewenfeld","3.3.9","1","y","0","left","right","enter","left","NA","1039","5759","34543","1039","NA","2","legacy","5","1024","2","48000","-16","experiment","4","even","9","112477","164970","2448","118236","171939","170867","2452","174141","176142","177181","172940","36996","176142","NA","171937","Sternburg Task","19","15929","22","yes","1024"
"86.9565217391","86.9565217391","722.260869565","722.260869565","black","experiment","legacy","legacy","legacy","0","uniform","1","undefined","1","right","0","22","0","0","22","22","0","22","22","22","22","0","22","0","22","10/18/21 09:26:36","The main experiment item","yes","SternburgTask.osexp","C:/Users/borna.000/Documents/PSYC/PSYC5316/Sternburg","no","mono","no","18","no","white","no","yes","768","legacy","10","11","C:/Users/borna.000/Documents/PSYC/PSYC5316/Sternburg/DH-subject-4.csv","legacy","2 6 4 3 9","Lentiform Loewenfeld","3.3.9","0","n","0","right","right","enter","right","NA","683","5759","34543","683","NA","2","legacy","5","1024","2","48000","-16","experiment","4","even","1","112477","177191","2448","118236","178262","170867","2452","180464","182465","183149","179263","36996","182465","NA","178260","Sternburg Task","20","16612","23","yes","1024"
"87.5","87.5","727.333333333","727.333333333","black","experiment","legacy","legacy","legacy","0","uniform","1","undefined","1","left","0","23","0","0","23","23","0","23","23","23","23","0","23","0","23","10/18/21 09:26:36","The main experiment item","yes","SternburgTask.osexp","C:/Users/borna.000/Documents/PSYC/PSYC5316/Sternburg","no","mono","no","18","no","white","no","yes","768","legacy","11","11","C:/Users/borna.000/Documents/PSYC/PSYC5316/Sternburg/DH-subject-4.csv","legacy","3 9 6 2","Lentiform Loewenfeld","3.3.9","4","y","0","left","right","enter","left","NA","844","5759","34543","844","NA","2","legacy","4","1024","2","48000","-16","experiment","4","even","2","112477","183158","2448","118236","184231","170867","2452","186433","188434","189278","185232","36996","188434","NA","184229","Sternburg Task","21","17456","24","yes","1024"
"88","88","718.52","718.52","black","experiment","legacy","legacy","legacy","0","uniform","1","undefined","1","left","0","24","0","0","24","24","0","24","24","24","24","0","24","0","24","10/18/21 09:26:36","The main experiment item","yes","SternburgTask.osexp","C:/Users/borna.000/Documents/PSYC/PSYC5316/Sternburg","no","mono","no","18","no","white","no","yes","768","legacy","12","11","C:/Users/borna.000/Documents/PSYC/PSYC5316/Sternburg/DH-subject-4.csv","legacy","8 3","Lentiform Loewenfeld","3.3.9","2","y","0","left","right","enter","left","NA","507","5759","34543","507","NA","2","legacy","2","1024","2","48000","-16","experiment","4","even","3","112477","189289","2448","118236","190362","170867","2452","192564","194565","195073","191363","36996","194565","NA","190360","Sternburg Task","22","17963","25","yes","1024"
"88.4615384615","88.4615384615","720.192307692","720.192307692","black","experiment","legacy","legacy","legacy","0","uniform","1","undefined","1","left","0","25","0","0","25","25","0","25","25","25","25","0","25","0","25","10/18/21 09:26:36","The main experiment item","yes","SternburgTask.osexp","C:/Users/borna.000/Documents/PSYC/PSYC5316/Sternburg","no","mono","no","18","no","white","no","yes","768","legacy","13","11","C:/Users/borna.000/Documents/PSYC/PSYC5316/Sternburg/DH-subject-4.csv","legacy","4 6 2 5 1","Lentiform Loewenfeld","3.3.9","5","y","0","left","right","enter","left","NA","762","5759","34543","762","NA","2","legacy","5","1024","2","48000","-16","experiment","4","even","1","112477","195083","2448","118236","196156","170867","2452","198358","200359","201122","197157","36996","200359","NA","196153","Sternburg Task","23","18725","26","yes","1024"
"88.8888888889","88.8888888889","718.851851852","718.851851852","black","experiment","legacy","legacy","legacy","0","uniform","1","undefined","1","right","0","26","0","0","26","26","0","26","26","26","26","0","26","0","26","10/18/21 09:26:36","The main experiment item","yes","SternburgTask.osexp","C:/Users/borna.000/Documents/PSYC/PSYC5316/Sternburg","no","mono","no","18","no","white","no","yes","768","legacy","14","11","C:/Users/borna.000/Documents/PSYC/PSYC5316/Sternburg/DH-subject-4.csv","legacy","2 5 1 4","Lentiform Loewenfeld","3.3.9","0","n","0","right","right","enter","right","NA","684","5759","34543","684","NA","2","legacy","4","1024","2","48000","-16","experiment","4","even","6","112477","201130","2448","118236","202201","170867","2452","204403","206404","207089","203202","36996","206404","NA","202199","Sternburg Task","24","19409","27","yes","1024"
"89.2857142857","89.2857142857","713.357142857","713.357142857","black","experiment","legacy","legacy","legacy","0","uniform","1","undefined","1","left","0","27","0","0","27","27","0","27","27","27","27","0","27","0","27","10/18/21 09:26:36","The main experiment item","yes","SternburgTask.osexp","C:/Users/borna.000/Documents/PSYC/PSYC5316/Sternburg","no","mono","no","18","no","white","no","yes","768","legacy","15","11","C:/Users/borna.000/Documents/PSYC/PSYC5316/Sternburg/DH-subject-4.csv","legacy","2 3 7 4","Lentiform Loewenfeld","3.3.9","1","y","0","left","right","enter","left","NA","565","5759","34543","565","NA","2","legacy","4","1024","2","48000","-16","experiment","4","even","2","112477","207098","2448","118236","208171","170867","2452","210373","212374","212940","209172","36996","212374","NA","208169","Sternburg Task","25","19974","28","yes","1024"
"89.6551724138","89.6551724138","706.103448276","706.103448276","black","experiment","legacy","legacy","legacy","0","uniform","1","undefined","1","left","0","28","0","0","28","28","0","28","28","28","28","0","28","0","28","10/18/21 09:26:36","The main experiment item","yes","SternburgTask.osexp","C:/Users/borna.000/Documents/PSYC/PSYC5316/Sternburg","no","mono","no","18","no","white","no","yes","768","legacy","16","11","C:/Users/borna.000/Documents/PSYC/PSYC5316/Sternburg/DH-subject-4.csv","legacy","7 6","Lentiform Loewenfeld","3.3.9","2","y","0","left","right","enter","left","NA","503","5759","34543","503","NA","2","legacy","2","1024","2","48000","-16","experiment","4","even","6","112477","212948","2448","118236","214019","170867","2452","216221","218222","218725","215020","36996","218222","NA","214017","Sternburg Task","26","20477","29","yes","1024"
"90","90","704.033333333","704.033333333","black","experiment","legacy","legacy","legacy","0","uniform","1","undefined","1","left","0","29","0","0","29","29","0","29","29","29","29","0","29","0","29","10/18/21 09:26:36","The main experiment item","yes","SternburgTask.osexp","C:/Users/borna.000/Documents/PSYC/PSYC5316/Sternburg","no","mono","no","18","no","white","no","yes","768","legacy","17","11","C:/Users/borna.000/Documents/PSYC/PSYC5316/Sternburg/DH-subject-4.csv","legacy","8 1 6","Lentiform Loewenfeld","3.3.9","3","y","0","left","right","enter","left","NA","644","5759","34543","644","NA","2","legacy","3","1024","2","48000","-16","experiment","4","even","6","112477","218734","2448","118236","219807","170867","2452","222009","224010","224655","220808","36996","224010","NA","219805","Sternburg Task","27","21121","30","yes","1024"
"90.3225806452","90.3225806452","716.322580645","716.322580645","black","experiment","legacy","legacy","legacy","0","uniform","1","undefined","1","right","0","30","0","0","30","30","0","30","30","30","30","0","30","0","30","10/18/21 09:26:36","The main experiment item","yes","SternburgTask.osexp","C:/Users/borna.000/Documents/PSYC/PSYC5316/Sternburg","no","mono","no","18","no","white","no","yes","768","legacy","18","11","C:/Users/borna.000/Documents/PSYC/PSYC5316/Sternburg/DH-subject-4.csv","legacy","3 4 9 6 7 8","Lentiform Loewenfeld","3.3.9","0","n","0","right","right","enter","right","NA","1085","5759","34543","1085","NA","2","legacy","6","1024","2","48000","-16","experiment","4","even","2","112477","224663","2448","118236","225739","170867","2452","227941","229942","231028","226741","36996","229942","NA","225737","Sternburg Task","28","22206","31","yes","1024"
"90.625","90.625","723.46875","723.46875","black","experiment","legacy","legacy","legacy","0","uniform","1","undefined","1","left","0","31","0","0","31","31","0","31","31","31","31","0","31","0","31","10/18/21 09:26:36","The main experiment item","yes","SternburgTask.osexp","C:/Users/borna.000/Documents/PSYC/PSYC5316/Sternburg","no","mono","no","18","no","white","no","yes","768","legacy","19","11","C:/Users/borna.000/Documents/PSYC/PSYC5316/Sternburg/DH-subject-4.csv","legacy","8 9 6 1","Lentiform Loewenfeld","3.3.9","2","y","0","left","right","enter","left","NA","945","5759","34543","945","NA","2","legacy","4","1024","2","48000","-16","experiment","4","even","9","112477","231036","2448","118236","232106","170867","2452","234308","236309","237255","233107","36996","236309","NA","232104","Sternburg Task","29","23151","32","yes","1024"
"90.9090909091","90.9090909091","720.151515152","720.151515152","black","experiment","legacy","legacy","legacy","0","uniform","1","undefined","1","left","0","32","0","0","32","32","0","32","32","32","32","0","32","0","32","10/18/21 09:26:36","The main experiment item","yes","SternburgTask.osexp","C:/Users/borna.000/Documents/PSYC/PSYC5316/Sternburg","no","mono","no","18","no","white","no","yes","768","legacy","20","11","C:/Users/borna.000/Documents/PSYC/PSYC5316/Sternburg/DH-subject-4.csv","legacy","3 5 4 7","Lentiform Loewenfeld","3.3.9","1","y","0","left","right","enter","left","NA","614","5759","34543","614","NA","2","legacy","4","1024","2","48000","-16","experiment","4","even","3","112477","237263","2448","118236","238334","170867","2452","240536","242537","243152","239335","36996","242537","NA","238332","Sternburg Task","30","23765","33","yes","1024"
"91.1764705882","91.1764705882","719.911764706","719.911764706","black","experiment","legacy","legacy","legacy","0","uniform","1","undefined","1","right","0","33","0","0","33","33","0","33","33","33","33","0","33","0","33","10/18/21 09:26:36","The main experiment item","yes","SternburgTask.osexp","C:/Users/borna.000/Documents/PSYC/PSYC5316/Sternburg","no","mono","no","18","no","white","no","yes","768","legacy","21","11","C:/Users/borna.000/Documents/PSYC/PSYC5316/Sternburg/DH-subject-4.csv","legacy","5 7 3","Lentiform Loewenfeld","3.3.9","0","n","0","right","right","enter","right","NA","712","5759","34543","712","NA","2","legacy","3","1024","2","48000","-16","experiment","4","even","9","112477","243160","2448","118236","244232","170867","2452","246434","248435","249148","245233","36996","248435","NA","244230","Sternburg Task","31","24477","34","yes","1024"
"91.4285714286","91.4285714286","718.4","718.4","black","experiment","legacy","legacy","legacy","0","uniform","1","undefined","1","left","0","34","0","0","34","34","0","34","34","34","34","0","34","0","34","10/18/21 09:26:36","The main experiment item","yes","SternburgTask.osexp","C:/Users/borna.000/Documents/PSYC/PSYC5316/Sternburg","no","mono","no","18","no","white","no","yes","768","legacy","22","11","C:/Users/borna.000/Documents/PSYC/PSYC5316/Sternburg/DH-subject-4.csv","legacy","6 8 9 3 4 9","Lentiform Loewenfeld","3.3.9","5","y","0","left","right","enter","left","NA","667","5759","34543","667","NA","2","legacy","6","1024","2","48000","-16","experiment","4","even","4","112477","249157","2448","118236","250230","170867","2452","252432","254433","255101","251231","36996","254433","NA","250228","Sternburg Task","32","25144","35","yes","1024"
"91.6666666667","91.6666666667","714.861111111","714.861111111","black","experiment","legacy","legacy","legacy","0","uniform","1","undefined","1","left","0","35","0","0","35","35","0","35","35","35","35","0","35","0","35","10/18/21 09:26:36","The main experiment item","yes","SternburgTask.osexp","C:/Users/borna.000/Documents/PSYC/PSYC5316/Sternburg","no","mono","no","18","no","white","no","yes","768","legacy","23","11","C:/Users/borna.000/Documents/PSYC/PSYC5316/Sternburg/DH-subject-4.csv","legacy","5 7 8 2 3 8","Lentiform Loewenfeld","3.3.9","5","y","0","left","right","enter","left","NA","591","5759","34543","591","NA","2","legacy","6","1024","2","48000","-16","experiment","4","even","3","112477","255110","2448","118236","256180","170867","2452","258382","260383","260975","257181","36996","260383","NA","256178","Sternburg Task","33","25735","36","yes","1024"
"89.1891891892","89.1891891892","709.459459459","709.459459459","black","experiment","legacy","legacy","legacy","0","uniform","0","undefined","0","right","0","36","0","0","36","36","0","36","36","36","36","0","36","0","36","10/18/21 09:26:36","The main experiment item","yes","SternburgTask.osexp","C:/Users/borna.000/Documents/PSYC/PSYC5316/Sternburg","no","mono","no","18","no","white","no","yes","768","legacy","24","11","C:/Users/borna.000/Documents/PSYC/PSYC5316/Sternburg/DH-subject-4.csv","legacy","1 8 7","Lentiform Loewenfeld","3.3.9","0","n","0","left","right","enter","left","NA","515","5759","34543","515","NA","2","legacy","3","1024","2","48000","-16","experiment","4","even","4","112477","260984","2448","118236","262055","170867","2452","264258","266259","266774","263057","36996","266259","NA","262054","Sternburg Task","33","26250","37","yes","1024"
"89.4736842105","89.4736842105","709.157894737","709.157894737","black","experiment","legacy","legacy","legacy","0","uniform","1","undefined","1","left","0","37","0","0","37","37","0","37","37","37","37","0","37","0","37","10/18/21 09:26:36","The main experiment item","yes","SternburgTask.osexp","C:/Users/borna.000/Documents/PSYC/PSYC5316/Sternburg","no","mono","no","18","no","white","no","yes","768","legacy","25","11","C:/Users/borna.000/Documents/PSYC/PSYC5316/Sternburg/DH-subject-4.csv","legacy","1 4 9 3 2 5","Lentiform Loewenfeld","3.3.9","3","y","0","left","right","enter","left","NA","698","5759","34543","698","NA","2","legacy","6","1024","2","48000","-16","experiment","4","even","9","112477","260984","2448","118236","267855","266783","2452","270057","272058","272756","268856","36996","272058","NA","267853","Sternburg Task","34","26948","38","yes","1024"
"89.7435897436","89.7435897436","713.871794872","713.871794872","black","experiment","legacy","legacy","legacy","0","uniform","1","undefined","1","left","0","38","0","0","38","38","0","38","38","38","38","0","38","0","38","10/18/21 09:26:36","The main experiment item","yes","SternburgTask.osexp","C:/Users/borna.000/Documents/PSYC/PSYC5316/Sternburg","no","mono","no","18","no","white","no","yes","768","legacy","26","11","C:/Users/borna.000/Documents/PSYC/PSYC5316/Sternburg/DH-subject-4.csv","legacy","8 5 4 7 3 1","Lentiform Loewenfeld","3.3.9","2","y","0","left","right","enter","left","NA","893","5759","34543","893","NA","2","legacy","6","1024","2","48000","-16","experiment","4","even","5","112477","272764","2448","118236","273835","266783","2452","276037","278038","278932","274836","36996","278038","NA","273833","Sternburg Task","35","27841","39","yes","1024"
"90","90","720.1","720.1","black","experiment","legacy","legacy","legacy","0","uniform","1","undefined","1","left","0","39","0","0","39","39","0","39","39","39","39","0","39","0","39","10/18/21 09:26:36","The main experiment item","yes","SternburgTask.osexp","C:/Users/borna.000/Documents/PSYC/PSYC5316/Sternburg","no","mono","no","18","no","white","no","yes","768","legacy","27","11","C:/Users/borna.000/Documents/PSYC/PSYC5316/Sternburg/DH-subject-4.csv","legacy","5 2 9 6 1 7","Lentiform Loewenfeld","3.3.9","3","y","0","left","right","enter","left","NA","963","5759","34543","963","NA","2","legacy","6","1024","2","48000","-16","experiment","4","even","9","112477","278940","2448","118236","280014","266783","2452","282216","284217","285181","281015","36996","284217","NA","280012","Sternburg Task","36","28804","40","yes","1024"
"90.243902439","90.243902439","725.097560976","725.097560976","black","experiment","legacy","legacy","legacy","0","uniform","1","undefined","1","right","0","40","0","0","40","40","0","40","40","40","40","0","40","0","40","10/18/21 09:26:36","The main experiment item","yes","SternburgTask.osexp","C:/Users/borna.000/Documents/PSYC/PSYC5316/Sternburg","no","mono","no","18","no","white","no","yes","768","legacy","28","11","C:/Users/borna.000/Documents/PSYC/PSYC5316/Sternburg/DH-subject-4.csv","legacy","8 4 3 5","Lentiform Loewenfeld","3.3.9","0","n","0","right","right","enter","right","NA","925","5759","34543","925","NA","2","legacy","4","1024","2","48000","-16","experiment","4","even","6","112477","285189","2448","118236","286264","266783","2452","288466","290467","291393","287265","36996","290467","NA","286262","Sternburg Task","37","29729","41","yes","1024"
"90.4761904762","90.4761904762","724.5","724.5","black","experiment","legacy","legacy","legacy","0","uniform","1","undefined","1","left","0","41","0","0","41","41","0","41","41","41","41","0","41","0","41","10/18/21 09:26:36","The main experiment item","yes","SternburgTask.osexp","C:/Users/borna.000/Documents/PSYC/PSYC5316/Sternburg","no","mono","no","18","no","white","no","yes","768","legacy","29","11","C:/Users/borna.000/Documents/PSYC/PSYC5316/Sternburg/DH-subject-4.csv","legacy","3 4 9 6 2 9","Lentiform Loewenfeld","3.3.9","5","y","0","left","right","enter","left","NA","700","5759","34543","700","NA","2","legacy","6","1024","2","48000","-16","experiment","4","even","2","112477","291396","2448","118236","292467","266783","2452","294669","296670","297370","293468","36996","296670","NA","292465","Sternburg Task","38","30429","42","yes","1024"
"90.6976744186","90.6976744186","720.88372093","720.88372093","black","experiment","legacy","legacy","legacy","0","uniform","1","undefined","1","right","0","42","0","0","42","42","0","42","42","42","42","0","42","0","42","10/18/21 09:26:36","The main experiment item","yes","SternburgTask.osexp","C:/Users/borna.000/Documents/PSYC/PSYC5316/Sternburg","no","mono","no","18","no","white","no","yes","768","legacy","30","11","C:/Users/borna.000/Documents/PSYC/PSYC5316/Sternburg/DH-subject-4.csv","legacy","7 1","Lentiform Loewenfeld","3.3.9","0","n","0","right","right","enter","right","NA","569","5759","34543","569","NA","2","legacy","2","1024","2","48000","-16","experiment","4","even","8","112477","297380","2448","118236","298450","266783","2452","300652","302653","303223","299451","36996","302653","NA","298448","Sternburg Task","39","30998","43","yes","1024"
"90.9090909091","90.9090909091","718.386363636","718.386363636","black","experiment","legacy","legacy","legacy","0","uniform","1","undefined","1","left","0","43","0","0","43","43","0","43","43","43","43","0","43","0","43","10/18/21 09:26:36","The main experiment item","yes","SternburgTask.osexp","C:/Users/borna.000/Documents/PSYC/PSYC5316/Sternburg","no","mono","no","18","no","white","no","yes","768","legacy","31","11","C:/Users/borna.000/Documents/PSYC/PSYC5316/Sternburg/DH-subject-4.csv","legacy","9 5 3 8 4","Lentiform Loewenfeld","3.3.9","1","y","0","left","right","enter","left","NA","611","5759","34543","611","NA","2","legacy","5","1024","2","48000","-16","experiment","4","even","9","112477","303231","2448","118236","304301","266783","2452","306503","308504","309115","305302","36996","308504","NA","304299","Sternburg Task","40","31609","44","yes","1024"
"91.1111111111","91.1111111111","724.622222222","724.622222222","black","experiment","legacy","legacy","legacy","0","uniform","1","undefined","1","right","0","44","0","0","44","44","0","44","44","44","44","0","44","0","44","10/18/21 09:26:36","The main experiment item","yes","SternburgTask.osexp","C:/Users/borna.000/Documents/PSYC/PSYC5316/Sternburg","no","mono","no","18","no","white","no","yes","768","legacy","32","11","C:/Users/borna.000/Documents/PSYC/PSYC5316/Sternburg/DH-subject-4.csv","legacy","4 8 1 2","Lentiform Loewenfeld","3.3.9","0","n","0","right","right","enter","right","NA","999","5759","34543","999","NA","2","legacy","4","1024","2","48000","-16","experiment","4","even","7","112477","309124","2448","118236","310194","266783","2452","312396","314397","315396","311195","36996","314397","NA","310193","Sternburg Task","41","32608","45","yes","1024"
"91.3043478261","91.3043478261","728.413043478","728.413043478","black","experiment","legacy","legacy","legacy","0","uniform","1","undefined","1","right","0","45","0","0","45","45","0","45","45","45","45","0","45","0","45","10/18/21 09:26:36","The main experiment item","yes","SternburgTask.osexp","C:/Users/borna.000/Documents/PSYC/PSYC5316/Sternburg","no","mono","no","18","no","white","no","yes","768","legacy","33","11","C:/Users/borna.000/Documents/PSYC/PSYC5316/Sternburg/DH-subject-4.csv","legacy","3 9 1","Lentiform Loewenfeld","3.3.9","0","n","0","right","right","enter","right","NA","899","5759","34543","899","NA","2","legacy","3","1024","2","48000","-16","experiment","4","even","7","112477","315404","2448","118236","316477","266783","2452","318679","320680","321580","317478","36996","320680","NA","316474","Sternburg Task","42","33507","46","yes","1024"
"91.4893617021","91.4893617021","729.255319149","729.255319149","black","experiment","legacy","legacy","legacy","0","uniform","1","undefined","1","left","0","46","0","0","46","46","0","46","46","46","46","0","46","0","46","10/18/21 09:26:36","The main experiment item","yes","SternburgTask.osexp","C:/Users/borna.000/Documents/PSYC/PSYC5316/Sternburg","no","mono","no","18","no","white","no","yes","768","legacy","34","11","C:/Users/borna.000/Documents/PSYC/PSYC5316/Sternburg/DH-subject-4.csv","legacy","2 4 8 5 1 3","Lentiform Loewenfeld","3.3.9","1","y","0","left","right","enter","left","NA","768","5759","34543","768","NA","2","legacy","6","1024","2","48000","-16","experiment","4","even","2","112477","321585","2448","118236","322660","266783","2452","324862","326863","327632","323661","36996","326863","NA","322658","Sternburg Task","43","34275","47","yes","1024"
"91.6666666667","91.6666666667","725.541666667","725.541666667","black","experiment","legacy","legacy","legacy","0","uniform","1","undefined","1","left","0","47","0","0","47","47","0","47","47","47","47","0","47","0","47","10/18/21 09:26:36","The main experiment item","yes","SternburgTask.osexp","C:/Users/borna.000/Documents/PSYC/PSYC5316/Sternburg","no","mono","no","18","no","white","no","yes","768","legacy","35","11","C:/Users/borna.000/Documents/PSYC/PSYC5316/Sternburg/DH-subject-4.csv","legacy","4 6 5 8","Lentiform Loewenfeld","3.3.9","1","y","0","left","right","enter","left","NA","551","5759","34543","551","NA","2","legacy","4","1024","2","48000","-16","experiment","4","even","4","112477","327640","2448","118236","328713","266783","2452","330915","332916","333467","329714","36996","332916","NA","328710","Sternburg Task","44","34826","48","yes","1024"
"91.8367346939","91.8367346939","732.12244898","732.12244898","black","experiment","legacy","legacy","legacy","0","uniform","1","undefined","1","right","0","48","0","0","48","48","0","48","48","48","48","0","48","0","48","10/18/21 09:26:36","The main experiment item","yes","SternburgTask.osexp","C:/Users/borna.000/Documents/PSYC/PSYC5316/Sternburg","no","mono","no","18","no","white","no","yes","768","legacy","36","11","C:/Users/borna.000/Documents/PSYC/PSYC5316/Sternburg/DH-subject-4.csv","legacy","1 4 9 2 5","Lentiform Loewenfeld","3.3.9","0","n","0","right","right","enter","right","NA","1048","5759","34543","1048","NA","2","legacy","5","1024","2","48000","-16","experiment","4","even","7","112477","333475","2448","118236","334553","266783","2452","336755","338756","339805","335554","36996","338756","NA","334551","Sternburg Task","45","35874","49","yes","1024"
"92","92","738.38","738.38","black","experiment","legacy","legacy","legacy","0","uniform","1","undefined","1","left","0","49","0","0","49","49","0","49","49","49","49","0","49","0","49","10/18/21 09:26:36","The main experiment item","yes","SternburgTask.osexp","C:/Users/borna.000/Documents/PSYC/PSYC5316/Sternburg","no","mono","no","18","no","white","no","yes","768","legacy","37","11","C:/Users/borna.000/Documents/PSYC/PSYC5316/Sternburg/DH-subject-4.csv","legacy","6 1 2","Lentiform Loewenfeld","3.3.9","3","y","0","left","right","enter","left","NA","1045","5759","34543","1045","NA","2","legacy","3","1024","2","48000","-16","experiment","4","even","2","112477","339808","2448","118236","340886","266783","2452","343088","345089","346134","341887","36996","345089","NA","340883","Sternburg Task","46","36919","50","yes","1024"
"92.1568627451","92.1568627451","741.764705882","741.764705882","black","experiment","legacy","legacy","legacy","0","uniform","1","undefined","1","right","0","50","0","0","50","50","0","50","50","50","50","0","50","0","50","10/18/21 09:26:36","The main experiment item","yes","SternburgTask.osexp","C:/Users/borna.000/Documents/PSYC/PSYC5316/Sternburg","no","mono","no","18","no","white","no","yes","768","legacy","38","11","C:/Users/borna.000/Documents/PSYC/PSYC5316/Sternburg/DH-subject-4.csv","legacy","6 9 4 5 2","Lentiform Loewenfeld","3.3.9","0","n","0","right","right","enter","right","NA","911","5759","34543","911","NA","2","legacy","5","1024","2","48000","-16","experiment","4","even","1","112477","346143","2448","118236","347215","266783","2452","349417","351418","352329","348216","36996","351418","NA","347213","Sternburg Task","47","37830","51","yes","1024"
"92.3076923077","92.3076923077","744.519230769","744.519230769","black","experiment","legacy","legacy","legacy","0","uniform","1","undefined","1","right","0","51","0","0","51","51","0","51","51","51","51","0","51","0","51","10/18/21 09:26:36","The main experiment item","yes","SternburgTask.osexp","C:/Users/borna.000/Documents/PSYC/PSYC5316/Sternburg","no","mono","no","18","no","white","no","yes","768","legacy","39","11","C:/Users/borna.000/Documents/PSYC/PSYC5316/Sternburg/DH-subject-4.csv","legacy","1 7 5 2","Lentiform Loewenfeld","3.3.9","0","n","0","right","right","enter","right","NA","885","5759","34543","885","NA","2","legacy","4","1024","2","48000","-16","experiment","4","even","3","112477","352338","2448","118236","353410","266783","2452","355612","357613","358499","354411","36996","357613","NA","353408","Sternburg Task","48","38715","52","yes","1024"
"92.4528301887","92.4528301887","745.226415094","745.226415094","black","experiment","legacy","legacy","legacy","0","uniform","1","undefined","1","left","0","52","0","0","52","52","0","52","52","52","52","0","52","0","52","10/18/21 09:26:36","The main experiment item","yes","SternburgTask.osexp","C:/Users/borna.000/Documents/PSYC/PSYC5316/Sternburg","no","mono","no","18","no","white","no","yes","768","legacy","40","11","C:/Users/borna.000/Documents/PSYC/PSYC5316/Sternburg/DH-subject-4.csv","legacy","4 1 8 7 5","Lentiform Loewenfeld","3.3.9","3","y","0","left","right","enter","left","NA","782","5759","34543","782","NA","2","legacy","5","1024","2","48000","-16","experiment","4","even","8","112477","358509","2448","118236","359583","266783","2452","361785","363786","364568","360584","36996","363786","NA","359581","Sternburg Task","49","39497","53","yes","1024"
"92.5925925926","92.5925925926","740.444444444","740.444444444","black","experiment","legacy","legacy","legacy","0","uniform","1","undefined","1","left","0","53","0","0","53","53","0","53","53","53","53","0","53","0","53","10/18/21 09:26:36","The main experiment item","yes","SternburgTask.osexp","C:/Users/borna.000/Documents/PSYC/PSYC5316/Sternburg","no","mono","no","18","no","white","no","yes","768","legacy","41","11","C:/Users/borna.000/Documents/PSYC/PSYC5316/Sternburg/DH-subject-4.csv","legacy","3 4","Lentiform Loewenfeld","3.3.9","1","y","0","left","right","enter","left","NA","487","5759","34543","487","NA","2","legacy","2","1024","2","48000","-16","experiment","4","even","3","112477","364577","2448","118236","365647","266783","2452","367849","369850","370337","366648","36996","369850","NA","365645","Sternburg Task","50","39984","54","yes","1024"
"92.7272727273","92.7272727273","748.618181818","748.618181818","black","experiment","legacy","legacy","legacy","0","uniform","1","undefined","1","right","0","54","0","0","54","54","0","54","54","54","54","0","54","0","54","10/18/21 09:26:36","The main experiment item","yes","SternburgTask.osexp","C:/Users/borna.000/Documents/PSYC/PSYC5316/Sternburg","no","mono","no","18","no","white","no","yes","768","legacy","42","11","C:/Users/borna.000/Documents/PSYC/PSYC5316/Sternburg/DH-subject-4.csv","legacy","2 8 7 9 5 3","Lentiform Loewenfeld","3.3.9","0","n","0","right","right","enter","right","NA","1190","5759","34543","1190","NA","2","legacy","6","1024","2","48000","-16","experiment","4","even","6","112477","370341","2448","118236","371413","266783","2452","373615","375617","376808","372414","36996","375617","NA","371411","Sternburg Task","51","41174","55","yes","1024"
"92.8571428571","92.8571428571","751.803571429","751.803571429","black","experiment","legacy","legacy","legacy","0","uniform","1","undefined","1","left","0","55","0","0","55","55","0","55","55","55","55","0","55","0","55","10/18/21 09:26:36","The main experiment item","yes","SternburgTask.osexp","C:/Users/borna.000/Documents/PSYC/PSYC5316/Sternburg","no","mono","no","18","no","white","no","yes","768","legacy","43","11","C:/Users/borna.000/Documents/PSYC/PSYC5316/Sternburg/DH-subject-4.csv","legacy","7 8 6 3 1","Lentiform Loewenfeld","3.3.9","5","y","0","left","right","enter","left","NA","927","5759","34543","927","NA","2","legacy","5","1024","2","48000","-16","experiment","4","even","1","112477","376817","2448","118236","377889","266783","2452","380091","382092","383020","378890","36996","382092","NA","377887","Sternburg Task","52","42101","56","yes","1024"
"92.9824561404","92.9824561404","749.315789474","749.315789474","black","experiment","legacy","legacy","legacy","0","uniform","1","undefined","1","left","0","56","0","0","56","56","0","56","56","56","56","0","56","0","56","10/18/21 09:26:36","The main experiment item","yes","SternburgTask.osexp","C:/Users/borna.000/Documents/PSYC/PSYC5316/Sternburg","no","mono","no","18","no","white","no","yes","768","legacy","44","11","C:/Users/borna.000/Documents/PSYC/PSYC5316/Sternburg/DH-subject-4.csv","legacy","6 7 8 5","Lentiform Loewenfeld","3.3.9","3","y","0","left","right","enter","left","NA","610","5759","34543","610","NA","2","legacy","4","1024","2","48000","-16","experiment","4","even","8","112477","383028","2448","118236","384101","266783","2452","386303","388304","388914","385102","36996","388304","NA","384099","Sternburg Task","53","42711","57","yes","1024"
"93.1034482759","93.1034482759","746.051724138","746.051724138","black","experiment","legacy","legacy","legacy","0","uniform","1","undefined","1","left","0","57","0","0","57","57","0","57","57","57","57","0","57","0","57","10/18/21 09:26:36","The main experiment item","yes","SternburgTask.osexp","C:/Users/borna.000/Documents/PSYC/PSYC5316/Sternburg","no","mono","no","18","no","white","no","yes","768","legacy","45","11","C:/Users/borna.000/Documents/PSYC/PSYC5316/Sternburg/DH-subject-4.csv","legacy","9 4 2","Lentiform Loewenfeld","3.3.9","1","y","0","left","right","enter","left","NA","560","5759","34543","560","NA","2","legacy","3","1024","2","48000","-16","experiment","4","even","9","112477","388924","2448","118236","389995","266783","2452","392197","394198","394759","390996","36996","394198","NA","389993","Sternburg Task","54","43271","58","yes","1024"
"93.2203389831","93.2203389831","741.305084746","741.305084746","black","experiment","legacy","legacy","legacy","0","uniform","1","undefined","1","left","0","58","0","0","58","58","0","58","58","58","58","0","58","0","58","10/18/21 09:26:36","The main experiment item","yes","SternburgTask.osexp","C:/Users/borna.000/Documents/PSYC/PSYC5316/Sternburg","no","mono","no","18","no","white","no","yes","768","legacy","46","11","C:/Users/borna.000/Documents/PSYC/PSYC5316/Sternburg/DH-subject-4.csv","legacy","5 2 6","Lentiform Loewenfeld","3.3.9","2","y","0","left","right","enter","left","NA","466","5759","34543","466","NA","2","legacy","3","1024","2","48000","-16","experiment","4","even","2","112477","394767","2448","118236","395838","266783","2452","398040","400041","400508","396839","36996","400041","NA","395836","Sternburg Task","55","43737","59","yes","1024"
"93.3333333333","93.3333333333","744.366666667","744.366666667","black","experiment","legacy","legacy","legacy","0","uniform","1","undefined","1","right","0","59","0","0","59","59","0","59","59","59","59","0","59","0","59","10/18/21 09:26:36","The main experiment item","yes","SternburgTask.osexp","C:/Users/borna.000/Documents/PSYC/PSYC5316/Sternburg","no","mono","no","18","no","white","no","yes","768","legacy","47","11","C:/Users/borna.000/Documents/PSYC/PSYC5316/Sternburg/DH-subject-4.csv","legacy","7 3 2 8","Lentiform Loewenfeld","3.3.9","0","n","0","right","right","enter","right","NA","925","5759","34543","925","NA","2","legacy","4","1024","2","48000","-16","experiment","4","even","4","112477","400516","2448","118236","401588","266783","2452","403790","405791","406717","402589","36996","405791","NA","401586","Sternburg Task","56","44662","60","yes","1024"
"93.4426229508","93.4426229508","742.229508197","742.229508197","black","experiment","legacy","legacy","legacy","0","uniform","1","undefined","1","left","0","60","0","0","60","60","0","60","60","60","60","0","60","0","60","10/18/21 09:26:36","The main experiment item","yes","SternburgTask.osexp","C:/Users/borna.000/Documents/PSYC/PSYC5316/Sternburg","no","mono","no","18","no","white","no","yes","768","legacy","48","11","C:/Users/borna.000/Documents/PSYC/PSYC5316/Sternburg/DH-subject-4.csv","legacy","4 9 7 8 5 3","Lentiform Loewenfeld","3.3.9","4","y","0","left","right","enter","left","NA","614","5759","34543","614","NA","2","legacy","6","1024","2","48000","-16","experiment","4","even","8","112477","406725","2448","118236","407797","266783","2452","409999","412000","412615","408798","36996","412000","NA","407795","Sternburg Task","57","45276","61","yes","1024"
"93.5483870968","93.5483870968","741.14516129","741.14516129","black","experiment","legacy","legacy","legacy","0","uniform","1","undefined","1","left","0","61","0","0","61","61","0","61","61","61","61","0","61","0","61","10/18/21 09:26:36","The main experiment item","yes","SternburgTask.osexp","C:/Users/borna.000/Documents/PSYC/PSYC5316/Sternburg","no","mono","no","18","no","white","no","yes","768","legacy","49","11","C:/Users/borna.000/Documents/PSYC/PSYC5316/Sternburg/DH-subject-4.csv","legacy","6 7 9 3 1 2","Lentiform Loewenfeld","3.3.9","1","y","0","left","right","enter","left","NA","675","5759","34543","675","NA","2","legacy","6","1024","2","48000","-16","experiment","4","even","6","112477","412618","2448","118236","413690","266783","2452","415892","417893","418569","414691","36996","417893","NA","413688","Sternburg Task","58","45951","62","yes","1024"
"93.6507936508","93.6507936508","738.365079365","738.365079365","black","experiment","legacy","legacy","legacy","0","uniform","1","undefined","1","left","0","62","0","0","62","62","0","62","62","62","62","0","62","0","62","10/18/21 09:26:36","The main experiment item","yes","SternburgTask.osexp","C:/Users/borna.000/Documents/PSYC/PSYC5316/Sternburg","no","mono","no","18","no","white","no","yes","768","legacy","50","11","C:/Users/borna.000/Documents/PSYC/PSYC5316/Sternburg/DH-subject-4.csv","legacy","2 4 6 9","Lentiform Loewenfeld","3.3.9","3","y","0","left","right","enter","left","NA","566","5759","34543","566","NA","2","legacy","4","1024","2","48000","-16","experiment","4","even","6","112477","418577","2448","118236","419650","266783","2452","421852","423853","424420","420651","36996","423853","NA","419648","Sternburg Task","59","46517","63","yes","1024"
"93.75","93.75","739.5625","739.5625","black","experiment","legacy","legacy","legacy","0","uniform","1","undefined","1","left","0","63","0","0","63","63","0","63","63","63","63","0","63","0","63","10/18/21 09:26:36","The main experiment item","yes","SternburgTask.osexp","C:/Users/borna.000/Documents/PSYC/PSYC5316/Sternburg","no","mono","no","18","no","white","no","yes","768","legacy","51","11","C:/Users/borna.000/Documents/PSYC/PSYC5316/Sternburg/DH-subject-4.csv","legacy","9 3 8 2 1 4","Lentiform Loewenfeld","3.3.9","3","y","0","left","right","enter","left","NA","815","5759","34543","815","NA","2","legacy","6","1024","2","48000","-16","experiment","4","even","8","112477","424428","2448","118236","425501","266783","2452","427703","429704","430520","426502","36996","429704","NA","425499","Sternburg Task","60","47332","64","yes","1024"
"93.8461538462","93.8461538462","742.769230769","742.769230769","black","experiment","legacy","legacy","legacy","0","uniform","1","undefined","1","right","0","64","0","0","64","64","0","64","64","64","64","0","64","0","64","10/18/21 09:26:36","The main experiment item","yes","SternburgTask.osexp","C:/Users/borna.000/Documents/PSYC/PSYC5316/Sternburg","no","mono","no","18","no","white","no","yes","768","legacy","52","11","C:/Users/borna.000/Documents/PSYC/PSYC5316/Sternburg/DH-subject-4.csv","legacy","8 6 3 4 7","Lentiform Loewenfeld","3.3.9","0","n","0","right","right","enter","right","NA","948","5759","34543","948","NA","2","legacy","5","1024","2","48000","-16","experiment","4","even","1","112477","430528","2448","118236","431600","266783","2452","433801","435802","436750","432601","36996","435802","NA","431598","Sternburg Task","61","48280","65","yes","1024"
"93.9393939394","93.9393939394","739.818181818","739.818181818","black","experiment","legacy","legacy","legacy","0","uniform","1","undefined","1","left","0","65","0","0","65","65","0","65","65","65","65","0","65","0","65","10/18/21 09:26:36","The main experiment item","yes","SternburgTask.osexp","C:/Users/borna.000/Documents/PSYC/PSYC5316/Sternburg","no","mono","no","18","no","white","no","yes","768","legacy","53","11","C:/Users/borna.000/Documents/PSYC/PSYC5316/Sternburg/DH-subject-4.csv","legacy","8","Lentiform Loewenfeld","3.3.9","1","y","0","left","right","enter","left","NA","548","5759","34543","548","NA","2","legacy","1","1024","2","48000","-16","experiment","4","even","8","112477","436759","2448","118236","437834","266783","2452","440036","442037","442586","438835","36996","442037","NA","437832","Sternburg Task","62","48828","66","yes","1024"
"94.0298507463","94.0298507463","740.119402985","740.119402985","black","experiment","legacy","legacy","legacy","0","uniform","1","undefined","1","left","0","66","0","0","66","66","0","66","66","66","66","0","66","0","66","10/18/21 09:26:36","The main experiment item","yes","SternburgTask.osexp","C:/Users/borna.000/Documents/PSYC/PSYC5316/Sternburg","no","mono","no","18","no","white","no","yes","768","legacy","54","11","C:/Users/borna.000/Documents/PSYC/PSYC5316/Sternburg/DH-subject-4.csv","legacy","9 6 2 4 1","Lentiform Loewenfeld","3.3.9","4","y","0","left","right","enter","left","NA","760","5759","34543","760","NA","2","legacy","5","1024","2","48000","-16","experiment","4","even","4","112477","442594","2448","118236","443667","266783","2452","445869","447870","448631","444668","36996","447870","NA","443665","Sternburg Task","63","49588","67","yes","1024"
"94.1176470588","94.1176470588","739.647058824","739.647058824","black","experiment","legacy","legacy","legacy","0","uniform","1","undefined","1","left","0","67","0","0","67","67","0","67","67","67","67","0","67","0","67","10/18/21 09:26:36","The main experiment item","yes","SternburgTask.osexp","C:/Users/borna.000/Documents/PSYC/PSYC5316/Sternburg","no","mono","no","18","no","white","no","yes","768","legacy","55","11","C:/Users/borna.000/Documents/PSYC/PSYC5316/Sternburg/DH-subject-4.csv","legacy","3 5 9 6 2 4","Lentiform Loewenfeld","3.3.9","1","y","0","left","right","enter","left","NA","708","5759","34543","708","NA","2","legacy","6","1024","2","48000","-16","experiment","4","even","3","112477","448641","2448","118236","449711","266783","2452","451913","453914","454623","450712","36996","453914","NA","449710","Sternburg Task","64","50296","68","yes","1024"
"94.2028985507","94.2028985507","736.84057971","736.84057971","black","experiment","legacy","legacy","legacy","0","uniform","1","undefined","1","left","0","68","0","0","68","68","0","68","68","68","68","0","68","0","68","10/18/21 09:26:36","The main experiment item","yes","SternburgTask.osexp","C:/Users/borna.000/Documents/PSYC/PSYC5316/Sternburg","no","mono","no","18","no","white","no","yes","768","legacy","56","11","C:/Users/borna.000/Documents/PSYC/PSYC5316/Sternburg/DH-subject-4.csv","legacy","2 5 4 8 7","Lentiform Loewenfeld","3.3.9","3","y","0","left","right","enter","left","NA","546","5759","34543","546","NA","2","legacy","5","1024","2","48000","-16","experiment","4","even","4","112477","454631","2448","118236","455702","266783","2452","457904","459905","460452","456703","36996","459905","NA","455701","Sternburg Task","65","50842","69","yes","1024"
"94.2857142857","94.2857142857","734.342857143","734.342857143","black","experiment","legacy","legacy","legacy","0","uniform","1","undefined","1","right","0","69","0","0","69","69","0","69","69","69","69","0","69","0","69","10/18/21 09:26:36","The main experiment item","yes","SternburgTask.osexp","C:/Users/borna.000/Documents/PSYC/PSYC5316/Sternburg","no","mono","no","18","no","white","no","yes","768","legacy","57","11","C:/Users/borna.000/Documents/PSYC/PSYC5316/Sternburg/DH-subject-4.csv","legacy","1","Lentiform Loewenfeld","3.3.9","0","n","0","right","right","enter","right","NA","562","5759","34543","562","NA","2","legacy","1","1024","2","48000","-16","experiment","4","even","7","112477","460461","2448","118236","461533","266783","2452","463735","465736","466299","462534","36996","465736","NA","461530","Sternburg Task","66","51404","70","yes","1024"
"94.3661971831","94.3661971831","731.718309859","731.718309859","black","experiment","legacy","legacy","legacy","0","uniform","1","undefined","1","left","0","70","0","0","70","70","0","70","70","70","70","0","70","0","70","10/18/21 09:26:36","The main experiment item","yes","SternburgTask.osexp","C:/Users/borna.000/Documents/PSYC/PSYC5316/Sternburg","no","mono","no","18","no","white","no","yes","768","legacy","58","11","C:/Users/borna.000/Documents/PSYC/PSYC5316/Sternburg/DH-subject-4.csv","legacy","6 5","Lentiform Loewenfeld","3.3.9","2","y","0","left","right","enter","left","NA","548","5759","34543","548","NA","2","legacy","2","1024","2","48000","-16","experiment","4","even","5","112477","466308","2448","118236","467380","266783","2452","469582","471583","472132","468381","36996","471583","NA","467378","Sternburg Task","67","51952","71","yes","1024"
"94.4444444444","94.4444444444","732.652777778","732.652777778","black","experiment","legacy","legacy","legacy","0","uniform","1","undefined","1","left","0","71","0","0","71","71","0","71","71","71","71","0","71","0","71","10/18/21 09:26:36","The main experiment item","yes","SternburgTask.osexp","C:/Users/borna.000/Documents/PSYC/PSYC5316/Sternburg","no","mono","no","18","no","white","no","yes","768","legacy","59","11","C:/Users/borna.000/Documents/PSYC/PSYC5316/Sternburg/DH-subject-4.csv","legacy","7 2 3","Lentiform Loewenfeld","3.3.9","3","y","0","left","right","enter","left","NA","799","5759","34543","799","NA","2","legacy","3","1024","2","48000","-16","experiment","4","even","3","112477","472140","2448","118236","473212","266783","2452","475414","477415","478214","474213","36996","477415","NA","473210","Sternburg Task","68","52751","72","yes","1024"
"94.5205479452","94.5205479452","736.301369863","736.301369863","black","experiment","legacy","legacy","legacy","0","uniform","1","undefined","1","left","0","72","0","0","72","72","0","72","72","72","72","0","72","0","72","10/18/21 09:26:36","The main experiment item","yes","SternburgTask.osexp","C:/Users/borna.000/Documents/PSYC/PSYC5316/Sternburg","no","mono","no","18","no","white","no","yes","768","legacy","60","11","C:/Users/borna.000/Documents/PSYC/PSYC5316/Sternburg/DH-subject-4.csv","legacy","9 3 1 2 5","Lentiform Loewenfeld","3.3.9","4","y","0","left","right","enter","left","NA","999","5759","34543","999","NA","2","legacy","5","1024","2","48000","-16","experiment","4","even","2","112477","478222","2448","118236","479295","266783","2452","481497","483498","484498","480296","36996","483498","NA","479293","Sternburg Task","69","53750","73","yes","1024"
"94.5945945946","94.5945945946","742.959459459","742.959459459","black","experiment","legacy","legacy","legacy","0","uniform","1","undefined","1","right","0","73","0","0","73","73","0","73","73","73","73","0","73","0","73","10/18/21 09:26:36","The main experiment item","yes","SternburgTask.osexp","C:/Users/borna.000/Documents/PSYC/PSYC5316/Sternburg","no","mono","no","18","no","white","no","yes","768","legacy","61","11","C:/Users/borna.000/Documents/PSYC/PSYC5316/Sternburg/DH-subject-4.csv","legacy","8 2 1 4 5 9","Lentiform Loewenfeld","3.3.9","0","n","0","right","right","enter","right","NA","1229","5759","34543","1229","NA","2","legacy","6","1024","2","48000","-16","experiment","4","even","7","112477","484506","2448","118236","485579","266783","2452","487781","489782","491012","486580","36996","489782","NA","485577","Sternburg Task","70","54979","74","yes","1024"
"94.6666666667","94.6666666667","741.533333333","741.533333333","black","experiment","legacy","legacy","legacy","0","uniform","1","undefined","1","right","0","74","0","0","74","74","0","74","74","74","74","0","74","0","74","10/18/21 09:26:36","The main experiment item","yes","SternburgTask.osexp","C:/Users/borna.000/Documents/PSYC/PSYC5316/Sternburg","no","mono","no","18","no","white","no","yes","768","legacy","62","11","C:/Users/borna.000/Documents/PSYC/PSYC5316/Sternburg/DH-subject-4.csv","legacy","4 1","Lentiform Loewenfeld","3.3.9","0","n","0","right","right","enter","right","NA","636","5759","34543","636","NA","2","legacy","2","1024","2","48000","-16","experiment","4","even","6","112477","491020","2448","118236","492090","266783","2452","494292","496293","496930","493091","36996","496293","NA","492089","Sternburg Task","71","55615","75","yes","1024"
"93.4210526316","93.4210526316","742.131578947","742.131578947","black","experiment","legacy","legacy","legacy","0","uniform","0","undefined","0","left","0","75","0","0","75","75","0","75","75","75","75","0","75","0","75","10/18/21 09:26:36","The main experiment item","yes","SternburgTask.osexp","C:/Users/borna.000/Documents/PSYC/PSYC5316/Sternburg","no","mono","no","18","no","white","no","yes","768","legacy","63","11","C:/Users/borna.000/Documents/PSYC/PSYC5316/Sternburg/DH-subject-4.csv","legacy","8 5 1 3 9","Lentiform Loewenfeld","3.3.9","4","y","0","right","right","enter","right","NA","787","5759","34543","787","NA","2","legacy","5","1024","2","48000","-16","experiment","4","even","3","112477","496938","2448","118236","498011","266783","2452","500214","502215","503002","499013","36996","502215","NA","498010","Sternburg Task","71","56402","76","yes","1024"
"92.2077922078","92.2077922078","749.25974026","749.25974026","black","experiment","legacy","legacy","legacy","0","uniform","0","undefined","0","right","0","76","0","0","76","76","0","76","76","76","76","0","76","0","76","10/18/21 09:26:36","The main experiment item","yes","SternburgTask.osexp","C:/Users/borna.000/Documents/PSYC/PSYC5316/Sternburg","no","mono","no","18","no","white","no","yes","768","legacy","64","11","C:/Users/borna.000/Documents/PSYC/PSYC5316/Sternburg/DH-subject-4.csv","legacy","5 9 2 3","Lentiform Loewenfeld","3.3.9","0","n","0","left","right","enter","left","NA","1291","5759","34543","1291","NA","2","legacy","4","1024","2","48000","-16","experiment","4","even","8","112477","496938","2448","118236","504083","503011","2452","506285","508286","509578","505084","36996","508286","NA","504082","Sternburg Task","71","57693","77","yes","1024"
"92.3076923077","92.3076923077","752.679487179","752.679487179","black","experiment","legacy","legacy","legacy","0","uniform","1","undefined","1","left","0","77","0","0","77","77","0","77","77","77","77","0","77","0","77","10/18/21 09:26:36","The main experiment item","yes","SternburgTask.osexp","C:/Users/borna.000/Documents/PSYC/PSYC5316/Sternburg","no","mono","no","18","no","white","no","yes","768","legacy","65","11","C:/Users/borna.000/Documents/PSYC/PSYC5316/Sternburg/DH-subject-4.csv","legacy","7 4 2 6 3 5","Lentiform Loewenfeld","3.3.9","6","y","0","left","right","enter","left","NA","1016","5759","34543","1016","NA","2","legacy","6","1024","2","48000","-16","experiment","4","even","5","112477","496938","2448","118236","510658","509586","2452","512860","514861","515878","511659","36996","514861","NA","510656","Sternburg Task","72","58709","78","yes","1024"
"92.4050632911","92.4050632911","753.316455696","753.316455696","black","experiment","legacy","legacy","legacy","0","uniform","1","undefined","1","right","0","78","0","0","78","78","0","78","78","78","78","0","78","0","78","10/18/21 09:26:36","The main experiment item","yes","SternburgTask.osexp","C:/Users/borna.000/Documents/PSYC/PSYC5316/Sternburg","no","mono","no","18","no","white","no","yes","768","legacy","66","11","C:/Users/borna.000/Documents/PSYC/PSYC5316/Sternburg/DH-subject-4.csv","legacy","5","Lentiform Loewenfeld","3.3.9","0","n","0","right","right","enter","right","NA","803","5759","34543","803","NA","2","legacy","1","1024","2","48000","-16","experiment","4","even","8","112477","515886","2448","118236","516960","509586","2452","519162","521163","521968","517961","36996","521163","NA","516958","Sternburg Task","73","59512","79","yes","1024"
"92.5","92.5","755.4875","755.4875","black","experiment","legacy","legacy","legacy","0","uniform","1","undefined","1","right","0","79","0","0","79","79","0","79","79","79","79","0","79","0","79","10/18/21 09:26:36","The main experiment item","yes","SternburgTask.osexp","C:/Users/borna.000/Documents/PSYC/PSYC5316/Sternburg","no","mono","no","18","no","white","no","yes","768","legacy","67","11","C:/Users/borna.000/Documents/PSYC/PSYC5316/Sternburg/DH-subject-4.csv","legacy","6 8","Lentiform Loewenfeld","3.3.9","0","n","0","right","right","enter","right","NA","927","5759","34543","927","NA","2","legacy","2","1024","2","48000","-16","experiment","4","even","9","112477","521977","2448","118236","523058","509586","2452","525260","527261","528189","524059","36996","527261","NA","523056","Sternburg Task","74","60439","80","yes","1024"
"92.5925925926","92.5925925926","751.419753086","751.419753086","black","experiment","legacy","legacy","legacy","0","uniform","1","undefined","1","left","0","80","0","0","80","80","0","80","80","80","80","0","80","0","80","10/18/21 09:26:36","The main experiment item","yes","SternburgTask.osexp","C:/Users/borna.000/Documents/PSYC/PSYC5316/Sternburg","no","mono","no","18","no","white","no","yes","768","legacy","68","11","C:/Users/borna.000/Documents/PSYC/PSYC5316/Sternburg/DH-subject-4.csv","legacy","7","Lentiform Loewenfeld","3.3.9","1","y","0","left","right","enter","left","NA","426","5759","34543","426","NA","2","legacy","1","1024","2","48000","-16","experiment","4","even","7","112477","528197","2448","118236","529267","509586","2452","531469","533470","533897","530268","36996","533470","NA","529265","Sternburg Task","75","60865","81","yes","1024"
"92.6829268293","92.6829268293","755.402439024","755.402439024","black","experiment","legacy","legacy","legacy","0","uniform","1","undefined","1","right","0","81","0","0","81","81","0","81","81","81","81","0","81","0","81","10/18/21 09:26:36","The main experiment item","yes","SternburgTask.osexp","C:/Users/borna.000/Documents/PSYC/PSYC5316/Sternburg","no","mono","no","18","no","white","no","yes","768","legacy","69","11","C:/Users/borna.000/Documents/PSYC/PSYC5316/Sternburg/DH-subject-4.csv","legacy","7 6 4 8 1 2","Lentiform Loewenfeld","3.3.9","0","n","0","right","right","enter","right","NA","1078","5759","34543","1078","NA","2","legacy","6","1024","2","48000","-16","experiment","4","even","9","112477","533906","2448","118236","534979","509586","2452","537181","539182","540260","535980","36996","539182","NA","534977","Sternburg Task","76","61943","82","yes","1024"
"92.7710843373","92.7710843373","758.024096386","758.024096386","black","experiment","legacy","legacy","legacy","0","uniform","1","undefined","1","right","0","82","0","0","82","82","0","82","82","82","82","0","82","0","82","10/18/21 09:26:36","The main experiment item","yes","SternburgTask.osexp","C:/Users/borna.000/Documents/PSYC/PSYC5316/Sternburg","no","mono","no","18","no","white","no","yes","768","legacy","70","11","C:/Users/borna.000/Documents/PSYC/PSYC5316/Sternburg/DH-subject-4.csv","legacy","9 8 2 7 4","Lentiform Loewenfeld","3.3.9","0","n","0","right","right","enter","right","NA","973","5759","34543","973","NA","2","legacy","5","1024","2","48000","-16","experiment","4","even","5","112477","540269","2448","118236","541339","509586","2452","543541","545542","546516","542340","36996","545542","NA","541338","Sternburg Task","77","62916","83","yes","1024"
"92.8571428571","92.8571428571","760.357142857","760.357142857","black","experiment","legacy","legacy","legacy","0","uniform","1","undefined","1","right","0","83","0","0","83","83","0","83","83","83","83","0","83","0","83","10/18/21 09:26:36","The main experiment item","yes","SternburgTask.osexp","C:/Users/borna.000/Documents/PSYC/PSYC5316/Sternburg","no","mono","no","18","no","white","no","yes","768","legacy","71","11","C:/Users/borna.000/Documents/PSYC/PSYC5316/Sternburg/DH-subject-4.csv","legacy","7 1 5 6 3","Lentiform Loewenfeld","3.3.9","0","n","0","right","right","enter","right","NA","954","5759","34543","954","NA","2","legacy","5","1024","2","48000","-16","experiment","4","even","8","112477","546524","2448","118236","547598","509586","2452","549800","551801","552756","548599","36996","551801","NA","547596","Sternburg Task","78","63870","84","yes","1024"
"92.9411764706","92.9411764706","762.823529412","762.823529412","black","experiment","legacy","legacy","legacy","0","uniform","1","undefined","1","right","0","84","0","0","84","84","0","84","84","84","84","0","84","0","84","10/18/21 09:26:36","The main experiment item","yes","SternburgTask.osexp","C:/Users/borna.000/Documents/PSYC/PSYC5316/Sternburg","no","mono","no","18","no","white","no","yes","768","legacy","72","11","C:/Users/borna.000/Documents/PSYC/PSYC5316/Sternburg/DH-subject-4.csv","legacy","2 8 6 3 1","Lentiform Loewenfeld","3.3.9","0","n","0","right","right","enter","right","NA","970","5759","34543","970","NA","2","legacy","5","1024","2","48000","-16","experiment","4","even","7","112477","552764","2448","118236","553836","509586","2452","556038","558039","559010","554837","36996","558039","NA","553834","Sternburg Task","79","64840","85","yes","1024"
"93.023255814","93.023255814","764.348837209","764.348837209","black","experiment","legacy","legacy","legacy","0","uniform","1","undefined","1","right","0","85","0","0","85","85","0","85","85","85","85","0","85","0","85","10/18/21 09:26:36","The main experiment item","yes","SternburgTask.osexp","C:/Users/borna.000/Documents/PSYC/PSYC5316/Sternburg","no","mono","no","18","no","white","no","yes","768","legacy","73","11","C:/Users/borna.000/Documents/PSYC/PSYC5316/Sternburg/DH-subject-4.csv","legacy","2 3 8 5 6 7","Lentiform Loewenfeld","3.3.9","0","n","0","right","right","enter","right","NA","894","5759","34543","894","NA","2","legacy","6","1024","2","48000","-16","experiment","4","even","1","112477","559018","2448","118236","560090","509586","2452","562292","564293","565188","561091","36996","564293","NA","560088","Sternburg Task","80","65734","86","yes","1024"
"93.1034482759","93.1034482759","761.229885057","761.229885057","black","experiment","legacy","legacy","legacy","0","uniform","1","undefined","1","left","0","86","0","0","86","86","0","86","86","86","86","0","86","0","86","10/18/21 09:26:36","The main experiment item","yes","SternburgTask.osexp","C:/Users/borna.000/Documents/PSYC/PSYC5316/Sternburg","no","mono","no","18","no","white","no","yes","768","legacy","74","11","C:/Users/borna.000/Documents/PSYC/PSYC5316/Sternburg/DH-subject-4.csv","legacy","7 1 3","Lentiform Loewenfeld","3.3.9","2","y","0","left","right","enter","left","NA","493","5759","34543","493","NA","2","legacy","3","1024","2","48000","-16","experiment","4","even","1","112477","565196","2448","118236","566270","509586","2452","568472","570473","570966","567271","36996","570473","NA","566268","Sternburg Task","81","66227","87","yes","1024"
"93.1818181818","93.1818181818","762.784090909","762.784090909","black","experiment","legacy","legacy","legacy","0","uniform","1","undefined","1","right","0","87","0","0","87","87","0","87","87","87","87","0","87","0","87","10/18/21 09:26:36","The main experiment item","yes","SternburgTask.osexp","C:/Users/borna.000/Documents/PSYC/PSYC5316/Sternburg","no","mono","no","18","no","white","no","yes","768","legacy","75","11","C:/Users/borna.000/Documents/PSYC/PSYC5316/Sternburg/DH-subject-4.csv","legacy","7 4 2 8 1 9","Lentiform Loewenfeld","3.3.9","0","n","0","right","right","enter","right","NA","898","5759","34543","898","NA","2","legacy","6","1024","2","48000","-16","experiment","4","even","5","112477","570975","2448","118236","572050","509586","2452","574252","576253","577152","573051","36996","576253","NA","572048","Sternburg Task","82","67125","88","yes","1024"
"93.2584269663","93.2584269663","763.314606742","763.314606742","black","experiment","legacy","legacy","legacy","0","uniform","1","undefined","1","right","0","88","0","0","88","88","0","88","88","88","88","0","88","0","88","10/18/21 09:26:36","The main experiment item","yes","SternburgTask.osexp","C:/Users/borna.000/Documents/PSYC/PSYC5316/Sternburg","no","mono","no","18","no","white","no","yes","768","legacy","76","11","C:/Users/borna.000/Documents/PSYC/PSYC5316/Sternburg/DH-subject-4.csv","legacy","8 9","Lentiform Loewenfeld","3.3.9","0","n","0","right","right","enter","right","NA","810","5759","34543","810","NA","2","legacy","2","1024","2","48000","-16","experiment","4","even","5","112477","577160","2448","118236","578230","509586","2452","580433","582434","583245","579231","36996","582434","NA","578228","Sternburg Task","83","67935","89","yes","1024"
"93.3333333333","93.3333333333","764.7","764.7","black","experiment","legacy","legacy","legacy","0","uniform","1","undefined","1","left","0","89","0","0","89","89","0","89","89","89","89","0","89","0","89","10/18/21 09:26:36","The main experiment item","yes","SternburgTask.osexp","C:/Users/borna.000/Documents/PSYC/PSYC5316/Sternburg","no","mono","no","18","no","white","no","yes","768","legacy","77","11","C:/Users/borna.000/Documents/PSYC/PSYC5316/Sternburg/DH-subject-4.csv","legacy","2 3","Lentiform Loewenfeld","3.3.9","1","y","0","left","right","enter","left","NA","888","5759","34543","888","NA","2","legacy","2","1024","2","48000","-16","experiment","4","even","2","112477","583253","2448","118236","584325","509586","2452","586527","588528","589417","585326","36996","588528","NA","584323","Sternburg Task","84","68823","90","yes","1024"
"93.4065934066","93.4065934066","769.010989011","769.010989011","black","experiment","legacy","legacy","legacy","0","uniform","1","undefined","1","left","0","90","0","0","90","90","0","90","90","90","90","0","90","0","90","10/18/21 09:26:36","The main experiment item","yes","SternburgTask.osexp","C:/Users/borna.000/Documents/PSYC/PSYC5316/Sternburg","no","mono","no","18","no","white","no","yes","768","legacy","78","11","C:/Users/borna.000/Documents/PSYC/PSYC5316/Sternburg/DH-subject-4.csv","legacy","3 2 1 4 7","Lentiform Loewenfeld","3.3.9","2","y","0","left","right","enter","left","NA","1157","5759","34543","1157","NA","2","legacy","5","1024","2","48000","-16","experiment","4","even","2","112477","589426","2448","118236","590496","509586","2452","592699","594700","595858","591498","36996","594700","NA","590495","Sternburg Task","85","69980","91","yes","1024"
"93.4782608696","93.4782608696","767.75","767.75","black","experiment","legacy","legacy","legacy","0","uniform","1","undefined","1","left","0","91","0","0","91","91","0","91","91","91","91","0","91","0","91","10/18/21 09:26:36","The main experiment item","yes","SternburgTask.osexp","C:/Users/borna.000/Documents/PSYC/PSYC5316/Sternburg","no","mono","no","18","no","white","no","yes","768","legacy","79","11","C:/Users/borna.000/Documents/PSYC/PSYC5316/Sternburg/DH-subject-4.csv","legacy","6 2","Lentiform Loewenfeld","3.3.9","1","y","0","left","right","enter","left","NA","653","5759","34543","653","NA","2","legacy","2","1024","2","48000","-16","experiment","4","even","6","112477","595866","2448","118236","596941","509586","2452","599144","601146","601800","597943","36996","601146","NA","596940","Sternburg Task","86","70633","92","yes","1024"
"93.5483870968","93.5483870968","770.935483871","770.935483871","black","experiment","legacy","legacy","legacy","0","uniform","1","undefined","1","right","0","92","0","0","92","92","0","92","92","92","92","0","92","0","92","10/18/21 09:26:36","The main experiment item","yes","SternburgTask.osexp","C:/Users/borna.000/Documents/PSYC/PSYC5316/Sternburg","no","mono","no","18","no","white","no","yes","768","legacy","80","11","C:/Users/borna.000/Documents/PSYC/PSYC5316/Sternburg/DH-subject-4.csv","legacy","7 1 8 4 9 3","Lentiform Loewenfeld","3.3.9","0","n","0","right","right","enter","right","NA","1064","5759","34543","1064","NA","2","legacy","6","1024","2","48000","-16","experiment","4","even","6","112477","601808","2448","118236","602880","509586","2452","605082","607083","608148","603881","36996","607083","NA","602878","Sternburg Task","87","71697","93","yes","1024"
"93.6170212766","93.6170212766","777.627659574","777.627659574","black","experiment","legacy","legacy","legacy","0","uniform","1","undefined","1","right","0","93","0","0","93","93","0","93","93","93","93","0","93","0","93","10/18/21 09:26:36","The main experiment item","yes","SternburgTask.osexp","C:/Users/borna.000/Documents/PSYC/PSYC5316/Sternburg","no","mono","no","18","no","white","no","yes","768","legacy","81","11","C:/Users/borna.000/Documents/PSYC/PSYC5316/Sternburg/DH-subject-4.csv","legacy","9 7 4 5 8","Lentiform Loewenfeld","3.3.9","0","n","0","right","right","enter","right","NA","1400","5759","34543","1400","NA","2","legacy","5","1024","2","48000","-16","experiment","4","even","6","112477","608158","2448","118236","609230","509586","2452","611432","613433","614834","610231","36996","613433","NA","609228","Sternburg Task","88","73097","94","yes","1024"
"93.6842105263","93.6842105263","781.652631579","781.652631579","black","experiment","legacy","legacy","legacy","0","uniform","1","undefined","1","right","0","94","0","0","94","94","0","94","94","94","94","0","94","0","94","10/18/21 09:26:36","The main experiment item","yes","SternburgTask.osexp","C:/Users/borna.000/Documents/PSYC/PSYC5316/Sternburg","no","mono","no","18","no","white","no","yes","768","legacy","82","11","C:/Users/borna.000/Documents/PSYC/PSYC5316/Sternburg/DH-subject-4.csv","legacy","6 8 4","Lentiform Loewenfeld","3.3.9","0","n","0","right","right","enter","right","NA","1160","5759","34543","1160","NA","2","legacy","3","1024","2","48000","-16","experiment","4","even","1","112477","614842","2448","118236","615916","509586","2452","618118","620119","621280","616917","36996","620119","NA","615914","Sternburg Task","89","74257","95","yes","1024"
"93.75","93.75","786.666666667","786.666666667","black","experiment","legacy","legacy","legacy","0","uniform","1","undefined","1","right","0","95","0","0","95","95","0","95","95","95","95","0","95","0","95","10/18/21 09:26:36","The main experiment item","yes","SternburgTask.osexp","C:/Users/borna.000/Documents/PSYC/PSYC5316/Sternburg","no","mono","no","18","no","white","no","yes","768","legacy","83","11","C:/Users/borna.000/Documents/PSYC/PSYC5316/Sternburg/DH-subject-4.csv","legacy","1 5 3 2 8","Lentiform Loewenfeld","3.3.9","0","n","0","right","right","enter","right","NA","1263","5759","34543","1263","NA","2","legacy","5","1024","2","48000","-16","experiment","4","even","4","112477","621289","2448","118236","622363","509586","2452","624565","626566","627830","623364","36996","626566","NA","622361","Sternburg Task","90","75520","96","yes","1024"
"93.8144329897","93.8144329897","787.721649485","787.721649485","black","experiment","legacy","legacy","legacy","0","uniform","1","undefined","1","left","0","96","0","0","96","96","0","96","96","96","96","0","96","0","96","10/18/21 09:26:36","The main experiment item","yes","SternburgTask.osexp","C:/Users/borna.000/Documents/PSYC/PSYC5316/Sternburg","no","mono","no","18","no","white","no","yes","768","legacy","84","11","C:/Users/borna.000/Documents/PSYC/PSYC5316/Sternburg/DH-subject-4.csv","legacy","9 1 7 2","Lentiform Loewenfeld","3.3.9","2","y","0","left","right","enter","left","NA","889","5759","34543","889","NA","2","legacy","4","1024","2","48000","-16","experiment","4","even","1","112477","627838","2448","118236","628911","509586","2452","631112","633113","634003","629912","36996","633113","NA","628909","Sternburg Task","91","76409","97","yes","1024"
"93.8775510204","93.8775510204","788.959183673","788.959183673","black","experiment","legacy","legacy","legacy","0","uniform","1","undefined","1","right","0","97","0","0","97","97","0","97","97","97","97","0","97","0","97","10/18/21 09:26:36","The main experiment item","yes","SternburgTask.osexp","C:/Users/borna.000/Documents/PSYC/PSYC5316/Sternburg","no","mono","no","18","no","white","no","yes","768","legacy","85","11","C:/Users/borna.000/Documents/PSYC/PSYC5316/Sternburg/DH-subject-4.csv","legacy","2 7 5","Lentiform Loewenfeld","3.3.9","0","n","0","right","right","enter","right","NA","909","5759","34543","909","NA","2","legacy","3","1024","2","48000","-16","experiment","4","even","8","112477","634011","2448","118236","635092","509586","2452","637294","639295","640205","636093","36996","639295","NA","635090","Sternburg Task","92","77318","98","yes","1024"
"93.9393939394","93.9393939394","788.797979798","788.797979798","black","experiment","legacy","legacy","legacy","0","uniform","1","undefined","1","left","0","98","0","0","98","98","0","98","98","98","98","0","98","0","98","10/18/21 09:26:36","The main experiment item","yes","SternburgTask.osexp","C:/Users/borna.000/Documents/PSYC/PSYC5316/Sternburg","no","mono","no","18","no","white","no","yes","768","legacy","86","11","C:/Users/borna.000/Documents/PSYC/PSYC5316/Sternburg/DH-subject-4.csv","legacy","3 5 7 1","Lentiform Loewenfeld","3.3.9","3","y","0","left","right","enter","left","NA","773","5759","34543","773","NA","2","legacy","4","1024","2","48000","-16","experiment","4","even","7","112477","640213","2448","118236","641285","509586","2452","643487","645488","646262","642286","36996","645488","NA","641283","Sternburg Task","93","78091","99","yes","1024"
"94","94","796.12","796.12","black","experiment","legacy","legacy","legacy","0","uniform","1","undefined","1","right","0","99","0","0","99","99","0","99","99","99","99","0","99","0","99","10/18/21 09:26:36","The main experiment item","yes","SternburgTask.osexp","C:/Users/borna.000/Documents/PSYC/PSYC5316/Sternburg","no","mono","no","18","no","white","no","yes","768","legacy","87","11","C:/Users/borna.000/Documents/PSYC/PSYC5316/Sternburg/DH-subject-4.csv","legacy","9 5 3 2 8 6","Lentiform Loewenfeld","3.3.9","0","n","0","right","right","enter","right","NA","1521","5759","34543","1521","NA","2","legacy","6","1024","2","48000","-16","experiment","4","even","7","112477","646271","2448","118236","647344","509586","2452","649546","651547","653069","648345","36996","651547","NA","647342","Sternburg Task","94","79612","100","yes","1024"
"94.0594059406","94.0594059406","797.514851485","797.514851485","black","experiment","legacy","legacy","legacy","0","uniform","1","undefined","1","right","0","100","0","0","100","100","0","100","100","100","100","0","100","0","100","10/18/21 09:26:36","The main experiment item","yes","SternburgTask.osexp","C:/Users/borna.000/Documents/PSYC/PSYC5316/Sternburg","no","mono","no","18","no","white","no","yes","768","legacy","88","11","C:/Users/borna.000/Documents/PSYC/PSYC5316/Sternburg/DH-subject-4.csv","legacy","6 3 1 7 9 8","Lentiform Loewenfeld","3.3.9","0","n","0","right","right","enter","right","NA","937","5759","34543","937","NA","2","legacy","6","1024","2","48000","-16","experiment","4","even","4","112477","653077","2448","118236","654150","509586","2452","656353","658354","659292","655152","36996","658354","NA","654148","Sternburg Task","95","80549","101","yes","1024"
"94.1176470588","94.1176470588","795.382352941","795.382352941","black","experiment","legacy","legacy","legacy","0","uniform","1","undefined","1","left","0","101","0","0","101","101","0","101","101","101","101","0","101","0","101","10/18/21 09:26:36","The main experiment item","yes","SternburgTask.osexp","C:/Users/borna.000/Documents/PSYC/PSYC5316/Sternburg","no","mono","no","18","no","white","no","yes","768","legacy","89","11","C:/Users/borna.000/Documents/PSYC/PSYC5316/Sternburg/DH-subject-4.csv","legacy","8 9 5 7 1 6","Lentiform Loewenfeld","3.3.9","4","y","0","left","right","enter","left","NA","580","5759","34543","580","NA","2","legacy","6","1024","2","48000","-16","experiment","4","even","7","112477","659300","2448","118236","660374","509586","2452","662576","664577","665158","661375","36996","664577","NA","660372","Sternburg Task","96","81129","102","yes","1024"
"94.1747572816","94.1747572816","796.485436893","796.485436893","black","experiment","legacy","legacy","legacy","0","uniform","1","undefined","1","right","0","102","0","0","102","102","0","102","102","102","102","0","102","0","102","10/18/21 09:26:36","The main experiment item","yes","SternburgTask.osexp","C:/Users/borna.000/Documents/PSYC/PSYC5316/Sternburg","no","mono","no","18","no","white","no","yes","768","legacy","90","11","C:/Users/borna.000/Documents/PSYC/PSYC5316/Sternburg/DH-subject-4.csv","legacy","7 9 1 6","Lentiform Loewenfeld","3.3.9","0","n","0","right","right","enter","right","NA","909","5759","34543","909","NA","2","legacy","4","1024","2","48000","-16","experiment","4","even","4","112477","665166","2448","118236","666238","509586","2452","668440","670441","671351","667239","36996","670441","NA","666236","Sternburg Task","97","82038","103","yes","1024"
"94.2307692308","94.2307692308","797.730769231","797.730769231","black","experiment","legacy","legacy","legacy","0","uniform","1","undefined","1","right","0","103","0","0","103","103","0","103","103","103","103","0","103","0","103","10/18/21 09:26:36","The main experiment item","yes","SternburgTask.osexp","C:/Users/borna.000/Documents/PSYC/PSYC5316/Sternburg","no","mono","no","18","no","white","no","yes","768","legacy","91","11","C:/Users/borna.000/Documents/PSYC/PSYC5316/Sternburg/DH-subject-4.csv","legacy","8 4 3 9","Lentiform Loewenfeld","3.3.9","0","n","0","right","right","enter","right","NA","926","5759","34543","926","NA","2","legacy","4","1024","2","48000","-16","experiment","4","even","5","112477","671360","2448","118236","672433","509586","2452","674635","676636","677562","673434","36996","676636","NA","672431","Sternburg Task","98","82964","104","yes","1024"
"93.3333333333","93.3333333333","801.228571429","801.228571429","black","experiment","legacy","legacy","legacy","0","uniform","0","undefined","0","left","0","104","0","0","104","104","0","104","104","104","104","0","104","0","104","10/18/21 09:26:36","The main experiment item","yes","SternburgTask.osexp","C:/Users/borna.000/Documents/PSYC/PSYC5316/Sternburg","no","mono","no","18","no","white","no","yes","768","legacy","92","11","C:/Users/borna.000/Documents/PSYC/PSYC5316/Sternburg/DH-subject-4.csv","legacy","7 1 8 5 6 2","Lentiform Loewenfeld","3.3.9","2","y","0","right","right","enter","right","NA","1165","5759","34543","1165","NA","2","legacy","6","1024","2","48000","-16","experiment","4","even","1","112477","677571","2448","118236","678644","509586","2452","680846","682847","684013","679646","36996","682847","NA","678642","Sternburg Task","98","84129","105","yes","1024"
"93.3962264151","93.3962264151","803.160377358","803.160377358","black","experiment","legacy","legacy","legacy","0","uniform","1","undefined","1","right","0","105","0","0","105","105","0","105","105","105","105","0","105","0","105","10/18/21 09:26:36","The main experiment item","yes","SternburgTask.osexp","C:/Users/borna.000/Documents/PSYC/PSYC5316/Sternburg","no","mono","no","18","no","white","no","yes","768","legacy","93","11","C:/Users/borna.000/Documents/PSYC/PSYC5316/Sternburg/DH-subject-4.csv","legacy","6 7 5 9","Lentiform Loewenfeld","3.3.9","0","n","0","right","right","enter","right","NA","1006","5759","34543","1006","NA","2","legacy","4","1024","2","48000","-16","experiment","4","even","2","112477","677571","2448","118236","685093","684021","2452","687295","689296","690304","686094","36996","689296","NA","685091","Sternburg Task","99","85135","106","yes","1024"
"93.4579439252","93.4579439252","805.46728972","805.46728972","black","experiment","legacy","legacy","legacy","0","uniform","1","undefined","1","left","0","106","0","0","106","106","0","106","106","106","106","0","106","0","106","10/18/21 09:26:36","The main experiment item","yes","SternburgTask.osexp","C:/Users/borna.000/Documents/PSYC/PSYC5316/Sternburg","no","mono","no","18","no","white","no","yes","768","legacy","94","11","C:/Users/borna.000/Documents/PSYC/PSYC5316/Sternburg/DH-subject-4.csv","legacy","4 1 5","Lentiform Loewenfeld","3.3.9","2","y","0","left","right","enter","left","NA","1050","5759","34543","1050","NA","2","legacy","3","1024","2","48000","-16","experiment","4","even","1","112477","690312","2448","118236","691384","684021","2452","693586","695587","696638","692385","36996","695587","NA","691382","Sternburg Task","100","86185","107","yes","1024"
"93.5185185185","93.5185185185","805.185185185","805.185185185","black","experiment","legacy","legacy","legacy","0","uniform","1","undefined","1","left","0","107","0","0","107","107","0","107","107","107","107","0","107","0","107","10/18/21 09:26:36","The main experiment item","yes","SternburgTask.osexp","C:/Users/borna.000/Documents/PSYC/PSYC5316/Sternburg","no","mono","no","18","no","white","no","yes","768","legacy","95","11","C:/Users/borna.000/Documents/PSYC/PSYC5316/Sternburg/DH-subject-4.csv","legacy","2 8 5 1","Lentiform Loewenfeld","3.3.9","4","y","0","left","right","enter","left","NA","775","5759","34543","775","NA","2","legacy","4","1024","2","48000","-16","experiment","4","even","1","112477","696647","2448","118236","697719","684021","2452","699921","701922","702698","698720","36996","701922","NA","697717","Sternburg Task","101","86960","108","yes","1024"
"93.5779816514","93.5779816514","808.082568807","808.082568807","black","experiment","legacy","legacy","legacy","0","uniform","1","undefined","1","right","0","108","0","0","108","108","0","108","108","108","108","0","108","0","108","10/18/21 09:26:36","The main experiment item","yes","SternburgTask.osexp","C:/Users/borna.000/Documents/PSYC/PSYC5316/Sternburg","no","mono","no","18","no","white","no","yes","768","legacy","96","11","C:/Users/borna.000/Documents/PSYC/PSYC5316/Sternburg/DH-subject-4.csv","legacy","4 2 6 9","Lentiform Loewenfeld","3.3.9","0","n","0","right","right","enter","right","NA","1121","5759","34543","1121","NA","2","legacy","4","1024","2","48000","-16","experiment","4","even","7","112477","702706","2448","118236","703779","684021","2452","705981","707982","709104","704780","36996","707982","NA","703777","Sternburg Task","102","88081","109","yes","1024"
"93.6363636364","93.6363636364","811.336363636","811.336363636","black","experiment","legacy","legacy","legacy","0","uniform","1","undefined","1","right","0","109","0","0","109","109","0","109","109","109","109","0","109","0","109","10/18/21 09:26:36","The main experiment item","yes","SternburgTask.osexp","C:/Users/borna.000/Documents/PSYC/PSYC5316/Sternburg","no","mono","no","18","no","white","no","yes","768","legacy","97","11","C:/Users/borna.000/Documents/PSYC/PSYC5316/Sternburg/DH-subject-4.csv","legacy","1 6 4","Lentiform Loewenfeld","3.3.9","0","n","0","right","right","enter","right","NA","1166","5759","34543","1166","NA","2","legacy","3","1024","2","48000","-16","experiment","4","even","7","112477","709113","2448","118236","710183","684021","2452","712386","714387","715554","711185","36996","714387","NA","710181","Sternburg Task","103","89247","110","yes","1024"
"93.6936936937","93.6936936937","815.396396396","815.396396396","black","experiment","legacy","legacy","legacy","0","uniform","1","undefined","1","left","0","110","0","0","110","110","0","110","110","110","110","0","110","0","110","10/18/21 09:26:36","The main experiment item","yes","SternburgTask.osexp","C:/Users/borna.000/Documents/PSYC/PSYC5316/Sternburg","no","mono","no","18","no","white","no","yes","768","legacy","98","11","C:/Users/borna.000/Documents/PSYC/PSYC5316/Sternburg/DH-subject-4.csv","legacy","6 9 3 1","Lentiform Loewenfeld","3.3.9","4","y","0","left","right","enter","left","NA","1262","5759","34543","1262","NA","2","legacy","4","1024","2","48000","-16","experiment","4","even","1","112477","715562","2448","118236","716635","684021","2452","718837","720838","722102","717637","36996","720838","NA","716633","Sternburg Task","104","90509","111","yes","1024"
"93.75","93.75","814.071428571","814.071428571","black","experiment","legacy","legacy","legacy","0","uniform","1","undefined","1","right","0","111","0","0","111","111","0","111","111","111","111","0","111","0","111","10/18/21 09:26:36","The main experiment item","yes","SternburgTask.osexp","C:/Users/borna.000/Documents/PSYC/PSYC5316/Sternburg","no","mono","no","18","no","white","no","yes","768","legacy","99","11","C:/Users/borna.000/Documents/PSYC/PSYC5316/Sternburg/DH-subject-4.csv","legacy","6 9 7 3 8 2","Lentiform Loewenfeld","3.3.9","0","n","0","right","right","enter","right","NA","667","5759","34543","667","NA","2","legacy","6","1024","2","48000","-16","experiment","4","even","5","112477","722111","2448","118236","723187","684021","2452","725389","727390","728058","724188","36996","727390","NA","723185","Sternburg Task","105","91176","112","yes","1024"
"93.8053097345","93.8053097345","812.707964602","812.707964602","black","experiment","legacy","legacy","legacy","0","uniform","1","undefined","1","right","0","112","0","0","112","112","0","112","112","112","112","0","112","0","112","10/18/21 09:26:36","The main experiment item","yes","SternburgTask.osexp","C:/Users/borna.000/Documents/PSYC/PSYC5316/Sternburg","no","mono","no","18","no","white","no","yes","768","legacy","100","11","C:/Users/borna.000/Documents/PSYC/PSYC5316/Sternburg/DH-subject-4.csv","legacy","9","Lentiform Loewenfeld","3.3.9","0","n","0","right","right","enter","right","NA","660","5759","34543","660","NA","2","legacy","1","1024","2","48000","-16","experiment","4","even","6","112477","728067","2448","118236","729138","684021","2452","731341","733342","734003","730139","36996","733342","NA","729136","Sternburg Task","106","91836","113","yes","1024"
"93.8596491228","93.8596491228","812.140350877","812.140350877","black","experiment","legacy","legacy","legacy","0","uniform","1","undefined","1","right","0","113","0","0","113","113","0","113","113","113","113","0","113","0","113","10/18/21 09:26:36","The main experiment item","yes","SternburgTask.osexp","C:/Users/borna.000/Documents/PSYC/PSYC5316/Sternburg","no","mono","no","18","no","white","no","yes","768","legacy","101","11","C:/Users/borna.000/Documents/PSYC/PSYC5316/Sternburg/DH-subject-4.csv","legacy","8 5 7 3 6","Lentiform Loewenfeld","3.3.9","0","n","0","right","right","enter","right","NA","748","5759","34543","748","NA","2","legacy","5","1024","2","48000","-16","experiment","4","even","9","112477","734007","2448","118236","735078","684021","2452","737280","739281","740030","736079","36996","739281","NA","735076","Sternburg Task","107","92584","114","yes","1024"
