"acc","accuracy","average_response_time","avg_rt","background","block","canvas_backend","clock_backend","color_backend","compensation","coordinates","correct","correct_Instruction1","correct_keyboard_response","correct_response","count_CorrectFeedback","count_ISI","count_IncorrectFeedback","count_Instruction1","count_Instructions2","count_Practiceloop","count_Thanks","count_experiment","count_experimentloop","count_fixation","count_keyboard_response","count_logger","count_memoryset","count_probe","count_xsequence","datetime","description","disable_garbage_collection","experiment_file","experiment_path","font_bold","font_family","font_italic","font_size","font_underline","foreground","form_clicks","fullscreen","height","keyboard_backend","live_row","live_row_Practiceloop","logfile","mouse_backend","numberSet","opensesame_codename","opensesame_version","posInSet","present","repeat_cycle","response","response_Instruction1","response_Instructions2","response_Thanks","response_keyboard_response","response_time","response_time_Instruction1","response_time_Instructions2","response_time_Thanks","response_time_keyboard_response","round_decimals","sampler_backend","setSize","sound_buf_size","sound_channels","sound_freq","sound_sample_size","start","subject_nr","subject_parity","target","time_CorrectFeedback","time_ISI","time_IncorrectFeedback","time_Instruction1","time_Instructions2","time_Practiceloop","time_Thanks","time_experiment","time_experimentloop","time_fixation","time_keyboard_response","time_logger","time_memoryset","time_probe","time_xsequence","title","total_correct","total_response_time","total_responses","uniform_coordinates","width"
"100","100","811","811","black","practice","legacy","legacy","legacy","0","uniform","1","undefined","1","right","0","0","0","0","0","0","0","0","0","0","0","0","0","0","0","Sun Oct 17 17:05:10 2021","The main experiment item","yes","Sternbergtask.osexp","C:/Users/User/Desktop/School/Research Methods","no","mono","no","18","no","white","no","yes","768","legacy","0","0","C:/Users/User/Desktop/School/Research Methods/LW-subject-1-stern.csv","legacy","3 1 9 4","Lentiform Loewenfeld","3.3.9","0","n","0","right","right","NA","NA","right","811","3391","NA","NA","811","2","legacy","4","1024","2","48000","-16","experiment","1","odd","6","NA","8239","NA","1890","NA","5282","NA","1887","NA","6035","10241","11053","7037","10241","6033","Sternberg task","1","811","1","yes","1024"
"100","100","667","667","black","practice","legacy","legacy","legacy","0","uniform","1","undefined","1","right","1","1","1","0","0","0","0","0","0","1","1","1","1","1","1","Sun Oct 17 17:05:10 2021","The main experiment item","yes","Sternbergtask.osexp","C:/Users/User/Desktop/School/Research Methods","no","mono","no","18","no","white","no","yes","768","legacy","1","1","C:/Users/User/Desktop/School/Research Methods/LW-subject-1-stern.csv","legacy","9 6 7 4 5","Lentiform Loewenfeld","3.3.9","0","n","0","right","right","NA","NA","right","523","3391","NA","NA","523","2","legacy","5","1024","2","48000","-16","experiment","1","odd","3","11107","14407","NA","1890","NA","5282","NA","1887","NA","12203","16409","16933","13205","16409","12201","Sternberg task","2","1334","2","yes","1024"
"100","100","595","595","black","practice","legacy","legacy","legacy","0","uniform","1","undefined","1","left","2","2","2","0","0","0","0","0","0","2","2","2","2","2","2","Sun Oct 17 17:05:10 2021","The main experiment item","yes","Sternbergtask.osexp","C:/Users/User/Desktop/School/Research Methods","no","mono","no","18","no","white","no","yes","768","legacy","2","2","C:/Users/User/Desktop/School/Research Methods/LW-subject-1-stern.csv","legacy","6","Lentiform Loewenfeld","3.3.9","1","y","0","left","right","NA","NA","left","451","3391","NA","NA","451","2","legacy","1","1024","2","48000","-16","experiment","1","odd","6","16936","20232","NA","1890","NA","5282","NA","1887","NA","18028","22234","22685","19030","22234","18026","Sternberg task","3","1785","3","yes","1024"
"100","100","575","575","black","practice","legacy","legacy","legacy","0","uniform","1","undefined","1","left","3","3","3","0","0","0","0","0","0","3","3","3","3","3","3","Sun Oct 17 17:05:10 2021","The main experiment item","yes","Sternbergtask.osexp","C:/Users/User/Desktop/School/Research Methods","no","mono","no","18","no","white","no","yes","768","legacy","3","3","C:/Users/User/Desktop/School/Research Methods/LW-subject-1-stern.csv","legacy","4 8","Lentiform Loewenfeld","3.3.9","1","y","0","left","right","NA","NA","left","515","3391","NA","NA","515","2","legacy","2","1024","2","48000","-16","experiment","1","odd","4","22689","25985","NA","1890","NA","5282","NA","1887","NA","23781","27987","28503","24783","27987","23779","Sternberg task","4","2300","4","yes","1024"
"100","100","613.2","613.2","black","practice","legacy","legacy","legacy","0","uniform","1","undefined","1","right","4","4","4","0","0","0","0","0","0","4","4","4","4","4","4","Sun Oct 17 17:05:10 2021","The main experiment item","yes","Sternbergtask.osexp","C:/Users/User/Desktop/School/Research Methods","no","mono","no","18","no","white","no","yes","768","legacy","4","4","C:/Users/User/Desktop/School/Research Methods/LW-subject-1-stern.csv","legacy","4 1 5","Lentiform Loewenfeld","3.3.9","0","n","0","right","right","NA","NA","right","766","3391","NA","NA","766","2","legacy","3","1024","2","48000","-16","experiment","1","odd","2","28507","31804","NA","1890","NA","5282","NA","1887","NA","29600","33806","34573","30602","33806","29597","Sternberg task","5","3066","5","yes","1024"
"100","100","614.1666666666666","614.1666666666666","black","practice","legacy","legacy","legacy","0","uniform","1","undefined","1","left","5","5","5","0","0","0","0","0","0","5","5","5","5","5","5","Sun Oct 17 17:05:10 2021","The main experiment item","yes","Sternbergtask.osexp","C:/Users/User/Desktop/School/Research Methods","no","mono","no","18","no","white","no","yes","768","legacy","5","5","C:/Users/User/Desktop/School/Research Methods/LW-subject-1-stern.csv","legacy","2 9 4","Lentiform Loewenfeld","3.3.9","3","y","0","left","right","NA","NA","left","619","3391","NA","NA","619","2","legacy","3","1024","2","48000","-16","experiment","1","odd","4","34577","37872","NA","1890","NA","5282","NA","1887","NA","35668","39874","40493","36670","39874","35666","Sternberg task","6","3685","6","yes","1024"
"100","100","650.8571428571429","650.8571428571429","black","practice","legacy","legacy","legacy","0","uniform","1","undefined","1","right","6","6","6","0","0","0","0","0","0","6","6","6","6","6","6","Sun Oct 17 17:05:10 2021","The main experiment item","yes","Sternbergtask.osexp","C:/Users/User/Desktop/School/Research Methods","no","mono","no","18","no","white","no","yes","768","legacy","6","6","C:/Users/User/Desktop/School/Research Methods/LW-subject-1-stern.csv","legacy","2 1","Lentiform Loewenfeld","3.3.9","0","n","0","right","right","NA","NA","right","871","3391","NA","NA","871","2","legacy","2","1024","2","48000","-16","experiment","1","odd","5","40498","43794","NA","1890","NA","5282","NA","1887","NA","41590","45796","46667","42592","45796","41588","Sternberg task","7","4556","7","yes","1024"
"100","100","637.625","637.625","black","practice","legacy","legacy","legacy","0","uniform","1","undefined","1","left","7","7","7","0","0","0","0","0","0","7","7","7","7","7","7","Sun Oct 17 17:05:10 2021","The main experiment item","yes","Sternbergtask.osexp","C:/Users/User/Desktop/School/Research Methods","no","mono","no","18","no","white","no","yes","768","legacy","7","7","C:/Users/User/Desktop/School/Research Methods/LW-subject-1-stern.csv","legacy","1 5 2 9","Lentiform Loewenfeld","3.3.9","2","y","0","left","right","NA","NA","left","545","3391","NA","NA","545","2","legacy","4","1024","2","48000","-16","experiment","1","odd","5","46672","49968","NA","1890","NA","5282","NA","1887","NA","47764","51970","52516","48766","51970","47762","Sternberg task","8","5101","8","yes","1024"
"100","100","655.2222222222222","655.2222222222222","black","practice","legacy","legacy","legacy","0","uniform","1","undefined","1","left","8","8","8","0","0","0","0","0","0","8","8","8","8","8","8","Sun Oct 17 17:05:10 2021","The main experiment item","yes","Sternbergtask.osexp","C:/Users/User/Desktop/School/Research Methods","no","mono","no","18","no","white","no","yes","768","legacy","8","8","C:/Users/User/Desktop/School/Research Methods/LW-subject-1-stern.csv","legacy","1 7 9 8 5","Lentiform Loewenfeld","3.3.9","4","y","0","left","right","NA","NA","left","796","3391","NA","NA","796","2","legacy","5","1024","2","48000","-16","experiment","1","odd","8","52520","55819","NA","1890","NA","5282","NA","1887","NA","53615","57821","58618","54617","57821","53613","Sternberg task","9","5897","9","yes","1024"
"100","100","625.2","625.2","black","practice","legacy","legacy","legacy","0","uniform","1","undefined","1","right","9","9","9","0","0","0","0","0","0","9","9","9","9","9","9","Sun Oct 17 17:05:10 2021","The main experiment item","yes","Sternbergtask.osexp","C:/Users/User/Desktop/School/Research Methods","no","mono","no","18","no","white","no","yes","768","legacy","9","9","C:/Users/User/Desktop/School/Research Methods/LW-subject-1-stern.csv","legacy","5","Lentiform Loewenfeld","3.3.9","0","n","0","right","right","NA","NA","right","355","3391","NA","NA","355","2","legacy","1","1024","2","48000","-16","experiment","1","odd","3","58622","61918","NA","1890","NA","5282","NA","1887","NA","59714","63920","64276","60716","63920","59711","Sternberg task","10","6252","10","yes","1024"
"90.9090909090909","90.9090909090909","617.6363636363636","617.6363636363636","black","practice","legacy","legacy","legacy","0","uniform","0","undefined","0","left","10","10","10","0","0","0","0","0","0","10","10","10","10","10","10","Sun Oct 17 17:05:10 2021","The main experiment item","yes","Sternbergtask.osexp","C:/Users/User/Desktop/School/Research Methods","no","mono","no","18","no","white","no","yes","768","legacy","10","10","C:/Users/User/Desktop/School/Research Methods/LW-subject-1-stern.csv","legacy","4 3 1 7 9 8","Lentiform Loewenfeld","3.3.9","1","y","0","right","right","NA","NA","right","542","3391","NA","NA","542","2","legacy","6","1024","2","48000","-16","experiment","1","odd","4","64280","67578","NA","1890","NA","5282","NA","1887","NA","65374","69580","70122","66376","69580","65372","Sternberg task","10","6794","11","yes","1024"
"91.66666666666667","91.66666666666667","616.6666666666666","616.6666666666666","black","practice","legacy","legacy","legacy","0","uniform","1","undefined","1","right","11","11","11","0","0","0","0","0","0","11","11","11","11","11","11","Sun Oct 17 17:05:10 2021","The main experiment item","yes","Sternbergtask.osexp","C:/Users/User/Desktop/School/Research Methods","no","mono","no","18","no","white","no","yes","768","legacy","11","11","C:/Users/User/Desktop/School/Research Methods/LW-subject-1-stern.csv","legacy","5 7 8 4 1 2","Lentiform Loewenfeld","3.3.9","0","n","0","right","right","NA","NA","right","606","3391","NA","NA","606","2","legacy","6","1024","2","48000","-16","experiment","1","odd","6","64280","73425","70126","1890","NA","5282","NA","1887","NA","71221","75427","76033","72223","75427","71218","Sternberg task","11","7400","12","yes","1024"
"92.3076923076923","92.3076923076923","617.6153846153846","617.6153846153846","black","experiment","legacy","legacy","legacy","0","uniform","1","undefined","1","right","12","12","12","0","0","0","0","0","0","12","12","12","12","12","12","Sun Oct 17 17:05:10 2021","The main experiment item","yes","Sternbergtask.osexp","C:/Users/User/Desktop/School/Research Methods","no","mono","no","18","no","white","no","yes","768","legacy","0","11","C:/Users/User/Desktop/School/Research Methods/LW-subject-1-stern.csv","legacy","8 5 4 2 9 6","Lentiform Loewenfeld","3.3.9","0","n","0","right","right","right","NA","right","629","3391","8818","NA","629","2","legacy","6","1024","2","48000","-16","experiment","1","odd","3","76037","88194","70126","1890","77068","5282","NA","1887","85887","85990","90196","90826","86992","90196","85988","Sternberg task","12","8029","13","yes","1024"
"92.85714285714286","92.85714285714286","605.6428571428571","605.6428571428571","black","experiment","legacy","legacy","legacy","0","uniform","1","undefined","1","right","13","13","13","0","0","0","0","0","0","13","13","13","13","13","13","Sun Oct 17 17:05:10 2021","The main experiment item","yes","Sternbergtask.osexp","C:/Users/User/Desktop/School/Research Methods","no","mono","no","18","no","white","no","yes","768","legacy","1","11","C:/Users/User/Desktop/School/Research Methods/LW-subject-1-stern.csv","legacy","1 8 7","Lentiform Loewenfeld","3.3.9","0","n","0","right","right","right","NA","right","450","3391","8818","NA","450","2","legacy","3","1024","2","48000","-16","experiment","1","odd","4","90830","94126","70126","1890","77068","5282","NA","1887","85887","91922","96128","96579","92924","96128","91920","Sternberg task","13","8479","14","yes","1024"
"93.33333333333333","93.33333333333333","592.1333333333333","592.1333333333333","black","experiment","legacy","legacy","legacy","0","uniform","1","undefined","1","left","14","14","14","0","0","0","0","0","0","14","14","14","14","14","14","Sun Oct 17 17:05:10 2021","The main experiment item","yes","Sternbergtask.osexp","C:/Users/User/Desktop/School/Research Methods","no","mono","no","18","no","white","no","yes","768","legacy","2","11","C:/Users/User/Desktop/School/Research Methods/LW-subject-1-stern.csv","legacy","8 3","Lentiform Loewenfeld","3.3.9","2","y","0","left","right","right","NA","left","403","3391","8818","NA","403","2","legacy","2","1024","2","48000","-16","experiment","1","odd","3","96582","99878","70126","1890","77068","5282","NA","1887","85887","97674","101880","102284","98676","101880","97671","Sternberg task","14","8882","15","yes","1024"
"93.75","93.75","580.0625","580.0625","black","experiment","legacy","legacy","legacy","0","uniform","1","undefined","1","right","15","15","15","0","0","0","0","0","0","15","15","15","15","15","15","Sun Oct 17 17:05:10 2021","The main experiment item","yes","Sternbergtask.osexp","C:/Users/User/Desktop/School/Research Methods","no","mono","no","18","no","white","no","yes","768","legacy","3","11","C:/Users/User/Desktop/School/Research Methods/LW-subject-1-stern.csv","legacy","3 4 9 6 7 8","Lentiform Loewenfeld","3.3.9","0","n","0","right","right","right","NA","right","399","3391","8818","NA","399","2","legacy","6","1024","2","48000","-16","experiment","1","odd","2","102288","105584","70126","1890","77068","5282","NA","1887","85887","103380","107586","107986","104382","107586","103378","Sternberg task","15","9281","16","yes","1024"
"94.11764705882354","94.11764705882354","572.0588235294117","572.0588235294117","black","experiment","legacy","legacy","legacy","0","uniform","1","undefined","1","right","16","16","16","0","0","0","0","0","0","16","16","16","16","16","16","Sun Oct 17 17:05:10 2021","The main experiment item","yes","Sternbergtask.osexp","C:/Users/User/Desktop/School/Research Methods","no","mono","no","18","no","white","no","yes","768","legacy","4","11","C:/Users/User/Desktop/School/Research Methods/LW-subject-1-stern.csv","legacy","7 4 2 8 1 9","Lentiform Loewenfeld","3.3.9","0","n","0","right","right","right","NA","right","444","3391","8818","NA","444","2","legacy","6","1024","2","48000","-16","experiment","1","odd","5","107990","111287","70126","1890","77068","5282","NA","1887","85887","109083","113289","113734","110085","113289","109081","Sternberg task","16","9725","17","yes","1024"
"94.44444444444444","94.44444444444444","570.5555555555555","570.5555555555555","black","experiment","legacy","legacy","legacy","0","uniform","1","undefined","1","left","17","17","17","0","0","0","0","0","0","17","17","17","17","17","17","Sun Oct 17 17:05:10 2021","The main experiment item","yes","Sternbergtask.osexp","C:/Users/User/Desktop/School/Research Methods","no","mono","no","18","no","white","no","yes","768","legacy","5","11","C:/Users/User/Desktop/School/Research Methods/LW-subject-1-stern.csv","legacy","8 9 5 6 7","Lentiform Loewenfeld","3.3.9","1","y","0","left","right","right","NA","left","545","3391","8818","NA","545","2","legacy","5","1024","2","48000","-16","experiment","1","odd","8","113738","117035","70126","1890","77068","5282","NA","1887","85887","114830","119037","119583","115833","119037","114828","Sternberg task","17","10270","18","yes","1024"
"94.73684210526316","94.73684210526316","569.2631578947369","569.2631578947369","black","experiment","legacy","legacy","legacy","0","uniform","1","undefined","1","left","18","18","18","0","0","0","0","0","0","18","18","18","18","18","18","Sun Oct 17 17:05:10 2021","The main experiment item","yes","Sternbergtask.osexp","C:/Users/User/Desktop/School/Research Methods","no","mono","no","18","no","white","no","yes","768","legacy","6","11","C:/Users/User/Desktop/School/Research Methods/LW-subject-1-stern.csv","legacy","4 7 6 8 2 3","Lentiform Loewenfeld","3.3.9","6","y","0","left","right","right","NA","left","546","3391","8818","NA","546","2","legacy","6","1024","2","48000","-16","experiment","1","odd","3","119587","122882","70126","1890","77068","5282","NA","1887","85887","120678","124884","125431","121680","124884","120676","Sternberg task","18","10816","19","yes","1024"
"90","90","564.05","564.05","black","experiment","legacy","legacy","legacy","0","uniform","0","undefined","0","left","19","19","19","0","0","0","0","0","0","19","19","19","19","19","19","Sun Oct 17 17:05:10 2021","The main experiment item","yes","Sternbergtask.osexp","C:/Users/User/Desktop/School/Research Methods","no","mono","no","18","no","white","no","yes","768","legacy","7","11","C:/Users/User/Desktop/School/Research Methods/LW-subject-1-stern.csv","legacy","6 9 3 1","Lentiform Loewenfeld","3.3.9","4","y","0","right","right","right","NA","right","465","3391","8818","NA","465","2","legacy","4","1024","2","48000","-16","experiment","1","odd","1","125434","128731","70126","1890","77068","5282","NA","1887","85887","126527","130733","131199","127529","130733","126524","Sternberg task","18","11281","20","yes","1024"
"90.47619047619048","90.47619047619048","560.2857142857143","560.2857142857143","black","experiment","legacy","legacy","legacy","0","uniform","1","undefined","1","right","20","20","20","0","0","0","0","0","0","20","20","20","20","20","20","Sun Oct 17 17:05:10 2021","The main experiment item","yes","Sternbergtask.osexp","C:/Users/User/Desktop/School/Research Methods","no","mono","no","18","no","white","no","yes","768","legacy","8","11","C:/Users/User/Desktop/School/Research Methods/LW-subject-1-stern.csv","legacy","8 5 7 3 6","Lentiform Loewenfeld","3.3.9","0","n","0","right","right","right","NA","right","485","3391","8818","NA","485","2","legacy","5","1024","2","48000","-16","experiment","1","odd","9","125434","134505","131203","1890","77068","5282","NA","1887","85887","132301","136507","136993","133303","136507","132299","Sternberg task","19","11766","21","yes","1024"
"90.9090909090909","90.9090909090909","570.8636363636364","570.8636363636364","black","experiment","legacy","legacy","legacy","0","uniform","1","undefined","1","right","21","21","21","0","0","0","0","0","0","21","21","21","21","21","21","Sun Oct 17 17:05:10 2021","The main experiment item","yes","Sternbergtask.osexp","C:/Users/User/Desktop/School/Research Methods","no","mono","no","18","no","white","no","yes","768","legacy","9","11","C:/Users/User/Desktop/School/Research Methods/LW-subject-1-stern.csv","legacy","3 9 8 1 6 4","Lentiform Loewenfeld","3.3.9","0","n","0","right","right","right","NA","right","793","3391","8818","NA","793","2","legacy","6","1024","2","48000","-16","experiment","1","odd","7","136997","140294","131203","1890","77068","5282","NA","1887","85887","138090","142296","143090","139092","142296","138088","Sternberg task","20","12559","22","yes","1024"
"91.30434782608695","91.30434782608695","576.0869565217391","576.0869565217391","black","experiment","legacy","legacy","legacy","0","uniform","1","undefined","1","right","22","22","22","0","0","0","0","0","0","22","22","22","22","22","22","Sun Oct 17 17:05:10 2021","The main experiment item","yes","Sternbergtask.osexp","C:/Users/User/Desktop/School/Research Methods","no","mono","no","18","no","white","no","yes","768","legacy","10","11","C:/Users/User/Desktop/School/Research Methods/LW-subject-1-stern.csv","legacy","7 8 6 1","Lentiform Loewenfeld","3.3.9","0","n","0","right","right","right","NA","right","691","3391","8818","NA","691","2","legacy","4","1024","2","48000","-16","experiment","1","odd","3","143094","146389","131203","1890","77068","5282","NA","1887","85887","144185","148391","149083","145187","148391","144183","Sternberg task","21","13250","23","yes","1024"
"91.66666666666667","91.66666666666667","578.2916666666666","578.2916666666666","black","experiment","legacy","legacy","legacy","0","uniform","1","undefined","1","left","23","23","23","0","0","0","0","0","0","23","23","23","23","23","23","Sun Oct 17 17:05:10 2021","The main experiment item","yes","Sternbergtask.osexp","C:/Users/User/Desktop/School/Research Methods","no","mono","no","18","no","white","no","yes","768","legacy","11","11","C:/Users/User/Desktop/School/Research Methods/LW-subject-1-stern.csv","legacy","3 2 1 4 7","Lentiform Loewenfeld","3.3.9","2","y","0","left","right","right","NA","left","629","3391","8818","NA","629","2","legacy","5","1024","2","48000","-16","experiment","1","odd","2","149087","152384","131203","1890","77068","5282","NA","1887","85887","150180","154386","155016","151182","154386","150177","Sternberg task","22","13879","24","yes","1024"
"88","88","577.76","577.76","black","experiment","legacy","legacy","legacy","0","uniform","0","undefined","0","left","24","24","24","0","0","0","0","0","0","24","24","24","24","24","24","Sun Oct 17 17:05:10 2021","The main experiment item","yes","Sternbergtask.osexp","C:/Users/User/Desktop/School/Research Methods","no","mono","no","18","no","white","no","yes","768","legacy","12","11","C:/Users/User/Desktop/School/Research Methods/LW-subject-1-stern.csv","legacy","6 9 7 4 5 1","Lentiform Loewenfeld","3.3.9","2","y","0","right","right","right","NA","right","565","3391","8818","NA","565","2","legacy","6","1024","2","48000","-16","experiment","1","odd","9","155020","158317","131203","1890","77068","5282","NA","1887","85887","156113","160319","160885","157115","160319","156110","Sternberg task","22","14444","25","yes","1024"
"88.46153846153847","88.46153846153847","573.5384615384615","573.5384615384615","black","experiment","legacy","legacy","legacy","0","uniform","1","undefined","1","right","25","25","25","0","0","0","0","0","0","25","25","25","25","25","25","Sun Oct 17 17:05:10 2021","The main experiment item","yes","Sternbergtask.osexp","C:/Users/User/Desktop/School/Research Methods","no","mono","no","18","no","white","no","yes","768","legacy","13","11","C:/Users/User/Desktop/School/Research Methods/LW-subject-1-stern.csv","legacy","8 9","Lentiform Loewenfeld","3.3.9","0","n","0","right","right","right","NA","right","468","3391","8818","NA","468","2","legacy","2","1024","2","48000","-16","experiment","1","odd","5","155020","164185","160889","1890","77068","5282","NA","1887","85887","161980","166187","166656","162983","166187","161978","Sternberg task","23","14912","26","yes","1024"
"88.88888888888889","88.88888888888889","577.8148148148148","577.8148148148148","black","experiment","legacy","legacy","legacy","0","uniform","1","undefined","1","right","26","26","26","0","0","0","0","0","0","26","26","26","26","26","26","Sun Oct 17 17:05:10 2021","The main experiment item","yes","Sternbergtask.osexp","C:/Users/User/Desktop/School/Research Methods","no","mono","no","18","no","white","no","yes","768","legacy","14","11","C:/Users/User/Desktop/School/Research Methods/LW-subject-1-stern.csv","legacy","3 4 2","Lentiform Loewenfeld","3.3.9","0","n","0","right","right","right","NA","right","689","3391","8818","NA","689","2","legacy","3","1024","2","48000","-16","experiment","1","odd","5","166660","169955","160889","1890","77068","5282","NA","1887","85887","167751","171957","172646","168753","171957","167749","Sternberg task","24","15601","27","yes","1024"
"89.28571428571429","89.28571428571429","577.0714285714286","577.0714285714286","black","experiment","legacy","legacy","legacy","0","uniform","1","undefined","1","right","27","27","27","0","0","0","0","0","0","27","27","27","27","27","27","Sun Oct 17 17:05:10 2021","The main experiment item","yes","Sternbergtask.osexp","C:/Users/User/Desktop/School/Research Methods","no","mono","no","18","no","white","no","yes","768","legacy","15","11","C:/Users/User/Desktop/School/Research Methods/LW-subject-1-stern.csv","legacy","2 6 4 3 9","Lentiform Loewenfeld","3.3.9","0","n","0","right","right","right","NA","right","557","3391","8818","NA","557","2","legacy","5","1024","2","48000","-16","experiment","1","odd","1","172651","175951","160889","1890","77068","5282","NA","1887","85887","173747","177953","178511","174749","177953","173745","Sternberg task","25","16158","28","yes","1024"
"89.65517241379311","89.65517241379311","582.0344827586207","582.0344827586207","black","experiment","legacy","legacy","legacy","0","uniform","1","undefined","1","left","28","28","28","0","0","0","0","0","0","28","28","28","28","28","28","Sun Oct 17 17:05:10 2021","The main experiment item","yes","Sternbergtask.osexp","C:/Users/User/Desktop/School/Research Methods","no","mono","no","18","no","white","no","yes","768","legacy","16","11","C:/Users/User/Desktop/School/Research Methods/LW-subject-1-stern.csv","legacy","1 4 9 3 2 5","Lentiform Loewenfeld","3.3.9","3","y","0","left","right","right","NA","left","721","3391","8818","NA","721","2","legacy","6","1024","2","48000","-16","experiment","1","odd","9","178515","181811","160889","1890","77068","5282","NA","1887","85887","179607","183813","184535","180609","183813","179604","Sternberg task","26","16879","29","yes","1024"
"90","90","581.7666666666667","581.7666666666667","black","experiment","legacy","legacy","legacy","0","uniform","1","undefined","1","right","29","29","29","0","0","0","0","0","0","29","29","29","29","29","29","Sun Oct 17 17:05:10 2021","The main experiment item","yes","Sternbergtask.osexp","C:/Users/User/Desktop/School/Research Methods","no","mono","no","18","no","white","no","yes","768","legacy","17","11","C:/Users/User/Desktop/School/Research Methods/LW-subject-1-stern.csv","legacy","7 3 2 8","Lentiform Loewenfeld","3.3.9","0","n","0","right","right","right","NA","right","574","3391","8818","NA","574","2","legacy","4","1024","2","48000","-16","experiment","1","odd","4","184539","187835","160889","1890","77068","5282","NA","1887","85887","185631","189837","190412","186633","189837","185629","Sternberg task","27","17453","30","yes","1024"
"90.3225806451613","90.3225806451613","585","585","black","experiment","legacy","legacy","legacy","0","uniform","1","undefined","1","left","30","30","30","0","0","0","0","0","0","30","30","30","30","30","30","Sun Oct 17 17:05:10 2021","The main experiment item","yes","Sternbergtask.osexp","C:/Users/User/Desktop/School/Research Methods","no","mono","no","18","no","white","no","yes","768","legacy","18","11","C:/Users/User/Desktop/School/Research Methods/LW-subject-1-stern.csv","legacy","7 4 2 6 3 5","Lentiform Loewenfeld","3.3.9","6","y","0","left","right","right","NA","left","682","3391","8818","NA","682","2","legacy","6","1024","2","48000","-16","experiment","1","odd","5","190416","193712","160889","1890","77068","5282","NA","1887","85887","191508","195714","196397","192510","195714","191506","Sternberg task","28","18135","31","yes","1024"
"90.625","90.625","580.5","580.5","black","experiment","legacy","legacy","legacy","0","uniform","1","undefined","1","left","31","31","31","0","0","0","0","0","0","31","31","31","31","31","31","Sun Oct 17 17:05:10 2021","The main experiment item","yes","Sternbergtask.osexp","C:/Users/User/Desktop/School/Research Methods","no","mono","no","18","no","white","no","yes","768","legacy","19","11","C:/Users/User/Desktop/School/Research Methods/LW-subject-1-stern.csv","legacy","2 5 4 8 7","Lentiform Loewenfeld","3.3.9","3","y","0","left","right","right","NA","left","441","3391","8818","NA","441","2","legacy","5","1024","2","48000","-16","experiment","1","odd","4","196401","199697","160889","1890","77068","5282","NA","1887","85887","197493","201699","202141","198495","201699","197491","Sternberg task","29","18576","32","yes","1024"
"90.9090909090909","90.9090909090909","581.1818181818181","581.1818181818181","black","experiment","legacy","legacy","legacy","0","uniform","1","undefined","1","right","32","32","32","0","0","0","0","0","0","32","32","32","32","32","32","Sun Oct 17 17:05:10 2021","The main experiment item","yes","Sternbergtask.osexp","C:/Users/User/Desktop/School/Research Methods","no","mono","no","18","no","white","no","yes","768","legacy","20","11","C:/Users/User/Desktop/School/Research Methods/LW-subject-1-stern.csv","legacy","4 8 1 2","Lentiform Loewenfeld","3.3.9","0","n","0","right","right","right","NA","right","603","3391","8818","NA","603","2","legacy","4","1024","2","48000","-16","experiment","1","odd","7","202145","205442","160889","1890","77068","5282","NA","1887","85887","203238","207444","208048","204240","207444","203236","Sternberg task","30","19179","33","yes","1024"
"91.17647058823529","91.17647058823529","576.8823529411765","576.8823529411765","black","experiment","legacy","legacy","legacy","0","uniform","1","undefined","1","right","33","33","33","0","0","0","0","0","0","33","33","33","33","33","33","Sun Oct 17 17:05:10 2021","The main experiment item","yes","Sternbergtask.osexp","C:/Users/User/Desktop/School/Research Methods","no","mono","no","18","no","white","no","yes","768","legacy","21","11","C:/Users/User/Desktop/School/Research Methods/LW-subject-1-stern.csv","legacy","7 1","Lentiform Loewenfeld","3.3.9","0","n","0","right","right","right","NA","right","435","3391","8818","NA","435","2","legacy","2","1024","2","48000","-16","experiment","1","odd","8","208051","211348","160889","1890","77068","5282","NA","1887","85887","209144","213350","213787","210146","213350","209142","Sternberg task","31","19614","34","yes","1024"
"91.42857142857143","91.42857142857143","571.7714285714286","571.7714285714286","black","experiment","legacy","legacy","legacy","0","uniform","1","undefined","1","left","34","34","34","0","0","0","0","0","0","34","34","34","34","34","34","Sun Oct 17 17:05:10 2021","The main experiment item","yes","Sternbergtask.osexp","C:/Users/User/Desktop/School/Research Methods","no","mono","no","18","no","white","no","yes","768","legacy","22","11","C:/Users/User/Desktop/School/Research Methods/LW-subject-1-stern.csv","legacy","6 7 9 3 1 2","Lentiform Loewenfeld","3.3.9","1","y","0","left","right","right","NA","left","398","3391","8818","NA","398","2","legacy","6","1024","2","48000","-16","experiment","1","odd","6","213790","217087","160889","1890","77068","5282","NA","1887","85887","214883","219089","219488","215885","219089","214881","Sternberg task","32","20012","35","yes","1024"
"91.66666666666667","91.66666666666667","571.0555555555555","571.0555555555555","black","experiment","legacy","legacy","legacy","0","uniform","1","undefined","1","right","35","35","35","0","0","0","0","0","0","35","35","35","35","35","35","Sun Oct 17 17:05:10 2021","The main experiment item","yes","Sternbergtask.osexp","C:/Users/User/Desktop/School/Research Methods","no","mono","no","18","no","white","no","yes","768","legacy","23","11","C:/Users/User/Desktop/School/Research Methods/LW-subject-1-stern.csv","legacy","5 3 2 6 9 8","Lentiform Loewenfeld","3.3.9","0","n","0","right","right","right","NA","right","546","3391","8818","NA","546","2","legacy","6","1024","2","48000","-16","experiment","1","odd","4","219492","222787","160889","1890","77068","5282","NA","1887","85887","220583","224789","225336","221585","224789","220581","Sternberg task","33","20558","36","yes","1024"
"91.89189189189189","91.89189189189189","567.5135135135135","567.5135135135135","black","experiment","legacy","legacy","legacy","0","uniform","1","undefined","1","right","36","36","36","0","0","0","0","0","0","36","36","36","36","36","36","Sun Oct 17 17:05:10 2021","The main experiment item","yes","Sternbergtask.osexp","C:/Users/User/Desktop/School/Research Methods","no","mono","no","18","no","white","no","yes","768","legacy","24","11","C:/Users/User/Desktop/School/Research Methods/LW-subject-1-stern.csv","legacy","2 3 8 5 6 7","Lentiform Loewenfeld","3.3.9","0","n","0","right","right","right","NA","right","440","3391","8818","NA","440","2","legacy","6","1024","2","48000","-16","experiment","1","odd","1","225340","228636","160889","1890","77068","5282","NA","1887","85887","226432","230638","231080","227434","230638","226430","Sternberg task","34","20998","37","yes","1024"
"92.10526315789474","92.10526315789474","563.6052631578947","563.6052631578947","black","experiment","legacy","legacy","legacy","0","uniform","1","undefined","1","right","37","37","37","0","0","0","0","0","0","37","37","37","37","37","37","Sun Oct 17 17:05:10 2021","The main experiment item","yes","Sternbergtask.osexp","C:/Users/User/Desktop/School/Research Methods","no","mono","no","18","no","white","no","yes","768","legacy","25","11","C:/Users/User/Desktop/School/Research Methods/LW-subject-1-stern.csv","legacy","2 8 9 4 1","Lentiform Loewenfeld","3.3.9","0","n","0","right","right","right","NA","right","419","3391","8818","NA","419","2","legacy","5","1024","2","48000","-16","experiment","1","odd","5","231085","234382","160889","1890","77068","5282","NA","1887","85887","232178","236384","236804","233180","236384","232175","Sternberg task","35","21417","38","yes","1024"
"92.3076923076923","92.3076923076923","564.2564102564103","564.2564102564103","black","experiment","legacy","legacy","legacy","0","uniform","1","undefined","1","right","38","38","38","0","0","0","0","0","0","38","38","38","38","38","38","Sun Oct 17 17:05:10 2021","The main experiment item","yes","Sternbergtask.osexp","C:/Users/User/Desktop/School/Research Methods","no","mono","no","18","no","white","no","yes","768","legacy","26","11","C:/Users/User/Desktop/School/Research Methods/LW-subject-1-stern.csv","legacy","8 4 3 5","Lentiform Loewenfeld","3.3.9","0","n","0","right","right","right","NA","right","589","3391","8818","NA","589","2","legacy","4","1024","2","48000","-16","experiment","1","odd","6","236808","240104","160889","1890","77068","5282","NA","1887","85887","237900","242106","242696","238902","242106","237898","Sternberg task","36","22006","39","yes","1024"
"92.5","92.5","561.05","561.05","black","experiment","legacy","legacy","legacy","0","uniform","1","undefined","1","right","39","39","39","0","0","0","0","0","0","39","39","39","39","39","39","Sun Oct 17 17:05:10 2021","The main experiment item","yes","Sternbergtask.osexp","C:/Users/User/Desktop/School/Research Methods","no","mono","no","18","no","white","no","yes","768","legacy","27","11","C:/Users/User/Desktop/School/Research Methods/LW-subject-1-stern.csv","legacy","1 4 3 6 5","Lentiform Loewenfeld","3.3.9","0","n","0","right","right","right","NA","right","436","3391","8818","NA","436","2","legacy","5","1024","2","48000","-16","experiment","1","odd","8","242700","245996","160889","1890","77068","5282","NA","1887","85887","243792","247998","248435","244794","247998","243790","Sternberg task","37","22442","40","yes","1024"
"92.6829268292683","92.6829268292683","556.5365853658536","556.5365853658536","black","experiment","legacy","legacy","legacy","0","uniform","1","undefined","1","right","40","40","40","0","0","0","0","0","0","40","40","40","40","40","40","Sun Oct 17 17:05:10 2021","The main experiment item","yes","Sternbergtask.osexp","C:/Users/User/Desktop/School/Research Methods","no","mono","no","18","no","white","no","yes","768","legacy","28","11","C:/Users/User/Desktop/School/Research Methods/LW-subject-1-stern.csv","legacy","7 9 1 6","Lentiform Loewenfeld","3.3.9","0","n","0","right","right","right","NA","right","376","3391","8818","NA","376","2","legacy","4","1024","2","48000","-16","experiment","1","odd","4","248439","251736","160889","1890","77068","5282","NA","1887","85887","249532","253738","254115","250534","253738","249530","Sternberg task","38","22818","41","yes","1024"
"92.85714285714286","92.85714285714286","556.047619047619","556.047619047619","black","experiment","legacy","legacy","legacy","0","uniform","1","undefined","1","right","41","41","41","0","0","0","0","0","0","41","41","41","41","41","41","Sun Oct 17 17:05:10 2021","The main experiment item","yes","Sternbergtask.osexp","C:/Users/User/Desktop/School/Research Methods","no","mono","no","18","no","white","no","yes","768","legacy","29","11","C:/Users/User/Desktop/School/Research Methods/LW-subject-1-stern.csv","legacy","6 7 5 9","Lentiform Loewenfeld","3.3.9","0","n","0","right","right","right","NA","right","536","3391","8818","NA","536","2","legacy","4","1024","2","48000","-16","experiment","1","odd","2","254120","257415","160889","1890","77068","5282","NA","1887","85887","255211","259417","259954","256213","259417","255209","Sternberg task","39","23354","42","yes","1024"
"93.02325581395348","93.02325581395348","552.2325581395348","552.2325581395348","black","experiment","legacy","legacy","legacy","0","uniform","1","undefined","1","left","42","42","42","0","0","0","0","0","0","42","42","42","42","42","42","Sun Oct 17 17:05:10 2021","The main experiment item","yes","Sternbergtask.osexp","C:/Users/User/Desktop/School/Research Methods","no","mono","no","18","no","white","no","yes","768","legacy","30","11","C:/Users/User/Desktop/School/Research Methods/LW-subject-1-stern.csv","legacy","3 5 4 7","Lentiform Loewenfeld","3.3.9","1","y","0","left","right","right","NA","left","392","3391","8818","NA","392","2","legacy","4","1024","2","48000","-16","experiment","1","odd","3","259958","263254","160889","1890","77068","5282","NA","1887","85887","261050","265256","265649","262052","265256","261048","Sternberg task","40","23746","43","yes","1024"
"93.18181818181819","93.18181818181819","550.4772727272727","550.4772727272727","black","experiment","legacy","legacy","legacy","0","uniform","1","undefined","1","left","43","43","43","0","0","0","0","0","0","43","43","43","43","43","43","Sun Oct 17 17:05:10 2021","The main experiment item","yes","Sternbergtask.osexp","C:/Users/User/Desktop/School/Research Methods","no","mono","no","18","no","white","no","yes","768","legacy","31","11","C:/Users/User/Desktop/School/Research Methods/LW-subject-1-stern.csv","legacy","9 8 4","Lentiform Loewenfeld","3.3.9","1","y","0","left","right","right","NA","left","475","3391","8818","NA","475","2","legacy","3","1024","2","48000","-16","experiment","1","odd","9","265753","269048","160889","1890","77068","5282","NA","1887","85887","266844","271050","271526","267846","271050","266842","Sternberg task","41","24221","44","yes","1024"
"93.33333333333333","93.33333333333333","551.1333333333333","551.1333333333333","black","experiment","legacy","legacy","legacy","0","uniform","1","undefined","1","left","44","44","44","0","0","0","0","0","0","44","44","44","44","44","44","Sun Oct 17 17:05:10 2021","The main experiment item","yes","Sternbergtask.osexp","C:/Users/User/Desktop/School/Research Methods","no","mono","no","18","no","white","no","yes","768","legacy","32","11","C:/Users/User/Desktop/School/Research Methods/LW-subject-1-stern.csv","legacy","3 9 7 6 4","Lentiform Loewenfeld","3.3.9","3","y","0","left","right","right","NA","left","580","3391","8818","NA","580","2","legacy","5","1024","2","48000","-16","experiment","1","odd","7","271636","274931","160889","1890","77068","5282","NA","1887","85887","272727","276933","277514","273729","276933","272725","Sternberg task","42","24801","45","yes","1024"
"93.47826086956522","93.47826086956522","548.0217391304348","548.0217391304348","black","experiment","legacy","legacy","legacy","0","uniform","1","undefined","1","left","45","45","45","0","0","0","0","0","0","45","45","45","45","45","45","Sun Oct 17 17:05:10 2021","The main experiment item","yes","Sternbergtask.osexp","C:/Users/User/Desktop/School/Research Methods","no","mono","no","18","no","white","no","yes","768","legacy","33","11","C:/Users/User/Desktop/School/Research Methods/LW-subject-1-stern.csv","legacy","9 4 2","Lentiform Loewenfeld","3.3.9","1","y","0","left","right","right","NA","left","408","3391","8818","NA","408","2","legacy","3","1024","2","48000","-16","experiment","1","odd","9","277518","280813","160889","1890","77068","5282","NA","1887","85887","278609","282815","283224","279611","282815","278607","Sternberg task","43","25209","46","yes","1024"
"93.61702127659575","93.61702127659575","546.8936170212766","546.8936170212766","black","experiment","legacy","legacy","legacy","0","uniform","1","undefined","1","right","46","46","46","0","0","0","0","0","0","46","46","46","46","46","46","Sun Oct 17 17:05:10 2021","The main experiment item","yes","Sternbergtask.osexp","C:/Users/User/Desktop/School/Research Methods","no","mono","no","18","no","white","no","yes","768","legacy","34","11","C:/Users/User/Desktop/School/Research Methods/LW-subject-1-stern.csv","legacy","2 8 7 9 5 3","Lentiform Loewenfeld","3.3.9","0","n","0","right","right","right","NA","right","495","3391","8818","NA","495","2","legacy","6","1024","2","48000","-16","experiment","1","odd","6","283228","286525","160889","1890","77068","5282","NA","1887","85887","284321","288527","289023","285323","288527","284319","Sternberg task","44","25704","47","yes","1024"
"93.75","93.75","544.4375","544.4375","black","experiment","legacy","legacy","legacy","0","uniform","1","undefined","1","left","47","47","47","0","0","0","0","0","0","47","47","47","47","47","47","Sun Oct 17 17:05:10 2021","The main experiment item","yes","Sternbergtask.osexp","C:/Users/User/Desktop/School/Research Methods","no","mono","no","18","no","white","no","yes","768","legacy","35","11","C:/Users/User/Desktop/School/Research Methods/LW-subject-1-stern.csv","legacy","7 2 3","Lentiform Loewenfeld","3.3.9","3","y","0","left","right","right","NA","left","429","3391","8818","NA","429","2","legacy","3","1024","2","48000","-16","experiment","1","odd","3","289027","292322","160889","1890","77068","5282","NA","1887","85887","290118","294324","294754","291120","294324","290116","Sternberg task","45","26133","48","yes","1024"
"93.87755102040816","93.87755102040816","544.9387755102041","544.9387755102041","black","experiment","legacy","legacy","legacy","0","uniform","1","undefined","1","right","48","48","48","0","0","0","0","0","0","48","48","48","48","48","48","Sun Oct 17 17:05:10 2021","The main experiment item","yes","Sternbergtask.osexp","C:/Users/User/Desktop/School/Research Methods","no","mono","no","18","no","white","no","yes","768","legacy","36","11","C:/Users/User/Desktop/School/Research Methods/LW-subject-1-stern.csv","legacy","3 9 1","Lentiform Loewenfeld","3.3.9","0","n","0","right","right","right","NA","right","569","3391","8818","NA","569","2","legacy","3","1024","2","48000","-16","experiment","1","odd","7","294758","298054","160889","1890","77068","5282","NA","1887","85887","295850","300056","300626","296852","300056","295848","Sternberg task","46","26702","49","yes","1024"
"94","94","541.52","541.52","black","experiment","legacy","legacy","legacy","0","uniform","1","undefined","1","left","49","49","49","0","0","0","0","0","0","49","49","49","49","49","49","Sun Oct 17 17:05:10 2021","The main experiment item","yes","Sternbergtask.osexp","C:/Users/User/Desktop/School/Research Methods","no","mono","no","18","no","white","no","yes","768","legacy","37","11","C:/Users/User/Desktop/School/Research Methods/LW-subject-1-stern.csv","legacy","7 1 3","Lentiform Loewenfeld","3.3.9","2","y","0","left","right","right","NA","left","374","3391","8818","NA","374","2","legacy","3","1024","2","48000","-16","experiment","1","odd","1","300630","303926","160889","1890","77068","5282","NA","1887","85887","301722","305928","306304","302724","305928","301720","Sternberg task","47","27076","50","yes","1024"
"94.11764705882354","94.11764705882354","539.9411764705883","539.9411764705883","black","experiment","legacy","legacy","legacy","0","uniform","1","undefined","1","left","50","50","50","0","0","0","0","0","0","50","50","50","50","50","50","Sun Oct 17 17:05:10 2021","The main experiment item","yes","Sternbergtask.osexp","C:/Users/User/Desktop/School/Research Methods","no","mono","no","18","no","white","no","yes","768","legacy","38","11","C:/Users/User/Desktop/School/Research Methods/LW-subject-1-stern.csv","legacy","5 2 9 6 1 7","Lentiform Loewenfeld","3.3.9","3","y","0","left","right","right","NA","left","461","3391","8818","NA","461","2","legacy","6","1024","2","48000","-16","experiment","1","odd","9","306308","309605","160889","1890","77068","5282","NA","1887","85887","307401","311607","312069","308403","311607","307399","Sternberg task","48","27537","51","yes","1024"
"94.23076923076923","94.23076923076923","539.7115384615385","539.7115384615385","black","experiment","legacy","legacy","legacy","0","uniform","1","undefined","1","left","51","51","51","0","0","0","0","0","0","51","51","51","51","51","51","Sun Oct 17 17:05:10 2021","The main experiment item","yes","Sternbergtask.osexp","C:/Users/User/Desktop/School/Research Methods","no","mono","no","18","no","white","no","yes","768","legacy","39","11","C:/Users/User/Desktop/School/Research Methods/LW-subject-1-stern.csv","legacy","7 8 6 3 1","Lentiform Loewenfeld","3.3.9","5","y","0","left","right","right","NA","left","528","3391","8818","NA","528","2","legacy","5","1024","2","48000","-16","experiment","1","odd","1","312074","315372","160889","1890","77068","5282","NA","1887","85887","313168","317374","317903","314170","317374","313165","Sternberg task","49","28065","52","yes","1024"
"94.33962264150944","94.33962264150944","536.3584905660377","536.3584905660377","black","experiment","legacy","legacy","legacy","0","uniform","1","undefined","1","right","52","52","52","0","0","0","0","0","0","52","52","52","52","52","52","Sun Oct 17 17:05:10 2021","The main experiment item","yes","Sternbergtask.osexp","C:/Users/User/Desktop/School/Research Methods","no","mono","no","18","no","white","no","yes","768","legacy","40","11","C:/Users/User/Desktop/School/Research Methods/LW-subject-1-stern.csv","legacy","5 2","Lentiform Loewenfeld","3.3.9","0","n","0","right","right","right","NA","right","362","3391","8818","NA","362","2","legacy","2","1024","2","48000","-16","experiment","1","odd","7","317907","321204","160889","1890","77068","5282","NA","1887","85887","319000","323206","323569","320002","323206","318998","Sternberg task","50","28427","53","yes","1024"
"94.44444444444444","94.44444444444444","535.7407407407408","535.7407407407408","black","experiment","legacy","legacy","legacy","0","uniform","1","undefined","1","right","53","53","53","0","0","0","0","0","0","53","53","53","53","53","53","Sun Oct 17 17:05:10 2021","The main experiment item","yes","Sternbergtask.osexp","C:/Users/User/Desktop/School/Research Methods","no","mono","no","18","no","white","no","yes","768","legacy","41","11","C:/Users/User/Desktop/School/Research Methods/LW-subject-1-stern.csv","legacy","1 7 5 2","Lentiform Loewenfeld","3.3.9","0","n","0","right","right","right","NA","right","503","3391","8818","NA","503","2","legacy","4","1024","2","48000","-16","experiment","1","odd","3","323573","326868","160889","1890","77068","5282","NA","1887","85887","324664","328870","329375","325666","328870","324662","Sternberg task","51","28930","54","yes","1024"
"94.54545454545455","94.54545454545455","536.9090909090909","536.9090909090909","black","experiment","legacy","legacy","legacy","0","uniform","1","undefined","1","right","54","54","54","0","0","0","0","0","0","54","54","54","54","54","54","Sun Oct 17 17:05:10 2021","The main experiment item","yes","Sternbergtask.osexp","C:/Users/User/Desktop/School/Research Methods","no","mono","no","18","no","white","no","yes","768","legacy","42","11","C:/Users/User/Desktop/School/Research Methods/LW-subject-1-stern.csv","legacy","5","Lentiform Loewenfeld","3.3.9","0","n","0","right","right","right","NA","right","600","3391","8818","NA","600","2","legacy","1","1024","2","48000","-16","experiment","1","odd","8","329379","332677","160889","1890","77068","5282","NA","1887","85887","330473","334679","335280","331475","334679","330471","Sternberg task","52","29530","55","yes","1024"
"94.64285714285714","94.64285714285714","536.0178571428571","536.0178571428571","black","experiment","legacy","legacy","legacy","0","uniform","1","undefined","1","right","55","55","55","0","0","0","0","0","0","55","55","55","55","55","55","Sun Oct 17 17:05:10 2021","The main experiment item","yes","Sternbergtask.osexp","C:/Users/User/Desktop/School/Research Methods","no","mono","no","18","no","white","no","yes","768","legacy","43","11","C:/Users/User/Desktop/School/Research Methods/LW-subject-1-stern.csv","legacy","2 5 1 4","Lentiform Loewenfeld","3.3.9","0","n","0","right","right","right","NA","right","487","3391","8818","NA","487","2","legacy","4","1024","2","48000","-16","experiment","1","odd","6","335284","338580","160889","1890","77068","5282","NA","1887","85887","336376","340582","341070","337378","340582","336373","Sternberg task","53","30017","56","yes","1024"
"94.73684210526316","94.73684210526316","534.561403508772","534.561403508772","black","experiment","legacy","legacy","legacy","0","uniform","1","undefined","1","left","56","56","56","0","0","0","0","0","0","56","56","56","56","56","56","Sun Oct 17 17:05:10 2021","The main experiment item","yes","Sternbergtask.osexp","C:/Users/User/Desktop/School/Research Methods","no","mono","no","18","no","white","no","yes","768","legacy","44","11","C:/Users/User/Desktop/School/Research Methods/LW-subject-1-stern.csv","legacy","3 9 6 2","Lentiform Loewenfeld","3.3.9","4","y","0","left","right","right","NA","left","453","3391","8818","NA","453","2","legacy","4","1024","2","48000","-16","experiment","1","odd","2","341075","344373","160889","1890","77068","5282","NA","1887","85887","342169","346375","346829","343171","346375","342166","Sternberg task","54","30470","57","yes","1024"
"94.82758620689656","94.82758620689656","531.0172413793103","531.0172413793103","black","experiment","legacy","legacy","legacy","0","uniform","1","undefined","1","left","57","57","57","0","0","0","0","0","0","57","57","57","57","57","57","Sun Oct 17 17:05:10 2021","The main experiment item","yes","Sternbergtask.osexp","C:/Users/User/Desktop/School/Research Methods","no","mono","no","18","no","white","no","yes","768","legacy","45","11","C:/Users/User/Desktop/School/Research Methods/LW-subject-1-stern.csv","legacy","4 1 8 7 5","Lentiform Loewenfeld","3.3.9","3","y","0","left","right","right","NA","left","329","3391","8818","NA","329","2","legacy","5","1024","2","48000","-16","experiment","1","odd","8","346833","350129","160889","1890","77068","5282","NA","1887","85887","347925","352131","352461","348927","352131","347923","Sternberg task","55","30799","58","yes","1024"
"94.91525423728814","94.91525423728814","533.0508474576271","533.0508474576271","black","experiment","legacy","legacy","legacy","0","uniform","1","undefined","1","right","58","58","58","0","0","0","0","0","0","58","58","58","58","58","58","Sun Oct 17 17:05:10 2021","The main experiment item","yes","Sternbergtask.osexp","C:/Users/User/Desktop/School/Research Methods","no","mono","no","18","no","white","no","yes","768","legacy","46","11","C:/Users/User/Desktop/School/Research Methods/LW-subject-1-stern.csv","legacy","7 1 8 4 9 3","Lentiform Loewenfeld","3.3.9","0","n","0","right","right","right","NA","right","651","3391","8818","NA","651","2","legacy","6","1024","2","48000","-16","experiment","1","odd","6","352465","355764","160889","1890","77068","5282","NA","1887","85887","353560","357766","358419","354562","357766","353558","Sternberg task","56","31450","59","yes","1024"
"95","95","534.2333333333333","534.2333333333333","black","experiment","legacy","legacy","legacy","0","uniform","1","undefined","1","left","59","59","59","0","0","0","0","0","0","59","59","59","59","59","59","Sun Oct 17 17:05:10 2021","The main experiment item","yes","Sternbergtask.osexp","C:/Users/User/Desktop/School/Research Methods","no","mono","no","18","no","white","no","yes","768","legacy","47","11","C:/Users/User/Desktop/School/Research Methods/LW-subject-1-stern.csv","legacy","6 8 9 3 4 9","Lentiform Loewenfeld","3.3.9","5","y","0","left","right","right","NA","left","604","3391","8818","NA","604","2","legacy","6","1024","2","48000","-16","experiment","1","odd","4","358423","361718","160889","1890","77068","5282","NA","1887","85887","359514","363720","364325","360516","363720","359512","Sternberg task","57","32054","60","yes","1024"
"95.08196721311475","95.08196721311475","533.1803278688525","533.1803278688525","black","experiment","legacy","legacy","legacy","0","uniform","1","undefined","1","left","60","60","60","0","0","0","0","0","0","60","60","60","60","60","60","Sun Oct 17 17:05:10 2021","The main experiment item","yes","Sternbergtask.osexp","C:/Users/User/Desktop/School/Research Methods","no","mono","no","18","no","white","no","yes","768","legacy","48","11","C:/Users/User/Desktop/School/Research Methods/LW-subject-1-stern.csv","legacy","4 6 2 5 1","Lentiform Loewenfeld","3.3.9","5","y","0","left","right","right","NA","left","470","3391","8818","NA","470","2","legacy","5","1024","2","48000","-16","experiment","1","odd","1","364329","367625","160889","1890","77068","5282","NA","1887","85887","365421","369627","370099","366423","369627","365419","Sternberg task","58","32524","61","yes","1024"
"95.16129032258064","95.16129032258064","531.6774193548387","531.6774193548387","black","experiment","legacy","legacy","legacy","0","uniform","1","undefined","1","left","61","61","61","0","0","0","0","0","0","61","61","61","61","61","61","Sun Oct 17 17:05:10 2021","The main experiment item","yes","Sternbergtask.osexp","C:/Users/User/Desktop/School/Research Methods","no","mono","no","18","no","white","no","yes","768","legacy","49","11","C:/Users/User/Desktop/School/Research Methods/LW-subject-1-stern.csv","legacy","8","Lentiform Loewenfeld","3.3.9","1","y","0","left","right","right","NA","left","440","3391","8818","NA","440","2","legacy","1","1024","2","48000","-16","experiment","1","odd","8","370103","373411","160889","1890","77068","5282","NA","1887","85887","371207","375413","375854","372209","375413","371205","Sternberg task","59","32964","62","yes","1024"
"95.23809523809524","95.23809523809524","529.5873015873016","529.5873015873016","black","experiment","legacy","legacy","legacy","0","uniform","1","undefined","1","left","62","62","62","0","0","0","0","0","0","62","62","62","62","62","62","Sun Oct 17 17:05:10 2021","The main experiment item","yes","Sternbergtask.osexp","C:/Users/User/Desktop/School/Research Methods","no","mono","no","18","no","white","no","yes","768","legacy","50","11","C:/Users/User/Desktop/School/Research Methods/LW-subject-1-stern.csv","legacy","4 3 2 5 8","Lentiform Loewenfeld","3.3.9","2","y","0","left","right","right","NA","left","400","3391","8818","NA","400","2","legacy","5","1024","2","48000","-16","experiment","1","odd","3","375858","379155","160889","1890","77068","5282","NA","1887","85887","376951","381157","381558","377953","381157","376949","Sternberg task","60","33364","63","yes","1024"
"95.3125","95.3125","533.21875","533.21875","black","experiment","legacy","legacy","legacy","0","uniform","1","undefined","1","left","63","63","63","0","0","0","0","0","0","63","63","63","63","63","63","Sun Oct 17 17:05:10 2021","The main experiment item","yes","Sternbergtask.osexp","C:/Users/User/Desktop/School/Research Methods","no","mono","no","18","no","white","no","yes","768","legacy","51","11","C:/Users/User/Desktop/School/Research Methods/LW-subject-1-stern.csv","legacy","8 5 3 7 4 6","Lentiform Loewenfeld","3.3.9","6","y","0","left","right","right","NA","left","762","3391","8818","NA","762","2","legacy","6","1024","2","48000","-16","experiment","1","odd","6","381562","384859","160889","1890","77068","5282","NA","1887","85887","382655","386861","387624","383657","386861","382652","Sternberg task","61","34126","64","yes","1024"
"95.38461538461539","95.38461538461539","535.3230769230769","535.3230769230769","black","experiment","legacy","legacy","legacy","0","uniform","1","undefined","1","left","64","64","64","0","0","0","0","0","0","64","64","64","64","64","64","Sun Oct 17 17:05:10 2021","The main experiment item","yes","Sternbergtask.osexp","C:/Users/User/Desktop/School/Research Methods","no","mono","no","18","no","white","no","yes","768","legacy","52","11","C:/Users/User/Desktop/School/Research Methods/LW-subject-1-stern.csv","legacy","8 5 4 7 3 1","Lentiform Loewenfeld","3.3.9","2","y","0","left","right","right","NA","left","670","3391","8818","NA","670","2","legacy","6","1024","2","48000","-16","experiment","1","odd","5","387628","390924","160889","1890","77068","5282","NA","1887","85887","388720","392926","393598","389722","392926","388718","Sternberg task","62","34796","65","yes","1024"
"95.45454545454545","95.45454545454545","534.4090909090909","534.4090909090909","black","experiment","legacy","legacy","legacy","0","uniform","1","undefined","1","left","65","65","65","0","0","0","0","0","0","65","65","65","65","65","65","Sun Oct 17 17:05:10 2021","The main experiment item","yes","Sternbergtask.osexp","C:/Users/User/Desktop/School/Research Methods","no","mono","no","18","no","white","no","yes","768","legacy","53","11","C:/Users/User/Desktop/School/Research Methods/LW-subject-1-stern.csv","legacy","2 8 5 1","Lentiform Loewenfeld","3.3.9","4","y","0","left","right","right","NA","left","475","3391","8818","NA","475","2","legacy","4","1024","2","48000","-16","experiment","1","odd","1","393602","396899","160889","1890","77068","5282","NA","1887","85887","394695","398901","399377","395697","398901","394693","Sternberg task","63","35271","66","yes","1024"
"95.5223880597015","95.5223880597015","537.820895522388","537.820895522388","black","experiment","legacy","legacy","legacy","0","uniform","1","undefined","1","left","66","66","66","0","0","0","0","0","0","66","66","66","66","66","66","Sun Oct 17 17:05:10 2021","The main experiment item","yes","Sternbergtask.osexp","C:/Users/User/Desktop/School/Research Methods","no","mono","no","18","no","white","no","yes","768","legacy","54","11","C:/Users/User/Desktop/School/Research Methods/LW-subject-1-stern.csv","legacy","9 6 2 4 1","Lentiform Loewenfeld","3.3.9","4","y","0","left","right","right","NA","left","763","3391","8818","NA","763","2","legacy","5","1024","2","48000","-16","experiment","1","odd","4","399381","402677","160889","1890","77068","5282","NA","1887","85887","400472","404679","405443","401475","404679","400470","Sternberg task","64","36034","67","yes","1024"
"95.58823529411765","95.58823529411765","534.4852941176471","534.4852941176471","black","experiment","legacy","legacy","legacy","0","uniform","1","undefined","1","left","67","67","67","0","0","0","0","0","0","67","67","67","67","67","67","Sun Oct 17 17:05:10 2021","The main experiment item","yes","Sternbergtask.osexp","C:/Users/User/Desktop/School/Research Methods","no","mono","no","18","no","white","no","yes","768","legacy","55","11","C:/Users/User/Desktop/School/Research Methods/LW-subject-1-stern.csv","legacy","2 3","Lentiform Loewenfeld","3.3.9","1","y","0","left","right","right","NA","left","311","3391","8818","NA","311","2","legacy","2","1024","2","48000","-16","experiment","1","odd","2","405447","408743","160889","1890","77068","5282","NA","1887","85887","406539","410745","411057","407541","410745","406537","Sternberg task","65","36345","68","yes","1024"
"95.65217391304348","95.65217391304348","535.1884057971015","535.1884057971015","black","experiment","legacy","legacy","legacy","0","uniform","1","undefined","1","right","68","68","68","0","0","0","0","0","0","68","68","68","68","68","68","Sun Oct 17 17:05:10 2021","The main experiment item","yes","Sternbergtask.osexp","C:/Users/User/Desktop/School/Research Methods","no","mono","no","18","no","white","no","yes","768","legacy","56","11","C:/Users/User/Desktop/School/Research Methods/LW-subject-1-stern.csv","legacy","4 1","Lentiform Loewenfeld","3.3.9","0","n","0","right","right","right","NA","right","583","3391","8818","NA","583","2","legacy","2","1024","2","48000","-16","experiment","1","odd","6","411061","414362","160889","1890","77068","5282","NA","1887","85887","412158","416364","416949","413160","416364","412156","Sternberg task","66","36928","69","yes","1024"
"95.71428571428571","95.71428571428571","532.8285714285714","532.8285714285714","black","experiment","legacy","legacy","legacy","0","uniform","1","undefined","1","left","69","69","69","0","0","0","0","0","0","69","69","69","69","69","69","Sun Oct 17 17:05:10 2021","The main experiment item","yes","Sternbergtask.osexp","C:/Users/User/Desktop/School/Research Methods","no","mono","no","18","no","white","no","yes","768","legacy","57","11","C:/Users/User/Desktop/School/Research Methods/LW-subject-1-stern.csv","legacy","7 1 8 5 6 2","Lentiform Loewenfeld","3.3.9","2","y","0","left","right","right","NA","left","370","3391","8818","NA","370","2","legacy","6","1024","2","48000","-16","experiment","1","odd","1","416953","420248","160889","1890","77068","5282","NA","1887","85887","418044","422250","422621","419046","422250","418042","Sternberg task","67","37298","70","yes","1024"
"95.77464788732394","95.77464788732394","529.7746478873239","529.7746478873239","black","experiment","legacy","legacy","legacy","0","uniform","1","undefined","1","left","70","70","70","0","0","0","0","0","0","70","70","70","70","70","70","Sun Oct 17 17:05:10 2021","The main experiment item","yes","Sternbergtask.osexp","C:/Users/User/Desktop/School/Research Methods","no","mono","no","18","no","white","no","yes","768","legacy","58","11","C:/Users/User/Desktop/School/Research Methods/LW-subject-1-stern.csv","legacy","5 2 6","Lentiform Loewenfeld","3.3.9","2","y","0","left","right","right","NA","left","316","3391","8818","NA","316","2","legacy","3","1024","2","48000","-16","experiment","1","odd","2","422625","425920","160889","1890","77068","5282","NA","1887","85887","423716","427922","428239","424718","427922","423714","Sternberg task","68","37614","71","yes","1024"
"95.83333333333333","95.83333333333333","526.7083333333334","526.7083333333334","black","experiment","legacy","legacy","legacy","0","uniform","1","undefined","1","left","71","71","71","0","0","0","0","0","0","71","71","71","71","71","71","Sun Oct 17 17:05:10 2021","The main experiment item","yes","Sternbergtask.osexp","C:/Users/User/Desktop/School/Research Methods","no","mono","no","18","no","white","no","yes","768","legacy","59","11","C:/Users/User/Desktop/School/Research Methods/LW-subject-1-stern.csv","legacy","9 1 7 2","Lentiform Loewenfeld","3.3.9","2","y","0","left","right","right","NA","left","309","3391","8818","NA","309","2","legacy","4","1024","2","48000","-16","experiment","1","odd","1","428243","431539","160889","1890","77068","5282","NA","1887","85887","429335","433541","433851","430337","433541","429333","Sternberg task","69","37923","72","yes","1024"
"95.89041095890411","95.89041095890411","523.8082191780821","523.8082191780821","black","experiment","legacy","legacy","legacy","0","uniform","1","undefined","1","left","72","72","72","0","0","0","0","0","0","72","72","72","72","72","72","Sun Oct 17 17:05:10 2021","The main experiment item","yes","Sternbergtask.osexp","C:/Users/User/Desktop/School/Research Methods","no","mono","no","18","no","white","no","yes","768","legacy","60","11","C:/Users/User/Desktop/School/Research Methods/LW-subject-1-stern.csv","legacy","4","Lentiform Loewenfeld","3.3.9","1","y","0","left","right","right","NA","left","315","3391","8818","NA","315","2","legacy","1","1024","2","48000","-16","experiment","1","odd","4","433855","437151","160889","1890","77068","5282","NA","1887","85887","434947","439153","439470","435949","439153","434945","Sternberg task","70","38238","73","yes","1024"
"95.94594594594595","95.94594594594595","521.2297297297297","521.2297297297297","black","experiment","legacy","legacy","legacy","0","uniform","1","undefined","1","left","73","73","73","0","0","0","0","0","0","73","73","73","73","73","73","Sun Oct 17 17:05:10 2021","The main experiment item","yes","Sternbergtask.osexp","C:/Users/User/Desktop/School/Research Methods","no","mono","no","18","no","white","no","yes","768","legacy","61","11","C:/Users/User/Desktop/School/Research Methods/LW-subject-1-stern.csv","legacy","2 4 8 5 1 3","Lentiform Loewenfeld","3.3.9","1","y","0","left","right","right","NA","left","333","3391","8818","NA","333","2","legacy","6","1024","2","48000","-16","experiment","1","odd","2","439473","442769","160889","1890","77068","5282","NA","1887","85887","440565","444771","445105","441567","444771","440563","Sternberg task","71","38571","74","yes","1024"
"96","96","521.4133333333333","521.4133333333333","black","experiment","legacy","legacy","legacy","0","uniform","1","undefined","1","right","74","74","74","0","0","0","0","0","0","74","74","74","74","74","74","Sun Oct 17 17:05:10 2021","The main experiment item","yes","Sternbergtask.osexp","C:/Users/User/Desktop/School/Research Methods","no","mono","no","18","no","white","no","yes","768","legacy","62","11","C:/Users/User/Desktop/School/Research Methods/LW-subject-1-stern.csv","legacy","1 6 4 3 9 7","Lentiform Loewenfeld","3.3.9","0","n","0","right","right","right","NA","right","535","3391","8818","NA","535","2","legacy","6","1024","2","48000","-16","experiment","1","odd","8","445109","448404","160889","1890","77068","5282","NA","1887","85887","446200","450406","450942","447202","450406","446198","Sternberg task","72","39106","75","yes","1024"
"96.05263157894737","96.05263157894737","521.6447368421053","521.6447368421053","black","experiment","legacy","legacy","legacy","0","uniform","1","undefined","1","right","75","75","75","0","0","0","0","0","0","75","75","75","75","75","75","Sun Oct 17 17:05:10 2021","The main experiment item","yes","Sternbergtask.osexp","C:/Users/User/Desktop/School/Research Methods","no","mono","no","18","no","white","no","yes","768","legacy","63","11","C:/Users/User/Desktop/School/Research Methods/LW-subject-1-stern.csv","legacy","1 4 9 3","Lentiform Loewenfeld","3.3.9","0","n","0","right","right","right","NA","right","539","3391","8818","NA","539","2","legacy","4","1024","2","48000","-16","experiment","1","odd","5","450946","454242","160889","1890","77068","5282","NA","1887","85887","452038","456244","456784","453040","456244","452036","Sternberg task","73","39645","76","yes","1024"
"96.1038961038961","96.1038961038961","521.2207792207793","521.2207792207793","black","experiment","legacy","legacy","legacy","0","uniform","1","undefined","1","right","76","76","76","0","0","0","0","0","0","76","76","76","76","76","76","Sun Oct 17 17:05:10 2021","The main experiment item","yes","Sternbergtask.osexp","C:/Users/User/Desktop/School/Research Methods","no","mono","no","18","no","white","no","yes","768","legacy","64","11","C:/Users/User/Desktop/School/Research Methods/LW-subject-1-stern.csv","legacy","2 7 5","Lentiform Loewenfeld","3.3.9","0","n","0","right","right","right","NA","right","489","3391","8818","NA","489","2","legacy","3","1024","2","48000","-16","experiment","1","odd","8","456788","460083","160889","1890","77068","5282","NA","1887","85887","457879","462085","462576","458881","462085","457877","Sternberg task","74","40134","77","yes","1024"
"96.15384615384616","96.15384615384616","521.025641025641","521.025641025641","black","experiment","legacy","legacy","legacy","0","uniform","1","undefined","1","right","77","77","77","0","0","0","0","0","0","77","77","77","77","77","77","Sun Oct 17 17:05:10 2021","The main experiment item","yes","Sternbergtask.osexp","C:/Users/User/Desktop/School/Research Methods","no","mono","no","18","no","white","no","yes","768","legacy","65","11","C:/Users/User/Desktop/School/Research Methods/LW-subject-1-stern.csv","legacy","6 2 9 3 8 4","Lentiform Loewenfeld","3.3.9","0","n","0","right","right","right","NA","right","506","3391","8818","NA","506","2","legacy","6","1024","2","48000","-16","experiment","1","odd","1","462580","465879","160889","1890","77068","5282","NA","1887","85887","463674","467881","468388","464677","467881","463672","Sternberg task","75","40640","78","yes","1024"
"96.20253164556962","96.20253164556962","525.3291139240506","525.3291139240506","black","experiment","legacy","legacy","legacy","0","uniform","1","undefined","1","right","78","78","78","0","0","0","0","0","0","78","78","78","78","78","78","Sun Oct 17 17:05:10 2021","The main experiment item","yes","Sternbergtask.osexp","C:/Users/User/Desktop/School/Research Methods","no","mono","no","18","no","white","no","yes","768","legacy","66","11","C:/Users/User/Desktop/School/Research Methods/LW-subject-1-stern.csv","legacy","6 9 4 5 3 2","Lentiform Loewenfeld","3.3.9","0","n","0","right","right","right","NA","right","861","3391","8818","NA","861","2","legacy","6","1024","2","48000","-16","experiment","1","odd","8","468392","471689","160889","1890","77068","5282","NA","1887","85887","469485","473691","474553","470487","473691","469483","Sternberg task","76","41501","79","yes","1024"
"96.25","96.25","524","524","black","experiment","legacy","legacy","legacy","0","uniform","1","undefined","1","right","79","79","79","0","0","0","0","0","0","79","79","79","79","79","79","Sun Oct 17 17:05:10 2021","The main experiment item","yes","Sternbergtask.osexp","C:/Users/User/Desktop/School/Research Methods","no","mono","no","18","no","white","no","yes","768","legacy","67","11","C:/Users/User/Desktop/School/Research Methods/LW-subject-1-stern.csv","legacy","8 6 3 4 7","Lentiform Loewenfeld","3.3.9","0","n","0","right","right","right","NA","right","419","3391","8818","NA","419","2","legacy","5","1024","2","48000","-16","experiment","1","odd","1","474557","477853","160889","1890","77068","5282","NA","1887","85887","475649","479855","480276","476651","479855","475647","Sternberg task","77","41920","80","yes","1024"
"96.29629629629629","96.29629629629629","522.9506172839506","522.9506172839506","black","experiment","legacy","legacy","legacy","0","uniform","1","undefined","1","left","80","80","80","0","0","0","0","0","0","80","80","80","80","80","80","Sun Oct 17 17:05:10 2021","The main experiment item","yes","Sternbergtask.osexp","C:/Users/User/Desktop/School/Research Methods","no","mono","no","18","no","white","no","yes","768","legacy","68","11","C:/Users/User/Desktop/School/Research Methods/LW-subject-1-stern.csv","legacy","4 9 7 8 5 3","Lentiform Loewenfeld","3.3.9","4","y","0","left","right","right","NA","left","439","3391","8818","NA","439","2","legacy","6","1024","2","48000","-16","experiment","1","odd","8","480280","483575","160889","1890","77068","5282","NA","1887","85887","481371","485577","486018","482373","485577","481369","Sternberg task","78","42359","81","yes","1024"
"96.34146341463415","96.34146341463415","523.109756097561","523.109756097561","black","experiment","legacy","legacy","legacy","0","uniform","1","undefined","1","right","81","81","81","0","0","0","0","0","0","81","81","81","81","81","81","Sun Oct 17 17:05:10 2021","The main experiment item","yes","Sternbergtask.osexp","C:/Users/User/Desktop/School/Research Methods","no","mono","no","18","no","white","no","yes","768","legacy","69","11","C:/Users/User/Desktop/School/Research Methods/LW-subject-1-stern.csv","legacy","7 6 4 8 1 2","Lentiform Loewenfeld","3.3.9","0","n","0","right","right","right","NA","right","536","3391","8818","NA","536","2","legacy","6","1024","2","48000","-16","experiment","1","odd","9","486022","489318","160889","1890","77068","5282","NA","1887","85887","487114","491320","491857","488116","491320","487111","Sternberg task","79","42895","82","yes","1024"
"96.3855421686747","96.3855421686747","521.2048192771084","521.2048192771084","black","experiment","legacy","legacy","legacy","0","uniform","1","undefined","1","left","82","82","82","0","0","0","0","0","0","82","82","82","82","82","82","Sun Oct 17 17:05:10 2021","The main experiment item","yes","Sternbergtask.osexp","C:/Users/User/Desktop/School/Research Methods","no","mono","no","18","no","white","no","yes","768","legacy","70","11","C:/Users/User/Desktop/School/Research Methods/LW-subject-1-stern.csv","legacy","4 1 5","Lentiform Loewenfeld","3.3.9","2","y","0","left","right","right","NA","left","365","3391","8818","NA","365","2","legacy","3","1024","2","48000","-16","experiment","1","odd","1","491861","495157","160889","1890","77068","5282","NA","1887","85887","492953","497159","497525","493955","497159","492951","Sternberg task","80","43260","83","yes","1024"
"96.42857142857143","96.42857142857143","520.8928571428571","520.8928571428571","black","experiment","legacy","legacy","legacy","0","uniform","1","undefined","1","right","83","83","83","0","0","0","0","0","0","83","83","83","83","83","83","Sun Oct 17 17:05:10 2021","The main experiment item","yes","Sternbergtask.osexp","C:/Users/User/Desktop/School/Research Methods","no","mono","no","18","no","white","no","yes","768","legacy","71","11","C:/Users/User/Desktop/School/Research Methods/LW-subject-1-stern.csv","legacy","5 9 2 3","Lentiform Loewenfeld","3.3.9","0","n","0","right","right","right","NA","right","495","3391","8818","NA","495","2","legacy","4","1024","2","48000","-16","experiment","1","odd","8","497529","500824","160889","1890","77068","5282","NA","1887","85887","498620","502826","503322","499622","502826","498618","Sternberg task","81","43755","84","yes","1024"
"96.47058823529412","96.47058823529412","521.7176470588236","521.7176470588236","black","experiment","legacy","legacy","legacy","0","uniform","1","undefined","1","right","84","84","84","0","0","0","0","0","0","84","84","84","84","84","84","Sun Oct 17 17:05:10 2021","The main experiment item","yes","Sternbergtask.osexp","C:/Users/User/Desktop/School/Research Methods","no","mono","no","18","no","white","no","yes","768","legacy","72","11","C:/Users/User/Desktop/School/Research Methods/LW-subject-1-stern.csv","legacy","6 8 4","Lentiform Loewenfeld","3.3.9","0","n","0","right","right","right","NA","right","591","3391","8818","NA","591","2","legacy","3","1024","2","48000","-16","experiment","1","odd","1","503326","506623","160889","1890","77068","5282","NA","1887","85887","504419","508625","509218","505421","508625","504416","Sternberg task","82","44346","85","yes","1024"
"96.51162790697674","96.51162790697674","520.453488372093","520.453488372093","black","experiment","legacy","legacy","legacy","0","uniform","1","undefined","1","left","85","85","85","0","0","0","0","0","0","85","85","85","85","85","85","Sun Oct 17 17:05:10 2021","The main experiment item","yes","Sternbergtask.osexp","C:/Users/User/Desktop/School/Research Methods","no","mono","no","18","no","white","no","yes","768","legacy","73","11","C:/Users/User/Desktop/School/Research Methods/LW-subject-1-stern.csv","legacy","2 4 6 9","Lentiform Loewenfeld","3.3.9","3","y","0","left","right","right","NA","left","413","3391","8818","NA","413","2","legacy","4","1024","2","48000","-16","experiment","1","odd","6","509222","512519","160889","1890","77068","5282","NA","1887","85887","510315","514521","514935","511317","514521","510313","Sternberg task","83","44759","86","yes","1024"
"96.55172413793103","96.55172413793103","520.3793103448276","520.3793103448276","black","experiment","legacy","legacy","legacy","0","uniform","1","undefined","1","left","86","86","86","0","0","0","0","0","0","86","86","86","86","86","86","Sun Oct 17 17:05:10 2021","The main experiment item","yes","Sternbergtask.osexp","C:/Users/User/Desktop/School/Research Methods","no","mono","no","18","no","white","no","yes","768","legacy","74","11","C:/Users/User/Desktop/School/Research Methods/LW-subject-1-stern.csv","legacy","9 3 8 2 1 4","Lentiform Loewenfeld","3.3.9","3","y","0","left","right","right","NA","left","514","3391","8818","NA","514","2","legacy","6","1024","2","48000","-16","experiment","1","odd","8","514939","518236","160889","1890","77068","5282","NA","1887","85887","516032","520238","520754","517034","520238","516030","Sternberg task","84","45273","87","yes","1024"
"96.5909090909091","96.5909090909091","521.9090909090909","521.9090909090909","black","experiment","legacy","legacy","legacy","0","uniform","1","undefined","1","right","87","87","87","0","0","0","0","0","0","87","87","87","87","87","87","Sun Oct 17 17:05:10 2021","The main experiment item","yes","Sternbergtask.osexp","C:/Users/User/Desktop/School/Research Methods","no","mono","no","18","no","white","no","yes","768","legacy","75","11","C:/Users/User/Desktop/School/Research Methods/LW-subject-1-stern.csv","legacy","9 7 4 5 8","Lentiform Loewenfeld","3.3.9","0","n","0","right","right","right","NA","right","655","3391","8818","NA","655","2","legacy","5","1024","2","48000","-16","experiment","1","odd","6","520758","524054","160889","1890","77068","5282","NA","1887","85887","521850","526056","526713","522852","526056","521848","Sternberg task","85","45928","88","yes","1024"
"96.62921348314607","96.62921348314607","525.0449438202247","525.0449438202247","black","experiment","legacy","legacy","legacy","0","uniform","1","undefined","1","right","88","88","88","0","0","0","0","0","0","88","88","88","88","88","88","Sun Oct 17 17:05:10 2021","The main experiment item","yes","Sternbergtask.osexp","C:/Users/User/Desktop/School/Research Methods","no","mono","no","18","no","white","no","yes","768","legacy","76","11","C:/Users/User/Desktop/School/Research Methods/LW-subject-1-stern.csv","legacy","1 7 8 3 9","Lentiform Loewenfeld","3.3.9","0","n","0","right","right","right","NA","right","801","3391","8818","NA","801","2","legacy","5","1024","2","48000","-16","experiment","1","odd","2","526717","530014","160889","1890","77068","5282","NA","1887","85887","527810","532016","532818","528812","532016","527807","Sternberg task","86","46729","89","yes","1024"
"96.66666666666667","96.66666666666667","526.1333333333333","526.1333333333333","black","experiment","legacy","legacy","legacy","0","uniform","1","undefined","1","left","89","89","89","0","0","0","0","0","0","89","89","89","89","89","89","Sun Oct 17 17:05:10 2021","The main experiment item","yes","Sternbergtask.osexp","C:/Users/User/Desktop/School/Research Methods","no","mono","no","18","no","white","no","yes","768","legacy","77","11","C:/Users/User/Desktop/School/Research Methods/LW-subject-1-stern.csv","legacy","8 5 1 3 9","Lentiform Loewenfeld","3.3.9","4","y","0","left","right","right","NA","left","623","3391","8818","NA","623","2","legacy","5","1024","2","48000","-16","experiment","1","odd","3","532823","536119","160889","1890","77068","5282","NA","1887","85887","533915","538121","538746","534917","538121","533913","Sternberg task","87","47352","90","yes","1024"
"96.7032967032967","96.7032967032967","524.4285714285714","524.4285714285714","black","experiment","legacy","legacy","legacy","0","uniform","1","undefined","1","left","90","90","90","0","0","0","0","0","0","90","90","90","90","90","90","Sun Oct 17 17:05:10 2021","The main experiment item","yes","Sternbergtask.osexp","C:/Users/User/Desktop/School/Research Methods","no","mono","no","18","no","white","no","yes","768","legacy","78","11","C:/Users/User/Desktop/School/Research Methods/LW-subject-1-stern.csv","legacy","2 3 7 4","Lentiform Loewenfeld","3.3.9","1","y","0","left","right","right","NA","left","371","3391","8818","NA","371","2","legacy","4","1024","2","48000","-16","experiment","1","odd","2","538750","542046","160889","1890","77068","5282","NA","1887","85887","539842","544048","544421","540844","544048","539840","Sternberg task","88","47723","91","yes","1024"
"96.73913043478261","96.73913043478261","522.9130434782609","522.9130434782609","black","experiment","legacy","legacy","legacy","0","uniform","1","undefined","1","left","91","91","91","0","0","0","0","0","0","91","91","91","91","91","91","Sun Oct 17 17:05:10 2021","The main experiment item","yes","Sternbergtask.osexp","C:/Users/User/Desktop/School/Research Methods","no","mono","no","18","no","white","no","yes","768","legacy","79","11","C:/Users/User/Desktop/School/Research Methods/LW-subject-1-stern.csv","legacy","8 7 3","Lentiform Loewenfeld","3.3.9","1","y","0","left","right","right","NA","left","385","3391","8818","NA","385","2","legacy","3","1024","2","48000","-16","experiment","1","odd","8","544425","547721","160889","1890","77068","5282","NA","1887","85887","545517","549723","550110","546519","549723","545515","Sternberg task","89","48108","92","yes","1024"
"96.7741935483871","96.7741935483871","521.6774193548387","521.6774193548387","black","experiment","legacy","legacy","legacy","0","uniform","1","undefined","1","left","92","92","92","0","0","0","0","0","0","92","92","92","92","92","92","Sun Oct 17 17:05:10 2021","The main experiment item","yes","Sternbergtask.osexp","C:/Users/User/Desktop/School/Research Methods","no","mono","no","18","no","white","no","yes","768","legacy","80","11","C:/Users/User/Desktop/School/Research Methods/LW-subject-1-stern.csv","legacy","9 1 6 7 8","Lentiform Loewenfeld","3.3.9","1","y","0","left","right","right","NA","left","408","3391","8818","NA","408","2","legacy","5","1024","2","48000","-16","experiment","1","odd","9","550114","553409","160889","1890","77068","5282","NA","1887","85887","551205","555411","555821","552207","555411","551203","Sternberg task","90","48516","93","yes","1024"
"96.80851063829788","96.80851063829788","522.7978723404256","522.7978723404256","black","experiment","legacy","legacy","legacy","0","uniform","1","undefined","1","right","93","93","93","0","0","0","0","0","0","93","93","93","93","93","93","Sun Oct 17 17:05:10 2021","The main experiment item","yes","Sternbergtask.osexp","C:/Users/User/Desktop/School/Research Methods","no","mono","no","18","no","white","no","yes","768","legacy","81","11","C:/Users/User/Desktop/School/Research Methods/LW-subject-1-stern.csv","legacy","1","Lentiform Loewenfeld","3.3.9","0","n","0","right","right","right","NA","right","627","3391","8818","NA","627","2","legacy","1","1024","2","48000","-16","experiment","1","odd","7","555825","559120","160889","1890","77068","5282","NA","1887","85887","556916","561122","561750","557918","561122","556914","Sternberg task","91","49143","94","yes","1024"
"96.84210526315789","96.84210526315789","523.0736842105263","523.0736842105263","black","experiment","legacy","legacy","legacy","0","uniform","1","undefined","1","right","94","94","94","0","0","0","0","0","0","94","94","94","94","94","94","Sun Oct 17 17:05:10 2021","The main experiment item","yes","Sternbergtask.osexp","C:/Users/User/Desktop/School/Research Methods","no","mono","no","18","no","white","no","yes","768","legacy","82","11","C:/Users/User/Desktop/School/Research Methods/LW-subject-1-stern.csv","legacy","8 4 3 9","Lentiform Loewenfeld","3.3.9","0","n","0","right","right","right","NA","right","549","3391","8818","NA","549","2","legacy","4","1024","2","48000","-16","experiment","1","odd","5","561754","565051","160889","1890","77068","5282","NA","1887","85887","562847","567053","567603","563849","567053","562845","Sternberg task","92","49692","95","yes","1024"
"96.875","96.875","521.34375","521.34375","black","experiment","legacy","legacy","legacy","0","uniform","1","undefined","1","left","95","95","95","0","0","0","0","0","0","95","95","95","95","95","95","Sun Oct 17 17:05:10 2021","The main experiment item","yes","Sternbergtask.osexp","C:/Users/User/Desktop/School/Research Methods","no","mono","no","18","no","white","no","yes","768","legacy","83","11","C:/Users/User/Desktop/School/Research Methods/LW-subject-1-stern.csv","legacy","7","Lentiform Loewenfeld","3.3.9","1","y","0","left","right","right","NA","left","357","3391","8818","NA","357","2","legacy","1","1024","2","48000","-16","experiment","1","odd","7","567607","570906","160889","1890","77068","5282","NA","1887","85887","568702","572908","573267","569704","572908","568699","Sternberg task","93","50049","96","yes","1024"
"96.90721649484536","96.90721649484536","521.5360824742268","521.5360824742268","black","experiment","legacy","legacy","legacy","0","uniform","1","undefined","1","left","96","96","96","0","0","0","0","0","0","96","96","96","96","96","96","Sun Oct 17 17:05:10 2021","The main experiment item","yes","Sternbergtask.osexp","C:/Users/User/Desktop/School/Research Methods","no","mono","no","18","no","white","no","yes","768","legacy","84","11","C:/Users/User/Desktop/School/Research Methods/LW-subject-1-stern.csv","legacy","9 3 1 2 5","Lentiform Loewenfeld","3.3.9","4","y","0","left","right","right","NA","left","540","3391","8818","NA","540","2","legacy","5","1024","2","48000","-16","experiment","1","odd","2","573271","576568","160889","1890","77068","5282","NA","1887","85887","574364","578570","579112","575366","578570","574362","Sternberg task","94","50589","97","yes","1024"
"96.93877551020408","96.93877551020408","519.9591836734694","519.9591836734694","black","experiment","legacy","legacy","legacy","0","uniform","1","undefined","1","left","97","97","97","0","0","0","0","0","0","97","97","97","97","97","97","Sun Oct 17 17:05:10 2021","The main experiment item","yes","Sternbergtask.osexp","C:/Users/User/Desktop/School/Research Methods","no","mono","no","18","no","white","no","yes","768","legacy","85","11","C:/Users/User/Desktop/School/Research Methods/LW-subject-1-stern.csv","legacy","8 9 5 7 1 6","Lentiform Loewenfeld","3.3.9","4","y","0","left","right","right","NA","left","367","3391","8818","NA","367","2","legacy","6","1024","2","48000","-16","experiment","1","odd","7","579116","582412","160889","1890","77068","5282","NA","1887","85887","580208","584414","584783","581210","584414","580205","Sternberg task","95","50956","98","yes","1024"
"96.96969696969697","96.96969696969697","518.939393939394","518.939393939394","black","experiment","legacy","legacy","legacy","0","uniform","1","undefined","1","left","98","98","98","0","0","0","0","0","0","98","98","98","98","98","98","Sun Oct 17 17:05:10 2021","The main experiment item","yes","Sternbergtask.osexp","C:/Users/User/Desktop/School/Research Methods","no","mono","no","18","no","white","no","yes","768","legacy","86","11","C:/Users/User/Desktop/School/Research Methods/LW-subject-1-stern.csv","legacy","9 5 8 1","Lentiform Loewenfeld","3.3.9","2","y","0","left","right","right","NA","left","419","3391","8818","NA","419","2","legacy","4","1024","2","48000","-16","experiment","1","odd","5","584787","588083","160889","1890","77068","5282","NA","1887","85887","585879","590085","590506","586881","590085","585877","Sternberg task","96","51375","99","yes","1024"
"97","97","519.31","519.31","black","experiment","legacy","legacy","legacy","0","uniform","1","undefined","1","right","99","99","99","0","0","0","0","0","0","99","99","99","99","99","99","Sun Oct 17 17:05:10 2021","The main experiment item","yes","Sternbergtask.osexp","C:/Users/User/Desktop/School/Research Methods","no","mono","no","18","no","white","no","yes","768","legacy","87","11","C:/Users/User/Desktop/School/Research Methods/LW-subject-1-stern.csv","legacy","8 2 1 4 5 9","Lentiform Loewenfeld","3.3.9","0","n","0","right","right","right","NA","right","556","3391","8818","NA","556","2","legacy","6","1024","2","48000","-16","experiment","1","odd","7","590510","593807","160889","1890","77068","5282","NA","1887","85887","591603","595809","596367","592605","595809","591601","Sternberg task","97","51931","100","yes","1024"
"97.02970297029702","97.02970297029702","517.7722772277227","517.7722772277227","black","experiment","legacy","legacy","legacy","0","uniform","1","undefined","1","left","100","100","100","0","0","0","0","0","0","100","100","100","100","100","100","Sun Oct 17 17:05:10 2021","The main experiment item","yes","Sternbergtask.osexp","C:/Users/User/Desktop/School/Research Methods","no","mono","no","18","no","white","no","yes","768","legacy","88","11","C:/Users/User/Desktop/School/Research Methods/LW-subject-1-stern.csv","legacy","5 7 3 6 2","Lentiform Loewenfeld","3.3.9","5","y","0","left","right","right","NA","left","364","3391","8818","NA","364","2","legacy","5","1024","2","48000","-16","experiment","1","odd","2","596370","599667","160889","1890","77068","5282","NA","1887","85887","597463","601669","602034","598465","601669","597461","Sternberg task","98","52295","101","yes","1024"
"97.05882352941177","97.05882352941177","517.2156862745098","517.2156862745098","black","experiment","legacy","legacy","legacy","0","uniform","1","undefined","1","right","101","101","101","0","0","0","0","0","0","101","101","101","101","101","101","Sun Oct 17 17:05:10 2021","The main experiment item","yes","Sternbergtask.osexp","C:/Users/User/Desktop/School/Research Methods","no","mono","no","18","no","white","no","yes","768","legacy","89","11","C:/Users/User/Desktop/School/Research Methods/LW-subject-1-stern.csv","legacy","6 9 5","Lentiform Loewenfeld","3.3.9","0","n","0","right","right","right","NA","right","461","3391","8818","NA","461","2","legacy","3","1024","2","48000","-16","experiment","1","odd","8","602038","605334","160889","1890","77068","5282","NA","1887","85887","603130","607336","607798","604132","607336","603128","Sternberg task","99","52756","102","yes","1024"
"97.0873786407767","97.0873786407767","517.1262135922331","517.1262135922331","black","experiment","legacy","legacy","legacy","0","uniform","1","undefined","1","right","102","102","102","0","0","0","0","0","0","102","102","102","102","102","102","Sun Oct 17 17:05:10 2021","The main experiment item","yes","Sternbergtask.osexp","C:/Users/User/Desktop/School/Research Methods","no","mono","no","18","no","white","no","yes","768","legacy","90","11","C:/Users/User/Desktop/School/Research Methods/LW-subject-1-stern.csv","legacy","1 6 4","Lentiform Loewenfeld","3.3.9","0","n","0","right","right","right","NA","right","508","3391","8818","NA","508","2","legacy","3","1024","2","48000","-16","experiment","1","odd","7","607802","611099","160889","1890","77068","5282","NA","1887","85887","608895","613101","613611","609897","613101","608892","Sternberg task","100","53264","103","yes","1024"
"97.11538461538461","97.11538461538461","517.6153846153846","517.6153846153846","black","experiment","legacy","legacy","legacy","0","uniform","1","undefined","1","right","103","103","103","0","0","0","0","0","0","103","103","103","103","103","103","Sun Oct 17 17:05:10 2021","The main experiment item","yes","Sternbergtask.osexp","C:/Users/User/Desktop/School/Research Methods","no","mono","no","18","no","white","no","yes","768","legacy","91","11","C:/Users/User/Desktop/School/Research Methods/LW-subject-1-stern.csv","legacy","6 8","Lentiform Loewenfeld","3.3.9","0","n","0","right","right","right","NA","right","568","3391","8818","NA","568","2","legacy","2","1024","2","48000","-16","experiment","1","odd","9","613615","616911","160889","1890","77068","5282","NA","1887","85887","614707","618913","619483","615709","618913","614704","Sternberg task","101","53832","104","yes","1024"
"97.14285714285714","97.14285714285714","519.3904761904762","519.3904761904762","black","experiment","legacy","legacy","legacy","0","uniform","1","undefined","1","left","104","104","104","0","0","0","0","0","0","104","104","104","104","104","104","Sun Oct 17 17:05:10 2021","The main experiment item","yes","Sternbergtask.osexp","C:/Users/User/Desktop/School/Research Methods","no","mono","no","18","no","white","no","yes","768","legacy","92","11","C:/Users/User/Desktop/School/Research Methods/LW-subject-1-stern.csv","legacy","8 9 6 1","Lentiform Loewenfeld","3.3.9","2","y","0","left","right","right","NA","left","704","3391","8818","NA","704","2","legacy","4","1024","2","48000","-16","experiment","1","odd","9","619487","622783","160889","1890","77068","5282","NA","1887","85887","620579","624785","625491","621581","624785","620577","Sternberg task","102","54536","105","yes","1024"
"97.16981132075472","97.16981132075472","518.9716981132076","518.9716981132076","black","experiment","legacy","legacy","legacy","0","uniform","1","undefined","1","right","105","105","105","0","0","0","0","0","0","105","105","105","105","105","105","Sun Oct 17 17:05:10 2021","The main experiment item","yes","Sternbergtask.osexp","C:/Users/User/Desktop/School/Research Methods","no","mono","no","18","no","white","no","yes","768","legacy","93","11","C:/Users/User/Desktop/School/Research Methods/LW-subject-1-stern.csv","legacy","1 4 9 2 5","Lentiform Loewenfeld","3.3.9","0","n","0","right","right","right","NA","right","475","3391","8818","NA","475","2","legacy","5","1024","2","48000","-16","experiment","1","odd","7","625494","628789","160889","1890","77068","5282","NA","1887","85887","626585","630791","631267","627587","630791","626583","Sternberg task","103","55011","106","yes","1024"
"97.19626168224299","97.19626168224299","518.2056074766355","518.2056074766355","black","experiment","legacy","legacy","legacy","0","uniform","1","undefined","1","right","106","106","106","0","0","0","0","0","0","106","106","106","106","106","106","Sun Oct 17 17:05:10 2021","The main experiment item","yes","Sternbergtask.osexp","C:/Users/User/Desktop/School/Research Methods","no","mono","no","18","no","white","no","yes","768","legacy","94","11","C:/Users/User/Desktop/School/Research Methods/LW-subject-1-stern.csv","legacy","6 9 4 5 2","Lentiform Loewenfeld","3.3.9","0","n","0","right","right","right","NA","right","437","3391","8818","NA","437","2","legacy","5","1024","2","48000","-16","experiment","1","odd","1","631271","634567","160889","1890","77068","5282","NA","1887","85887","632363","636569","637008","633365","636569","632361","Sternberg task","104","55448","107","yes","1024"
"97.22222222222223","97.22222222222223","522.175925925926","522.175925925926","black","experiment","legacy","legacy","legacy","0","uniform","1","undefined","1","right","107","107","107","0","0","0","0","0","0","107","107","107","107","107","107","Sun Oct 17 17:05:10 2021","The main experiment item","yes","Sternbergtask.osexp","C:/Users/User/Desktop/School/Research Methods","no","mono","no","18","no","white","no","yes","768","legacy","95","11","C:/Users/User/Desktop/School/Research Methods/LW-subject-1-stern.csv","legacy","1 3 2 6 9","Lentiform Loewenfeld","3.3.9","0","n","0","right","right","right","NA","right","947","3391","8818","NA","947","2","legacy","5","1024","2","48000","-16","experiment","1","odd","5","637012","640308","160889","1890","77068","5282","NA","1887","85887","638104","642310","643259","639106","642310","638102","Sternberg task","105","56395","108","yes","1024"
"96.3302752293578","96.3302752293578","522.8990825688073","522.8990825688073","black","experiment","legacy","legacy","legacy","0","uniform","0","undefined","0","left","108","108","108","0","0","0","0","0","0","108","108","108","108","108","108","Sun Oct 17 17:05:10 2021","The main experiment item","yes","Sternbergtask.osexp","C:/Users/User/Desktop/School/Research Methods","no","mono","no","18","no","white","no","yes","768","legacy","96","11","C:/Users/User/Desktop/School/Research Methods/LW-subject-1-stern.csv","legacy","5 7 8 2 3 8","Lentiform Loewenfeld","3.3.9","5","y","0","right","right","right","NA","right","601","3391","8818","NA","601","2","legacy","6","1024","2","48000","-16","experiment","1","odd","3","643263","646559","160889","1890","77068","5282","NA","1887","85887","644355","648561","649163","645357","648561","644353","Sternberg task","105","56996","109","yes","1024"
"96.36363636363636","96.36363636363636","524.9363636363636","524.9363636363636","black","experiment","legacy","legacy","legacy","0","uniform","1","undefined","1","left","109","109","109","0","0","0","0","0","0","109","109","109","109","109","109","Sun Oct 17 17:05:10 2021","The main experiment item","yes","Sternbergtask.osexp","C:/Users/User/Desktop/School/Research Methods","no","mono","no","18","no","white","no","yes","768","legacy","97","11","C:/Users/User/Desktop/School/Research Methods/LW-subject-1-stern.csv","legacy","6 5","Lentiform Loewenfeld","3.3.9","2","y","0","left","right","right","NA","left","747","3391","8818","NA","747","2","legacy","2","1024","2","48000","-16","experiment","1","odd","5","643263","652463","649167","1890","77068","5282","NA","1887","85887","650259","654465","655214","651261","654465","650257","Sternberg task","106","57743","110","yes","1024"
"95.49549549549549","95.49549549549549","524.8738738738739","524.8738738738739","black","experiment","legacy","legacy","legacy","0","uniform","0","undefined","0","left","110","110","110","0","0","0","0","0","0","110","110","110","110","110","110","Sun Oct 17 17:05:10 2021","The main experiment item","yes","Sternbergtask.osexp","C:/Users/User/Desktop/School/Research Methods","no","mono","no","18","no","white","no","yes","768","legacy","98","11","C:/Users/User/Desktop/School/Research Methods/LW-subject-1-stern.csv","legacy","3 5 9 6 2 4","Lentiform Loewenfeld","3.3.9","1","y","0","right","right","right","NA","right","518","3391","8818","NA","518","2","legacy","6","1024","2","48000","-16","experiment","1","odd","3","655218","658514","649167","1890","77068","5282","NA","1887","85887","656310","660516","661036","657312","660516","656308","Sternberg task","106","58261","111","yes","1024"
"95.53571428571429","95.53571428571429","524.6339285714286","524.6339285714286","black","experiment","legacy","legacy","legacy","0","uniform","1","undefined","1","right","111","111","111","0","0","0","0","0","0","111","111","111","111","111","111","Sun Oct 17 17:05:10 2021","The main experiment item","yes","Sternbergtask.osexp","C:/Users/User/Desktop/School/Research Methods","no","mono","no","18","no","white","no","yes","768","legacy","99","11","C:/Users/User/Desktop/School/Research Methods/LW-subject-1-stern.csv","legacy","5 3 8 7 2 4","Lentiform Loewenfeld","3.3.9","0","n","0","right","right","right","NA","right","498","3391","8818","NA","498","2","legacy","6","1024","2","48000","-16","experiment","1","odd","9","655218","664335","661040","1890","77068","5282","NA","1887","85887","662131","666337","666837","663133","666337","662129","Sternberg task","107","58759","112","yes","1024"
"95.57522123893806","95.57522123893806","524.0884955752213","524.0884955752213","black","experiment","legacy","legacy","legacy","0","uniform","1","undefined","1","right","112","112","112","0","0","0","0","0","0","112","112","112","112","112","112","Sun Oct 17 17:05:10 2021","The main experiment item","yes","Sternbergtask.osexp","C:/Users/User/Desktop/School/Research Methods","no","mono","no","18","no","white","no","yes","768","legacy","100","11","C:/Users/User/Desktop/School/Research Methods/LW-subject-1-stern.csv","legacy","5 7 3","Lentiform Loewenfeld","3.3.9","0","n","0","right","right","right","NA","right","463","3391","8818","NA","463","2","legacy","3","1024","2","48000","-16","experiment","1","odd","9","666844","670141","661040","1890","77068","5282","NA","1887","85887","667937","672143","672608","668939","672143","667934","Sternberg task","108","59222","113","yes","1024"
