"acc","accuracy","average_response_time","avg_rt","background","block","canvas_backend","clock_backend","color_backend","compensation","coordinates","correct","correct_Instructions1","correct_KeyboardResponse","correct_response","count_CorrectFeedback","count_ExpSequence","count_ExperimentLoop","count_Fixation","count_ISI","count_IncorrectFeedback","count_Instructions1","count_Instructions2","count_KeyboardResponse","count_Logger","count_MemorySet","count_PracticeLoop","count_Probe","count_ThankYou","count_experiment","datetime","description","disable_garbage_collection","experiment_file","experiment_path","font_bold","font_family","font_italic","font_size","font_underline","foreground","form_clicks","fullscreen","height","keyboard_backend","live_row","live_row_PracticeLoop","logfile","mouse_backend","numberSet","opensesame_codename","opensesame_version","posInSet","present","repeat_cycle","response","response_Instructions1","response_Instructions2","response_KeyboardResponse","response_ThankYou","response_time","response_time_Instructions1","response_time_Instructions2","response_time_KeyboardResponse","response_time_ThankYou","round_decimals","sampler_backend","setSize","sound_buf_size","sound_channels","sound_freq","sound_sample_size","start","subject_nr","subject_parity","target","time_CorrectFeedback","time_ExpSequence","time_ExperimentLoop","time_Fixation","time_ISI","time_IncorrectFeedback","time_Instructions1","time_Instructions2","time_KeyboardResponse","time_Logger","time_MemorySet","time_PracticeLoop","time_Probe","time_ThankYou","time_experiment","title","total_correct","total_response_time","total_responses","uniform_coordinates","width"
"100","100","714","714","black","practice","legacy","legacy","legacy","0","uniform","1","undefined","1","right","0","0","0","0","0","0","0","0","0","0","0","0","0","0","0","Sun Oct 25 22:50:30 2020","The main experiment item","yes","SternbergTask.osexp","C:\Users\katri\OneDrive\Documents\Fall 2020\Sternberg Memory Task","no","mono","no","18","no","white","no","yes","768","legacy","0","0","C:/Users/katri/OneDrive/Documents/Fall 2020/Sternberg Memory Task/subject-4.csv","legacy","4 1 5","Lentiform Loewenfeld","3.3.3","0","n","0","right","return","NA","right","NA","714","9884","NA","714","NA","2","legacy","3","1024","2","48000","-16","experiment","4","even","2","NA","12024","NA","12026","14231","NA","1807","NA","16232","16946","13027","11692","16232","NA","1800","Sternberg Task","1","714","1","yes","1024"
"100","100","834","834","black","practice","legacy","legacy","legacy","0","uniform","1","undefined","1","left","1","1","0","1","1","1","0","0","1","1","1","0","1","0","0","Sun Oct 25 22:50:30 2020","The main experiment item","yes","SternbergTask.osexp","C:\Users\katri\OneDrive\Documents\Fall 2020\Sternberg Memory Task","no","mono","no","18","no","white","no","yes","768","legacy","1","1","C:/Users/katri/OneDrive/Documents/Fall 2020/Sternberg Memory Task/subject-4.csv","legacy","1 5 2 9","Lentiform Loewenfeld","3.3.3","2","y","0","left","return","NA","left","NA","954","9884","NA","954","NA","2","legacy","4","1024","2","48000","-16","experiment","4","even","5","16980","18053","NA","18055","20260","NA","1807","NA","22266","23220","19056","11692","22265","NA","1800","Sternberg Task","2","1668","2","yes","1024"
"100","100","775.6666666666666","775.6666666666666","black","practice","legacy","legacy","legacy","0","uniform","1","undefined","1","right","2","2","0","2","2","2","0","0","2","2","2","0","2","0","0","Sun Oct 25 22:50:30 2020","The main experiment item","yes","SternbergTask.osexp","C:\Users\katri\OneDrive\Documents\Fall 2020\Sternberg Memory Task","no","mono","no","18","no","white","no","yes","768","legacy","2","2","C:/Users/katri/OneDrive/Documents/Fall 2020/Sternberg Memory Task/subject-4.csv","legacy","3 1 9 4","Lentiform Loewenfeld","3.3.3","0","n","0","right","return","NA","right","NA","659","9884","NA","659","NA","2","legacy","4","1024","2","48000","-16","experiment","4","even","6","23243","24314","NA","24316","26522","NA","1807","NA","28523","29183","25318","11692","28523","NA","1800","Sternberg Task","3","2327","3","yes","1024"
"100","100","838.75","838.75","black","practice","legacy","legacy","legacy","0","uniform","1","undefined","1","right","3","3","0","3","3","3","0","0","3","3","3","0","3","0","0","Sun Oct 25 22:50:30 2020","The main experiment item","yes","SternbergTask.osexp","C:\Users\katri\OneDrive\Documents\Fall 2020\Sternberg Memory Task","no","mono","no","18","no","white","no","yes","768","legacy","3","3","C:/Users/katri/OneDrive/Documents/Fall 2020/Sternberg Memory Task/subject-4.csv","legacy","5 7 8 4 1 2","Lentiform Loewenfeld","3.3.3","0","n","0","right","return","NA","right","NA","1028","9884","NA","1028","NA","2","legacy","6","1024","2","48000","-16","experiment","4","even","6","29190","30262","NA","30263","32470","NA","1807","NA","34471","35499","31265","11692","34471","NA","1800","Sternberg Task","4","3355","4","yes","1024"
"100","100","801","801","black","practice","legacy","legacy","legacy","0","uniform","1","undefined","1","left","4","4","0","4","4","4","0","0","4","4","4","0","4","0","0","Sun Oct 25 22:50:30 2020","The main experiment item","yes","SternbergTask.osexp","C:\Users\katri\OneDrive\Documents\Fall 2020\Sternberg Memory Task","no","mono","no","18","no","white","no","yes","768","legacy","4","4","C:/Users/katri/OneDrive/Documents/Fall 2020/Sternberg Memory Task/subject-4.csv","legacy","1 7 9 8 5","Lentiform Loewenfeld","3.3.3","4","y","0","left","return","NA","left","NA","650","9884","NA","650","NA","2","legacy","5","1024","2","48000","-16","experiment","4","even","8","35522","36596","NA","36597","38803","NA","1807","NA","40809","41459","37598","11692","40808","NA","1800","Sternberg Task","5","4005","5","yes","1024"
"100","100","871","871","black","practice","legacy","legacy","legacy","0","uniform","1","undefined","1","left","5","5","0","5","5","5","0","0","5","5","5","0","5","0","0","Sun Oct 25 22:50:30 2020","The main experiment item","yes","SternbergTask.osexp","C:\Users\katri\OneDrive\Documents\Fall 2020\Sternberg Memory Task","no","mono","no","18","no","white","no","yes","768","legacy","5","5","C:/Users/katri/OneDrive/Documents/Fall 2020/Sternberg Memory Task/subject-4.csv","legacy","4 8","Lentiform Loewenfeld","3.3.3","1","y","0","left","return","NA","left","NA","1221","9884","NA","1221","NA","2","legacy","2","1024","2","48000","-16","experiment","4","even","4","41483","42553","NA","42555","44758","NA","1807","NA","46763","47984","43556","11692","46762","NA","1800","Sternberg Task","6","5226","6","yes","1024"
"100","100","832.4285714285714","832.4285714285714","black","practice","legacy","legacy","legacy","0","uniform","1","undefined","1","left","6","6","0","6","6","6","0","0","6","6","6","0","6","0","0","Sun Oct 25 22:50:30 2020","The main experiment item","yes","SternbergTask.osexp","C:\Users\katri\OneDrive\Documents\Fall 2020\Sternberg Memory Task","no","mono","no","18","no","white","no","yes","768","legacy","6","6","C:/Users/katri/OneDrive/Documents/Fall 2020/Sternberg Memory Task/subject-4.csv","legacy","6","Lentiform Loewenfeld","3.3.3","1","y","0","left","return","NA","left","NA","601","9884","NA","601","NA","2","legacy","1","1024","2","48000","-16","experiment","4","even","6","47992","49063","NA","49064","51270","NA","1807","NA","53271","53873","50065","11692","53271","NA","1800","Sternberg Task","7","5827","7","yes","1024"
"100","100","801.375","801.375","black","practice","legacy","legacy","legacy","0","uniform","1","undefined","1","left","7","7","0","7","7","7","0","0","7","7","7","0","7","0","0","Sun Oct 25 22:50:30 2020","The main experiment item","yes","SternbergTask.osexp","C:\Users\katri\OneDrive\Documents\Fall 2020\Sternberg Memory Task","no","mono","no","18","no","white","no","yes","768","legacy","7","7","C:/Users/katri/OneDrive/Documents/Fall 2020/Sternberg Memory Task/subject-4.csv","legacy","2 9 4","Lentiform Loewenfeld","3.3.3","3","y","0","left","return","NA","left","NA","584","9884","NA","584","NA","2","legacy","3","1024","2","48000","-16","experiment","4","even","4","53897","54969","NA","54971","57176","NA","1807","NA","59177","59761","55972","11692","59177","NA","1800","Sternberg Task","8","6411","8","yes","1024"
"100","100","788.5555555555555","788.5555555555555","black","practice","legacy","legacy","legacy","0","uniform","1","undefined","1","left","8","8","0","8","8","8","0","0","8","8","8","0","8","0","0","Sun Oct 25 22:50:30 2020","The main experiment item","yes","SternbergTask.osexp","C:\Users\katri\OneDrive\Documents\Fall 2020\Sternberg Memory Task","no","mono","no","18","no","white","no","yes","768","legacy","8","8","C:/Users/katri/OneDrive/Documents/Fall 2020/Sternberg Memory Task/subject-4.csv","legacy","4 3 1 7 9 8","Lentiform Loewenfeld","3.3.3","1","y","0","left","return","NA","left","NA","686","9884","NA","686","NA","2","legacy","6","1024","2","48000","-16","experiment","4","even","4","59785","60857","NA","60859","63064","NA","1807","NA","65065","65752","61860","11692","65065","NA","1800","Sternberg Task","9","7097","9","yes","1024"
"100","100","829","829","black","practice","legacy","legacy","legacy","0","uniform","1","undefined","1","right","9","9","0","9","9","9","0","0","9","9","9","0","9","0","0","Sun Oct 25 22:50:30 2020","The main experiment item","yes","SternbergTask.osexp","C:\Users\katri\OneDrive\Documents\Fall 2020\Sternberg Memory Task","no","mono","no","18","no","white","no","yes","768","legacy","9","9","C:/Users/katri/OneDrive/Documents/Fall 2020/Sternberg Memory Task/subject-4.csv","legacy","5","Lentiform Loewenfeld","3.3.3","0","n","0","right","return","NA","right","NA","1193","9884","NA","1193","NA","2","legacy","1","1024","2","48000","-16","experiment","4","even","3","65759","66831","NA","66832","69041","NA","1807","NA","71042","72235","67836","11692","71042","NA","1800","Sternberg Task","10","8290","10","yes","1024"
"100","100","848.5454545454545","848.5454545454545","black","practice","legacy","legacy","legacy","0","uniform","1","undefined","1","right","10","10","0","10","10","10","0","0","10","10","10","0","10","0","0","Sun Oct 25 22:50:30 2020","The main experiment item","yes","SternbergTask.osexp","C:\Users\katri\OneDrive\Documents\Fall 2020\Sternberg Memory Task","no","mono","no","18","no","white","no","yes","768","legacy","10","10","C:/Users/katri/OneDrive/Documents/Fall 2020/Sternberg Memory Task/subject-4.csv","legacy","2 1","Lentiform Loewenfeld","3.3.3","0","n","0","right","return","NA","right","NA","1044","9884","NA","1044","NA","2","legacy","2","1024","2","48000","-16","experiment","4","even","5","72258","73329","NA","73331","75536","NA","1807","NA","77537","78581","74332","11692","77537","NA","1800","Sternberg Task","11","9334","11","yes","1024"
"100","100","876.4166666666666","876.4166666666666","black","practice","legacy","legacy","legacy","0","uniform","1","undefined","1","right","11","11","0","11","11","11","0","0","11","11","11","0","11","0","0","Sun Oct 25 22:50:30 2020","The main experiment item","yes","SternbergTask.osexp","C:\Users\katri\OneDrive\Documents\Fall 2020\Sternberg Memory Task","no","mono","no","18","no","white","no","yes","768","legacy","11","11","C:/Users/katri/OneDrive/Documents/Fall 2020/Sternberg Memory Task/subject-4.csv","legacy","9 6 7 4 5","Lentiform Loewenfeld","3.3.3","0","n","0","right","return","NA","right","NA","1183","9884","NA","1183","NA","2","legacy","5","1024","2","48000","-16","experiment","4","even","3","78592","79663","NA","79664","81868","NA","1807","NA","83869","85052","80665","11692","83869","NA","1800","Sternberg Task","12","10517","12","yes","1024"
"100","100","908.1538461538462","908.1538461538462","black","experiment","legacy","legacy","legacy","0","uniform","1","undefined","1","left","12","12","0","12","12","12","0","0","12","12","12","0","12","0","0","Sun Oct 25 22:50:30 2020","The main experiment item","yes","SternbergTask.osexp","C:\Users\katri\OneDrive\Documents\Fall 2020\Sternberg Memory Task","no","mono","no","18","no","white","no","yes","768","legacy","0","11","C:/Users/katri/OneDrive/Documents/Fall 2020/Sternberg Memory Task/subject-4.csv","legacy","2 8 5 1","Lentiform Loewenfeld","3.3.3","4","y","0","left","return","left","left","NA","1289","9884","16436","1289","NA","2","legacy","4","1024","2","48000","-16","experiment","4","even","1","85060","102585","102519","102587","104793","NA","1807","86082","106794","108083","103588","11692","106794","NA","1800","Sternberg Task","13","11806","13","yes","1024"
"100","100","904.2857142857143","904.2857142857143","black","experiment","legacy","legacy","legacy","0","uniform","1","undefined","1","right","13","13","0","13","13","13","0","0","13","13","13","0","13","0","0","Sun Oct 25 22:50:30 2020","The main experiment item","yes","SternbergTask.osexp","C:\Users\katri\OneDrive\Documents\Fall 2020\Sternberg Memory Task","no","mono","no","18","no","white","no","yes","768","legacy","1","11","C:/Users/katri/OneDrive/Documents/Fall 2020/Sternberg Memory Task/subject-4.csv","legacy","6 8 4","Lentiform Loewenfeld","3.3.3","0","n","0","right","return","left","right","NA","854","9884","16436","854","NA","2","legacy","3","1024","2","48000","-16","experiment","4","even","1","108091","109164","102519","109166","111368","NA","1807","86082","113369","114224","110167","11692","113369","NA","1800","Sternberg Task","14","12660","14","yes","1024"
"93.33333333333333","93.33333333333333","895.6666666666666","895.6666666666666","black","experiment","legacy","legacy","legacy","0","uniform","0","undefined","0","right","14","14","0","14","14","14","0","0","14","14","14","0","14","0","0","Sun Oct 25 22:50:30 2020","The main experiment item","yes","SternbergTask.osexp","C:\Users\katri\OneDrive\Documents\Fall 2020\Sternberg Memory Task","no","mono","no","18","no","white","no","yes","768","legacy","2","11","C:/Users/katri/OneDrive/Documents/Fall 2020/Sternberg Memory Task/subject-4.csv","legacy","4 2 7 6 1 3","Lentiform Loewenfeld","3.3.3","0","n","0","left","return","left","left","NA","775","9884","16436","775","NA","2","legacy","6","1024","2","48000","-16","experiment","4","even","8","114231","115301","102519","115302","117504","NA","1807","86082","119505","120281","116303","11692","119505","NA","1800","Sternberg Task","14","13435","15","yes","1024"
"93.75","93.75","927.3125","927.3125","black","experiment","legacy","legacy","legacy","0","uniform","1","undefined","1","left","15","15","0","15","15","15","0","0","15","15","15","0","15","0","0","Sun Oct 25 22:50:30 2020","The main experiment item","yes","SternbergTask.osexp","C:\Users\katri\OneDrive\Documents\Fall 2020\Sternberg Memory Task","no","mono","no","18","no","white","no","yes","768","legacy","3","11","C:/Users/katri/OneDrive/Documents/Fall 2020/Sternberg Memory Task/subject-4.csv","legacy","7 4 2 6 3 5","Lentiform Loewenfeld","3.3.3","6","y","0","left","return","left","left","NA","1402","9884","16436","1402","NA","2","legacy","6","1024","2","48000","-16","experiment","4","even","5","114231","121355","102519","121357","123562","120284","1807","86082","125563","126965","122358","11692","125563","NA","1800","Sternberg Task","15","14837","16","yes","1024"
"94.11764705882354","94.11764705882354","936.9411764705883","936.9411764705883","black","experiment","legacy","legacy","legacy","0","uniform","1","undefined","1","left","16","16","0","16","16","16","0","0","16","16","16","0","16","0","0","Sun Oct 25 22:50:30 2020","The main experiment item","yes","SternbergTask.osexp","C:\Users\katri\OneDrive\Documents\Fall 2020\Sternberg Memory Task","no","mono","no","18","no","white","no","yes","768","legacy","4","11","C:/Users/katri/OneDrive/Documents/Fall 2020/Sternberg Memory Task/subject-4.csv","legacy","4 7 6 8 2 3","Lentiform Loewenfeld","3.3.3","6","y","0","left","return","left","left","NA","1091","9884","16436","1091","NA","2","legacy","6","1024","2","48000","-16","experiment","4","even","3","126968","128040","102519","128041","130247","120284","1807","86082","132248","133340","129043","11692","132248","NA","1800","Sternberg Task","16","15928","17","yes","1024"
"94.44444444444444","94.44444444444444","937.1666666666666","937.1666666666666","black","experiment","legacy","legacy","legacy","0","uniform","1","undefined","1","left","17","17","0","17","17","17","0","0","17","17","17","0","17","0","0","Sun Oct 25 22:50:30 2020","The main experiment item","yes","SternbergTask.osexp","C:\Users\katri\OneDrive\Documents\Fall 2020\Sternberg Memory Task","no","mono","no","18","no","white","no","yes","768","legacy","5","11","C:/Users/katri/OneDrive/Documents/Fall 2020/Sternberg Memory Task/subject-4.csv","legacy","2 6 1 7 4","Lentiform Loewenfeld","3.3.3","2","y","0","left","return","left","left","NA","941","9884","16436","941","NA","2","legacy","5","1024","2","48000","-16","experiment","4","even","6","133347","134418","102519","134419","136624","120284","1807","86082","138625","139566","135421","11692","138625","NA","1800","Sternberg Task","17","16869","18","yes","1024"
"94.73684210526316","94.73684210526316","923.578947368421","923.578947368421","black","experiment","legacy","legacy","legacy","0","uniform","1","undefined","1","right","18","18","0","18","18","18","0","0","18","18","18","0","18","0","0","Sun Oct 25 22:50:30 2020","The main experiment item","yes","SternbergTask.osexp","C:\Users\katri\OneDrive\Documents\Fall 2020\Sternberg Memory Task","no","mono","no","18","no","white","no","yes","768","legacy","6","11","C:/Users/katri/OneDrive/Documents/Fall 2020/Sternberg Memory Task/subject-4.csv","legacy","2 7 5","Lentiform Loewenfeld","3.3.3","0","n","0","right","return","left","right","NA","679","9884","16436","679","NA","2","legacy","3","1024","2","48000","-16","experiment","4","even","8","139588","140659","102519","140661","142866","120284","1807","86082","144870","145549","141662","11692","144870","NA","1800","Sternberg Task","18","17548","19","yes","1024"
"95","95","922.2","922.2","black","experiment","legacy","legacy","legacy","0","uniform","1","undefined","1","right","19","19","0","19","19","19","0","0","19","19","19","0","19","0","0","Sun Oct 25 22:50:30 2020","The main experiment item","yes","SternbergTask.osexp","C:\Users\katri\OneDrive\Documents\Fall 2020\Sternberg Memory Task","no","mono","no","18","no","white","no","yes","768","legacy","7","11","C:/Users/katri/OneDrive/Documents/Fall 2020/Sternberg Memory Task/subject-4.csv","legacy","7 1 8 4 9 3","Lentiform Loewenfeld","3.3.3","0","n","0","right","return","left","right","NA","896","9884","16436","896","NA","2","legacy","6","1024","2","48000","-16","experiment","4","even","6","145559","146630","102519","146631","148833","120284","1807","86082","150834","151730","147632","11692","150834","NA","1800","Sternberg Task","19","18444","20","yes","1024"
"95.23809523809524","95.23809523809524","933.4761904761905","933.4761904761905","black","experiment","legacy","legacy","legacy","0","uniform","1","undefined","1","left","20","20","0","20","20","20","0","0","20","20","20","0","20","0","0","Sun Oct 25 22:50:30 2020","The main experiment item","yes","SternbergTask.osexp","C:\Users\katri\OneDrive\Documents\Fall 2020\Sternberg Memory Task","no","mono","no","18","no","white","no","yes","768","legacy","8","11","C:/Users/katri/OneDrive/Documents/Fall 2020/Sternberg Memory Task/subject-4.csv","legacy","4 6 2 5 1","Lentiform Loewenfeld","3.3.3","5","y","0","left","return","left","left","NA","1159","9884","16436","1159","NA","2","legacy","5","1024","2","48000","-16","experiment","4","even","1","151755","152827","102519","152828","155033","120284","1807","86082","157034","158193","153830","11692","157034","NA","1800","Sternberg Task","20","19603","21","yes","1024"
"95.45454545454545","95.45454545454545","933.1363636363636","933.1363636363636","black","experiment","legacy","legacy","legacy","0","uniform","1","undefined","1","left","21","21","0","21","21","21","0","0","21","21","21","0","21","0","0","Sun Oct 25 22:50:30 2020","The main experiment item","yes","SternbergTask.osexp","C:\Users\katri\OneDrive\Documents\Fall 2020\Sternberg Memory Task","no","mono","no","18","no","white","no","yes","768","legacy","9","11","C:/Users/katri/OneDrive/Documents/Fall 2020/Sternberg Memory Task/subject-4.csv","legacy","6 1 2","Lentiform Loewenfeld","3.3.3","3","y","0","left","return","left","left","NA","926","9884","16436","926","NA","2","legacy","3","1024","2","48000","-16","experiment","4","even","2","158200","159270","102519","159272","161477","120284","1807","86082","163478","164404","160273","11692","163478","NA","1800","Sternberg Task","21","20529","22","yes","1024"
"95.65217391304348","95.65217391304348","938.2173913043479","938.2173913043479","black","experiment","legacy","legacy","legacy","0","uniform","1","undefined","1","left","22","22","0","22","22","22","0","0","22","22","22","0","22","0","0","Sun Oct 25 22:50:30 2020","The main experiment item","yes","SternbergTask.osexp","C:\Users\katri\OneDrive\Documents\Fall 2020\Sternberg Memory Task","no","mono","no","18","no","white","no","yes","768","legacy","10","11","C:/Users/katri/OneDrive/Documents/Fall 2020/Sternberg Memory Task/subject-4.csv","legacy","7 2 3","Lentiform Loewenfeld","3.3.3","3","y","0","left","return","left","left","NA","1050","9884","16436","1050","NA","2","legacy","3","1024","2","48000","-16","experiment","4","even","3","164427","165499","102519","165501","167706","120284","1807","86082","169707","170757","166502","11692","169707","NA","1800","Sternberg Task","22","21579","23","yes","1024"
"95.83333333333333","95.83333333333333","929.875","929.875","black","experiment","legacy","legacy","legacy","0","uniform","1","undefined","1","left","23","23","0","23","23","23","0","0","23","23","23","0","23","0","0","Sun Oct 25 22:50:30 2020","The main experiment item","yes","SternbergTask.osexp","C:\Users\katri\OneDrive\Documents\Fall 2020\Sternberg Memory Task","no","mono","no","18","no","white","no","yes","768","legacy","11","11","C:/Users/katri/OneDrive/Documents/Fall 2020/Sternberg Memory Task/subject-4.csv","legacy","3 9 6 2","Lentiform Loewenfeld","3.3.3","4","y","0","left","return","left","left","NA","738","9884","16436","738","NA","2","legacy","4","1024","2","48000","-16","experiment","4","even","2","170765","171837","102519","171838","174041","120284","1807","86082","176042","176780","172839","11692","176042","NA","1800","Sternberg Task","23","22317","24","yes","1024"
"96","96","921.88","921.88","black","experiment","legacy","legacy","legacy","0","uniform","1","undefined","1","right","24","24","0","24","24","24","0","0","24","24","24","0","24","0","0","Sun Oct 25 22:50:30 2020","The main experiment item","yes","SternbergTask.osexp","C:\Users\katri\OneDrive\Documents\Fall 2020\Sternberg Memory Task","no","mono","no","18","no","white","no","yes","768","legacy","12","11","C:/Users/katri/OneDrive/Documents/Fall 2020/Sternberg Memory Task/subject-4.csv","legacy","8 2 1 4 5 9","Lentiform Loewenfeld","3.3.3","0","n","0","right","return","left","right","NA","730","9884","16436","730","NA","2","legacy","6","1024","2","48000","-16","experiment","4","even","7","176803","177873","102519","177875","180081","120284","1807","86082","182082","182812","178876","11692","182082","NA","1800","Sternberg Task","24","23047","25","yes","1024"
"96.15384615384616","96.15384615384616","922.2307692307693","922.2307692307693","black","experiment","legacy","legacy","legacy","0","uniform","1","undefined","1","right","25","25","0","25","25","25","0","0","25","25","25","0","25","0","0","Sun Oct 25 22:50:30 2020","The main experiment item","yes","SternbergTask.osexp","C:\Users\katri\OneDrive\Documents\Fall 2020\Sternberg Memory Task","no","mono","no","18","no","white","no","yes","768","legacy","13","11","C:/Users/katri/OneDrive/Documents/Fall 2020/Sternberg Memory Task/subject-4.csv","legacy","6 9 4 5 3 2","Lentiform Loewenfeld","3.3.3","0","n","0","right","return","left","right","NA","931","9884","16436","931","NA","2","legacy","6","1024","2","48000","-16","experiment","4","even","8","182819","183888","102519","183890","186095","120284","1807","86082","188096","189027","184891","11692","188096","NA","1800","Sternberg Task","25","23978","26","yes","1024"
"96.29629629629629","96.29629629629629","907.5185185185185","907.5185185185185","black","experiment","legacy","legacy","legacy","0","uniform","1","undefined","1","left","26","26","0","26","26","26","0","0","26","26","26","0","26","0","0","Sun Oct 25 22:50:30 2020","The main experiment item","yes","SternbergTask.osexp","C:\Users\katri\OneDrive\Documents\Fall 2020\Sternberg Memory Task","no","mono","no","18","no","white","no","yes","768","legacy","14","11","C:/Users/katri/OneDrive/Documents/Fall 2020/Sternberg Memory Task/subject-4.csv","legacy","7 8 6 3 1","Lentiform Loewenfeld","3.3.3","5","y","0","left","return","left","left","NA","525","9884","16436","525","NA","2","legacy","5","1024","2","48000","-16","experiment","4","even","1","189052","190124","102519","190125","192327","120284","1807","86082","194328","194854","191126","11692","194328","NA","1800","Sternberg Task","26","24503","27","yes","1024"
"96.42857142857143","96.42857142857143","924.9642857142857","924.9642857142857","black","experiment","legacy","legacy","legacy","0","uniform","1","undefined","1","right","27","27","0","27","27","27","0","0","27","27","27","0","27","0","0","Sun Oct 25 22:50:30 2020","The main experiment item","yes","SternbergTask.osexp","C:\Users\katri\OneDrive\Documents\Fall 2020\Sternberg Memory Task","no","mono","no","18","no","white","no","yes","768","legacy","15","11","C:/Users/katri/OneDrive/Documents/Fall 2020/Sternberg Memory Task/subject-4.csv","legacy","6 9 4 5 2","Lentiform Loewenfeld","3.3.3","0","n","0","right","return","left","right","NA","1396","9884","16436","1396","NA","2","legacy","5","1024","2","48000","-16","experiment","4","even","1","194861","195933","102519","195934","198137","120284","1807","86082","200139","201535","196935","11692","200139","NA","1800","Sternberg Task","27","25899","28","yes","1024"
"96.55172413793103","96.55172413793103","920.7586206896551","920.7586206896551","black","experiment","legacy","legacy","legacy","0","uniform","1","undefined","1","right","28","28","0","28","28","28","0","0","28","28","28","0","28","0","0","Sun Oct 25 22:50:30 2020","The main experiment item","yes","SternbergTask.osexp","C:\Users\katri\OneDrive\Documents\Fall 2020\Sternberg Memory Task","no","mono","no","18","no","white","no","yes","768","legacy","16","11","C:/Users/katri/OneDrive/Documents/Fall 2020/Sternberg Memory Task/subject-4.csv","legacy","9 7 4 5 8","Lentiform Loewenfeld","3.3.3","0","n","0","right","return","left","right","NA","803","9884","16436","803","NA","2","legacy","5","1024","2","48000","-16","experiment","4","even","6","201560","202632","102519","202633","204838","120284","1807","86082","206839","207642","203634","11692","206839","NA","1800","Sternberg Task","28","26702","29","yes","1024"
"96.66666666666667","96.66666666666667","917.7666666666667","917.7666666666667","black","experiment","legacy","legacy","legacy","0","uniform","1","undefined","1","left","29","29","0","29","29","29","0","0","29","29","29","0","29","0","0","Sun Oct 25 22:50:30 2020","The main experiment item","yes","SternbergTask.osexp","C:\Users\katri\OneDrive\Documents\Fall 2020\Sternberg Memory Task","no","mono","no","18","no","white","no","yes","768","legacy","17","11","C:/Users/katri/OneDrive/Documents/Fall 2020/Sternberg Memory Task/subject-4.csv","legacy","3 9 7 6 4","Lentiform Loewenfeld","3.3.3","3","y","0","left","return","left","left","NA","831","9884","16436","831","NA","2","legacy","5","1024","2","48000","-16","experiment","4","even","7","207665","208740","102519","208742","210947","120284","1807","86082","212952","213783","209743","11692","212952","NA","1800","Sternberg Task","29","27533","30","yes","1024"
"96.7741935483871","96.7741935483871","916.6774193548387","916.6774193548387","black","experiment","legacy","legacy","legacy","0","uniform","1","undefined","1","left","30","30","0","30","30","30","0","0","30","30","30","0","30","0","0","Sun Oct 25 22:50:30 2020","The main experiment item","yes","SternbergTask.osexp","C:\Users\katri\OneDrive\Documents\Fall 2020\Sternberg Memory Task","no","mono","no","18","no","white","no","yes","768","legacy","18","11","C:/Users/katri/OneDrive/Documents/Fall 2020/Sternberg Memory Task/subject-4.csv","legacy","8","Lentiform Loewenfeld","3.3.3","1","y","0","left","return","left","left","NA","884","9884","16436","884","NA","2","legacy","1","1024","2","48000","-16","experiment","4","even","8","213805","214876","102519","214877","217083","120284","1807","86082","219084","219968","215879","11692","219084","NA","1800","Sternberg Task","30","28417","31","yes","1024"
"96.875","96.875","913.75","913.75","black","experiment","legacy","legacy","legacy","0","uniform","1","undefined","1","right","31","31","0","31","31","31","0","0","31","31","31","0","31","0","0","Sun Oct 25 22:50:30 2020","The main experiment item","yes","SternbergTask.osexp","C:\Users\katri\OneDrive\Documents\Fall 2020\Sternberg Memory Task","no","mono","no","18","no","white","no","yes","768","legacy","19","11","C:/Users/katri/OneDrive/Documents/Fall 2020/Sternberg Memory Task/subject-4.csv","legacy","6 9 7 3 8 2","Lentiform Loewenfeld","3.3.3","0","n","0","right","return","left","right","NA","823","9884","16436","823","NA","2","legacy","6","1024","2","48000","-16","experiment","4","even","5","219990","221062","102519","221064","223268","120284","1807","86082","225269","226092","222066","11692","225269","NA","1800","Sternberg Task","31","29240","32","yes","1024"
"96.96969696969697","96.96969696969697","911.6969696969697","911.6969696969697","black","experiment","legacy","legacy","legacy","0","uniform","1","undefined","1","right","32","32","0","32","32","32","0","0","32","32","32","0","32","0","0","Sun Oct 25 22:50:30 2020","The main experiment item","yes","SternbergTask.osexp","C:\Users\katri\OneDrive\Documents\Fall 2020\Sternberg Memory Task","no","mono","no","18","no","white","no","yes","768","legacy","20","11","C:/Users/katri/OneDrive/Documents/Fall 2020/Sternberg Memory Task/subject-4.csv","legacy","4 8 1 2","Lentiform Loewenfeld","3.3.3","0","n","0","right","return","left","right","NA","846","9884","16436","846","NA","2","legacy","4","1024","2","48000","-16","experiment","4","even","7","226100","227172","102519","227173","229379","120284","1807","86082","231380","232227","228175","11692","231380","NA","1800","Sternberg Task","32","30086","33","yes","1024"
"97.05882352941177","97.05882352941177","909.6470588235294","909.6470588235294","black","experiment","legacy","legacy","legacy","0","uniform","1","undefined","1","left","33","33","0","33","33","33","0","0","33","33","33","0","33","0","0","Sun Oct 25 22:50:30 2020","The main experiment item","yes","SternbergTask.osexp","C:\Users\katri\OneDrive\Documents\Fall 2020\Sternberg Memory Task","no","mono","no","18","no","white","no","yes","768","legacy","21","11","C:/Users/katri/OneDrive/Documents/Fall 2020/Sternberg Memory Task/subject-4.csv","legacy","4 9 7 8 5 3","Lentiform Loewenfeld","3.3.3","4","y","0","left","return","left","left","NA","842","9884","16436","842","NA","2","legacy","6","1024","2","48000","-16","experiment","4","even","8","232251","233321","102519","233323","235525","120284","1807","86082","237526","238369","234324","11692","237526","NA","1800","Sternberg Task","33","30928","34","yes","1024"
"97.14285714285714","97.14285714285714","903.3142857142857","903.3142857142857","black","experiment","legacy","legacy","legacy","0","uniform","1","undefined","1","right","34","34","0","34","34","34","0","0","34","34","34","0","34","0","0","Sun Oct 25 22:50:30 2020","The main experiment item","yes","SternbergTask.osexp","C:\Users\katri\OneDrive\Documents\Fall 2020\Sternberg Memory Task","no","mono","no","18","no","white","no","yes","768","legacy","22","11","C:/Users/katri/OneDrive/Documents/Fall 2020/Sternberg Memory Task/subject-4.csv","legacy","1 4 9 3","Lentiform Loewenfeld","3.3.3","0","n","0","right","return","left","right","NA","688","9884","16436","688","NA","2","legacy","4","1024","2","48000","-16","experiment","4","even","5","238394","239465","102519","239468","241672","120284","1807","86082","243673","244361","240469","11692","243673","NA","1800","Sternberg Task","34","31616","35","yes","1024"
"97.22222222222223","97.22222222222223","900.9722222222222","900.9722222222222","black","experiment","legacy","legacy","legacy","0","uniform","1","undefined","1","right","35","35","0","35","35","35","0","0","35","35","35","0","35","0","0","Sun Oct 25 22:50:30 2020","The main experiment item","yes","SternbergTask.osexp","C:\Users\katri\OneDrive\Documents\Fall 2020\Sternberg Memory Task","no","mono","no","18","no","white","no","yes","768","legacy","23","11","C:/Users/katri/OneDrive/Documents/Fall 2020/Sternberg Memory Task/subject-4.csv","legacy","1 5 3 2 8","Lentiform Loewenfeld","3.3.3","0","n","0","right","return","left","right","NA","819","9884","16436","819","NA","2","legacy","5","1024","2","48000","-16","experiment","4","even","4","244369","245439","102519","245441","247646","120284","1807","86082","249647","250467","246442","11692","249647","NA","1800","Sternberg Task","35","32435","36","yes","1024"
"97.29729729729729","97.29729729729729","898.6216216216217","898.6216216216217","black","experiment","legacy","legacy","legacy","0","uniform","1","undefined","1","left","36","36","0","36","36","36","0","0","36","36","36","0","36","0","0","Sun Oct 25 22:50:30 2020","The main experiment item","yes","SternbergTask.osexp","C:\Users\katri\OneDrive\Documents\Fall 2020\Sternberg Memory Task","no","mono","no","18","no","white","no","yes","768","legacy","24","11","C:/Users/katri/OneDrive/Documents/Fall 2020/Sternberg Memory Task/subject-4.csv","legacy","7 6","Lentiform Loewenfeld","3.3.3","2","y","0","left","return","left","left","NA","814","9884","16436","814","NA","2","legacy","2","1024","2","48000","-16","experiment","4","even","6","250489","251560","102519","251562","253770","120284","1807","86082","255771","256586","252566","11692","255771","NA","1800","Sternberg Task","36","33249","37","yes","1024"
"97.36842105263158","97.36842105263158","904.8157894736842","904.8157894736842","black","experiment","legacy","legacy","legacy","0","uniform","1","undefined","1","left","37","37","0","37","37","37","0","0","37","37","37","0","37","0","0","Sun Oct 25 22:50:30 2020","The main experiment item","yes","SternbergTask.osexp","C:\Users\katri\OneDrive\Documents\Fall 2020\Sternberg Memory Task","no","mono","no","18","no","white","no","yes","768","legacy","25","11","C:/Users/katri/OneDrive/Documents/Fall 2020/Sternberg Memory Task/subject-4.csv","legacy","9 1 6 7 8","Lentiform Loewenfeld","3.3.3","1","y","0","left","return","left","left","NA","1134","9884","16436","1134","NA","2","legacy","5","1024","2","48000","-16","experiment","4","even","9","256594","257666","102519","257667","259873","120284","1807","86082","261874","263009","258669","11692","261874","NA","1800","Sternberg Task","37","34383","38","yes","1024"
"97.43589743589743","97.43589743589743","906.7692307692307","906.7692307692307","black","experiment","legacy","legacy","legacy","0","uniform","1","undefined","1","left","38","38","0","38","38","38","0","0","38","38","38","0","38","0","0","Sun Oct 25 22:50:30 2020","The main experiment item","yes","SternbergTask.osexp","C:\Users\katri\OneDrive\Documents\Fall 2020\Sternberg Memory Task","no","mono","no","18","no","white","no","yes","768","legacy","26","11","C:/Users/katri/OneDrive/Documents/Fall 2020/Sternberg Memory Task/subject-4.csv","legacy","8 1 6","Lentiform Loewenfeld","3.3.3","3","y","0","left","return","left","left","NA","981","9884","16436","981","NA","2","legacy","3","1024","2","48000","-16","experiment","4","even","6","263033","264103","102519","264105","266310","120284","1807","86082","268311","269292","265106","11692","268311","NA","1800","Sternberg Task","38","35364","39","yes","1024"
"97.5","97.5","900.125","900.125","black","experiment","legacy","legacy","legacy","0","uniform","1","undefined","1","right","39","39","0","39","39","39","0","0","39","39","39","0","39","0","0","Sun Oct 25 22:50:30 2020","The main experiment item","yes","SternbergTask.osexp","C:\Users\katri\OneDrive\Documents\Fall 2020\Sternberg Memory Task","no","mono","no","18","no","white","no","yes","768","legacy","27","11","C:/Users/katri/OneDrive/Documents/Fall 2020/Sternberg Memory Task/subject-4.csv","legacy","7 9","Lentiform Loewenfeld","3.3.3","0","n","0","right","return","left","right","NA","641","9884","16436","641","NA","2","legacy","2","1024","2","48000","-16","experiment","4","even","1","269317","270389","102519","270390","272593","120284","1807","86082","274594","275235","271392","11692","274594","NA","1800","Sternberg Task","39","36005","40","yes","1024"
"97.5609756097561","97.5609756097561","902.560975609756","902.560975609756","black","experiment","legacy","legacy","legacy","0","uniform","1","undefined","1","left","40","40","0","40","40","40","0","0","40","40","40","0","40","0","0","Sun Oct 25 22:50:30 2020","The main experiment item","yes","SternbergTask.osexp","C:\Users\katri\OneDrive\Documents\Fall 2020\Sternberg Memory Task","no","mono","no","18","no","white","no","yes","768","legacy","28","11","C:/Users/katri/OneDrive/Documents/Fall 2020/Sternberg Memory Task/subject-4.csv","legacy","7","Lentiform Loewenfeld","3.3.3","1","y","0","left","return","left","left","NA","1000","9884","16436","1000","NA","2","legacy","1","1024","2","48000","-16","experiment","4","even","7","275257","276328","102519","276330","278535","120284","1807","86082","280536","281536","277331","11692","280536","NA","1800","Sternberg Task","40","37005","41","yes","1024"
"97.61904761904762","97.61904761904762","894.1190476190476","894.1190476190476","black","experiment","legacy","legacy","legacy","0","uniform","1","undefined","1","right","41","41","0","41","41","41","0","0","41","41","41","0","41","0","0","Sun Oct 25 22:50:30 2020","The main experiment item","yes","SternbergTask.osexp","C:\Users\katri\OneDrive\Documents\Fall 2020\Sternberg Memory Task","no","mono","no","18","no","white","no","yes","768","legacy","29","11","C:/Users/katri/OneDrive/Documents/Fall 2020/Sternberg Memory Task/subject-4.csv","legacy","1","Lentiform Loewenfeld","3.3.3","0","n","0","right","return","left","right","NA","548","9884","16436","548","NA","2","legacy","1","1024","2","48000","-16","experiment","4","even","7","281544","282615","102519","282617","284822","120284","1807","86082","286823","287372","283621","11692","286823","NA","1800","Sternberg Task","41","37553","42","yes","1024"
"95.34883720930233","95.34883720930233","889.953488372093","889.953488372093","black","experiment","legacy","legacy","legacy","0","uniform","0","undefined","0","right","42","42","0","42","42","42","0","0","42","42","42","0","42","0","0","Sun Oct 25 22:50:30 2020","The main experiment item","yes","SternbergTask.osexp","C:\Users\katri\OneDrive\Documents\Fall 2020\Sternberg Memory Task","no","mono","no","18","no","white","no","yes","768","legacy","30","11","C:/Users/katri/OneDrive/Documents/Fall 2020/Sternberg Memory Task/subject-4.csv","legacy","4 1","Lentiform Loewenfeld","3.3.3","0","n","0","left","return","left","left","NA","715","9884","16436","715","NA","2","legacy","2","1024","2","48000","-16","experiment","4","even","6","287394","288465","102519","288467","290673","120284","1807","86082","292674","293389","289469","11692","292674","NA","1800","Sternberg Task","41","38268","43","yes","1024"
"93.18181818181819","93.18181818181819","915.1818181818181","915.1818181818181","black","experiment","legacy","legacy","legacy","0","uniform","0","undefined","0","right","43","43","0","43","43","43","0","0","43","43","43","0","43","0","0","Sun Oct 25 22:50:30 2020","The main experiment item","yes","SternbergTask.osexp","C:\Users\katri\OneDrive\Documents\Fall 2020\Sternberg Memory Task","no","mono","no","18","no","white","no","yes","768","legacy","31","11","C:/Users/katri/OneDrive/Documents/Fall 2020/Sternberg Memory Task/subject-4.csv","legacy","8 5 7 3 6","Lentiform Loewenfeld","3.3.3","0","n","0","None","return","left","None","NA","2000","9884","16436","2000","NA","2","legacy","5","1024","2","48000","-16","experiment","4","even","9","287394","294487","102519","294489","296694","293414","1807","86082","298695","300695","295490","11692","298695","NA","1800","Sternberg Task","41","40268","44","yes","1024"
"93.33333333333333","93.33333333333333","918.3777777777777","918.3777777777777","black","experiment","legacy","legacy","legacy","0","uniform","1","undefined","1","right","44","44","0","44","44","44","0","0","44","44","44","0","44","0","0","Sun Oct 25 22:50:30 2020","The main experiment item","yes","SternbergTask.osexp","C:\Users\katri\OneDrive\Documents\Fall 2020\Sternberg Memory Task","no","mono","no","18","no","white","no","yes","768","legacy","32","11","C:/Users/katri/OneDrive/Documents/Fall 2020/Sternberg Memory Task/subject-4.csv","legacy","7 3 2 8","Lentiform Loewenfeld","3.3.3","0","n","0","right","return","left","right","NA","1059","9884","16436","1059","NA","2","legacy","4","1024","2","48000","-16","experiment","4","even","4","287394","301785","102519","301787","303991","300717","1807","86082","305992","307052","302788","11692","305992","NA","1800","Sternberg Task","42","41327","45","yes","1024"
"91.30434782608695","91.30434782608695","922.7608695652174","922.7608695652174","black","experiment","legacy","legacy","legacy","0","uniform","0","undefined","0","left","45","45","0","45","45","45","0","0","45","45","45","0","45","0","0","Sun Oct 25 22:50:30 2020","The main experiment item","yes","SternbergTask.osexp","C:\Users\katri\OneDrive\Documents\Fall 2020\Sternberg Memory Task","no","mono","no","18","no","white","no","yes","768","legacy","33","11","C:/Users/katri/OneDrive/Documents/Fall 2020/Sternberg Memory Task/subject-4.csv","legacy","3 5 9 6 2 4","Lentiform Loewenfeld","3.3.3","1","y","0","right","return","left","right","NA","1120","9884","16436","1120","NA","2","legacy","6","1024","2","48000","-16","experiment","4","even","3","307059","308131","102519","308133","310339","300717","1807","86082","312343","313464","309134","11692","312343","NA","1800","Sternberg Task","42","42447","46","yes","1024"
"91.48936170212765","91.48936170212765","923.2765957446809","923.2765957446809","black","experiment","legacy","legacy","legacy","0","uniform","1","undefined","1","right","46","46","0","46","46","46","0","0","46","46","46","0","46","0","0","Sun Oct 25 22:50:30 2020","The main experiment item","yes","SternbergTask.osexp","C:\Users\katri\OneDrive\Documents\Fall 2020\Sternberg Memory Task","no","mono","no","18","no","white","no","yes","768","legacy","34","11","C:/Users/katri/OneDrive/Documents/Fall 2020/Sternberg Memory Task/subject-4.csv","legacy","2 3 8 5 6 7","Lentiform Loewenfeld","3.3.3","0","n","0","right","return","left","right","NA","947","9884","16436","947","NA","2","legacy","6","1024","2","48000","-16","experiment","4","even","1","307059","314559","102519","314561","316768","313489","1807","86082","318769","319716","315564","11692","318769","NA","1800","Sternberg Task","43","43394","47","yes","1024"
"91.66666666666667","91.66666666666667","920.6458333333334","920.6458333333334","black","experiment","legacy","legacy","legacy","0","uniform","1","undefined","1","right","47","47","0","47","47","47","0","0","47","47","47","0","47","0","0","Sun Oct 25 22:50:30 2020","The main experiment item","yes","SternbergTask.osexp","C:\Users\katri\OneDrive\Documents\Fall 2020\Sternberg Memory Task","no","mono","no","18","no","white","no","yes","768","legacy","35","11","C:/Users/katri/OneDrive/Documents/Fall 2020/Sternberg Memory Task/subject-4.csv","legacy","5 2","Lentiform Loewenfeld","3.3.3","0","n","0","right","return","left","right","NA","797","9884","16436","797","NA","2","legacy","2","1024","2","48000","-16","experiment","4","even","7","319738","320810","102519","320812","323018","313489","1807","86082","325019","325817","321813","11692","325019","NA","1800","Sternberg Task","44","44191","48","yes","1024"
"91.83673469387755","91.83673469387755","923.6734693877551","923.6734693877551","black","experiment","legacy","legacy","legacy","0","uniform","1","undefined","1","right","48","48","0","48","48","48","0","0","48","48","48","0","48","0","0","Sun Oct 25 22:50:30 2020","The main experiment item","yes","SternbergTask.osexp","C:\Users\katri\OneDrive\Documents\Fall 2020\Sternberg Memory Task","no","mono","no","18","no","white","no","yes","768","legacy","36","11","C:/Users/katri/OneDrive/Documents/Fall 2020/Sternberg Memory Task/subject-4.csv","legacy","1 7 8 3 9","Lentiform Loewenfeld","3.3.3","0","n","0","right","return","left","right","NA","1069","9884","16436","1069","NA","2","legacy","5","1024","2","48000","-16","experiment","4","even","2","325826","326896","102519","326898","329103","313489","1807","86082","331104","332174","327899","11692","331104","NA","1800","Sternberg Task","45","45260","49","yes","1024"
"92","92","921.98","921.98","black","experiment","legacy","legacy","legacy","0","uniform","1","undefined","1","right","49","49","0","49","49","49","0","0","49","49","49","0","49","0","0","Sun Oct 25 22:50:30 2020","The main experiment item","yes","SternbergTask.osexp","C:\Users\katri\OneDrive\Documents\Fall 2020\Sternberg Memory Task","no","mono","no","18","no","white","no","yes","768","legacy","37","11","C:/Users/katri/OneDrive/Documents/Fall 2020/Sternberg Memory Task/subject-4.csv","legacy","1 7 5 2 9","Lentiform Loewenfeld","3.3.3","0","n","0","right","return","left","right","NA","839","9884","16436","839","NA","2","legacy","5","1024","2","48000","-16","experiment","4","even","3","332181","333251","102519","333253","335458","313489","1807","86082","337459","338298","334254","11692","337459","NA","1800","Sternberg Task","46","46099","50","yes","1024"
"90.19607843137256","90.19607843137256","921.9607843137255","921.9607843137255","black","experiment","legacy","legacy","legacy","0","uniform","0","undefined","0","left","50","50","0","50","50","50","0","0","50","50","50","0","50","0","0","Sun Oct 25 22:50:30 2020","The main experiment item","yes","SternbergTask.osexp","C:\Users\katri\OneDrive\Documents\Fall 2020\Sternberg Memory Task","no","mono","no","18","no","white","no","yes","768","legacy","38","11","C:/Users/katri/OneDrive/Documents/Fall 2020/Sternberg Memory Task/subject-4.csv","legacy","9 3 1 2 5","Lentiform Loewenfeld","3.3.3","4","y","0","right","return","left","right","NA","921","9884","16436","921","NA","2","legacy","5","1024","2","48000","-16","experiment","4","even","2","338320","339391","102519","339393","341595","313489","1807","86082","343596","344518","340394","11692","343596","NA","1800","Sternberg Task","46","47020","51","yes","1024"
"90.38461538461539","90.38461538461539","919.6153846153846","919.6153846153846","black","experiment","legacy","legacy","legacy","0","uniform","1","undefined","1","right","51","51","0","51","51","51","0","0","51","51","51","0","51","0","0","Sun Oct 25 22:50:30 2020","The main experiment item","yes","SternbergTask.osexp","C:\Users\katri\OneDrive\Documents\Fall 2020\Sternberg Memory Task","no","mono","no","18","no","white","no","yes","768","legacy","39","11","C:/Users/katri/OneDrive/Documents/Fall 2020/Sternberg Memory Task/subject-4.csv","legacy","1 6 4","Lentiform Loewenfeld","3.3.3","0","n","0","right","return","left","right","NA","800","9884","16436","800","NA","2","legacy","3","1024","2","48000","-16","experiment","4","even","7","338320","345596","102519","345598","347803","344527","1807","86082","349804","350605","346599","11692","349804","NA","1800","Sternberg Task","47","47820","52","yes","1024"
"90.56603773584905","90.56603773584905","914.9056603773585","914.9056603773585","black","experiment","legacy","legacy","legacy","0","uniform","1","undefined","1","right","52","52","0","52","52","52","0","0","52","52","52","0","52","0","0","Sun Oct 25 22:50:30 2020","The main experiment item","yes","SternbergTask.osexp","C:\Users\katri\OneDrive\Documents\Fall 2020\Sternberg Memory Task","no","mono","no","18","no","white","no","yes","768","legacy","40","11","C:/Users/katri/OneDrive/Documents/Fall 2020/Sternberg Memory Task/subject-4.csv","legacy","8 4 3 5","Lentiform Loewenfeld","3.3.3","0","n","0","right","return","left","right","NA","670","9884","16436","670","NA","2","legacy","4","1024","2","48000","-16","experiment","4","even","6","350628","351700","102519","351701","353907","344527","1807","86082","355908","356579","352703","11692","355908","NA","1800","Sternberg Task","48","48490","53","yes","1024"
"90.74074074074075","90.74074074074075","911.4629629629629","911.4629629629629","black","experiment","legacy","legacy","legacy","0","uniform","1","undefined","1","right","53","53","0","53","53","53","0","0","53","53","53","0","53","0","0","Sun Oct 25 22:50:30 2020","The main experiment item","yes","SternbergTask.osexp","C:\Users\katri\OneDrive\Documents\Fall 2020\Sternberg Memory Task","no","mono","no","18","no","white","no","yes","768","legacy","41","11","C:/Users/katri/OneDrive/Documents/Fall 2020/Sternberg Memory Task/subject-4.csv","legacy","6 2 9 3 8 4","Lentiform Loewenfeld","3.3.3","0","n","0","right","return","left","right","NA","729","9884","16436","729","NA","2","legacy","6","1024","2","48000","-16","experiment","4","even","1","356586","357657","102519","357659","359863","344527","1807","86082","361865","362595","358660","11692","361865","NA","1800","Sternberg Task","49","49219","54","yes","1024"
"90.9090909090909","90.9090909090909","910.6363636363636","910.6363636363636","black","experiment","legacy","legacy","legacy","0","uniform","1","undefined","1","left","54","54","0","54","54","54","0","0","54","54","54","0","54","0","0","Sun Oct 25 22:50:30 2020","The main experiment item","yes","SternbergTask.osexp","C:\Users\katri\OneDrive\Documents\Fall 2020\Sternberg Memory Task","no","mono","no","18","no","white","no","yes","768","legacy","42","11","C:/Users/katri/OneDrive/Documents/Fall 2020/Sternberg Memory Task/subject-4.csv","legacy","9 6 2 4 1","Lentiform Loewenfeld","3.3.3","4","y","0","left","return","left","left","NA","866","9884","16436","866","NA","2","legacy","5","1024","2","48000","-16","experiment","4","even","4","362617","363689","102519","363691","365896","344527","1807","86082","367897","368764","364692","11692","367897","NA","1800","Sternberg Task","50","50085","55","yes","1024"
"91.07142857142857","91.07142857142857","915.2321428571429","915.2321428571429","black","experiment","legacy","legacy","legacy","0","uniform","1","undefined","1","left","55","55","0","55","55","55","0","0","55","55","55","0","55","0","0","Sun Oct 25 22:50:30 2020","The main experiment item","yes","SternbergTask.osexp","C:\Users\katri\OneDrive\Documents\Fall 2020\Sternberg Memory Task","no","mono","no","18","no","white","no","yes","768","legacy","43","11","C:/Users/katri/OneDrive/Documents/Fall 2020/Sternberg Memory Task/subject-4.csv","legacy","8 9 6 1","Lentiform Loewenfeld","3.3.3","2","y","0","left","return","left","left","NA","1168","9884","16436","1168","NA","2","legacy","4","1024","2","48000","-16","experiment","4","even","9","368771","369843","102519","369845","372050","344527","1807","86082","374051","375220","370846","11692","374051","NA","1800","Sternberg Task","51","51253","56","yes","1024"
"91.2280701754386","91.2280701754386","910.8947368421053","910.8947368421053","black","experiment","legacy","legacy","legacy","0","uniform","1","undefined","1","right","56","56","0","56","56","56","0","0","56","56","56","0","56","0","0","Sun Oct 25 22:50:30 2020","The main experiment item","yes","SternbergTask.osexp","C:\Users\katri\OneDrive\Documents\Fall 2020\Sternberg Memory Task","no","mono","no","18","no","white","no","yes","768","legacy","44","11","C:/Users/katri/OneDrive/Documents/Fall 2020/Sternberg Memory Task/subject-4.csv","legacy","8 5 4 2 9 6","Lentiform Loewenfeld","3.3.3","0","n","0","right","return","left","right","NA","668","9884","16436","668","NA","2","legacy","6","1024","2","48000","-16","experiment","4","even","3","375242","376314","102519","376316","378521","344527","1807","86082","380522","381190","377318","11692","380522","NA","1800","Sternberg Task","52","51921","57","yes","1024"
"91.37931034482759","91.37931034482759","912.5689655172414","912.5689655172414","black","experiment","legacy","legacy","legacy","0","uniform","1","undefined","1","right","57","57","0","57","57","57","0","0","57","57","57","0","57","0","0","Sun Oct 25 22:50:30 2020","The main experiment item","yes","SternbergTask.osexp","C:\Users\katri\OneDrive\Documents\Fall 2020\Sternberg Memory Task","no","mono","no","18","no","white","no","yes","768","legacy","45","11","C:/Users/katri/OneDrive/Documents/Fall 2020/Sternberg Memory Task/subject-4.csv","legacy","6 7 5 9","Lentiform Loewenfeld","3.3.3","0","n","0","right","return","left","right","NA","1008","9884","16436","1008","NA","2","legacy","4","1024","2","48000","-16","experiment","4","even","2","381215","382285","102519","382286","384492","344527","1807","86082","386493","387502","383288","11692","386493","NA","1800","Sternberg Task","53","52929","58","yes","1024"
"91.52542372881356","91.52542372881356","909.7966101694915","909.7966101694915","black","experiment","legacy","legacy","legacy","0","uniform","1","undefined","1","right","58","58","0","58","58","58","0","0","58","58","58","0","58","0","0","Sun Oct 25 22:50:30 2020","The main experiment item","yes","SternbergTask.osexp","C:\Users\katri\OneDrive\Documents\Fall 2020\Sternberg Memory Task","no","mono","no","18","no","white","no","yes","768","legacy","46","11","C:/Users/katri/OneDrive/Documents/Fall 2020/Sternberg Memory Task/subject-4.csv","legacy","2 8 9","Lentiform Loewenfeld","3.3.3","0","n","0","right","return","left","right","NA","749","9884","16436","749","NA","2","legacy","3","1024","2","48000","-16","experiment","4","even","6","387524","388594","102519","388596","390798","344527","1807","86082","392799","393548","389597","11692","392799","NA","1800","Sternberg Task","54","53678","59","yes","1024"
"91.66666666666667","91.66666666666667","912.2333333333333","912.2333333333333","black","experiment","legacy","legacy","legacy","0","uniform","1","undefined","1","left","59","59","0","59","59","59","0","0","59","59","59","0","59","0","0","Sun Oct 25 22:50:30 2020","The main experiment item","yes","SternbergTask.osexp","C:\Users\katri\OneDrive\Documents\Fall 2020\Sternberg Memory Task","no","mono","no","18","no","white","no","yes","768","legacy","47","11","C:/Users/katri/OneDrive/Documents/Fall 2020/Sternberg Memory Task/subject-4.csv","legacy","3 4","Lentiform Loewenfeld","3.3.3","1","y","0","left","return","left","left","NA","1056","9884","16436","1056","NA","2","legacy","2","1024","2","48000","-16","experiment","4","even","3","393552","394624","102519","394626","396831","344527","1807","86082","398832","399889","395627","11692","398832","NA","1800","Sternberg Task","55","54734","60","yes","1024"
"91.80327868852459","91.80327868852459","908.5573770491803","908.5573770491803","black","experiment","legacy","legacy","legacy","0","uniform","1","undefined","1","right","60","60","0","60","60","60","0","0","60","60","60","0","60","0","0","Sun Oct 25 22:50:30 2020","The main experiment item","yes","SternbergTask.osexp","C:\Users\katri\OneDrive\Documents\Fall 2020\Sternberg Memory Task","no","mono","no","18","no","white","no","yes","768","legacy","48","11","C:/Users/katri/OneDrive/Documents/Fall 2020/Sternberg Memory Task/subject-4.csv","legacy","7 4 2 8 1 9","Lentiform Loewenfeld","3.3.3","0","n","0","right","return","left","right","NA","688","9884","16436","688","NA","2","legacy","6","1024","2","48000","-16","experiment","4","even","5","399896","400968","102519","400969","403174","344527","1807","86082","405178","405867","401970","11692","405178","NA","1800","Sternberg Task","56","55422","61","yes","1024"
"91.93548387096774","91.93548387096774","906.1290322580645","906.1290322580645","black","experiment","legacy","legacy","legacy","0","uniform","1","undefined","1","left","61","61","0","61","61","61","0","0","61","61","61","0","61","0","0","Sun Oct 25 22:50:30 2020","The main experiment item","yes","SternbergTask.osexp","C:\Users\katri\OneDrive\Documents\Fall 2020\Sternberg Memory Task","no","mono","no","18","no","white","no","yes","768","legacy","49","11","C:/Users/katri/OneDrive/Documents/Fall 2020/Sternberg Memory Task/subject-4.csv","legacy","2 5 4 8 7","Lentiform Loewenfeld","3.3.3","3","y","0","left","return","left","left","NA","758","9884","16436","758","NA","2","legacy","5","1024","2","48000","-16","experiment","4","even","4","405891","406963","102519","406965","409174","344527","1807","86082","411175","411934","407970","11692","411175","NA","1800","Sternberg Task","57","56180","62","yes","1024"
"92.06349206349206","92.06349206349206","906.2539682539683","906.2539682539683","black","experiment","legacy","legacy","legacy","0","uniform","1","undefined","1","left","62","62","0","62","62","62","0","0","62","62","62","0","62","0","0","Sun Oct 25 22:50:30 2020","The main experiment item","yes","SternbergTask.osexp","C:\Users\katri\OneDrive\Documents\Fall 2020\Sternberg Memory Task","no","mono","no","18","no","white","no","yes","768","legacy","50","11","C:/Users/katri/OneDrive/Documents/Fall 2020/Sternberg Memory Task/subject-4.csv","legacy","3 5 4 7","Lentiform Loewenfeld","3.3.3","1","y","0","left","return","left","left","NA","914","9884","16436","914","NA","2","legacy","4","1024","2","48000","-16","experiment","4","even","3","411957","413029","102519","413030","415232","344527","1807","86082","417233","418148","414031","11692","417233","NA","1800","Sternberg Task","58","57094","63","yes","1024"
"92.1875","92.1875","902.703125","902.703125","black","experiment","legacy","legacy","legacy","0","uniform","1","undefined","1","right","63","63","0","63","63","63","0","0","63","63","63","0","63","0","0","Sun Oct 25 22:50:30 2020","The main experiment item","yes","SternbergTask.osexp","C:\Users\katri\OneDrive\Documents\Fall 2020\Sternberg Memory Task","no","mono","no","18","no","white","no","yes","768","legacy","51","11","C:/Users/katri/OneDrive/Documents/Fall 2020/Sternberg Memory Task/subject-4.csv","legacy","7 1 5 6 3","Lentiform Loewenfeld","3.3.3","0","n","0","right","return","left","right","NA","679","9884","16436","679","NA","2","legacy","5","1024","2","48000","-16","experiment","4","even","8","418172","419245","102519","419247","421449","344527","1807","86082","423451","424131","420248","11692","423451","NA","1800","Sternberg Task","59","57773","64","yes","1024"
"92.3076923076923","92.3076923076923","906.0769230769231","906.0769230769231","black","experiment","legacy","legacy","legacy","0","uniform","1","undefined","1","left","64","64","0","64","64","64","0","0","64","64","64","0","64","0","0","Sun Oct 25 22:50:30 2020","The main experiment item","yes","SternbergTask.osexp","C:\Users\katri\OneDrive\Documents\Fall 2020\Sternberg Memory Task","no","mono","no","18","no","white","no","yes","768","legacy","52","11","C:/Users/katri/OneDrive/Documents/Fall 2020/Sternberg Memory Task/subject-4.csv","legacy","7 8 4 6 9 5","Lentiform Loewenfeld","3.3.3","4","y","0","left","return","left","left","NA","1122","9884","16436","1122","NA","2","legacy","6","1024","2","48000","-16","experiment","4","even","6","424155","425227","102519","425229","427435","344527","1807","86082","429437","430560","426231","11692","429437","NA","1800","Sternberg Task","60","58895","65","yes","1024"
"92.42424242424242","92.42424242424242","905.969696969697","905.969696969697","black","experiment","legacy","legacy","legacy","0","uniform","1","undefined","1","left","65","65","0","65","65","65","0","0","65","65","65","0","65","0","0","Sun Oct 25 22:50:30 2020","The main experiment item","yes","SternbergTask.osexp","C:\Users\katri\OneDrive\Documents\Fall 2020\Sternberg Memory Task","no","mono","no","18","no","white","no","yes","768","legacy","53","11","C:/Users/katri/OneDrive/Documents/Fall 2020/Sternberg Memory Task/subject-4.csv","legacy","6 7 9 3 1 2","Lentiform Loewenfeld","3.3.3","1","y","0","left","return","left","left","NA","899","9884","16436","899","NA","2","legacy","6","1024","2","48000","-16","experiment","4","even","6","430583","431655","102519","431657","433861","344527","1807","86082","435862","436761","432658","11692","435862","NA","1800","Sternberg Task","61","59794","66","yes","1024"
"92.53731343283582","92.53731343283582","903","903","black","experiment","legacy","legacy","legacy","0","uniform","1","undefined","1","right","66","66","0","66","66","66","0","0","66","66","66","0","66","0","0","Sun Oct 25 22:50:30 2020","The main experiment item","yes","SternbergTask.osexp","C:\Users\katri\OneDrive\Documents\Fall 2020\Sternberg Memory Task","no","mono","no","18","no","white","no","yes","768","legacy","54","11","C:/Users/katri/OneDrive/Documents/Fall 2020/Sternberg Memory Task/subject-4.csv","legacy","7 1","Lentiform Loewenfeld","3.3.3","0","n","0","right","return","left","right","NA","707","9884","16436","707","NA","2","legacy","2","1024","2","48000","-16","experiment","4","even","8","436786","437857","102519","437859","440064","344527","1807","86082","442065","442773","438860","11692","442065","NA","1800","Sternberg Task","62","60501","67","yes","1024"
"92.6470588235294","92.6470588235294","903.1911764705883","903.1911764705883","black","experiment","legacy","legacy","legacy","0","uniform","1","undefined","1","left","67","67","0","67","67","67","0","0","67","67","67","0","67","0","0","Sun Oct 25 22:50:30 2020","The main experiment item","yes","SternbergTask.osexp","C:\Users\katri\OneDrive\Documents\Fall 2020\Sternberg Memory Task","no","mono","no","18","no","white","no","yes","768","legacy","55","11","C:/Users/katri/OneDrive/Documents/Fall 2020/Sternberg Memory Task/subject-4.csv","legacy","8 9 5 6 7","Lentiform Loewenfeld","3.3.3","1","y","0","left","return","left","left","NA","916","9884","16436","916","NA","2","legacy","5","1024","2","48000","-16","experiment","4","even","8","442780","443848","102519","443849","446054","344527","1807","86082","448056","448972","444850","11692","448056","NA","1800","Sternberg Task","63","61417","68","yes","1024"
"92.7536231884058","92.7536231884058","913.4347826086956","913.4347826086956","black","experiment","legacy","legacy","legacy","0","uniform","1","undefined","1","left","68","68","0","68","68","68","0","0","68","68","68","0","68","0","0","Sun Oct 25 22:50:30 2020","The main experiment item","yes","SternbergTask.osexp","C:\Users\katri\OneDrive\Documents\Fall 2020\Sternberg Memory Task","no","mono","no","18","no","white","no","yes","768","legacy","56","11","C:/Users/katri/OneDrive/Documents/Fall 2020/Sternberg Memory Task/subject-4.csv","legacy","3 5 7 1","Lentiform Loewenfeld","3.3.3","3","y","0","left","return","left","left","NA","1610","9884","16436","1610","NA","2","legacy","4","1024","2","48000","-16","experiment","4","even","7","448994","450071","102519","450073","452279","344527","1807","86082","454282","455892","451078","11692","454282","NA","1800","Sternberg Task","64","63027","69","yes","1024"
"91.42857142857143","91.42857142857143","912.8142857142857","912.8142857142857","black","experiment","legacy","legacy","legacy","0","uniform","0","undefined","0","right","69","69","0","69","69","69","0","0","69","69","69","0","69","0","0","Sun Oct 25 22:50:30 2020","The main experiment item","yes","SternbergTask.osexp","C:\Users\katri\OneDrive\Documents\Fall 2020\Sternberg Memory Task","no","mono","no","18","no","white","no","yes","768","legacy","57","11","C:/Users/katri/OneDrive/Documents/Fall 2020/Sternberg Memory Task/subject-4.csv","legacy","2 8 6 3 1","Lentiform Loewenfeld","3.3.3","0","n","0","left","return","left","left","NA","870","9884","16436","870","NA","2","legacy","5","1024","2","48000","-16","experiment","4","even","7","455914","456985","102519","456987","459192","344527","1807","86082","461193","462064","457988","11692","461193","NA","1800","Sternberg Task","64","63897","70","yes","1024"
"91.54929577464789","91.54929577464789","915.3521126760563","915.3521126760563","black","experiment","legacy","legacy","legacy","0","uniform","1","undefined","1","right","70","70","0","70","70","70","0","0","70","70","70","0","70","0","0","Sun Oct 25 22:50:30 2020","The main experiment item","yes","SternbergTask.osexp","C:\Users\katri\OneDrive\Documents\Fall 2020\Sternberg Memory Task","no","mono","no","18","no","white","no","yes","768","legacy","58","11","C:/Users/katri/OneDrive/Documents/Fall 2020/Sternberg Memory Task/subject-4.csv","legacy","9 5 3 2 8 6","Lentiform Loewenfeld","3.3.3","0","n","0","right","return","left","right","NA","1093","9884","16436","1093","NA","2","legacy","6","1024","2","48000","-16","experiment","4","even","7","455914","463141","102519","463143","465348","462071","1807","86082","467349","468443","464144","11692","467349","NA","1800","Sternberg Task","65","64990","71","yes","1024"
"91.66666666666667","91.66666666666667","912.8333333333334","912.8333333333334","black","experiment","legacy","legacy","legacy","0","uniform","1","undefined","1","left","71","71","0","71","71","71","0","0","71","71","71","0","71","0","0","Sun Oct 25 22:50:30 2020","The main experiment item","yes","SternbergTask.osexp","C:\Users\katri\OneDrive\Documents\Fall 2020\Sternberg Memory Task","no","mono","no","18","no","white","no","yes","768","legacy","59","11","C:/Users/katri/OneDrive/Documents/Fall 2020/Sternberg Memory Task/subject-4.csv","legacy","6 9 7 4 5 1","Lentiform Loewenfeld","3.3.3","2","y","0","left","return","left","left","NA","734","9884","16436","734","NA","2","legacy","6","1024","2","48000","-16","experiment","4","even","9","468466","469539","102519","469541","471746","462071","1807","86082","473747","474482","470542","11692","473747","NA","1800","Sternberg Task","66","65724","72","yes","1024"
"91.78082191780823","91.78082191780823","909.0410958904109","909.0410958904109","black","experiment","legacy","legacy","legacy","0","uniform","1","undefined","1","left","72","72","0","72","72","72","0","0","72","72","72","0","72","0","0","Sun Oct 25 22:50:30 2020","The main experiment item","yes","SternbergTask.osexp","C:\Users\katri\OneDrive\Documents\Fall 2020\Sternberg Memory Task","no","mono","no","18","no","white","no","yes","768","legacy","60","11","C:/Users/katri/OneDrive/Documents/Fall 2020/Sternberg Memory Task/subject-4.csv","legacy","2 4 8 5 1 3","Lentiform Loewenfeld","3.3.3","1","y","0","left","return","left","left","NA","636","9884","16436","636","NA","2","legacy","6","1024","2","48000","-16","experiment","4","even","2","474485","475561","102519","475563","477769","462071","1807","86082","479770","480406","476564","11692","479770","NA","1800","Sternberg Task","67","66360","73","yes","1024"
"90.54054054054055","90.54054054054055","908.8513513513514","908.8513513513514","black","experiment","legacy","legacy","legacy","0","uniform","0","undefined","0","left","73","73","0","73","73","73","0","0","73","73","73","0","73","0","0","Sun Oct 25 22:50:30 2020","The main experiment item","yes","SternbergTask.osexp","C:\Users\katri\OneDrive\Documents\Fall 2020\Sternberg Memory Task","no","mono","no","18","no","white","no","yes","768","legacy","61","11","C:/Users/katri/OneDrive/Documents/Fall 2020/Sternberg Memory Task/subject-4.csv","legacy","6 8 9 3 4 9","Lentiform Loewenfeld","3.3.3","5","y","0","right","return","left","right","NA","895","9884","16436","895","NA","2","legacy","6","1024","2","48000","-16","experiment","4","even","4","480414","481487","102519","481489","483696","462071","1807","86082","485697","486593","482491","11692","485697","NA","1800","Sternberg Task","67","67255","74","yes","1024"
"90.66666666666667","90.66666666666667","907.2133333333334","907.2133333333334","black","experiment","legacy","legacy","legacy","0","uniform","1","undefined","1","right","74","74","0","74","74","74","0","0","74","74","74","0","74","0","0","Sun Oct 25 22:50:30 2020","The main experiment item","yes","SternbergTask.osexp","C:\Users\katri\OneDrive\Documents\Fall 2020\Sternberg Memory Task","no","mono","no","18","no","white","no","yes","768","legacy","62","11","C:/Users/katri/OneDrive/Documents/Fall 2020/Sternberg Memory Task/subject-4.csv","legacy","7 8 6 1","Lentiform Loewenfeld","3.3.3","0","n","0","right","return","left","right","NA","786","9884","16436","786","NA","2","legacy","4","1024","2","48000","-16","experiment","4","even","3","480414","487687","102519","487688","489890","486614","1807","86082","491891","492677","488689","11692","491891","NA","1800","Sternberg Task","68","68041","75","yes","1024"
"90.78947368421052","90.78947368421052","904.9473684210526","904.9473684210526","black","experiment","legacy","legacy","legacy","0","uniform","1","undefined","1","left","75","75","0","75","75","75","0","0","75","75","75","0","75","0","0","Sun Oct 25 22:50:30 2020","The main experiment item","yes","SternbergTask.osexp","C:\Users\katri\OneDrive\Documents\Fall 2020\Sternberg Memory Task","no","mono","no","18","no","white","no","yes","768","legacy","63","11","C:/Users/katri/OneDrive/Documents/Fall 2020/Sternberg Memory Task/subject-4.csv","legacy","4 1 8 7 5","Lentiform Loewenfeld","3.3.3","3","y","0","left","return","left","left","NA","735","9884","16436","735","NA","2","legacy","5","1024","2","48000","-16","experiment","4","even","8","492701","493773","102519","493774","495978","486614","1807","86082","497983","498719","494775","11692","497982","NA","1800","Sternberg Task","69","68776","76","yes","1024"
"90.9090909090909","90.9090909090909","903.8961038961039","903.8961038961039","black","experiment","legacy","legacy","legacy","0","uniform","1","undefined","1","left","76","76","0","76","76","76","0","0","76","76","76","0","76","0","0","Sun Oct 25 22:50:30 2020","The main experiment item","yes","SternbergTask.osexp","C:\Users\katri\OneDrive\Documents\Fall 2020\Sternberg Memory Task","no","mono","no","18","no","white","no","yes","768","legacy","64","11","C:/Users/katri/OneDrive/Documents/Fall 2020/Sternberg Memory Task/subject-4.csv","legacy","6 7 8 5","Lentiform Loewenfeld","3.3.3","3","y","0","left","return","left","left","NA","824","9884","16436","824","NA","2","legacy","4","1024","2","48000","-16","experiment","4","even","8","498744","499818","102519","499820","502025","486614","1807","86082","504026","504851","500821","11692","504026","NA","1800","Sternberg Task","70","69600","77","yes","1024"
"91.02564102564102","91.02564102564102","902.974358974359","902.974358974359","black","experiment","legacy","legacy","legacy","0","uniform","1","undefined","1","right","77","77","0","77","77","77","0","0","77","77","77","0","77","0","0","Sun Oct 25 22:50:30 2020","The main experiment item","yes","SternbergTask.osexp","C:\Users\katri\OneDrive\Documents\Fall 2020\Sternberg Memory Task","no","mono","no","18","no","white","no","yes","768","legacy","65","11","C:/Users/katri/OneDrive/Documents/Fall 2020/Sternberg Memory Task/subject-4.csv","legacy","8 4 3 9","Lentiform Loewenfeld","3.3.3","0","n","0","right","return","left","right","NA","832","9884","16436","832","NA","2","legacy","4","1024","2","48000","-16","experiment","4","even","5","504858","505930","102519","505932","508137","486614","1807","86082","510138","510971","506933","11692","510138","NA","1800","Sternberg Task","71","70432","78","yes","1024"
"91.13924050632912","91.13924050632912","898.7215189873418","898.7215189873418","black","experiment","legacy","legacy","legacy","0","uniform","1","undefined","1","left","78","78","0","78","78","78","0","0","78","78","78","0","78","0","0","Sun Oct 25 22:50:30 2020","The main experiment item","yes","SternbergTask.osexp","C:\Users\katri\OneDrive\Documents\Fall 2020\Sternberg Memory Task","no","mono","no","18","no","white","no","yes","768","legacy","66","11","C:/Users/katri/OneDrive/Documents/Fall 2020/Sternberg Memory Task/subject-4.csv","legacy","4 6 5 8","Lentiform Loewenfeld","3.3.3","1","y","0","left","return","left","left","NA","567","9884","16436","567","NA","2","legacy","4","1024","2","48000","-16","experiment","4","even","4","510993","512066","102519","512068","514273","486614","1807","86082","516274","516841","513069","11692","516274","NA","1800","Sternberg Task","72","70999","79","yes","1024"
"91.25","91.25","899.8875","899.8875","black","experiment","legacy","legacy","legacy","0","uniform","1","undefined","1","left","79","79","0","79","79","79","0","0","79","79","79","0","79","0","0","Sun Oct 25 22:50:30 2020","The main experiment item","yes","SternbergTask.osexp","C:\Users\katri\OneDrive\Documents\Fall 2020\Sternberg Memory Task","no","mono","no","18","no","white","no","yes","768","legacy","67","11","C:/Users/katri/OneDrive/Documents/Fall 2020/Sternberg Memory Task/subject-4.csv","legacy","3 4 9 6 2 9","Lentiform Loewenfeld","3.3.3","5","y","0","left","return","left","left","NA","992","9884","16436","992","NA","2","legacy","6","1024","2","48000","-16","experiment","4","even","2","516866","517937","102519","517939","520145","486614","1807","86082","522146","523138","518940","11692","522146","NA","1800","Sternberg Task","73","71991","80","yes","1024"
"91.35802469135803","91.35802469135803","902.2469135802469","902.2469135802469","black","experiment","legacy","legacy","legacy","0","uniform","1","undefined","1","right","80","80","0","80","80","80","0","0","80","80","80","0","80","0","0","Sun Oct 25 22:50:30 2020","The main experiment item","yes","SternbergTask.osexp","C:\Users\katri\OneDrive\Documents\Fall 2020\Sternberg Memory Task","no","mono","no","18","no","white","no","yes","768","legacy","68","11","C:/Users/katri/OneDrive/Documents/Fall 2020/Sternberg Memory Task/subject-4.csv","legacy","4 2 6 9","Lentiform Loewenfeld","3.3.3","0","n","0","right","return","left","right","NA","1091","9884","16436","1091","NA","2","legacy","4","1024","2","48000","-16","experiment","4","even","7","523162","524245","102519","524247","526452","486614","1807","86082","528453","529545","525248","11692","528453","NA","1800","Sternberg Task","74","73082","81","yes","1024"
"91.46341463414635","91.46341463414635","901.7560975609756","901.7560975609756","black","experiment","legacy","legacy","legacy","0","uniform","1","undefined","1","right","81","81","0","81","81","81","0","0","81","81","81","0","81","0","0","Sun Oct 25 22:50:30 2020","The main experiment item","yes","SternbergTask.osexp","C:\Users\katri\OneDrive\Documents\Fall 2020\Sternberg Memory Task","no","mono","no","18","no","white","no","yes","768","legacy","69","11","C:/Users/katri/OneDrive/Documents/Fall 2020/Sternberg Memory Task/subject-4.csv","legacy","1 6 4 3 9 7","Lentiform Loewenfeld","3.3.3","0","n","0","right","return","left","right","NA","862","9884","16436","862","NA","2","legacy","6","1024","2","48000","-16","experiment","4","even","8","529568","530640","102519","530642","532847","486614","1807","86082","534848","535711","531643","11692","534848","NA","1800","Sternberg Task","75","73944","82","yes","1024"
"91.56626506024097","91.56626506024097","908.8313253012049","908.8313253012049","black","experiment","legacy","legacy","legacy","0","uniform","1","undefined","1","right","82","82","0","82","82","82","0","0","82","82","82","0","82","0","0","Sun Oct 25 22:50:30 2020","The main experiment item","yes","SternbergTask.osexp","C:\Users\katri\OneDrive\Documents\Fall 2020\Sternberg Memory Task","no","mono","no","18","no","white","no","yes","768","legacy","70","11","C:/Users/katri/OneDrive/Documents/Fall 2020/Sternberg Memory Task/subject-4.csv","legacy","6 9 5","Lentiform Loewenfeld","3.3.3","0","n","0","right","return","left","right","NA","1489","9884","16436","1489","NA","2","legacy","3","1024","2","48000","-16","experiment","4","even","8","535719","536790","102519","536791","538997","486614","1807","86082","540999","542489","537794","11692","540999","NA","1800","Sternberg Task","76","75433","83","yes","1024"
"91.66666666666667","91.66666666666667","911.452380952381","911.452380952381","black","experiment","legacy","legacy","legacy","0","uniform","1","undefined","1","left","83","83","0","83","83","83","0","0","83","83","83","0","83","0","0","Sun Oct 25 22:50:30 2020","The main experiment item","yes","SternbergTask.osexp","C:\Users\katri\OneDrive\Documents\Fall 2020\Sternberg Memory Task","no","mono","no","18","no","white","no","yes","768","legacy","71","11","C:/Users/katri/OneDrive/Documents/Fall 2020/Sternberg Memory Task/subject-4.csv","legacy","9 3 8 2 1 4","Lentiform Loewenfeld","3.3.3","3","y","0","left","return","left","left","NA","1129","9884","16436","1129","NA","2","legacy","6","1024","2","48000","-16","experiment","4","even","8","542507","543578","102519","543579","545781","486614","1807","86082","547782","548911","544580","11692","547782","NA","1800","Sternberg Task","77","76562","84","yes","1024"
"91.76470588235294","91.76470588235294","912.8117647058823","912.8117647058823","black","experiment","legacy","legacy","legacy","0","uniform","1","undefined","1","right","84","84","0","84","84","84","0","0","84","84","84","0","84","0","0","Sun Oct 25 22:50:30 2020","The main experiment item","yes","SternbergTask.osexp","C:\Users\katri\OneDrive\Documents\Fall 2020\Sternberg Memory Task","no","mono","no","18","no","white","no","yes","768","legacy","72","11","C:/Users/katri/OneDrive/Documents/Fall 2020/Sternberg Memory Task/subject-4.csv","legacy","1 4 9 2 5","Lentiform Loewenfeld","3.3.3","0","n","0","right","return","left","right","NA","1027","9884","16436","1027","NA","2","legacy","5","1024","2","48000","-16","experiment","4","even","7","548936","550019","102519","550021","552223","486614","1807","86082","554224","555252","551022","11692","554224","NA","1800","Sternberg Task","78","77589","85","yes","1024"
"91.86046511627907","91.86046511627907","913.4302325581396","913.4302325581396","black","experiment","legacy","legacy","legacy","0","uniform","1","undefined","1","left","85","85","0","85","85","85","0","0","85","85","85","0","85","0","0","Sun Oct 25 22:50:30 2020","The main experiment item","yes","SternbergTask.osexp","C:\Users\katri\OneDrive\Documents\Fall 2020\Sternberg Memory Task","no","mono","no","18","no","white","no","yes","768","legacy","73","11","C:/Users/katri/OneDrive/Documents/Fall 2020/Sternberg Memory Task/subject-4.csv","legacy","3 2 1 4 7","Lentiform Loewenfeld","3.3.3","2","y","0","left","return","left","left","NA","966","9884","16436","966","NA","2","legacy","5","1024","2","48000","-16","experiment","4","even","2","555259","556329","102519","556331","558534","486614","1807","86082","560535","561502","557332","11692","560535","NA","1800","Sternberg Task","79","78555","86","yes","1024"
"91.95402298850574","91.95402298850574","912.5057471264367","912.5057471264367","black","experiment","legacy","legacy","legacy","0","uniform","1","undefined","1","left","86","86","0","86","86","86","0","0","86","86","86","0","86","0","0","Sun Oct 25 22:50:30 2020","The main experiment item","yes","SternbergTask.osexp","C:\Users\katri\OneDrive\Documents\Fall 2020\Sternberg Memory Task","no","mono","no","18","no","white","no","yes","768","legacy","74","11","C:/Users/katri/OneDrive/Documents/Fall 2020/Sternberg Memory Task/subject-4.csv","legacy","1 4 9 3 2 5","Lentiform Loewenfeld","3.3.3","3","y","0","left","return","left","left","NA","833","9884","16436","833","NA","2","legacy","6","1024","2","48000","-16","experiment","4","even","9","561510","562580","102519","562582","564786","486614","1807","86082","566787","567621","563583","11692","566787","NA","1800","Sternberg Task","80","79388","87","yes","1024"
"92.04545454545455","92.04545454545455","910.6477272727273","910.6477272727273","black","experiment","legacy","legacy","legacy","0","uniform","1","undefined","1","right","87","87","0","87","87","87","0","0","87","87","87","0","87","0","0","Sun Oct 25 22:50:30 2020","The main experiment item","yes","SternbergTask.osexp","C:\Users\katri\OneDrive\Documents\Fall 2020\Sternberg Memory Task","no","mono","no","18","no","white","no","yes","768","legacy","75","11","C:/Users/katri/OneDrive/Documents/Fall 2020/Sternberg Memory Task/subject-4.csv","legacy","8 6 3 4 7","Lentiform Loewenfeld","3.3.3","0","n","0","right","return","left","right","NA","749","9884","16436","749","NA","2","legacy","5","1024","2","48000","-16","experiment","4","even","1","567633","568704","102519","568706","570910","486614","1807","86082","572911","573661","569708","11692","572911","NA","1800","Sternberg Task","81","80137","88","yes","1024"
"92.13483146067416","92.13483146067416","908.3483146067416","908.3483146067416","black","experiment","legacy","legacy","legacy","0","uniform","1","undefined","1","left","88","88","0","88","88","88","0","0","88","88","88","0","88","0","0","Sun Oct 25 22:50:30 2020","The main experiment item","yes","SternbergTask.osexp","C:\Users\katri\OneDrive\Documents\Fall 2020\Sternberg Memory Task","no","mono","no","18","no","white","no","yes","768","legacy","76","11","C:/Users/katri/OneDrive/Documents/Fall 2020/Sternberg Memory Task/subject-4.csv","legacy","8 7 3","Lentiform Loewenfeld","3.3.3","1","y","0","left","return","left","left","NA","706","9884","16436","706","NA","2","legacy","3","1024","2","48000","-16","experiment","4","even","8","573683","574756","102519","574757","576967","486614","1807","86082","578968","579675","575762","11692","578968","NA","1800","Sternberg Task","82","80843","89","yes","1024"
"91.11111111111111","91.11111111111111","920.4777777777778","920.4777777777778","black","experiment","legacy","legacy","legacy","0","uniform","0","undefined","0","right","89","89","0","89","89","89","0","0","89","89","89","0","89","0","0","Sun Oct 25 22:50:30 2020","The main experiment item","yes","SternbergTask.osexp","C:\Users\katri\OneDrive\Documents\Fall 2020\Sternberg Memory Task","no","mono","no","18","no","white","no","yes","768","legacy","77","11","C:/Users/katri/OneDrive/Documents/Fall 2020/Sternberg Memory Task/subject-4.csv","legacy","9","Lentiform Loewenfeld","3.3.3","0","n","0","None","return","left","None","NA","2000","9884","16436","2000","NA","2","legacy","1","1024","2","48000","-16","experiment","4","even","6","579679","580761","102519","580763","582969","486614","1807","86082","584970","586970","581768","11692","584970","NA","1800","Sternberg Task","82","82843","90","yes","1024"
"91.20879120879121","91.20879120879121","922.1208791208791","922.1208791208791","black","experiment","legacy","legacy","legacy","0","uniform","1","undefined","1","left","90","90","0","90","90","90","0","0","90","90","90","0","90","0","0","Sun Oct 25 22:50:30 2020","The main experiment item","yes","SternbergTask.osexp","C:\Users\katri\OneDrive\Documents\Fall 2020\Sternberg Memory Task","no","mono","no","18","no","white","no","yes","768","legacy","78","11","C:/Users/katri/OneDrive/Documents/Fall 2020/Sternberg Memory Task/subject-4.csv","legacy","8 5 1 3 9","Lentiform Loewenfeld","3.3.3","4","y","0","left","return","left","left","NA","1070","9884","16436","1070","NA","2","legacy","5","1024","2","48000","-16","experiment","4","even","3","579679","588052","102519","588053","590259","586978","1807","86082","592262","593333","589054","11692","592262","NA","1800","Sternberg Task","83","83913","91","yes","1024"
"91.30434782608695","91.30434782608695","920.4673913043479","920.4673913043479","black","experiment","legacy","legacy","legacy","0","uniform","1","undefined","1","left","91","91","0","91","91","91","0","0","91","91","91","0","91","0","0","Sun Oct 25 22:50:30 2020","The main experiment item","yes","SternbergTask.osexp","C:\Users\katri\OneDrive\Documents\Fall 2020\Sternberg Memory Task","no","mono","no","18","no","white","no","yes","768","legacy","79","11","C:/Users/katri/OneDrive/Documents/Fall 2020/Sternberg Memory Task/subject-4.csv","legacy","9 8 4","Lentiform Loewenfeld","3.3.3","1","y","0","left","return","left","left","NA","770","9884","16436","770","NA","2","legacy","3","1024","2","48000","-16","experiment","4","even","9","593344","594415","102519","594418","596627","586978","1807","86082","598632","599403","595423","11692","598632","NA","1800","Sternberg Task","84","84683","92","yes","1024"
"91.39784946236558","91.39784946236558","919.741935483871","919.741935483871","black","experiment","legacy","legacy","legacy","0","uniform","1","undefined","1","right","92","92","0","92","92","92","0","0","92","92","92","0","92","0","0","Sun Oct 25 22:50:30 2020","The main experiment item","yes","SternbergTask.osexp","C:\Users\katri\OneDrive\Documents\Fall 2020\Sternberg Memory Task","no","mono","no","18","no","white","no","yes","768","legacy","80","11","C:/Users/katri/OneDrive/Documents/Fall 2020/Sternberg Memory Task/subject-4.csv","legacy","1 4 3 6 5","Lentiform Loewenfeld","3.3.3","0","n","0","right","return","left","right","NA","853","9884","16436","853","NA","2","legacy","5","1024","2","48000","-16","experiment","4","even","8","599428","600500","102519","600502","602705","586978","1807","86082","604706","605560","601503","11692","604706","NA","1800","Sternberg Task","85","85536","93","yes","1024"
"91.48936170212765","91.48936170212765","920.5425531914893","920.5425531914893","black","experiment","legacy","legacy","legacy","0","uniform","1","undefined","1","left","93","93","0","93","93","93","0","0","93","93","93","0","93","0","0","Sun Oct 25 22:50:30 2020","The main experiment item","yes","SternbergTask.osexp","C:\Users\katri\OneDrive\Documents\Fall 2020\Sternberg Memory Task","no","mono","no","18","no","white","no","yes","768","legacy","81","11","C:/Users/katri/OneDrive/Documents/Fall 2020/Sternberg Memory Task/subject-4.csv","legacy","7 1 8 5 6 2","Lentiform Loewenfeld","3.3.3","2","y","0","left","return","left","left","NA","995","9884","16436","995","NA","2","legacy","6","1024","2","48000","-16","experiment","4","even","1","605567","606641","102519","606643","608848","586978","1807","86082","610849","611844","607644","11692","610849","NA","1800","Sternberg Task","86","86531","94","yes","1024"
"90.52631578947368","90.52631578947368","923.1894736842105","923.1894736842105","black","experiment","legacy","legacy","legacy","0","uniform","0","undefined","0","right","94","94","0","94","94","94","0","0","94","94","94","0","94","0","0","Sun Oct 25 22:50:30 2020","The main experiment item","yes","SternbergTask.osexp","C:\Users\katri\OneDrive\Documents\Fall 2020\Sternberg Memory Task","no","mono","no","18","no","white","no","yes","768","legacy","82","11","C:/Users/katri/OneDrive/Documents/Fall 2020/Sternberg Memory Task/subject-4.csv","legacy","2 6 4 3 9","Lentiform Loewenfeld","3.3.3","0","n","0","left","return","left","left","NA","1172","9884","16436","1172","NA","2","legacy","5","1024","2","48000","-16","experiment","4","even","1","611866","612939","102519","612940","615143","586978","1807","86082","617144","618317","613942","11692","617144","NA","1800","Sternberg Task","86","87703","95","yes","1024"
"89.58333333333333","89.58333333333333","927.875","927.875","black","experiment","legacy","legacy","legacy","0","uniform","0","undefined","0","left","95","95","0","95","95","95","0","0","95","95","95","0","95","0","0","Sun Oct 25 22:50:30 2020","The main experiment item","yes","SternbergTask.osexp","C:\Users\katri\OneDrive\Documents\Fall 2020\Sternberg Memory Task","no","mono","no","18","no","white","no","yes","768","legacy","83","11","C:/Users/katri/OneDrive/Documents/Fall 2020/Sternberg Memory Task/subject-4.csv","legacy","7 1 3","Lentiform Loewenfeld","3.3.3","2","y","0","right","return","left","right","NA","1373","9884","16436","1373","NA","2","legacy","3","1024","2","48000","-16","experiment","4","even","1","611866","619395","102519","619397","621602","618324","1807","86082","623603","624976","620398","11692","623603","NA","1800","Sternberg Task","86","89076","96","yes","1024"
"89.69072164948453","89.69072164948453","928.5979381443299","928.5979381443299","black","experiment","legacy","legacy","legacy","0","uniform","1","undefined","1","right","96","96","0","96","96","96","0","0","96","96","96","0","96","0","0","Sun Oct 25 22:50:30 2020","The main experiment item","yes","SternbergTask.osexp","C:\Users\katri\OneDrive\Documents\Fall 2020\Sternberg Memory Task","no","mono","no","18","no","white","no","yes","768","legacy","84","11","C:/Users/katri/OneDrive/Documents/Fall 2020/Sternberg Memory Task/subject-4.csv","legacy","5 3 8 7 2 4","Lentiform Loewenfeld","3.3.3","0","n","0","right","return","left","right","NA","998","9884","16436","998","NA","2","legacy","6","1024","2","48000","-16","experiment","4","even","9","611866","626072","102519","626075","628280","625001","1807","86082","630281","631280","627076","11692","630281","NA","1800","Sternberg Task","87","90074","97","yes","1024"
"88.77551020408163","88.77551020408163","929.5102040816327","929.5102040816327","black","experiment","legacy","legacy","legacy","0","uniform","0","undefined","0","right","97","97","0","97","97","97","0","0","97","97","97","0","97","0","0","Sun Oct 25 22:50:30 2020","The main experiment item","yes","SternbergTask.osexp","C:\Users\katri\OneDrive\Documents\Fall 2020\Sternberg Memory Task","no","mono","no","18","no","white","no","yes","768","legacy","85","11","C:/Users/katri/OneDrive/Documents/Fall 2020/Sternberg Memory Task/subject-4.csv","legacy","5 3 2 6 9 8","Lentiform Loewenfeld","3.3.3","0","n","0","left","return","left","left","NA","1018","9884","16436","1018","NA","2","legacy","6","1024","2","48000","-16","experiment","4","even","4","631288","632360","102519","632362","634568","625001","1807","86082","636570","637588","633364","11692","636570","NA","1800","Sternberg Task","87","91092","98","yes","1024"
"88.88888888888889","88.88888888888889","930.5050505050505","930.5050505050505","black","experiment","legacy","legacy","legacy","0","uniform","1","undefined","1","left","98","98","0","98","98","98","0","0","98","98","98","0","98","0","0","Sun Oct 25 22:50:30 2020","The main experiment item","yes","SternbergTask.osexp","C:\Users\katri\OneDrive\Documents\Fall 2020\Sternberg Memory Task","no","mono","no","18","no","white","no","yes","768","legacy","86","11","C:/Users/katri/OneDrive/Documents/Fall 2020/Sternberg Memory Task/subject-4.csv","legacy","8 5 4 7 3 1","Lentiform Loewenfeld","3.3.3","2","y","0","left","return","left","left","NA","1028","9884","16436","1028","NA","2","legacy","6","1024","2","48000","-16","experiment","4","even","5","631288","638679","102519","638681","640888","637607","1807","86082","642889","643918","639686","11692","642889","NA","1800","Sternberg Task","88","92120","99","yes","1024"
"89","89","929.12","929.12","black","experiment","legacy","legacy","legacy","0","uniform","1","undefined","1","right","99","99","0","99","99","99","0","0","99","99","99","0","99","0","0","Sun Oct 25 22:50:30 2020","The main experiment item","yes","SternbergTask.osexp","C:\Users\katri\OneDrive\Documents\Fall 2020\Sternberg Memory Task","no","mono","no","18","no","white","no","yes","768","legacy","87","11","C:/Users/katri/OneDrive/Documents/Fall 2020/Sternberg Memory Task/subject-4.csv","legacy","3 4 2","Lentiform Loewenfeld","3.3.3","0","n","0","right","return","left","right","NA","792","9884","16436","792","NA","2","legacy","3","1024","2","48000","-16","experiment","4","even","5","643944","645016","102519","645018","647223","637607","1807","86082","649227","650019","646019","11692","649227","NA","1800","Sternberg Task","89","92912","100","yes","1024"
"89.10891089108911","89.10891089108911","936.9306930693069","936.9306930693069","black","experiment","legacy","legacy","legacy","0","uniform","1","undefined","1","right","100","100","0","100","100","100","0","0","100","100","100","0","100","0","0","Sun Oct 25 22:50:30 2020","The main experiment item","yes","SternbergTask.osexp","C:\Users\katri\OneDrive\Documents\Fall 2020\Sternberg Memory Task","no","mono","no","18","no","white","no","yes","768","legacy","88","11","C:/Users/katri/OneDrive/Documents/Fall 2020/Sternberg Memory Task/subject-4.csv","legacy","1 7 5 2","Lentiform Loewenfeld","3.3.3","0","n","0","right","return","left","right","NA","1718","9884","16436","1718","NA","2","legacy","4","1024","2","48000","-16","experiment","4","even","3","650030","651100","102519","651103","653309","637607","1807","86082","655314","657033","652104","11692","655314","NA","1800","Sternberg Task","90","94630","101","yes","1024"
"89.2156862745098","89.2156862745098","938.5","938.5","black","experiment","legacy","legacy","legacy","0","uniform","1","undefined","1","left","101","101","0","101","101","101","0","0","101","101","101","0","101","0","0","Sun Oct 25 22:50:30 2020","The main experiment item","yes","SternbergTask.osexp","C:\Users\katri\OneDrive\Documents\Fall 2020\Sternberg Memory Task","no","mono","no","18","no","white","no","yes","768","legacy","89","11","C:/Users/katri/OneDrive/Documents/Fall 2020/Sternberg Memory Task/subject-4.csv","legacy","8 9 5 7 1 6","Lentiform Loewenfeld","3.3.3","4","y","0","left","return","left","left","NA","1097","9884","16436","1097","NA","2","legacy","6","1024","2","48000","-16","experiment","4","even","7","657044","658115","102519","658116","660322","637607","1807","86082","662323","663421","659118","11692","662323","NA","1800","Sternberg Task","91","95727","102","yes","1024"
"89.32038834951456","89.32038834951456","938","938","black","experiment","legacy","legacy","legacy","0","uniform","1","undefined","1","right","102","102","0","102","102","102","0","0","102","102","102","0","102","0","0","Sun Oct 25 22:50:30 2020","The main experiment item","yes","SternbergTask.osexp","C:\Users\katri\OneDrive\Documents\Fall 2020\Sternberg Memory Task","no","mono","no","18","no","white","no","yes","768","legacy","90","11","C:/Users/katri/OneDrive/Documents/Fall 2020/Sternberg Memory Task/subject-4.csv","legacy","2 8 9 4 1","Lentiform Loewenfeld","3.3.3","0","n","0","right","return","left","right","NA","887","9884","16436","887","NA","2","legacy","5","1024","2","48000","-16","experiment","4","even","5","663429","664501","102519","664503","666705","637607","1807","86082","668706","669594","665504","11692","668706","NA","1800","Sternberg Task","92","96614","103","yes","1024"
"89.42307692307692","89.42307692307692","939.0961538461538","939.0961538461538","black","experiment","legacy","legacy","legacy","0","uniform","1","undefined","1","right","103","103","0","103","103","103","0","0","103","103","103","0","103","0","0","Sun Oct 25 22:50:30 2020","The main experiment item","yes","SternbergTask.osexp","C:\Users\katri\OneDrive\Documents\Fall 2020\Sternberg Memory Task","no","mono","no","18","no","white","no","yes","768","legacy","91","11","C:/Users/katri/OneDrive/Documents/Fall 2020/Sternberg Memory Task/subject-4.csv","legacy","6 3 1 7 9 8","Lentiform Loewenfeld","3.3.3","0","n","0","right","return","left","right","NA","1052","9884","16436","1052","NA","2","legacy","6","1024","2","48000","-16","experiment","4","even","4","669610","670682","102519","670684","672890","637607","1807","86082","674891","675944","671685","11692","674891","NA","1800","Sternberg Task","93","97666","104","yes","1024"
"89.52380952380952","89.52380952380952","935.8095238095239","935.8095238095239","black","experiment","legacy","legacy","legacy","0","uniform","1","undefined","1","right","104","104","0","104","104","104","0","0","104","104","104","0","104","0","0","Sun Oct 25 22:50:30 2020","The main experiment item","yes","SternbergTask.osexp","C:\Users\katri\OneDrive\Documents\Fall 2020\Sternberg Memory Task","no","mono","no","18","no","white","no","yes","768","legacy","92","11","C:/Users/katri/OneDrive/Documents/Fall 2020/Sternberg Memory Task/subject-4.csv","legacy","8 9","Lentiform Loewenfeld","3.3.3","0","n","0","right","return","left","right","NA","594","9884","16436","594","NA","2","legacy","2","1024","2","48000","-16","experiment","4","even","5","675966","677038","102519","677039","679245","637607","1807","86082","681246","681841","678041","11692","681246","NA","1800","Sternberg Task","94","98260","105","yes","1024"
"89.62264150943396","89.62264150943396","935.1132075471698","935.1132075471698","black","experiment","legacy","legacy","legacy","0","uniform","1","undefined","1","left","105","105","0","105","105","105","0","0","105","105","105","0","105","0","0","Sun Oct 25 22:50:30 2020","The main experiment item","yes","SternbergTask.osexp","C:\Users\katri\OneDrive\Documents\Fall 2020\Sternberg Memory Task","no","mono","no","18","no","white","no","yes","768","legacy","93","11","C:/Users/katri/OneDrive/Documents/Fall 2020/Sternberg Memory Task/subject-4.csv","legacy","6 5","Lentiform Loewenfeld","3.3.3","2","y","0","left","return","left","left","NA","862","9884","16436","862","NA","2","legacy","2","1024","2","48000","-16","experiment","4","even","5","681865","682947","102519","682948","685153","637607","1807","86082","687154","688017","683949","11692","687154","NA","1800","Sternberg Task","95","99122","106","yes","1024"
"89.7196261682243","89.7196261682243","935.626168224299","935.626168224299","black","experiment","legacy","legacy","legacy","0","uniform","1","undefined","1","left","106","106","0","106","106","106","0","0","106","106","106","0","106","0","0","Sun Oct 25 22:50:30 2020","The main experiment item","yes","SternbergTask.osexp","C:\Users\katri\OneDrive\Documents\Fall 2020\Sternberg Memory Task","no","mono","no","18","no","white","no","yes","768","legacy","94","11","C:/Users/katri/OneDrive/Documents/Fall 2020/Sternberg Memory Task/subject-4.csv","legacy","6 2","Lentiform Loewenfeld","3.3.3","1","y","0","left","return","left","left","NA","990","9884","16436","990","NA","2","legacy","2","1024","2","48000","-16","experiment","4","even","6","688024","689096","102519","689098","691306","637607","1807","86082","693307","694298","690102","11692","693307","NA","1800","Sternberg Task","96","100112","107","yes","1024"
"89.81481481481481","89.81481481481481","936","936","black","experiment","legacy","legacy","legacy","0","uniform","1","undefined","1","left","107","107","0","107","107","107","0","0","107","107","107","0","107","0","0","Sun Oct 25 22:50:30 2020","The main experiment item","yes","SternbergTask.osexp","C:\Users\katri\OneDrive\Documents\Fall 2020\Sternberg Memory Task","no","mono","no","18","no","white","no","yes","768","legacy","95","11","C:/Users/katri/OneDrive/Documents/Fall 2020/Sternberg Memory Task/subject-4.csv","legacy","9 1 7 2","Lentiform Loewenfeld","3.3.3","2","y","0","left","return","left","left","NA","976","9884","16436","976","NA","2","legacy","4","1024","2","48000","-16","experiment","4","even","1","694321","695392","102519","695393","697600","637607","1807","86082","699605","700582","696395","11692","699604","NA","1800","Sternberg Task","97","101088","108","yes","1024"
