"acc","accuracy","average_response_time","avg_rt","background","block","canvas_backend","clock_backend","color_backend","compensation","coordinates","correct","correct_instruction1","correct_keyboard_response_1","correct_response","count_ISI_1","count_PracticeLoop","count_correctFeedback_1","count_expSequence_1","count_experiment","count_experimentLoop","count_fixation_1","count_incorrectFeedback_1","count_instruction1","count_instruction2","count_keyboard_response_1","count_logger_1","count_memorySet_1","count_probe_1","count_thankYou","datetime","description","disable_garbage_collection","experiment_file","experiment_path","font_bold","font_family","font_italic","font_size","font_underline","foreground","form_clicks","fullscreen","height","keyboard_backend","live_row","live_row_PracticeLoop","logfile","mouse_backend","numberSet","opensesame_codename","opensesame_version","posInSet","present","psychopy_waitblanking","repeat_cycle","response","response_instruction1","response_instruction2","response_keyboard_response_1","response_thankYou","response_time","response_time_instruction1","response_time_instruction2","response_time_keyboard_response_1","response_time_thankYou","round_decimals","sampler_backend","setSize","sound_buf_size","sound_channels","sound_freq","sound_sample_size","start","subject_nr","subject_parity","target","time_ISI_1","time_PracticeLoop","time_correctFeedback_1","time_expSequence_1","time_experiment","time_experimentLoop","time_fixation_1","time_incorrectFeedback_1","time_instruction1","time_instruction2","time_keyboard_response_1","time_logger_1","time_memorySet_1","time_probe_1","time_thankYou","title","total_correct","total_response_time","total_responses","uniform_coordinates","width"
"100","100","501","501","black","practice","legacy","legacy","legacy","0","uniform","1","undefined","1","left","0","0","0","0","0","0","0","0","0","0","0","0","0","0","0","Thu Oct 13 22:33:42 2022","The main experiment item","yes","SternbergTask.osexp","C:/Users/lil_p/OneDrive/Documents/School/Advanced Quantitative Analysis/Lab 3.1","no","mono","no","18","no","white","no","yes","768","legacy","0","0","C:/Users/lil_p/OneDrive/Documents/School/Advanced Quantitative Analysis/Lab 3.1/AP-subject-1.csv","legacy","6","Lentiform Loewenfeld","3.3.12","1","y","yes","0","left","left","NA","left","NA","501","18023","NA","501","NA","2","legacy","1","1024","2","48000","-16","experiment","1","odd","6","24902","21892","NA","22697","3806","NA","22699","NA","3868","NA","26903","27405","23700","26903","NA","Sternberg Task","1","501","1","yes","1024"
"100","100","812.5","812.5","black","practice","legacy","legacy","legacy","0","uniform","1","undefined","1","right","1","0","1","1","0","0","1","1","0","0","1","1","1","1","0","Thu Oct 13 22:33:42 2022","The main experiment item","yes","SternbergTask.osexp","C:/Users/lil_p/OneDrive/Documents/School/Advanced Quantitative Analysis/Lab 3.1","no","mono","no","18","no","white","no","yes","768","legacy","1","1","C:/Users/lil_p/OneDrive/Documents/School/Advanced Quantitative Analysis/Lab 3.1/AP-subject-1.csv","legacy","3 1 9 4","Lentiform Loewenfeld","3.3.12","0","n","yes","0","right","left","NA","right","NA","1124","18023","NA","1124","NA","2","legacy","4","1024","2","48000","-16","experiment","1","odd","6","30800","21892","27476","28595","3806","NA","28598","NA","3868","NA","32803","33928","29599","32803","NA","Sternberg Task","2","1625","2","yes","1024"
"100","100","1008.6666666666666","1008.6666666666666","black","practice","legacy","legacy","legacy","0","uniform","1","undefined","1","right","2","0","2","2","0","0","2","2","0","0","2","2","2","2","0","Thu Oct 13 22:33:42 2022","The main experiment item","yes","SternbergTask.osexp","C:/Users/lil_p/OneDrive/Documents/School/Advanced Quantitative Analysis/Lab 3.1","no","mono","no","18","no","white","no","yes","768","legacy","2","2","C:/Users/lil_p/OneDrive/Documents/School/Advanced Quantitative Analysis/Lab 3.1/AP-subject-1.csv","legacy","5 7 8 4 1 2","Lentiform Loewenfeld","3.3.12","0","n","yes","0","right","left","NA","right","NA","1401","18023","NA","1401","NA","2","legacy","6","1024","2","48000","-16","experiment","1","odd","6","37267","21892","33934","35062","3806","NA","35065","NA","3868","NA","39269","40671","36066","39269","NA","Sternberg Task","3","3026","3","yes","1024"
"100","100","1133","1133","black","practice","legacy","legacy","legacy","0","uniform","1","undefined","1","left","3","0","3","3","0","0","3","3","0","0","3","3","3","3","0","Thu Oct 13 22:33:42 2022","The main experiment item","yes","SternbergTask.osexp","C:/Users/lil_p/OneDrive/Documents/School/Advanced Quantitative Analysis/Lab 3.1","no","mono","no","18","no","white","no","yes","768","legacy","3","3","C:/Users/lil_p/OneDrive/Documents/School/Advanced Quantitative Analysis/Lab 3.1/AP-subject-1.csv","legacy","1 7 9 8 5","Lentiform Loewenfeld","3.3.12","4","y","yes","0","left","left","NA","left","NA","1506","18023","NA","1506","NA","2","legacy","5","1024","2","48000","-16","experiment","1","odd","8","44009","21892","40678","41804","3806","NA","41806","NA","3868","NA","46012","47518","42808","46011","NA","Sternberg Task","4","4532","4","yes","1024"
"100","100","1089.4","1089.4","black","practice","legacy","legacy","legacy","0","uniform","1","undefined","1","right","4","0","4","4","0","0","4","4","0","0","4","4","4","4","0","Thu Oct 13 22:33:42 2022","The main experiment item","yes","SternbergTask.osexp","C:/Users/lil_p/OneDrive/Documents/School/Advanced Quantitative Analysis/Lab 3.1","no","mono","no","18","no","white","no","yes","768","legacy","4","4","C:/Users/lil_p/OneDrive/Documents/School/Advanced Quantitative Analysis/Lab 3.1/AP-subject-1.csv","legacy","4 1 5","Lentiform Loewenfeld","3.3.12","0","n","yes","0","right","left","NA","right","NA","915","18023","NA","915","NA","2","legacy","3","1024","2","48000","-16","experiment","1","odd","2","50899","21892","47527","48692","3806","NA","48695","NA","3868","NA","52904","53820","49697","52903","NA","Sternberg Task","5","5447","5","yes","1024"
"83.33333333333333","83.33333333333333","1241.1666666666667","1241.1666666666667","black","practice","legacy","legacy","legacy","0","uniform","0","undefined","0","left","5","0","5","5","0","0","5","5","0","0","5","5","5","5","0","Thu Oct 13 22:33:42 2022","The main experiment item","yes","SternbergTask.osexp","C:/Users/lil_p/OneDrive/Documents/School/Advanced Quantitative Analysis/Lab 3.1","no","mono","no","18","no","white","no","yes","768","legacy","5","5","C:/Users/lil_p/OneDrive/Documents/School/Advanced Quantitative Analysis/Lab 3.1/AP-subject-1.csv","legacy","1 5 2 9","Lentiform Loewenfeld","3.3.12","2","y","yes","0","None","left","NA","None","NA","2000","18023","NA","2000","NA","2","legacy","4","1024","2","48000","-16","experiment","1","odd","5","57144","21892","53826","54939","3806","NA","54942","NA","3868","NA","59145","61145","55943","59145","NA","Sternberg Task","5","7447","6","yes","1024"
"85.71428571428571","85.71428571428571","1143.2857142857142","1143.2857142857142","black","practice","legacy","legacy","legacy","0","uniform","1","undefined","1","right","6","0","6","6","0","0","6","6","0","0","6","6","6","6","0","Thu Oct 13 22:33:42 2022","The main experiment item","yes","SternbergTask.osexp","C:/Users/lil_p/OneDrive/Documents/School/Advanced Quantitative Analysis/Lab 3.1","no","mono","no","18","no","white","no","yes","768","legacy","6","6","C:/Users/lil_p/OneDrive/Documents/School/Advanced Quantitative Analysis/Lab 3.1/AP-subject-1.csv","legacy","2 1","Lentiform Loewenfeld","3.3.12","0","n","yes","0","right","left","NA","right","NA","556","18023","NA","556","NA","2","legacy","2","1024","2","48000","-16","experiment","1","odd","5","64471","21892","53826","62265","3806","NA","62268","61150","3868","NA","66472","67028","63269","66472","NA","Sternberg Task","6","8003","7","yes","1024"
"75","75","1250.375","1250.375","black","practice","legacy","legacy","legacy","0","uniform","0","undefined","0","right","7","0","7","7","0","0","7","7","0","0","7","7","7","7","0","Thu Oct 13 22:33:42 2022","The main experiment item","yes","SternbergTask.osexp","C:/Users/lil_p/OneDrive/Documents/School/Advanced Quantitative Analysis/Lab 3.1","no","mono","no","18","no","white","no","yes","768","legacy","7","7","C:/Users/lil_p/OneDrive/Documents/School/Advanced Quantitative Analysis/Lab 3.1/AP-subject-1.csv","legacy","5","Lentiform Loewenfeld","3.3.12","0","n","yes","0","None","left","NA","None","NA","2000","18023","NA","2000","NA","2","legacy","1","1024","2","48000","-16","experiment","1","odd","3","70355","21892","67035","68150","3806","NA","68152","61150","3868","NA","72357","74357","69153","72357","NA","Sternberg Task","6","10003","8","yes","1024"
"77.77777777777777","77.77777777777777","1211.3333333333333","1211.3333333333333","black","practice","legacy","legacy","legacy","0","uniform","1","undefined","1","left","8","0","8","8","0","0","8","8","0","0","8","8","8","8","0","Thu Oct 13 22:33:42 2022","The main experiment item","yes","SternbergTask.osexp","C:/Users/lil_p/OneDrive/Documents/School/Advanced Quantitative Analysis/Lab 3.1","no","mono","no","18","no","white","no","yes","768","legacy","8","8","C:/Users/lil_p/OneDrive/Documents/School/Advanced Quantitative Analysis/Lab 3.1/AP-subject-1.csv","legacy","2 9 4","Lentiform Loewenfeld","3.3.12","3","y","yes","0","left","left","NA","left","NA","899","18023","NA","899","NA","2","legacy","3","1024","2","48000","-16","experiment","1","odd","4","77692","21892","67035","75489","3806","NA","75490","74363","3868","NA","79694","80594","76491","79694","NA","Sternberg Task","7","10902","9","yes","1024"
"80","80","1153.5","1153.5","black","practice","legacy","legacy","legacy","0","uniform","1","undefined","1","left","9","0","9","9","0","0","9","9","0","0","9","9","9","9","0","Thu Oct 13 22:33:42 2022","The main experiment item","yes","SternbergTask.osexp","C:/Users/lil_p/OneDrive/Documents/School/Advanced Quantitative Analysis/Lab 3.1","no","mono","no","18","no","white","no","yes","768","legacy","9","9","C:/Users/lil_p/OneDrive/Documents/School/Advanced Quantitative Analysis/Lab 3.1/AP-subject-1.csv","legacy","4 3 1 7 9 8","Lentiform Loewenfeld","3.3.12","1","y","yes","0","left","left","NA","left","NA","633","18023","NA","633","NA","2","legacy","6","1024","2","48000","-16","experiment","1","odd","4","83938","21892","80600","81733","3806","NA","81736","74363","3868","NA","85939","86573","82737","85939","NA","Sternberg Task","8","11535","10","yes","1024"
"81.81818181818181","81.81818181818181","1097.4545454545455","1097.4545454545455","black","practice","legacy","legacy","legacy","0","uniform","1","undefined","1","left","10","0","10","10","0","0","10","10","0","0","10","10","10","10","0","Thu Oct 13 22:33:42 2022","The main experiment item","yes","SternbergTask.osexp","C:/Users/lil_p/OneDrive/Documents/School/Advanced Quantitative Analysis/Lab 3.1","no","mono","no","18","no","white","no","yes","768","legacy","10","10","C:/Users/lil_p/OneDrive/Documents/School/Advanced Quantitative Analysis/Lab 3.1/AP-subject-1.csv","legacy","4 8","Lentiform Loewenfeld","3.3.12","1","y","yes","0","left","left","NA","left","NA","537","18023","NA","537","NA","2","legacy","2","1024","2","48000","-16","experiment","1","odd","4","89897","21892","86579","87693","3806","NA","87695","74363","3868","NA","91899","92437","88696","91899","NA","Sternberg Task","9","12072","11","yes","1024"
"83.33333333333333","83.33333333333333","1081","1081","black","practice","legacy","legacy","legacy","0","uniform","1","undefined","1","right","11","0","11","11","0","0","11","11","0","0","11","11","11","11","0","Thu Oct 13 22:33:42 2022","The main experiment item","yes","SternbergTask.osexp","C:/Users/lil_p/OneDrive/Documents/School/Advanced Quantitative Analysis/Lab 3.1","no","mono","no","18","no","white","no","yes","768","legacy","11","11","C:/Users/lil_p/OneDrive/Documents/School/Advanced Quantitative Analysis/Lab 3.1/AP-subject-1.csv","legacy","9 6 7 4 5","Lentiform Loewenfeld","3.3.12","0","n","yes","0","right","left","NA","right","NA","900","18023","NA","900","NA","2","legacy","5","1024","2","48000","-16","experiment","1","odd","3","95762","21892","92444","93557","3806","NA","93559","74363","3868","NA","97763","98664","94560","97763","NA","Sternberg Task","10","12972","12","yes","1024"
"76.92307692307692","76.92307692307692","1114.3846153846155","1114.3846153846155","black","experiment","legacy","legacy","legacy","0","uniform","0","undefined","0","right","12","0","12","12","0","0","12","12","0","0","12","12","12","12","0","Thu Oct 13 22:33:42 2022","The main experiment item","yes","SternbergTask.osexp","C:/Users/lil_p/OneDrive/Documents/School/Advanced Quantitative Analysis/Lab 3.1","no","mono","no","18","no","white","no","yes","768","legacy","0","11","C:/Users/lil_p/OneDrive/Documents/School/Advanced Quantitative Analysis/Lab 3.1/AP-subject-1.csv","legacy","4 2 7 6 1 3","Lentiform Loewenfeld","3.3.12","0","n","yes","0","left","left","right","left","NA","1515","18023","3964","1515","NA","2","legacy","6","1024","2","48000","-16","experiment","1","odd","8","106006","21892","98668","103801","3806","103671","103804","74363","3868","99707","108007","109523","104805","108007","NA","Sternberg Task","10","14487","13","yes","1024"
"71.42857142857143","71.42857142857143","1109.857142857143","1109.857142857143","black","experiment","legacy","legacy","legacy","0","uniform","0","undefined","0","left","13","0","13","13","0","0","13","13","0","0","13","13","13","13","0","Thu Oct 13 22:33:42 2022","The main experiment item","yes","SternbergTask.osexp","C:/Users/lil_p/OneDrive/Documents/School/Advanced Quantitative Analysis/Lab 3.1","no","mono","no","18","no","white","no","yes","768","legacy","1","11","C:/Users/lil_p/OneDrive/Documents/School/Advanced Quantitative Analysis/Lab 3.1/AP-subject-1.csv","legacy","6 1 2","Lentiform Loewenfeld","3.3.12","3","y","yes","0","right","left","right","right","NA","1051","18023","3964","1051","NA","2","legacy","3","1024","2","48000","-16","experiment","1","odd","2","112863","21892","98668","110658","3806","103671","110660","109529","3868","99707","114864","115916","111661","114864","NA","Sternberg Task","10","15538","14","yes","1024"
"73.33333333333333","73.33333333333333","1104.7333333333333","1104.7333333333333","black","experiment","legacy","legacy","legacy","0","uniform","1","undefined","1","left","14","0","14","14","0","0","14","14","0","0","14","14","14","14","0","Thu Oct 13 22:33:42 2022","The main experiment item","yes","SternbergTask.osexp","C:/Users/lil_p/OneDrive/Documents/School/Advanced Quantitative Analysis/Lab 3.1","no","mono","no","18","no","white","no","yes","768","legacy","2","11","C:/Users/lil_p/OneDrive/Documents/School/Advanced Quantitative Analysis/Lab 3.1/AP-subject-1.csv","legacy","9 6 2 4 1","Lentiform Loewenfeld","3.3.12","4","y","yes","0","left","left","right","left","NA","1033","18023","3964","1033","NA","2","legacy","5","1024","2","48000","-16","experiment","1","odd","4","119250","21892","98668","117046","3806","103671","117048","115922","3868","99707","121252","122285","118049","121252","NA","Sternberg Task","11","16571","15","yes","1024"
"75","75","1083.5625","1083.5625","black","experiment","legacy","legacy","legacy","0","uniform","1","undefined","1","left","15","0","15","15","0","0","15","15","0","0","15","15","15","15","0","Thu Oct 13 22:33:42 2022","The main experiment item","yes","SternbergTask.osexp","C:/Users/lil_p/OneDrive/Documents/School/Advanced Quantitative Analysis/Lab 3.1","no","mono","no","18","no","white","no","yes","768","legacy","3","11","C:/Users/lil_p/OneDrive/Documents/School/Advanced Quantitative Analysis/Lab 3.1/AP-subject-1.csv","legacy","9 5 3 8 4","Lentiform Loewenfeld","3.3.12","1","y","yes","0","left","left","right","left","NA","766","18023","3964","766","NA","2","legacy","5","1024","2","48000","-16","experiment","1","odd","9","125615","21892","122292","123410","3806","103671","123413","115922","3868","99707","127616","128383","124414","127616","NA","Sternberg Task","12","17337","16","yes","1024"
"76.47058823529412","76.47058823529412","1058","1058","black","experiment","legacy","legacy","legacy","0","uniform","1","undefined","1","right","16","0","16","16","0","0","16","16","0","0","16","16","16","16","0","Thu Oct 13 22:33:42 2022","The main experiment item","yes","SternbergTask.osexp","C:/Users/lil_p/OneDrive/Documents/School/Advanced Quantitative Analysis/Lab 3.1","no","mono","no","18","no","white","no","yes","768","legacy","4","11","C:/Users/lil_p/OneDrive/Documents/School/Advanced Quantitative Analysis/Lab 3.1/AP-subject-1.csv","legacy","6 9 4 5 2","Lentiform Loewenfeld","3.3.12","0","n","yes","0","right","left","right","right","NA","649","18023","3964","649","NA","2","legacy","5","1024","2","48000","-16","experiment","1","odd","1","131714","21892","128389","129510","3806","103671","129512","115922","3868","99707","133715","134365","130513","133715","NA","Sternberg Task","13","17986","17","yes","1024"
"77.77777777777777","77.77777777777777","1057.111111111111","1057.111111111111","black","experiment","legacy","legacy","legacy","0","uniform","1","undefined","1","left","17","0","17","17","0","0","17","17","0","0","17","17","17","17","0","Thu Oct 13 22:33:42 2022","The main experiment item","yes","SternbergTask.osexp","C:/Users/lil_p/OneDrive/Documents/School/Advanced Quantitative Analysis/Lab 3.1","no","mono","no","18","no","white","no","yes","768","legacy","5","11","C:/Users/lil_p/OneDrive/Documents/School/Advanced Quantitative Analysis/Lab 3.1/AP-subject-1.csv","legacy","3 9 6 2","Lentiform Loewenfeld","3.3.12","4","y","yes","0","left","left","right","left","NA","1042","18023","3964","1042","NA","2","legacy","4","1024","2","48000","-16","experiment","1","odd","2","137705","21892","134370","135499","3806","103671","135502","115922","3868","99707","139706","140748","136504","139706","NA","Sternberg Task","14","19028","18","yes","1024"
"78.94736842105263","78.94736842105263","1047.7894736842106","1047.7894736842106","black","experiment","legacy","legacy","legacy","0","uniform","1","undefined","1","right","18","0","18","18","0","0","18","18","0","0","18","18","18","18","0","Thu Oct 13 22:33:42 2022","The main experiment item","yes","SternbergTask.osexp","C:/Users/lil_p/OneDrive/Documents/School/Advanced Quantitative Analysis/Lab 3.1","no","mono","no","18","no","white","no","yes","768","legacy","6","11","C:/Users/lil_p/OneDrive/Documents/School/Advanced Quantitative Analysis/Lab 3.1/AP-subject-1.csv","legacy","7 9","Lentiform Loewenfeld","3.3.12","0","n","yes","0","right","left","right","right","NA","880","18023","3964","880","NA","2","legacy","2","1024","2","48000","-16","experiment","1","odd","1","144081","21892","140754","141877","3806","103671","141879","115922","3868","99707","146083","146964","142880","146083","NA","Sternberg Task","15","19908","19","yes","1024"
"80","80","1047.15","1047.15","black","experiment","legacy","legacy","legacy","0","uniform","1","undefined","1","right","19","0","19","19","0","0","19","19","0","0","19","19","19","19","0","Thu Oct 13 22:33:42 2022","The main experiment item","yes","SternbergTask.osexp","C:/Users/lil_p/OneDrive/Documents/School/Advanced Quantitative Analysis/Lab 3.1","no","mono","no","18","no","white","no","yes","768","legacy","7","11","C:/Users/lil_p/OneDrive/Documents/School/Advanced Quantitative Analysis/Lab 3.1/AP-subject-1.csv","legacy","9 5 3 2 8 6","Lentiform Loewenfeld","3.3.12","0","n","yes","0","right","left","right","right","NA","1035","18023","3964","1035","NA","2","legacy","6","1024","2","48000","-16","experiment","1","odd","7","150295","21892","146970","148090","3806","103671","148093","115922","3868","99707","152296","153332","149094","152296","NA","Sternberg Task","16","20943","20","yes","1024"
"80.95238095238095","80.95238095238095","1041.5714285714287","1041.5714285714287","black","experiment","legacy","legacy","legacy","0","uniform","1","undefined","1","left","20","0","20","20","0","0","20","20","0","0","20","20","20","20","0","Thu Oct 13 22:33:42 2022","The main experiment item","yes","SternbergTask.osexp","C:/Users/lil_p/OneDrive/Documents/School/Advanced Quantitative Analysis/Lab 3.1","no","mono","no","18","no","white","no","yes","768","legacy","8","11","C:/Users/lil_p/OneDrive/Documents/School/Advanced Quantitative Analysis/Lab 3.1/AP-subject-1.csv","legacy","4 1 8 7 5","Lentiform Loewenfeld","3.3.12","3","y","yes","0","left","left","right","left","NA","930","18023","3964","930","NA","2","legacy","5","1024","2","48000","-16","experiment","1","odd","8","156661","21892","153336","154457","3806","103671","154459","115922","3868","99707","158663","159594","155460","158662","NA","Sternberg Task","17","21873","21","yes","1024"
"81.81818181818181","81.81818181818181","1039.409090909091","1039.409090909091","black","experiment","legacy","legacy","legacy","0","uniform","1","undefined","1","left","21","0","21","21","0","0","21","21","0","0","21","21","21","21","0","Thu Oct 13 22:33:42 2022","The main experiment item","yes","SternbergTask.osexp","C:/Users/lil_p/OneDrive/Documents/School/Advanced Quantitative Analysis/Lab 3.1","no","mono","no","18","no","white","no","yes","768","legacy","9","11","C:/Users/lil_p/OneDrive/Documents/School/Advanced Quantitative Analysis/Lab 3.1/AP-subject-1.csv","legacy","1 4 9 3 2 5","Lentiform Loewenfeld","3.3.12","3","y","yes","0","left","left","right","left","NA","994","18023","3964","994","NA","2","legacy","6","1024","2","48000","-16","experiment","1","odd","9","162934","21892","159601","160729","3806","103671","160732","115922","3868","99707","164935","165929","161733","164935","NA","Sternberg Task","18","22867","22","yes","1024"
"82.6086956521739","82.6086956521739","1029.2173913043478","1029.2173913043478","black","experiment","legacy","legacy","legacy","0","uniform","1","undefined","1","left","22","0","22","22","0","0","22","22","0","0","22","22","22","22","0","Thu Oct 13 22:33:42 2022","The main experiment item","yes","SternbergTask.osexp","C:/Users/lil_p/OneDrive/Documents/School/Advanced Quantitative Analysis/Lab 3.1","no","mono","no","18","no","white","no","yes","768","legacy","10","11","C:/Users/lil_p/OneDrive/Documents/School/Advanced Quantitative Analysis/Lab 3.1/AP-subject-1.csv","legacy","2 6 1 7 4","Lentiform Loewenfeld","3.3.12","2","y","yes","0","left","left","right","left","NA","805","18023","3964","805","NA","2","legacy","5","1024","2","48000","-16","experiment","1","odd","6","169266","21892","165936","167062","3806","103671","167064","115922","3868","99707","171267","172073","168065","171267","NA","Sternberg Task","19","23672","23","yes","1024"
"83.33333333333333","83.33333333333333","1029.3333333333333","1029.3333333333333","black","experiment","legacy","legacy","legacy","0","uniform","1","undefined","1","right","23","0","23","23","0","0","23","23","0","0","23","23","23","23","0","Thu Oct 13 22:33:42 2022","The main experiment item","yes","SternbergTask.osexp","C:/Users/lil_p/OneDrive/Documents/School/Advanced Quantitative Analysis/Lab 3.1","no","mono","no","18","no","white","no","yes","768","legacy","11","11","C:/Users/lil_p/OneDrive/Documents/School/Advanced Quantitative Analysis/Lab 3.1/AP-subject-1.csv","legacy","7 9 1 6","Lentiform Loewenfeld","3.3.12","0","n","yes","0","right","left","right","right","NA","1032","18023","3964","1032","NA","2","legacy","4","1024","2","48000","-16","experiment","1","odd","4","175407","21892","172080","173203","3806","103671","173205","115922","3868","99707","177409","178441","174206","177409","NA","Sternberg Task","20","24704","24","yes","1024"
"84","84","1036.52","1036.52","black","experiment","legacy","legacy","legacy","0","uniform","1","undefined","1","left","24","0","24","24","0","0","24","24","0","0","24","24","24","24","0","Thu Oct 13 22:33:42 2022","The main experiment item","yes","SternbergTask.osexp","C:/Users/lil_p/OneDrive/Documents/School/Advanced Quantitative Analysis/Lab 3.1","no","mono","no","18","no","white","no","yes","768","legacy","12","11","C:/Users/lil_p/OneDrive/Documents/School/Advanced Quantitative Analysis/Lab 3.1/AP-subject-1.csv","legacy","8 9 6 1","Lentiform Loewenfeld","3.3.12","2","y","yes","0","left","left","right","left","NA","1209","18023","3964","1209","NA","2","legacy","4","1024","2","48000","-16","experiment","1","odd","9","181774","21892","178448","179570","3806","103671","179572","115922","3868","99707","183776","184986","180573","183775","NA","Sternberg Task","21","25913","25","yes","1024"
"84.61538461538461","84.61538461538461","1028.4615384615386","1028.4615384615386","black","experiment","legacy","legacy","legacy","0","uniform","1","undefined","1","right","25","0","25","25","0","0","25","25","0","0","25","25","25","25","0","Thu Oct 13 22:33:42 2022","The main experiment item","yes","SternbergTask.osexp","C:/Users/lil_p/OneDrive/Documents/School/Advanced Quantitative Analysis/Lab 3.1","no","mono","no","18","no","white","no","yes","768","legacy","13","11","C:/Users/lil_p/OneDrive/Documents/School/Advanced Quantitative Analysis/Lab 3.1/AP-subject-1.csv","legacy","1 4 9 2 5","Lentiform Loewenfeld","3.3.12","0","n","yes","0","right","left","right","right","NA","827","18023","3964","827","NA","2","legacy","5","1024","2","48000","-16","experiment","1","odd","7","188325","21892","184992","186120","3806","103671","186122","115922","3868","99707","190326","191154","187123","190326","NA","Sternberg Task","22","26740","26","yes","1024"
"85.18518518518519","85.18518518518519","1024.6296296296296","1024.6296296296296","black","experiment","legacy","legacy","legacy","0","uniform","1","undefined","1","left","26","0","26","26","0","0","26","26","0","0","26","26","26","26","0","Thu Oct 13 22:33:42 2022","The main experiment item","yes","SternbergTask.osexp","C:/Users/lil_p/OneDrive/Documents/School/Advanced Quantitative Analysis/Lab 3.1","no","mono","no","18","no","white","no","yes","768","legacy","14","11","C:/Users/lil_p/OneDrive/Documents/School/Advanced Quantitative Analysis/Lab 3.1/AP-subject-1.csv","legacy","5 7 3 6 2","Lentiform Loewenfeld","3.3.12","5","y","yes","0","left","left","right","left","NA","925","18023","3964","925","NA","2","legacy","5","1024","2","48000","-16","experiment","1","odd","2","194479","21892","191161","192273","3806","103671","192275","115922","3868","99707","196480","197405","193277","196480","NA","Sternberg Task","23","27665","27","yes","1024"
"85.71428571428571","85.71428571428571","1027.107142857143","1027.107142857143","black","experiment","legacy","legacy","legacy","0","uniform","1","undefined","1","right","27","0","27","27","0","0","27","27","0","0","27","27","27","27","0","Thu Oct 13 22:33:42 2022","The main experiment item","yes","SternbergTask.osexp","C:/Users/lil_p/OneDrive/Documents/School/Advanced Quantitative Analysis/Lab 3.1","no","mono","no","18","no","white","no","yes","768","legacy","15","11","C:/Users/lil_p/OneDrive/Documents/School/Advanced Quantitative Analysis/Lab 3.1/AP-subject-1.csv","legacy","4 8 1 2","Lentiform Loewenfeld","3.3.12","0","n","yes","0","right","left","right","right","NA","1094","18023","3964","1094","NA","2","legacy","4","1024","2","48000","-16","experiment","1","odd","7","200732","21892","197411","198527","3806","103671","198530","115922","3868","99707","202734","203828","199531","202734","NA","Sternberg Task","24","28759","28","yes","1024"
"86.20689655172414","86.20689655172414","1010.4827586206897","1010.4827586206897","black","experiment","legacy","legacy","legacy","0","uniform","1","undefined","1","right","28","0","28","28","0","0","28","28","0","0","28","28","28","28","0","Thu Oct 13 22:33:42 2022","The main experiment item","yes","SternbergTask.osexp","C:/Users/lil_p/OneDrive/Documents/School/Advanced Quantitative Analysis/Lab 3.1","no","mono","no","18","no","white","no","yes","768","legacy","16","11","C:/Users/lil_p/OneDrive/Documents/School/Advanced Quantitative Analysis/Lab 3.1/AP-subject-1.csv","legacy","4 1","Lentiform Loewenfeld","3.3.12","0","n","yes","0","right","left","right","right","NA","545","18023","3964","545","NA","2","legacy","2","1024","2","48000","-16","experiment","1","odd","6","207160","21892","203835","204956","3806","103671","204958","115922","3868","99707","209161","209707","205959","209161","NA","Sternberg Task","25","29304","29","yes","1024"
"86.66666666666667","86.66666666666667","1015.1","1015.1","black","experiment","legacy","legacy","legacy","0","uniform","1","undefined","1","right","29","0","29","29","0","0","29","29","0","0","29","29","29","29","0","Thu Oct 13 22:33:42 2022","The main experiment item","yes","SternbergTask.osexp","C:/Users/lil_p/OneDrive/Documents/School/Advanced Quantitative Analysis/Lab 3.1","no","mono","no","18","no","white","no","yes","768","legacy","17","11","C:/Users/lil_p/OneDrive/Documents/School/Advanced Quantitative Analysis/Lab 3.1/AP-subject-1.csv","legacy","5 3 2 6 9 8","Lentiform Loewenfeld","3.3.12","0","n","yes","0","right","left","right","right","NA","1149","18023","3964","1149","NA","2","legacy","6","1024","2","48000","-16","experiment","1","odd","4","213038","21892","209714","210833","3806","103671","210836","115922","3868","99707","215039","216189","211837","215039","NA","Sternberg Task","26","30453","30","yes","1024"
"87.09677419354838","87.09677419354838","1013.2258064516129","1013.2258064516129","black","experiment","legacy","legacy","legacy","0","uniform","1","undefined","1","left","30","0","30","30","0","0","30","30","0","0","30","30","30","30","0","Thu Oct 13 22:33:42 2022","The main experiment item","yes","SternbergTask.osexp","C:/Users/lil_p/OneDrive/Documents/School/Advanced Quantitative Analysis/Lab 3.1","no","mono","no","18","no","white","no","yes","768","legacy","18","11","C:/Users/lil_p/OneDrive/Documents/School/Advanced Quantitative Analysis/Lab 3.1/AP-subject-1.csv","legacy","4 3 2 5 8","Lentiform Loewenfeld","3.3.12","2","y","yes","0","left","left","right","left","NA","957","18023","3964","957","NA","2","legacy","5","1024","2","48000","-16","experiment","1","odd","3","219511","21892","216195","217307","3806","103671","217309","115922","3868","99707","221513","222471","218310","221512","NA","Sternberg Task","27","31410","31","yes","1024"
"87.5","87.5","1001","1001","black","experiment","legacy","legacy","legacy","0","uniform","1","undefined","1","right","31","0","31","31","0","0","31","31","0","0","31","31","31","31","0","Thu Oct 13 22:33:42 2022","The main experiment item","yes","SternbergTask.osexp","C:/Users/lil_p/OneDrive/Documents/School/Advanced Quantitative Analysis/Lab 3.1","no","mono","no","18","no","white","no","yes","768","legacy","19","11","C:/Users/lil_p/OneDrive/Documents/School/Advanced Quantitative Analysis/Lab 3.1/AP-subject-1.csv","legacy","7 6 4 8 1 2","Lentiform Loewenfeld","3.3.12","0","n","yes","0","right","left","right","right","NA","622","18023","3964","622","NA","2","legacy","6","1024","2","48000","-16","experiment","1","odd","9","225810","21892","222477","223606","3806","103671","223608","115922","3868","99707","227811","228434","224609","227811","NA","Sternberg Task","28","32032","32","yes","1024"
"87.87878787878788","87.87878787878788","1005","1005","black","experiment","legacy","legacy","legacy","0","uniform","1","undefined","1","right","32","0","32","32","0","0","32","32","0","0","32","32","32","32","0","Thu Oct 13 22:33:42 2022","The main experiment item","yes","SternbergTask.osexp","C:/Users/lil_p/OneDrive/Documents/School/Advanced Quantitative Analysis/Lab 3.1","no","mono","no","18","no","white","no","yes","768","legacy","20","11","C:/Users/lil_p/OneDrive/Documents/School/Advanced Quantitative Analysis/Lab 3.1/AP-subject-1.csv","legacy","5 3 8 7 2 4","Lentiform Loewenfeld","3.3.12","0","n","yes","0","right","left","right","right","NA","1133","18023","3964","1133","NA","2","legacy","6","1024","2","48000","-16","experiment","1","odd","9","231763","21892","228440","229558","3806","103671","229560","115922","3868","99707","233765","234898","230561","233765","NA","Sternberg Task","29","33165","33","yes","1024"
"88.23529411764706","88.23529411764706","1010.5","1010.5","black","experiment","legacy","legacy","legacy","0","uniform","1","undefined","1","right","33","0","33","33","0","0","33","33","0","0","33","33","33","33","0","Thu Oct 13 22:33:42 2022","The main experiment item","yes","SternbergTask.osexp","C:/Users/lil_p/OneDrive/Documents/School/Advanced Quantitative Analysis/Lab 3.1","no","mono","no","18","no","white","no","yes","768","legacy","21","11","C:/Users/lil_p/OneDrive/Documents/School/Advanced Quantitative Analysis/Lab 3.1/AP-subject-1.csv","legacy","1 7 8 3 9","Lentiform Loewenfeld","3.3.12","0","n","yes","0","right","left","right","right","NA","1192","18023","3964","1192","NA","2","legacy","5","1024","2","48000","-16","experiment","1","odd","2","238246","21892","234905","236042","3806","103671","236044","115922","3868","99707","240247","241440","237045","240247","NA","Sternberg Task","30","34357","34","yes","1024"
"88.57142857142857","88.57142857142857","1006.8571428571429","1006.8571428571429","black","experiment","legacy","legacy","legacy","0","uniform","1","undefined","1","left","34","0","34","34","0","0","34","34","0","0","34","34","34","34","0","Thu Oct 13 22:33:42 2022","The main experiment item","yes","SternbergTask.osexp","C:/Users/lil_p/OneDrive/Documents/School/Advanced Quantitative Analysis/Lab 3.1","no","mono","no","18","no","white","no","yes","768","legacy","22","11","C:/Users/lil_p/OneDrive/Documents/School/Advanced Quantitative Analysis/Lab 3.1/AP-subject-1.csv","legacy","9 5 8 1","Lentiform Loewenfeld","3.3.12","2","y","yes","0","left","left","right","left","NA","883","18023","3964","883","NA","2","legacy","4","1024","2","48000","-16","experiment","1","odd","5","244780","21892","241445","242574","3806","103671","242577","115922","3868","99707","246783","247667","243578","246783","NA","Sternberg Task","31","35240","35","yes","1024"
"88.88888888888889","88.88888888888889","1004.3611111111111","1004.3611111111111","black","experiment","legacy","legacy","legacy","0","uniform","1","undefined","1","left","35","0","35","35","0","0","35","35","0","0","35","35","35","35","0","Thu Oct 13 22:33:42 2022","The main experiment item","yes","SternbergTask.osexp","C:/Users/lil_p/OneDrive/Documents/School/Advanced Quantitative Analysis/Lab 3.1","no","mono","no","18","no","white","no","yes","768","legacy","23","11","C:/Users/lil_p/OneDrive/Documents/School/Advanced Quantitative Analysis/Lab 3.1/AP-subject-1.csv","legacy","4 6 5 8","Lentiform Loewenfeld","3.3.12","1","y","yes","0","left","left","right","left","NA","917","18023","3964","917","NA","2","legacy","4","1024","2","48000","-16","experiment","1","odd","4","251004","21892","247673","248799","3806","103671","248801","115922","3868","99707","253005","253922","249802","253005","NA","Sternberg Task","32","36157","36","yes","1024"
"89.1891891891892","89.1891891891892","999.081081081081","999.081081081081","black","experiment","legacy","legacy","legacy","0","uniform","1","undefined","1","right","36","0","36","36","0","0","36","36","0","0","36","36","36","36","0","Thu Oct 13 22:33:42 2022","The main experiment item","yes","SternbergTask.osexp","C:/Users/lil_p/OneDrive/Documents/School/Advanced Quantitative Analysis/Lab 3.1","no","mono","no","18","no","white","no","yes","768","legacy","24","11","C:/Users/lil_p/OneDrive/Documents/School/Advanced Quantitative Analysis/Lab 3.1/AP-subject-1.csv","legacy","6 2 9 3 8 4","Lentiform Loewenfeld","3.3.12","0","n","yes","0","right","left","right","right","NA","809","18023","3964","809","NA","2","legacy","6","1024","2","48000","-16","experiment","1","odd","1","257257","21892","253928","255053","3806","103671","255055","115922","3868","99707","259258","260068","256056","259258","NA","Sternberg Task","33","36966","37","yes","1024"
"89.47368421052632","89.47368421052632","992.2368421052631","992.2368421052631","black","experiment","legacy","legacy","legacy","0","uniform","1","undefined","1","left","37","0","37","37","0","0","37","37","0","0","37","37","37","37","0","Thu Oct 13 22:33:42 2022","The main experiment item","yes","SternbergTask.osexp","C:/Users/lil_p/OneDrive/Documents/School/Advanced Quantitative Analysis/Lab 3.1","no","mono","no","18","no","white","no","yes","768","legacy","25","11","C:/Users/lil_p/OneDrive/Documents/School/Advanced Quantitative Analysis/Lab 3.1/AP-subject-1.csv","legacy","6 5","Lentiform Loewenfeld","3.3.12","2","y","yes","0","left","left","right","left","NA","739","18023","3964","739","NA","2","legacy","2","1024","2","48000","-16","experiment","1","odd","5","263390","21892","260074","261186","3806","103671","261188","115922","3868","99707","265391","266131","262189","265391","NA","Sternberg Task","34","37705","38","yes","1024"
"89.74358974358974","89.74358974358974","1001.6153846153846","1001.6153846153846","black","experiment","legacy","legacy","legacy","0","uniform","1","undefined","1","left","38","0","38","38","0","0","38","38","0","0","38","38","38","38","0","Thu Oct 13 22:33:42 2022","The main experiment item","yes","SternbergTask.osexp","C:/Users/lil_p/OneDrive/Documents/School/Advanced Quantitative Analysis/Lab 3.1","no","mono","no","18","no","white","no","yes","768","legacy","26","11","C:/Users/lil_p/OneDrive/Documents/School/Advanced Quantitative Analysis/Lab 3.1/AP-subject-1.csv","legacy","9 8 4","Lentiform Loewenfeld","3.3.12","1","y","yes","0","left","left","right","left","NA","1358","18023","3964","1358","NA","2","legacy","3","1024","2","48000","-16","experiment","1","odd","9","269469","21892","266138","267265","3806","103671","267267","115922","3868","99707","271470","272829","268268","271470","NA","Sternberg Task","35","39063","39","yes","1024"
"90","90","1001.85","1001.85","black","experiment","legacy","legacy","legacy","0","uniform","1","undefined","1","right","39","0","39","39","0","0","39","39","0","0","39","39","39","39","0","Thu Oct 13 22:33:42 2022","The main experiment item","yes","SternbergTask.osexp","C:/Users/lil_p/OneDrive/Documents/School/Advanced Quantitative Analysis/Lab 3.1","no","mono","no","18","no","white","no","yes","768","legacy","27","11","C:/Users/lil_p/OneDrive/Documents/School/Advanced Quantitative Analysis/Lab 3.1/AP-subject-1.csv","legacy","6 7 5 9","Lentiform Loewenfeld","3.3.12","0","n","yes","0","right","left","right","right","NA","1011","18023","3964","1011","NA","2","legacy","4","1024","2","48000","-16","experiment","1","odd","2","276175","21892","272835","273971","3806","103671","273973","115922","3868","99707","278176","279188","274974","278176","NA","Sternberg Task","36","40074","40","yes","1024"
"90.2439024390244","90.2439024390244","1003.5365853658536","1003.5365853658536","black","experiment","legacy","legacy","legacy","0","uniform","1","undefined","1","right","40","0","40","40","0","0","40","40","0","0","40","40","40","40","0","Thu Oct 13 22:33:42 2022","The main experiment item","yes","SternbergTask.osexp","C:/Users/lil_p/OneDrive/Documents/School/Advanced Quantitative Analysis/Lab 3.1","no","mono","no","18","no","white","no","yes","768","legacy","28","11","C:/Users/lil_p/OneDrive/Documents/School/Advanced Quantitative Analysis/Lab 3.1/AP-subject-1.csv","legacy","6 9 7 3 8 2","Lentiform Loewenfeld","3.3.12","0","n","yes","0","right","left","right","right","NA","1071","18023","3964","1071","NA","2","legacy","6","1024","2","48000","-16","experiment","1","odd","5","282510","21892","279194","280305","3806","103671","280307","115922","3868","99707","284512","285585","281308","284512","NA","Sternberg Task","37","41145","41","yes","1024"
"90.47619047619048","90.47619047619048","999.0714285714286","999.0714285714286","black","experiment","legacy","legacy","legacy","0","uniform","1","undefined","1","left","41","0","41","41","0","0","41","41","0","0","41","41","41","41","0","Thu Oct 13 22:33:42 2022","The main experiment item","yes","SternbergTask.osexp","C:/Users/lil_p/OneDrive/Documents/School/Advanced Quantitative Analysis/Lab 3.1","no","mono","no","18","no","white","no","yes","768","legacy","29","11","C:/Users/lil_p/OneDrive/Documents/School/Advanced Quantitative Analysis/Lab 3.1/AP-subject-1.csv","legacy","8 9 5 6 7","Lentiform Loewenfeld","3.3.12","1","y","yes","0","left","left","right","left","NA","816","18023","3964","816","NA","2","legacy","5","1024","2","48000","-16","experiment","1","odd","8","288905","21892","285590","286700","3806","103671","286703","115922","3868","99707","290906","291723","287704","290906","NA","Sternberg Task","38","41961","42","yes","1024"
"90.69767441860465","90.69767441860465","997.4186046511628","997.4186046511628","black","experiment","legacy","legacy","legacy","0","uniform","1","undefined","1","left","42","0","42","42","0","0","42","42","0","0","42","42","42","42","0","Thu Oct 13 22:33:42 2022","The main experiment item","yes","SternbergTask.osexp","C:/Users/lil_p/OneDrive/Documents/School/Advanced Quantitative Analysis/Lab 3.1","no","mono","no","18","no","white","no","yes","768","legacy","30","11","C:/Users/lil_p/OneDrive/Documents/School/Advanced Quantitative Analysis/Lab 3.1/AP-subject-1.csv","legacy","9 3 1 2 5","Lentiform Loewenfeld","3.3.12","4","y","yes","0","left","left","right","left","NA","928","18023","3964","928","NA","2","legacy","5","1024","2","48000","-16","experiment","1","odd","2","295053","21892","291730","292847","3806","103671","292850","115922","3868","99707","297054","297983","293851","297054","NA","Sternberg Task","39","42889","43","yes","1024"
"90.9090909090909","90.9090909090909","1004.6363636363636","1004.6363636363636","black","experiment","legacy","legacy","legacy","0","uniform","1","undefined","1","right","43","0","43","43","0","0","43","43","0","0","43","43","43","43","0","Thu Oct 13 22:33:42 2022","The main experiment item","yes","SternbergTask.osexp","C:/Users/lil_p/OneDrive/Documents/School/Advanced Quantitative Analysis/Lab 3.1","no","mono","no","18","no","white","no","yes","768","legacy","31","11","C:/Users/lil_p/OneDrive/Documents/School/Advanced Quantitative Analysis/Lab 3.1/AP-subject-1.csv","legacy","7 4 2 8 1 9","Lentiform Loewenfeld","3.3.12","0","n","yes","0","right","left","right","right","NA","1315","18023","3964","1315","NA","2","legacy","6","1024","2","48000","-16","experiment","1","odd","5","301315","21892","297990","299110","3806","103671","299113","115922","3868","99707","303316","304632","300114","303316","NA","Sternberg Task","40","44204","44","yes","1024"
"91.11111111111111","91.11111111111111","1006.0666666666667","1006.0666666666667","black","experiment","legacy","legacy","legacy","0","uniform","1","undefined","1","right","44","0","44","44","0","0","44","44","0","0","44","44","44","44","0","Thu Oct 13 22:33:42 2022","The main experiment item","yes","SternbergTask.osexp","C:/Users/lil_p/OneDrive/Documents/School/Advanced Quantitative Analysis/Lab 3.1","no","mono","no","18","no","white","no","yes","768","legacy","32","11","C:/Users/lil_p/OneDrive/Documents/School/Advanced Quantitative Analysis/Lab 3.1/AP-subject-1.csv","legacy","3 4 9 6 7 8","Lentiform Loewenfeld","3.3.12","0","n","yes","0","right","left","right","right","NA","1069","18023","3964","1069","NA","2","legacy","6","1024","2","48000","-16","experiment","1","odd","2","307977","21892","304638","305773","3806","103671","305775","115922","3868","99707","309978","311048","306776","309978","NA","Sternberg Task","41","45273","45","yes","1024"
"91.30434782608695","91.30434782608695","996.9347826086956","996.9347826086956","black","experiment","legacy","legacy","legacy","0","uniform","1","undefined","1","left","45","0","45","45","0","0","45","45","0","0","45","45","45","45","0","Thu Oct 13 22:33:42 2022","The main experiment item","yes","SternbergTask.osexp","C:/Users/lil_p/OneDrive/Documents/School/Advanced Quantitative Analysis/Lab 3.1","no","mono","no","18","no","white","no","yes","768","legacy","33","11","C:/Users/lil_p/OneDrive/Documents/School/Advanced Quantitative Analysis/Lab 3.1/AP-subject-1.csv","legacy","9 1 7 2","Lentiform Loewenfeld","3.3.12","2","y","yes","0","left","left","right","left","NA","586","18023","3964","586","NA","2","legacy","4","1024","2","48000","-16","experiment","1","odd","1","314386","21892","311055","312181","3806","103671","312184","115922","3868","99707","316387","316974","313185","316387","NA","Sternberg Task","42","45859","46","yes","1024"
"91.48936170212765","91.48936170212765","1010.531914893617","1010.531914893617","black","experiment","legacy","legacy","legacy","0","uniform","1","undefined","1","right","46","0","46","46","0","0","46","46","0","0","46","46","46","46","0","Thu Oct 13 22:33:42 2022","The main experiment item","yes","SternbergTask.osexp","C:/Users/lil_p/OneDrive/Documents/School/Advanced Quantitative Analysis/Lab 3.1","no","mono","no","18","no","white","no","yes","768","legacy","34","11","C:/Users/lil_p/OneDrive/Documents/School/Advanced Quantitative Analysis/Lab 3.1/AP-subject-1.csv","legacy","1 5 3 2 8","Lentiform Loewenfeld","3.3.12","0","n","yes","0","right","left","right","right","NA","1636","18023","3964","1636","NA","2","legacy","5","1024","2","48000","-16","experiment","1","odd","4","320295","21892","316980","318091","3806","103671","318093","115922","3868","99707","322296","323934","319094","322296","NA","Sternberg Task","43","47495","47","yes","1024"
"91.66666666666667","91.66666666666667","1007.0833333333334","1007.0833333333334","black","experiment","legacy","legacy","legacy","0","uniform","1","undefined","1","right","47","0","47","47","0","0","47","47","0","0","47","47","47","47","0","Thu Oct 13 22:33:42 2022","The main experiment item","yes","SternbergTask.osexp","C:/Users/lil_p/OneDrive/Documents/School/Advanced Quantitative Analysis/Lab 3.1","no","mono","no","18","no","white","no","yes","768","legacy","35","11","C:/Users/lil_p/OneDrive/Documents/School/Advanced Quantitative Analysis/Lab 3.1/AP-subject-1.csv","legacy","7 3 2 8","Lentiform Loewenfeld","3.3.12","0","n","yes","0","right","left","right","right","NA","845","18023","3964","845","NA","2","legacy","4","1024","2","48000","-16","experiment","1","odd","4","327259","21892","323941","325053","3806","103671","325055","115922","3868","99707","329261","330107","326057","329260","NA","Sternberg Task","44","48340","48","yes","1024"
"91.83673469387755","91.83673469387755","1024.6938775510205","1024.6938775510205","black","experiment","legacy","legacy","legacy","0","uniform","1","undefined","1","right","48","0","48","48","0","0","48","48","0","0","48","48","48","48","0","Thu Oct 13 22:33:42 2022","The main experiment item","yes","SternbergTask.osexp","C:/Users/lil_p/OneDrive/Documents/School/Advanced Quantitative Analysis/Lab 3.1","no","mono","no","18","no","white","no","yes","768","legacy","36","11","C:/Users/lil_p/OneDrive/Documents/School/Advanced Quantitative Analysis/Lab 3.1/AP-subject-1.csv","legacy","5","Lentiform Loewenfeld","3.3.12","0","n","yes","0","right","left","right","right","NA","1870","18023","3964","1870","NA","2","legacy","1","1024","2","48000","-16","experiment","1","odd","8","333436","21892","330111","331232","3806","103671","331234","115922","3868","99707","335438","337309","332235","335437","NA","Sternberg Task","45","50210","49","yes","1024"
"92","92","1021","1021","black","experiment","legacy","legacy","legacy","0","uniform","1","undefined","1","left","49","0","49","49","0","0","49","49","0","0","49","49","49","49","0","Thu Oct 13 22:33:42 2022","The main experiment item","yes","SternbergTask.osexp","C:/Users/lil_p/OneDrive/Documents/School/Advanced Quantitative Analysis/Lab 3.1","no","mono","no","18","no","white","no","yes","768","legacy","37","11","C:/Users/lil_p/OneDrive/Documents/School/Advanced Quantitative Analysis/Lab 3.1/AP-subject-1.csv","legacy","7 6","Lentiform Loewenfeld","3.3.12","2","y","yes","0","left","left","right","left","NA","840","18023","3964","840","NA","2","legacy","2","1024","2","48000","-16","experiment","1","odd","6","340637","21892","337314","338431","3806","103671","338434","115922","3868","99707","342638","343479","339435","342638","NA","Sternberg Task","46","51050","50","yes","1024"
"92.15686274509804","92.15686274509804","1022.3137254901961","1022.3137254901961","black","experiment","legacy","legacy","legacy","0","uniform","1","undefined","1","left","50","0","50","50","0","0","50","50","0","0","50","50","50","50","0","Thu Oct 13 22:33:42 2022","The main experiment item","yes","SternbergTask.osexp","C:/Users/lil_p/OneDrive/Documents/School/Advanced Quantitative Analysis/Lab 3.1","no","mono","no","18","no","white","no","yes","768","legacy","38","11","C:/Users/lil_p/OneDrive/Documents/School/Advanced Quantitative Analysis/Lab 3.1/AP-subject-1.csv","legacy","8 5 3 7 4 6","Lentiform Loewenfeld","3.3.12","6","y","yes","0","left","left","right","left","NA","1088","18023","3964","1088","NA","2","legacy","6","1024","2","48000","-16","experiment","1","odd","6","346876","21892","343485","344667","3806","103671","344670","115922","3868","99707","348878","349968","345673","348878","NA","Sternberg Task","47","52138","51","yes","1024"
"92.3076923076923","92.3076923076923","1020.2307692307693","1020.2307692307693","black","experiment","legacy","legacy","legacy","0","uniform","1","undefined","1","left","51","0","51","51","0","0","51","51","0","0","51","51","51","51","0","Thu Oct 13 22:33:42 2022","The main experiment item","yes","SternbergTask.osexp","C:/Users/lil_p/OneDrive/Documents/School/Advanced Quantitative Analysis/Lab 3.1","no","mono","no","18","no","white","no","yes","768","legacy","39","11","C:/Users/lil_p/OneDrive/Documents/School/Advanced Quantitative Analysis/Lab 3.1/AP-subject-1.csv","legacy","4 9 7 8 5 3","Lentiform Loewenfeld","3.3.12","4","y","yes","0","left","left","right","left","NA","914","18023","3964","914","NA","2","legacy","6","1024","2","48000","-16","experiment","1","odd","8","353347","21892","349973","351141","3806","103671","351143","115922","3868","99707","355349","356264","352145","355349","NA","Sternberg Task","48","53052","52","yes","1024"
"92.45283018867924","92.45283018867924","1016.2452830188679","1016.2452830188679","black","experiment","legacy","legacy","legacy","0","uniform","1","undefined","1","left","52","0","52","52","0","0","52","52","0","0","52","52","52","52","0","Thu Oct 13 22:33:42 2022","The main experiment item","yes","SternbergTask.osexp","C:/Users/lil_p/OneDrive/Documents/School/Advanced Quantitative Analysis/Lab 3.1","no","mono","no","18","no","white","no","yes","768","legacy","40","11","C:/Users/lil_p/OneDrive/Documents/School/Advanced Quantitative Analysis/Lab 3.1/AP-subject-1.csv","legacy","4 6 2 5 1","Lentiform Loewenfeld","3.3.12","5","y","yes","0","left","left","right","left","NA","809","18023","3964","809","NA","2","legacy","5","1024","2","48000","-16","experiment","1","odd","1","359593","21892","356271","357387","3806","103671","357390","115922","3868","99707","361594","362404","358391","361594","NA","Sternberg Task","49","53861","53","yes","1024"
"92.5925925925926","92.5925925925926","1009.0925925925926","1009.0925925925926","black","experiment","legacy","legacy","legacy","0","uniform","1","undefined","1","left","53","0","53","53","0","0","53","53","0","0","53","53","53","53","0","Thu Oct 13 22:33:42 2022","The main experiment item","yes","SternbergTask.osexp","C:/Users/lil_p/OneDrive/Documents/School/Advanced Quantitative Analysis/Lab 3.1","no","mono","no","18","no","white","no","yes","768","legacy","41","11","C:/Users/lil_p/OneDrive/Documents/School/Advanced Quantitative Analysis/Lab 3.1/AP-subject-1.csv","legacy","7 8 4 6 9 5","Lentiform Loewenfeld","3.3.12","4","y","yes","0","left","left","right","left","NA","630","18023","3964","630","NA","2","legacy","6","1024","2","48000","-16","experiment","1","odd","6","365728","21892","362410","363524","3806","103671","363526","115922","3868","99707","367729","368360","364527","367729","NA","Sternberg Task","50","54491","54","yes","1024"
"92.72727272727273","92.72727272727273","1004.6909090909091","1004.6909090909091","black","experiment","legacy","legacy","legacy","0","uniform","1","undefined","1","left","54","0","54","54","0","0","54","54","0","0","54","54","54","54","0","Thu Oct 13 22:33:42 2022","The main experiment item","yes","SternbergTask.osexp","C:/Users/lil_p/OneDrive/Documents/School/Advanced Quantitative Analysis/Lab 3.1","no","mono","no","18","no","white","no","yes","768","legacy","42","11","C:/Users/lil_p/OneDrive/Documents/School/Advanced Quantitative Analysis/Lab 3.1/AP-subject-1.csv","legacy","8 9 5 7 1 6","Lentiform Loewenfeld","3.3.12","4","y","yes","0","left","left","right","left","NA","767","18023","3964","767","NA","2","legacy","6","1024","2","48000","-16","experiment","1","odd","7","371694","21892","368365","369488","3806","103671","369490","115922","3868","99707","373695","374463","370491","373695","NA","Sternberg Task","51","55258","55","yes","1024"
"92.85714285714286","92.85714285714286","999.3214285714286","999.3214285714286","black","experiment","legacy","legacy","legacy","0","uniform","1","undefined","1","right","55","0","55","55","0","0","55","55","0","0","55","55","55","55","0","Thu Oct 13 22:33:42 2022","The main experiment item","yes","SternbergTask.osexp","C:/Users/lil_p/OneDrive/Documents/School/Advanced Quantitative Analysis/Lab 3.1","no","mono","no","18","no","white","no","yes","768","legacy","43","11","C:/Users/lil_p/OneDrive/Documents/School/Advanced Quantitative Analysis/Lab 3.1/AP-subject-1.csv","legacy","2 8 7 9 5 3","Lentiform Loewenfeld","3.3.12","0","n","yes","0","right","left","right","right","NA","704","18023","3964","704","NA","2","legacy","6","1024","2","48000","-16","experiment","1","odd","6","377799","21892","374469","375594","3806","103671","375596","115922","3868","99707","379800","380505","376598","379800","NA","Sternberg Task","52","55962","56","yes","1024"
"92.98245614035088","92.98245614035088","994.1578947368421","994.1578947368421","black","experiment","legacy","legacy","legacy","0","uniform","1","undefined","1","left","56","0","56","56","0","0","56","56","0","0","56","56","56","56","0","Thu Oct 13 22:33:42 2022","The main experiment item","yes","SternbergTask.osexp","C:/Users/lil_p/OneDrive/Documents/School/Advanced Quantitative Analysis/Lab 3.1","no","mono","no","18","no","white","no","yes","768","legacy","44","11","C:/Users/lil_p/OneDrive/Documents/School/Advanced Quantitative Analysis/Lab 3.1/AP-subject-1.csv","legacy","4","Lentiform Loewenfeld","3.3.12","1","y","yes","0","left","left","right","left","NA","705","18023","3964","705","NA","2","legacy","1","1024","2","48000","-16","experiment","1","odd","4","383835","21892","380510","381631","3806","103671","381633","115922","3868","99707","385836","386542","382634","385836","NA","Sternberg Task","53","56667","57","yes","1024"
"93.10344827586206","93.10344827586206","986.9827586206897","986.9827586206897","black","experiment","legacy","legacy","legacy","0","uniform","1","undefined","1","right","57","0","57","57","0","0","57","57","0","0","57","57","57","57","0","Thu Oct 13 22:33:42 2022","The main experiment item","yes","SternbergTask.osexp","C:/Users/lil_p/OneDrive/Documents/School/Advanced Quantitative Analysis/Lab 3.1","no","mono","no","18","no","white","no","yes","768","legacy","45","11","C:/Users/lil_p/OneDrive/Documents/School/Advanced Quantitative Analysis/Lab 3.1/AP-subject-1.csv","legacy","8 9","Lentiform Loewenfeld","3.3.12","0","n","yes","0","right","left","right","right","NA","578","18023","3964","578","NA","2","legacy","2","1024","2","48000","-16","experiment","1","odd","5","389880","21892","386546","387676","3806","103671","387678","115922","3868","99707","391882","392463","388679","391882","NA","Sternberg Task","54","57245","58","yes","1024"
"93.22033898305085","93.22033898305085","985.2372881355932","985.2372881355932","black","experiment","legacy","legacy","legacy","0","uniform","1","undefined","1","right","58","0","58","58","0","0","58","58","0","0","58","58","58","58","0","Thu Oct 13 22:33:42 2022","The main experiment item","yes","SternbergTask.osexp","C:/Users/lil_p/OneDrive/Documents/School/Advanced Quantitative Analysis/Lab 3.1","no","mono","no","18","no","white","no","yes","768","legacy","46","11","C:/Users/lil_p/OneDrive/Documents/School/Advanced Quantitative Analysis/Lab 3.1/AP-subject-1.csv","legacy","8 4 3 5","Lentiform Loewenfeld","3.3.12","0","n","yes","0","right","left","right","right","NA","884","18023","3964","884","NA","2","legacy","4","1024","2","48000","-16","experiment","1","odd","6","395794","21892","392471","393590","3806","103671","393592","115922","3868","99707","397795","398680","394593","397795","NA","Sternberg Task","55","58129","59","yes","1024"
"93.33333333333333","93.33333333333333","987.4333333333333","987.4333333333333","black","experiment","legacy","legacy","legacy","0","uniform","1","undefined","1","left","59","0","59","59","0","0","59","59","0","0","59","59","59","59","0","Thu Oct 13 22:33:42 2022","The main experiment item","yes","SternbergTask.osexp","C:/Users/lil_p/OneDrive/Documents/School/Advanced Quantitative Analysis/Lab 3.1","no","mono","no","18","no","white","no","yes","768","legacy","47","11","C:/Users/lil_p/OneDrive/Documents/School/Advanced Quantitative Analysis/Lab 3.1/AP-subject-1.csv","legacy","9 4 2","Lentiform Loewenfeld","3.3.12","1","y","yes","0","left","left","right","left","NA","1117","18023","3964","1117","NA","2","legacy","3","1024","2","48000","-16","experiment","1","odd","9","402009","21892","398686","399805","3806","103671","399807","115922","3868","99707","404010","405128","400808","404010","NA","Sternberg Task","56","59246","60","yes","1024"
"93.44262295081967","93.44262295081967","983.7049180327868","983.7049180327868","black","experiment","legacy","legacy","legacy","0","uniform","1","undefined","1","left","60","0","60","60","0","0","60","60","0","0","60","60","60","60","0","Thu Oct 13 22:33:42 2022","The main experiment item","yes","SternbergTask.osexp","C:/Users/lil_p/OneDrive/Documents/School/Advanced Quantitative Analysis/Lab 3.1","no","mono","no","18","no","white","no","yes","768","legacy","48","11","C:/Users/lil_p/OneDrive/Documents/School/Advanced Quantitative Analysis/Lab 3.1/AP-subject-1.csv","legacy","4 7 6 8 2 3","Lentiform Loewenfeld","3.3.12","6","y","yes","0","left","left","right","left","NA","760","18023","3964","760","NA","2","legacy","6","1024","2","48000","-16","experiment","1","odd","3","408454","21892","405134","406250","3806","103671","406252","115922","3868","99707","410456","411217","407253","410456","NA","Sternberg Task","57","60006","61","yes","1024"
"93.54838709677419","93.54838709677419","980.1451612903226","980.1451612903226","black","experiment","legacy","legacy","legacy","0","uniform","1","undefined","1","left","61","0","61","61","0","0","61","61","0","0","61","61","61","61","0","Thu Oct 13 22:33:42 2022","The main experiment item","yes","SternbergTask.osexp","C:/Users/lil_p/OneDrive/Documents/School/Advanced Quantitative Analysis/Lab 3.1","no","mono","no","18","no","white","no","yes","768","legacy","49","11","C:/Users/lil_p/OneDrive/Documents/School/Advanced Quantitative Analysis/Lab 3.1/AP-subject-1.csv","legacy","3 4 9 6 2 9","Lentiform Loewenfeld","3.3.12","5","y","yes","0","left","left","right","left","NA","763","18023","3964","763","NA","2","legacy","6","1024","2","48000","-16","experiment","1","odd","2","414548","21892","411223","412343","3806","103671","412346","115922","3868","99707","416549","417313","413347","416549","NA","Sternberg Task","58","60769","62","yes","1024"
"93.65079365079364","93.65079365079364","981.6031746031746","981.6031746031746","black","experiment","legacy","legacy","legacy","0","uniform","1","undefined","1","right","62","0","62","62","0","0","62","62","0","0","62","62","62","62","0","Thu Oct 13 22:33:42 2022","The main experiment item","yes","SternbergTask.osexp","C:/Users/lil_p/OneDrive/Documents/School/Advanced Quantitative Analysis/Lab 3.1","no","mono","no","18","no","white","no","yes","768","legacy","50","11","C:/Users/lil_p/OneDrive/Documents/School/Advanced Quantitative Analysis/Lab 3.1/AP-subject-1.csv","legacy","2 7 5","Lentiform Loewenfeld","3.3.12","0","n","yes","0","right","left","right","right","NA","1072","18023","3964","1072","NA","2","legacy","3","1024","2","48000","-16","experiment","1","odd","8","420638","21892","417317","418434","3806","103671","418436","115922","3868","99707","422639","423712","419437","422639","NA","Sternberg Task","59","61841","63","yes","1024"
"93.75","93.75","979.90625","979.90625","black","experiment","legacy","legacy","legacy","0","uniform","1","undefined","1","right","63","0","63","63","0","0","63","63","0","0","63","63","63","63","0","Thu Oct 13 22:33:42 2022","The main experiment item","yes","SternbergTask.osexp","C:/Users/lil_p/OneDrive/Documents/School/Advanced Quantitative Analysis/Lab 3.1","no","mono","no","18","no","white","no","yes","768","legacy","51","11","C:/Users/lil_p/OneDrive/Documents/School/Advanced Quantitative Analysis/Lab 3.1/AP-subject-1.csv","legacy","3 9 8 1 6 4","Lentiform Loewenfeld","3.3.12","0","n","yes","0","right","left","right","right","NA","873","18023","3964","873","NA","2","legacy","6","1024","2","48000","-16","experiment","1","odd","7","427035","21892","423718","424831","3806","103671","424833","115922","3868","99707","429036","429910","425834","429036","NA","Sternberg Task","60","62714","64","yes","1024"
"93.84615384615384","93.84615384615384","977.6461538461539","977.6461538461539","black","experiment","legacy","legacy","legacy","0","uniform","1","undefined","1","left","64","0","64","64","0","0","64","64","0","0","64","64","64","64","0","Thu Oct 13 22:33:42 2022","The main experiment item","yes","SternbergTask.osexp","C:/Users/lil_p/OneDrive/Documents/School/Advanced Quantitative Analysis/Lab 3.1","no","mono","no","18","no","white","no","yes","768","legacy","52","11","C:/Users/lil_p/OneDrive/Documents/School/Advanced Quantitative Analysis/Lab 3.1/AP-subject-1.csv","legacy","5 7 8 2 3 8","Lentiform Loewenfeld","3.3.12","5","y","yes","0","left","left","right","left","NA","833","18023","3964","833","NA","2","legacy","6","1024","2","48000","-16","experiment","1","odd","3","433239","21892","429916","431034","3806","103671","431036","115922","3868","99707","435241","436075","432038","435240","NA","Sternberg Task","61","63547","65","yes","1024"
"93.93939393939394","93.93939393939394","972.7424242424242","972.7424242424242","black","experiment","legacy","legacy","legacy","0","uniform","1","undefined","1","left","65","0","65","65","0","0","65","65","0","0","65","65","65","65","0","Thu Oct 13 22:33:42 2022","The main experiment item","yes","SternbergTask.osexp","C:/Users/lil_p/OneDrive/Documents/School/Advanced Quantitative Analysis/Lab 3.1","no","mono","no","18","no","white","no","yes","768","legacy","53","11","C:/Users/lil_p/OneDrive/Documents/School/Advanced Quantitative Analysis/Lab 3.1/AP-subject-1.csv","legacy","3 4","Lentiform Loewenfeld","3.3.12","1","y","yes","0","left","left","right","left","NA","654","18023","3964","654","NA","2","legacy","2","1024","2","48000","-16","experiment","1","odd","3","439399","21892","436082","437194","3806","103671","437196","115922","3868","99707","441401","442057","438198","441401","NA","Sternberg Task","62","64201","66","yes","1024"
"94.02985074626865","94.02985074626865","970.2985074626865","970.2985074626865","black","experiment","legacy","legacy","legacy","0","uniform","1","undefined","1","left","66","0","66","66","0","0","66","66","0","0","66","66","66","66","0","Thu Oct 13 22:33:42 2022","The main experiment item","yes","SternbergTask.osexp","C:/Users/lil_p/OneDrive/Documents/School/Advanced Quantitative Analysis/Lab 3.1","no","mono","no","18","no","white","no","yes","768","legacy","54","11","C:/Users/lil_p/OneDrive/Documents/School/Advanced Quantitative Analysis/Lab 3.1/AP-subject-1.csv","legacy","2 5 4 8 7","Lentiform Loewenfeld","3.3.12","3","y","yes","0","left","left","right","left","NA","809","18023","3964","809","NA","2","legacy","5","1024","2","48000","-16","experiment","1","odd","4","445381","21892","442063","443176","3806","103671","443179","115922","3868","99707","447384","448194","444180","447383","NA","Sternberg Task","63","65010","67","yes","1024"
"94.11764705882354","94.11764705882354","967.8382352941177","967.8382352941177","black","experiment","legacy","legacy","legacy","0","uniform","1","undefined","1","left","67","0","67","67","0","0","67","67","0","0","67","67","67","67","0","Thu Oct 13 22:33:42 2022","The main experiment item","yes","SternbergTask.osexp","C:/Users/lil_p/OneDrive/Documents/School/Advanced Quantitative Analysis/Lab 3.1","no","mono","no","18","no","white","no","yes","768","legacy","55","11","C:/Users/lil_p/OneDrive/Documents/School/Advanced Quantitative Analysis/Lab 3.1/AP-subject-1.csv","legacy","7 1 8 5 6 2","Lentiform Loewenfeld","3.3.12","2","y","yes","0","left","left","right","left","NA","803","18023","3964","803","NA","2","legacy","6","1024","2","48000","-16","experiment","1","odd","1","451528","21892","448199","449324","3806","103671","449326","115922","3868","99707","453529","454333","450327","453529","NA","Sternberg Task","64","65813","68","yes","1024"
"94.20289855072464","94.20289855072464","961.8695652173913","961.8695652173913","black","experiment","legacy","legacy","legacy","0","uniform","1","undefined","1","left","68","0","68","68","0","0","68","68","0","0","68","68","68","68","0","Thu Oct 13 22:33:42 2022","The main experiment item","yes","SternbergTask.osexp","C:/Users/lil_p/OneDrive/Documents/School/Advanced Quantitative Analysis/Lab 3.1","no","mono","no","18","no","white","no","yes","768","legacy","56","11","C:/Users/lil_p/OneDrive/Documents/School/Advanced Quantitative Analysis/Lab 3.1/AP-subject-1.csv","legacy","7 1 3","Lentiform Loewenfeld","3.3.12","2","y","yes","0","left","left","right","left","NA","556","18023","3964","556","NA","2","legacy","3","1024","2","48000","-16","experiment","1","odd","1","457666","21892","454339","455462","3806","103671","455464","115922","3868","99707","459667","460224","456465","459667","NA","Sternberg Task","65","66369","69","yes","1024"
"94.28571428571429","94.28571428571429","962.3571428571429","962.3571428571429","black","experiment","legacy","legacy","legacy","0","uniform","1","undefined","1","right","69","0","69","69","0","0","69","69","0","0","69","69","69","69","0","Thu Oct 13 22:33:42 2022","The main experiment item","yes","SternbergTask.osexp","C:/Users/lil_p/OneDrive/Documents/School/Advanced Quantitative Analysis/Lab 3.1","no","mono","no","18","no","white","no","yes","768","legacy","57","11","C:/Users/lil_p/OneDrive/Documents/School/Advanced Quantitative Analysis/Lab 3.1/AP-subject-1.csv","legacy","7 1 8 4 9 3","Lentiform Loewenfeld","3.3.12","0","n","yes","0","right","left","right","right","NA","996","18023","3964","996","NA","2","legacy","6","1024","2","48000","-16","experiment","1","odd","6","463549","21892","460230","461345","3806","103671","461347","115922","3868","99707","465550","466547","462348","465550","NA","Sternberg Task","66","67365","70","yes","1024"
"94.36619718309859","94.36619718309859","971.7042253521126","971.7042253521126","black","experiment","legacy","legacy","legacy","0","uniform","1","undefined","1","right","70","0","70","70","0","0","70","70","0","0","70","70","70","70","0","Thu Oct 13 22:33:42 2022","The main experiment item","yes","SternbergTask.osexp","C:/Users/lil_p/OneDrive/Documents/School/Advanced Quantitative Analysis/Lab 3.1","no","mono","no","18","no","white","no","yes","768","legacy","58","11","C:/Users/lil_p/OneDrive/Documents/School/Advanced Quantitative Analysis/Lab 3.1/AP-subject-1.csv","legacy","8 5 7 3 6","Lentiform Loewenfeld","3.3.12","0","n","yes","0","right","left","right","right","NA","1626","18023","3964","1626","NA","2","legacy","5","1024","2","48000","-16","experiment","1","odd","9","469877","21892","466554","467673","3806","103671","467675","115922","3868","99707","471878","473506","468676","471878","NA","Sternberg Task","67","68991","71","yes","1024"
"94.44444444444444","94.44444444444444","977.4722222222222","977.4722222222222","black","experiment","legacy","legacy","legacy","0","uniform","1","undefined","1","left","71","0","71","71","0","0","71","71","0","0","71","71","71","71","0","Thu Oct 13 22:33:42 2022","The main experiment item","yes","SternbergTask.osexp","C:/Users/lil_p/OneDrive/Documents/School/Advanced Quantitative Analysis/Lab 3.1","no","mono","no","18","no","white","no","yes","768","legacy","59","11","C:/Users/lil_p/OneDrive/Documents/School/Advanced Quantitative Analysis/Lab 3.1/AP-subject-1.csv","legacy","2 3","Lentiform Loewenfeld","3.3.12","1","y","yes","0","left","left","right","left","NA","1387","18023","3964","1387","NA","2","legacy","2","1024","2","48000","-16","experiment","1","odd","2","476835","21892","473513","474630","3806","103671","474633","115922","3868","99707","478837","480225","475634","478836","NA","Sternberg Task","68","70378","72","yes","1024"
"93.15068493150685","93.15068493150685","991.4794520547945","991.4794520547945","black","experiment","legacy","legacy","legacy","0","uniform","0","undefined","0","left","72","0","72","72","0","0","72","72","0","0","72","72","72","72","0","Thu Oct 13 22:33:42 2022","The main experiment item","yes","SternbergTask.osexp","C:/Users/lil_p/OneDrive/Documents/School/Advanced Quantitative Analysis/Lab 3.1","no","mono","no","18","no","white","no","yes","768","legacy","60","11","C:/Users/lil_p/OneDrive/Documents/School/Advanced Quantitative Analysis/Lab 3.1/AP-subject-1.csv","legacy","8","Lentiform Loewenfeld","3.3.12","1","y","yes","0","None","left","right","None","NA","2000","18023","3964","2000","NA","2","legacy","1","1024","2","48000","-16","experiment","1","odd","8","483554","21892","480229","481348","3806","103671","481351","115922","3868","99707","485555","487556","482353","485555","NA","Sternberg Task","68","72378","73","yes","1024"
"93.24324324324324","93.24324324324324","991.0405405405405","991.0405405405405","black","experiment","legacy","legacy","legacy","0","uniform","1","undefined","1","right","73","0","73","73","0","0","73","73","0","0","73","73","73","73","0","Thu Oct 13 22:33:42 2022","The main experiment item","yes","SternbergTask.osexp","C:/Users/lil_p/OneDrive/Documents/School/Advanced Quantitative Analysis/Lab 3.1","no","mono","no","18","no","white","no","yes","768","legacy","61","11","C:/Users/lil_p/OneDrive/Documents/School/Advanced Quantitative Analysis/Lab 3.1/AP-subject-1.csv","legacy","6 9 5","Lentiform Loewenfeld","3.3.12","0","n","yes","0","right","left","right","right","NA","959","18023","3964","959","NA","2","legacy","3","1024","2","48000","-16","experiment","1","odd","8","490890","21892","480229","488685","3806","103671","488688","487561","3868","99707","492892","493852","489689","492892","NA","Sternberg Task","69","73337","74","yes","1024"
"93.33333333333333","93.33333333333333","991.76","991.76","black","experiment","legacy","legacy","legacy","0","uniform","1","undefined","1","left","74","0","74","74","0","0","74","74","0","0","74","74","74","74","0","Thu Oct 13 22:33:42 2022","The main experiment item","yes","SternbergTask.osexp","C:/Users/lil_p/OneDrive/Documents/School/Advanced Quantitative Analysis/Lab 3.1","no","mono","no","18","no","white","no","yes","768","legacy","62","11","C:/Users/lil_p/OneDrive/Documents/School/Advanced Quantitative Analysis/Lab 3.1/AP-subject-1.csv","legacy","2 8 5 1","Lentiform Loewenfeld","3.3.12","4","y","yes","0","left","left","right","left","NA","1045","18023","3964","1045","NA","2","legacy","4","1024","2","48000","-16","experiment","1","odd","1","497184","21892","493859","494980","3806","103671","494982","487561","3868","99707","499185","500231","495983","499185","NA","Sternberg Task","70","74382","75","yes","1024"
"93.42105263157895","93.42105263157895","990.9473684210526","990.9473684210526","black","experiment","legacy","legacy","legacy","0","uniform","1","undefined","1","right","75","0","75","75","0","0","75","75","0","0","75","75","75","75","0","Thu Oct 13 22:33:42 2022","The main experiment item","yes","SternbergTask.osexp","C:/Users/lil_p/OneDrive/Documents/School/Advanced Quantitative Analysis/Lab 3.1","no","mono","no","18","no","white","no","yes","768","legacy","63","11","C:/Users/lil_p/OneDrive/Documents/School/Advanced Quantitative Analysis/Lab 3.1/AP-subject-1.csv","legacy","8 6 3 4 7","Lentiform Loewenfeld","3.3.12","0","n","yes","0","right","left","right","right","NA","930","18023","3964","930","NA","2","legacy","5","1024","2","48000","-16","experiment","1","odd","1","503553","21892","500238","501349","3806","103671","501351","487561","3868","99707","505555","506486","502352","505554","NA","Sternberg Task","71","75312","76","yes","1024"
"92.20779220779221","92.20779220779221","1000","1000","black","experiment","legacy","legacy","legacy","0","uniform","0","undefined","0","left","76","0","76","76","0","0","76","76","0","0","76","76","76","76","0","Thu Oct 13 22:33:42 2022","The main experiment item","yes","SternbergTask.osexp","C:/Users/lil_p/OneDrive/Documents/School/Advanced Quantitative Analysis/Lab 3.1","no","mono","no","18","no","white","no","yes","768","legacy","64","11","C:/Users/lil_p/OneDrive/Documents/School/Advanced Quantitative Analysis/Lab 3.1/AP-subject-1.csv","legacy","9 3 8 2 1 4","Lentiform Loewenfeld","3.3.12","3","y","yes","0","right","left","right","right","NA","1688","18023","3964","1688","NA","2","legacy","6","1024","2","48000","-16","experiment","1","odd","8","509818","21892","506492","507613","3806","103671","507615","487561","3868","99707","511819","513508","508617","511819","NA","Sternberg Task","71","77000","77","yes","1024"
"92.3076923076923","92.3076923076923","997.7820512820513","997.7820512820513","black","experiment","legacy","legacy","legacy","0","uniform","1","undefined","1","left","77","0","77","77","0","0","77","77","0","0","77","77","77","77","0","Thu Oct 13 22:33:42 2022","The main experiment item","yes","SternbergTask.osexp","C:/Users/lil_p/OneDrive/Documents/School/Advanced Quantitative Analysis/Lab 3.1","no","mono","no","18","no","white","no","yes","768","legacy","65","11","C:/Users/lil_p/OneDrive/Documents/School/Advanced Quantitative Analysis/Lab 3.1/AP-subject-1.csv","legacy","4 1 5","Lentiform Loewenfeld","3.3.12","2","y","yes","0","left","left","right","left","NA","827","18023","3964","827","NA","2","legacy","3","1024","2","48000","-16","experiment","1","odd","1","516843","21892","506492","514637","3806","103671","514640","513515","3868","99707","518844","519672","515641","518844","NA","Sternberg Task","72","77827","78","yes","1024"
"92.40506329113924","92.40506329113924","992.5949367088608","992.5949367088608","black","experiment","legacy","legacy","legacy","0","uniform","1","undefined","1","left","78","0","78","78","0","0","78","78","0","0","78","78","78","78","0","Thu Oct 13 22:33:42 2022","The main experiment item","yes","SternbergTask.osexp","C:/Users/lil_p/OneDrive/Documents/School/Advanced Quantitative Analysis/Lab 3.1","no","mono","no","18","no","white","no","yes","768","legacy","66","11","C:/Users/lil_p/OneDrive/Documents/School/Advanced Quantitative Analysis/Lab 3.1/AP-subject-1.csv","legacy","9 1 6 7 8","Lentiform Loewenfeld","3.3.12","1","y","yes","0","left","left","right","left","NA","588","18023","3964","588","NA","2","legacy","5","1024","2","48000","-16","experiment","1","odd","9","523005","21892","519679","520801","3806","103671","520803","513515","3868","99707","525007","525596","521804","525007","NA","Sternberg Task","73","78415","79","yes","1024"
"92.5","92.5","993.0875","993.0875","black","experiment","legacy","legacy","legacy","0","uniform","1","undefined","1","right","79","0","79","79","0","0","79","79","0","0","79","79","79","79","0","Thu Oct 13 22:33:42 2022","The main experiment item","yes","SternbergTask.osexp","C:/Users/lil_p/OneDrive/Documents/School/Advanced Quantitative Analysis/Lab 3.1","no","mono","no","18","no","white","no","yes","768","legacy","67","11","C:/Users/lil_p/OneDrive/Documents/School/Advanced Quantitative Analysis/Lab 3.1/AP-subject-1.csv","legacy","1 7 5 2 9","Lentiform Loewenfeld","3.3.12","0","n","yes","0","right","left","right","right","NA","1032","18023","3964","1032","NA","2","legacy","5","1024","2","48000","-16","experiment","1","odd","3","528945","21892","525603","526741","3806","103671","526743","513515","3868","99707","530946","531979","527744","530946","NA","Sternberg Task","74","79447","80","yes","1024"
"92.5925925925926","92.5925925925926","991.9012345679013","991.9012345679013","black","experiment","legacy","legacy","legacy","0","uniform","1","undefined","1","right","80","0","80","80","0","0","80","80","0","0","80","80","80","80","0","Thu Oct 13 22:33:42 2022","The main experiment item","yes","SternbergTask.osexp","C:/Users/lil_p/OneDrive/Documents/School/Advanced Quantitative Analysis/Lab 3.1","no","mono","no","18","no","white","no","yes","768","legacy","68","11","C:/Users/lil_p/OneDrive/Documents/School/Advanced Quantitative Analysis/Lab 3.1/AP-subject-1.csv","legacy","2 3 8 5 6 7","Lentiform Loewenfeld","3.3.12","0","n","yes","0","right","left","right","right","NA","897","18023","3964","897","NA","2","legacy","6","1024","2","48000","-16","experiment","1","odd","1","535313","21892","531985","533107","3806","103671","533110","513515","3868","99707","537315","538213","534111","537314","NA","Sternberg Task","75","80344","81","yes","1024"
"92.6829268292683","92.6829268292683","988.5365853658536","988.5365853658536","black","experiment","legacy","legacy","legacy","0","uniform","1","undefined","1","left","81","0","81","81","0","0","81","81","0","0","81","81","81","81","0","Thu Oct 13 22:33:42 2022","The main experiment item","yes","SternbergTask.osexp","C:/Users/lil_p/OneDrive/Documents/School/Advanced Quantitative Analysis/Lab 3.1","no","mono","no","18","no","white","no","yes","768","legacy","69","11","C:/Users/lil_p/OneDrive/Documents/School/Advanced Quantitative Analysis/Lab 3.1/AP-subject-1.csv","legacy","7","Lentiform Loewenfeld","3.3.12","1","y","yes","0","left","left","right","left","NA","716","18023","3964","716","NA","2","legacy","1","1024","2","48000","-16","experiment","1","odd","7","541547","21892","538219","539343","3806","103671","539345","513515","3868","99707","543549","544266","540346","543548","NA","Sternberg Task","76","81060","82","yes","1024"
"92.7710843373494","92.7710843373494","986","986","black","experiment","legacy","legacy","legacy","0","uniform","1","undefined","1","right","82","0","82","82","0","0","82","82","0","0","82","82","82","82","0","Thu Oct 13 22:33:42 2022","The main experiment item","yes","SternbergTask.osexp","C:/Users/lil_p/OneDrive/Documents/School/Advanced Quantitative Analysis/Lab 3.1","no","mono","no","18","no","white","no","yes","768","legacy","70","11","C:/Users/lil_p/OneDrive/Documents/School/Advanced Quantitative Analysis/Lab 3.1/AP-subject-1.csv","legacy","1 7 5 2","Lentiform Loewenfeld","3.3.12","0","n","yes","0","right","left","right","right","NA","778","18023","3964","778","NA","2","legacy","4","1024","2","48000","-16","experiment","1","odd","3","547600","21892","544272","545396","3806","103671","545398","513515","3868","99707","549602","550381","546399","549602","NA","Sternberg Task","77","81838","83","yes","1024"
"92.85714285714286","92.85714285714286","981.4166666666666","981.4166666666666","black","experiment","legacy","legacy","legacy","0","uniform","1","undefined","1","left","83","0","83","83","0","0","83","83","0","0","83","83","83","83","0","Thu Oct 13 22:33:42 2022","The main experiment item","yes","SternbergTask.osexp","C:/Users/lil_p/OneDrive/Documents/School/Advanced Quantitative Analysis/Lab 3.1","no","mono","no","18","no","white","no","yes","768","legacy","71","11","C:/Users/lil_p/OneDrive/Documents/School/Advanced Quantitative Analysis/Lab 3.1/AP-subject-1.csv","legacy","3 5 4 7","Lentiform Loewenfeld","3.3.12","1","y","yes","0","left","left","right","left","NA","601","18023","3964","601","NA","2","legacy","4","1024","2","48000","-16","experiment","1","odd","3","553705","21892","550387","551500","3806","103671","551502","513515","3868","99707","555707","556310","552504","555707","NA","Sternberg Task","78","82439","84","yes","1024"
"92.94117647058823","92.94117647058823","985.5529411764705","985.5529411764705","black","experiment","legacy","legacy","legacy","0","uniform","1","undefined","1","right","84","0","84","84","0","0","84","84","0","0","84","84","84","84","0","Thu Oct 13 22:33:42 2022","The main experiment item","yes","SternbergTask.osexp","C:/Users/lil_p/OneDrive/Documents/School/Advanced Quantitative Analysis/Lab 3.1","no","mono","no","18","no","white","no","yes","768","legacy","72","11","C:/Users/lil_p/OneDrive/Documents/School/Advanced Quantitative Analysis/Lab 3.1/AP-subject-1.csv","legacy","1 4 3 6 5","Lentiform Loewenfeld","3.3.12","0","n","yes","0","right","left","right","right","NA","1333","18023","3964","1333","NA","2","legacy","5","1024","2","48000","-16","experiment","1","odd","8","559644","21892","556315","557441","3806","103671","557443","513515","3868","99707","561645","562980","558444","561645","NA","Sternberg Task","79","83772","85","yes","1024"
"93.02325581395348","93.02325581395348","984.1395348837209","984.1395348837209","black","experiment","legacy","legacy","legacy","0","uniform","1","undefined","1","left","85","0","85","85","0","0","85","85","0","0","85","85","85","85","0","Thu Oct 13 22:33:42 2022","The main experiment item","yes","SternbergTask.osexp","C:/Users/lil_p/OneDrive/Documents/School/Advanced Quantitative Analysis/Lab 3.1","no","mono","no","18","no","white","no","yes","768","legacy","73","11","C:/Users/lil_p/OneDrive/Documents/School/Advanced Quantitative Analysis/Lab 3.1/AP-subject-1.csv","legacy","6 2","Lentiform Loewenfeld","3.3.12","1","y","yes","0","left","left","right","left","NA","864","18023","3964","864","NA","2","legacy","2","1024","2","48000","-16","experiment","1","odd","6","566310","21892","562985","564106","3806","103671","564108","513515","3868","99707","568312","569177","565109","568312","NA","Sternberg Task","80","84636","86","yes","1024"
"91.95402298850574","91.95402298850574","980.7931034482758","980.7931034482758","black","experiment","legacy","legacy","legacy","0","uniform","0","undefined","0","right","86","0","86","86","0","0","86","86","0","0","86","86","86","86","0","Thu Oct 13 22:33:42 2022","The main experiment item","yes","SternbergTask.osexp","C:/Users/lil_p/OneDrive/Documents/School/Advanced Quantitative Analysis/Lab 3.1","no","mono","no","18","no","white","no","yes","768","legacy","74","11","C:/Users/lil_p/OneDrive/Documents/School/Advanced Quantitative Analysis/Lab 3.1/AP-subject-1.csv","legacy","2 8 9","Lentiform Loewenfeld","3.3.12","0","n","yes","0","left","left","right","left","NA","693","18023","3964","693","NA","2","legacy","3","1024","2","48000","-16","experiment","1","odd","6","572500","21892","569184","570295","3806","103671","570298","513515","3868","99707","574501","575196","571299","574501","NA","Sternberg Task","80","85329","87","yes","1024"
"92.04545454545455","92.04545454545455","978.8522727272727","978.8522727272727","black","experiment","legacy","legacy","legacy","0","uniform","1","undefined","1","right","87","0","87","87","0","0","87","87","0","0","87","87","87","87","0","Thu Oct 13 22:33:42 2022","The main experiment item","yes","SternbergTask.osexp","C:/Users/lil_p/OneDrive/Documents/School/Advanced Quantitative Analysis/Lab 3.1","no","mono","no","18","no","white","no","yes","768","legacy","75","11","C:/Users/lil_p/OneDrive/Documents/School/Advanced Quantitative Analysis/Lab 3.1/AP-subject-1.csv","legacy","3 9 1","Lentiform Loewenfeld","3.3.12","0","n","yes","0","right","left","right","right","NA","810","18023","3964","810","NA","2","legacy","3","1024","2","48000","-16","experiment","1","odd","7","578535","21892","569184","576330","3806","103671","576332","575202","3868","99707","580536","581347","577333","580536","NA","Sternberg Task","81","86139","88","yes","1024"
"91.01123595505618","91.01123595505618","977.5955056179776","977.5955056179776","black","experiment","legacy","legacy","legacy","0","uniform","0","undefined","0","right","88","0","88","88","0","0","88","88","0","0","88","88","88","88","0","Thu Oct 13 22:33:42 2022","The main experiment item","yes","SternbergTask.osexp","C:/Users/lil_p/OneDrive/Documents/School/Advanced Quantitative Analysis/Lab 3.1","no","mono","no","18","no","white","no","yes","768","legacy","76","11","C:/Users/lil_p/OneDrive/Documents/School/Advanced Quantitative Analysis/Lab 3.1/AP-subject-1.csv","legacy","7 1 5 6 3","Lentiform Loewenfeld","3.3.12","0","n","yes","0","left","left","right","left","NA","867","18023","3964","867","NA","2","legacy","5","1024","2","48000","-16","experiment","1","odd","8","584685","21892","581354","582480","3806","103671","582483","575202","3868","99707","586686","587554","583484","586686","NA","Sternberg Task","81","87006","89","yes","1024"
"91.11111111111111","91.11111111111111","978.6666666666666","978.6666666666666","black","experiment","legacy","legacy","legacy","0","uniform","1","undefined","1","left","89","0","89","89","0","0","89","89","0","0","89","89","89","89","0","Thu Oct 13 22:33:42 2022","The main experiment item","yes","SternbergTask.osexp","C:/Users/lil_p/OneDrive/Documents/School/Advanced Quantitative Analysis/Lab 3.1","no","mono","no","18","no","white","no","yes","768","legacy","77","11","C:/Users/lil_p/OneDrive/Documents/School/Advanced Quantitative Analysis/Lab 3.1/AP-subject-1.csv","legacy","7 2 3","Lentiform Loewenfeld","3.3.12","3","y","yes","0","left","left","right","left","NA","1074","18023","3964","1074","NA","2","legacy","3","1024","2","48000","-16","experiment","1","odd","3","590876","21892","581354","588671","3806","103671","588673","587560","3868","99707","592877","593953","589675","592877","NA","Sternberg Task","82","88080","90","yes","1024"
"91.20879120879121","91.20879120879121","983.2087912087912","983.2087912087912","black","experiment","legacy","legacy","legacy","0","uniform","1","undefined","1","right","90","0","90","90","0","0","90","90","0","0","90","90","90","90","0","Thu Oct 13 22:33:42 2022","The main experiment item","yes","SternbergTask.osexp","C:/Users/lil_p/OneDrive/Documents/School/Advanced Quantitative Analysis/Lab 3.1","no","mono","no","18","no","white","no","yes","768","legacy","78","11","C:/Users/lil_p/OneDrive/Documents/School/Advanced Quantitative Analysis/Lab 3.1/AP-subject-1.csv","legacy","1 3 2 6 9","Lentiform Loewenfeld","3.3.12","0","n","yes","0","right","left","right","right","NA","1392","18023","3964","1392","NA","2","legacy","5","1024","2","48000","-16","experiment","1","odd","5","597289","21892","593960","595085","3806","103671","595086","587560","3868","99707","599290","600684","596087","599290","NA","Sternberg Task","83","89472","91","yes","1024"
"91.30434782608695","91.30434782608695","985.1847826086956","985.1847826086956","black","experiment","legacy","legacy","legacy","0","uniform","1","undefined","1","left","91","0","91","91","0","0","91","91","0","0","91","91","91","91","0","Thu Oct 13 22:33:42 2022","The main experiment item","yes","SternbergTask.osexp","C:/Users/lil_p/OneDrive/Documents/School/Advanced Quantitative Analysis/Lab 3.1","no","mono","no","18","no","white","no","yes","768","legacy","79","11","C:/Users/lil_p/OneDrive/Documents/School/Advanced Quantitative Analysis/Lab 3.1/AP-subject-1.csv","legacy","7 8 6 3 1","Lentiform Loewenfeld","3.3.12","5","y","yes","0","left","left","right","left","NA","1165","18023","3964","1165","NA","2","legacy","5","1024","2","48000","-16","experiment","1","odd","1","604027","21892","600690","601823","3806","103671","601825","587560","3868","99707","606029","607195","602826","606029","NA","Sternberg Task","84","90637","92","yes","1024"
"91.39784946236558","91.39784946236558","986.258064516129","986.258064516129","black","experiment","legacy","legacy","legacy","0","uniform","1","undefined","1","right","92","0","92","92","0","0","92","92","0","0","92","92","92","92","0","Thu Oct 13 22:33:42 2022","The main experiment item","yes","SternbergTask.osexp","C:/Users/lil_p/OneDrive/Documents/School/Advanced Quantitative Analysis/Lab 3.1","no","mono","no","18","no","white","no","yes","768","legacy","80","11","C:/Users/lil_p/OneDrive/Documents/School/Advanced Quantitative Analysis/Lab 3.1/AP-subject-1.csv","legacy","2 8 6 3 1","Lentiform Loewenfeld","3.3.12","0","n","yes","0","right","left","right","right","NA","1085","18023","3964","1085","NA","2","legacy","5","1024","2","48000","-16","experiment","1","odd","7","610524","21892","607201","608318","3806","103671","608321","587560","3868","99707","612525","613612","609323","612525","NA","Sternberg Task","85","91722","93","yes","1024"
"91.48936170212765","91.48936170212765","983.0425531914893","983.0425531914893","black","experiment","legacy","legacy","legacy","0","uniform","1","undefined","1","left","93","0","93","93","0","0","93","93","0","0","93","93","93","93","0","Thu Oct 13 22:33:42 2022","The main experiment item","yes","SternbergTask.osexp","C:/Users/lil_p/OneDrive/Documents/School/Advanced Quantitative Analysis/Lab 3.1","no","mono","no","18","no","white","no","yes","768","legacy","81","11","C:/Users/lil_p/OneDrive/Documents/School/Advanced Quantitative Analysis/Lab 3.1/AP-subject-1.csv","legacy","2 3 7 4","Lentiform Loewenfeld","3.3.12","1","y","yes","0","left","left","right","left","NA","684","18023","3964","684","NA","2","legacy","4","1024","2","48000","-16","experiment","1","odd","2","616947","21892","613617","614742","3806","103671","614744","587560","3868","99707","618950","619636","615745","618949","NA","Sternberg Task","86","92406","94","yes","1024"
"91.57894736842105","91.57894736842105","979.2","979.2","black","experiment","legacy","legacy","legacy","0","uniform","1","undefined","1","right","94","0","94","94","0","0","94","94","0","0","94","94","94","94","0","Thu Oct 13 22:33:42 2022","The main experiment item","yes","SternbergTask.osexp","C:/Users/lil_p/OneDrive/Documents/School/Advanced Quantitative Analysis/Lab 3.1","no","mono","no","18","no","white","no","yes","768","legacy","82","11","C:/Users/lil_p/OneDrive/Documents/School/Advanced Quantitative Analysis/Lab 3.1/AP-subject-1.csv","legacy","9 8 2 7 4","Lentiform Loewenfeld","3.3.12","0","n","yes","0","right","left","right","right","NA","618","18023","3964","618","NA","2","legacy","5","1024","2","48000","-16","experiment","1","odd","5","622962","21892","619643","620757","3806","103671","620759","587560","3868","99707","624964","625583","621760","624964","NA","Sternberg Task","87","93024","95","yes","1024"
"91.66666666666667","91.66666666666667","975.0625","975.0625","black","experiment","legacy","legacy","legacy","0","uniform","1","undefined","1","right","95","0","95","95","0","0","95","95","0","0","95","95","95","95","0","Thu Oct 13 22:33:42 2022","The main experiment item","yes","SternbergTask.osexp","C:/Users/lil_p/OneDrive/Documents/School/Advanced Quantitative Analysis/Lab 3.1","no","mono","no","18","no","white","no","yes","768","legacy","83","11","C:/Users/lil_p/OneDrive/Documents/School/Advanced Quantitative Analysis/Lab 3.1/AP-subject-1.csv","legacy","3 4 2","Lentiform Loewenfeld","3.3.12","0","n","yes","0","right","left","right","right","NA","582","18023","3964","582","NA","2","legacy","3","1024","2","48000","-16","experiment","1","odd","5","628923","21892","625589","626717","3806","103671","626720","587560","3868","99707","630925","631509","627722","630925","NA","Sternberg Task","88","93606","96","yes","1024"
"91.75257731958763","91.75257731958763","973.659793814433","973.659793814433","black","experiment","legacy","legacy","legacy","0","uniform","1","undefined","1","left","96","0","96","96","0","0","96","96","0","0","96","96","96","96","0","Thu Oct 13 22:33:42 2022","The main experiment item","yes","SternbergTask.osexp","C:/Users/lil_p/OneDrive/Documents/School/Advanced Quantitative Analysis/Lab 3.1","no","mono","no","18","no","white","no","yes","768","legacy","84","11","C:/Users/lil_p/OneDrive/Documents/School/Advanced Quantitative Analysis/Lab 3.1/AP-subject-1.csv","legacy","3 5 7 1","Lentiform Loewenfeld","3.3.12","3","y","yes","0","left","left","right","left","NA","839","18023","3964","839","NA","2","legacy","4","1024","2","48000","-16","experiment","1","odd","7","634845","21892","631516","632640","3806","103671","632643","587560","3868","99707","636846","637687","633644","636846","NA","Sternberg Task","89","94445","97","yes","1024"
"91.83673469387755","91.83673469387755","976.0510204081633","976.0510204081633","black","experiment","legacy","legacy","legacy","0","uniform","1","undefined","1","left","97","0","97","97","0","0","97","97","0","0","97","97","97","97","0","Thu Oct 13 22:33:42 2022","The main experiment item","yes","SternbergTask.osexp","C:/Users/lil_p/OneDrive/Documents/School/Advanced Quantitative Analysis/Lab 3.1","no","mono","no","18","no","white","no","yes","768","legacy","85","11","C:/Users/lil_p/OneDrive/Documents/School/Advanced Quantitative Analysis/Lab 3.1/AP-subject-1.csv","legacy","3 2 1 4 7","Lentiform Loewenfeld","3.3.12","2","y","yes","0","left","left","right","left","NA","1208","18023","3964","1208","NA","2","legacy","5","1024","2","48000","-16","experiment","1","odd","2","641028","21892","637693","638823","3806","103671","638826","587560","3868","99707","643029","644238","639827","643029","NA","Sternberg Task","90","95653","98","yes","1024"
"91.91919191919192","91.91919191919192","976.3333333333334","976.3333333333334","black","experiment","legacy","legacy","legacy","0","uniform","1","undefined","1","right","98","0","98","98","0","0","98","98","0","0","98","98","98","98","0","Thu Oct 13 22:33:42 2022","The main experiment item","yes","SternbergTask.osexp","C:/Users/lil_p/OneDrive/Documents/School/Advanced Quantitative Analysis/Lab 3.1","no","mono","no","18","no","white","no","yes","768","legacy","86","11","C:/Users/lil_p/OneDrive/Documents/School/Advanced Quantitative Analysis/Lab 3.1/AP-subject-1.csv","legacy","9","Lentiform Loewenfeld","3.3.12","0","n","yes","0","right","left","right","right","NA","1004","18023","3964","1004","NA","2","legacy","1","1024","2","48000","-16","experiment","1","odd","6","647612","21892","644245","645403","3806","103671","645406","587560","3868","99707","649615","650621","646409","649615","NA","Sternberg Task","91","96657","99","yes","1024"
"92","92","983.41","983.41","black","experiment","legacy","legacy","legacy","0","uniform","1","undefined","1","right","99","0","99","99","0","0","99","99","0","0","99","99","99","99","0","Thu Oct 13 22:33:42 2022","The main experiment item","yes","SternbergTask.osexp","C:/Users/lil_p/OneDrive/Documents/School/Advanced Quantitative Analysis/Lab 3.1","no","mono","no","18","no","white","no","yes","768","legacy","87","11","C:/Users/lil_p/OneDrive/Documents/School/Advanced Quantitative Analysis/Lab 3.1/AP-subject-1.csv","legacy","5 7 3","Lentiform Loewenfeld","3.3.12","0","n","yes","0","right","left","right","right","NA","1684","18023","3964","1684","NA","2","legacy","3","1024","2","48000","-16","experiment","1","odd","9","654007","21892","650628","651801","3806","103671","651803","587560","3868","99707","656008","657693","652805","656008","NA","Sternberg Task","92","98341","100","yes","1024"
"92.07920792079207","92.07920792079207","980.6336633663366","980.6336633663366","black","experiment","legacy","legacy","legacy","0","uniform","1","undefined","1","right","100","0","100","100","0","0","100","100","0","0","100","100","100","100","0","Thu Oct 13 22:33:42 2022","The main experiment item","yes","SternbergTask.osexp","C:/Users/lil_p/OneDrive/Documents/School/Advanced Quantitative Analysis/Lab 3.1","no","mono","no","18","no","white","no","yes","768","legacy","88","11","C:/Users/lil_p/OneDrive/Documents/School/Advanced Quantitative Analysis/Lab 3.1/AP-subject-1.csv","legacy","1 8 7","Lentiform Loewenfeld","3.3.12","0","n","yes","0","right","left","right","right","NA","703","18023","3964","703","NA","2","legacy","3","1024","2","48000","-16","experiment","1","odd","4","661032","21892","657699","658827","3806","103671","658829","587560","3868","99707","663033","663737","659830","663033","NA","Sternberg Task","93","99044","101","yes","1024"
"91.17647058823529","91.17647058823529","981.9313725490196","981.9313725490196","black","experiment","legacy","legacy","legacy","0","uniform","0","undefined","0","left","101","0","101","101","0","0","101","101","0","0","101","101","101","101","0","Thu Oct 13 22:33:42 2022","The main experiment item","yes","SternbergTask.osexp","C:/Users/lil_p/OneDrive/Documents/School/Advanced Quantitative Analysis/Lab 3.1","no","mono","no","18","no","white","no","yes","768","legacy","89","11","C:/Users/lil_p/OneDrive/Documents/School/Advanced Quantitative Analysis/Lab 3.1/AP-subject-1.csv","legacy","2 4 8 5 1 3","Lentiform Loewenfeld","3.3.12","1","y","yes","0","right","left","right","right","NA","1113","18023","3964","1113","NA","2","legacy","6","1024","2","48000","-16","experiment","1","odd","2","667075","21892","663743","664871","3806","103671","664873","587560","3868","99707","669076","670191","665874","669076","NA","Sternberg Task","93","100157","102","yes","1024"
"91.2621359223301","91.2621359223301","980.7864077669902","980.7864077669902","black","experiment","legacy","legacy","legacy","0","uniform","1","undefined","1","right","102","0","102","102","0","0","102","102","0","0","102","102","102","102","0","Thu Oct 13 22:33:42 2022","The main experiment item","yes","SternbergTask.osexp","C:/Users/lil_p/OneDrive/Documents/School/Advanced Quantitative Analysis/Lab 3.1","no","mono","no","18","no","white","no","yes","768","legacy","90","11","C:/Users/lil_p/OneDrive/Documents/School/Advanced Quantitative Analysis/Lab 3.1/AP-subject-1.csv","legacy","9 7 4 5 8","Lentiform Loewenfeld","3.3.12","0","n","yes","0","right","left","right","right","NA","864","18023","3964","864","NA","2","legacy","5","1024","2","48000","-16","experiment","1","odd","6","673522","21892","663743","671317","3806","103671","671319","670197","3868","99707","675523","676389","672320","675523","NA","Sternberg Task","94","101021","103","yes","1024"
"91.34615384615384","91.34615384615384","980.9711538461538","980.9711538461538","black","experiment","legacy","legacy","legacy","0","uniform","1","undefined","1","right","103","0","103","103","0","0","103","103","0","0","103","103","103","103","0","Thu Oct 13 22:33:42 2022","The main experiment item","yes","SternbergTask.osexp","C:/Users/lil_p/OneDrive/Documents/School/Advanced Quantitative Analysis/Lab 3.1","no","mono","no","18","no","white","no","yes","768","legacy","91","11","C:/Users/lil_p/OneDrive/Documents/School/Advanced Quantitative Analysis/Lab 3.1/AP-subject-1.csv","legacy","6 9 4 5 3 2","Lentiform Loewenfeld","3.3.12","0","n","yes","0","right","left","right","right","NA","1000","18023","3964","1000","NA","2","legacy","6","1024","2","48000","-16","experiment","1","odd","8","679719","21892","676395","677514","3806","103671","677516","670197","3868","99707","681720","682722","678517","681720","NA","Sternberg Task","95","102021","104","yes","1024"
