"acc","accuracy","average_response_time","avg_rt","background","block","canvas_backend","clock_backend","color_backend","compensation","coordinates","correct","correct_instruction1","correct_keyboard_response","correct_response","count_ISI","count_correctFeedback","count_expSequence","count_experiment","count_experimentLoop","count_fixation","count_incorrectFeedback","count_instruction1","count_instruction2","count_keyboard_response","count_logger","count_memorySet","count_practiceLoop","count_probe","count_thankYou","datetime","description","disable_garbage_collection","experiment_file","experiment_path","font_bold","font_family","font_italic","font_size","font_underline","foreground","form_clicks","fullscreen","height","keyboard_backend","live_row","live_row_practiceLoop","logfile","mouse_backend","numberSet","opensesame_codename","opensesame_version","posInSet","present","repeat_cycle","response","response_instruction1","response_instruction2","response_keyboard_response","response_thankYou","response_time","response_time_instruction1","response_time_instruction2","response_time_keyboard_response","response_time_thankYou","round_decimals","sampler_backend","setSize","sound_buf_size","sound_channels","sound_freq","sound_sample_size","start","subject_nr","subject_parity","target","time_ISI","time_correctFeedback","time_expSequence","time_experiment","time_experimentLoop","time_fixation","time_incorrectFeedback","time_instruction1","time_instruction2","time_keyboard_response","time_logger","time_memorySet","time_practiceLoop","time_probe","time_thankYou","title","total_correct","total_response_time","total_responses","uniform_coordinates","width"
"100","100","1500","1500","black","practice","legacy","legacy","legacy","0","uniform","1","undefined","1","left","0","0","0","0","0","0","0","0","0","0","0","0","0","0","0","Sun Oct 16 23:18:57 2022","The main experiment item","yes","SternbergTask.osexp","/Users/alexisparrish/Documents/Advanced Quant. Methods/Lab 3/Lab 3.1","no","mono","no","18","no","white","no","yes","768","legacy","0","0","/Users/alexisparrish/Documents/Advanced Quant. Methods/Lab 3/Lab 3.2/AP-subject-4.csv","legacy","4 3 1 7 9 8","Lentiform Loewenfeld","3.3.12","1","y","0","left","right","NA","left","NA","1500","3257","NA","1500","NA","2","legacy","6","1024","2","48000","-16","experiment","4","even","4","9763","NA","7548","4048","NA","7553","NA","4060","NA","11767","13268","8558","7342","11767","NA","Sternberg Task","1","1500","1","yes","1024"
"100","100","1015.5","1015.5","black","practice","legacy","legacy","legacy","0","uniform","1","undefined","1","right","1","1","1","0","0","1","1","0","0","1","1","1","0","1","0","Sun Oct 16 23:18:57 2022","The main experiment item","yes","SternbergTask.osexp","/Users/alexisparrish/Documents/Advanced Quant. Methods/Lab 3/Lab 3.1","no","mono","no","18","no","white","no","yes","768","legacy","1","1","/Users/alexisparrish/Documents/Advanced Quant. Methods/Lab 3/Lab 3.2/AP-subject-4.csv","legacy","4 1 5","Lentiform Loewenfeld","3.3.12","0","n","0","right","right","NA","right","NA","531","3257","NA","531","NA","2","legacy","3","1024","2","48000","-16","experiment","4","even","2","16596","13305","14383","4048","NA","14387","NA","4060","NA","18600","19132","15391","7342","18600","NA","Sternberg Task","2","2031","2","yes","1024"
"100","100","966","966","black","practice","legacy","legacy","legacy","0","uniform","1","undefined","1","left","2","2","2","0","0","2","2","0","0","2","2","2","0","2","0","Sun Oct 16 23:18:57 2022","The main experiment item","yes","SternbergTask.osexp","/Users/alexisparrish/Documents/Advanced Quant. Methods/Lab 3/Lab 3.1","no","mono","no","18","no","white","no","yes","768","legacy","2","2","/Users/alexisparrish/Documents/Advanced Quant. Methods/Lab 3/Lab 3.2/AP-subject-4.csv","legacy","1 7 9 8 5","Lentiform Loewenfeld","3.3.12","4","y","0","left","right","NA","left","NA","867","3257","NA","867","NA","2","legacy","5","1024","2","48000","-16","experiment","4","even","8","22424","19142","20211","4048","NA","20215","NA","4060","NA","24429","25297","21219","7342","24429","NA","Sternberg Task","3","2898","3","yes","1024"
"100","100","881.25","881.25","black","practice","legacy","legacy","legacy","0","uniform","1","undefined","1","left","3","3","3","0","0","3","3","0","0","3","3","3","0","3","0","Sun Oct 16 23:18:57 2022","The main experiment item","yes","SternbergTask.osexp","/Users/alexisparrish/Documents/Advanced Quant. Methods/Lab 3/Lab 3.1","no","mono","no","18","no","white","no","yes","768","legacy","3","3","/Users/alexisparrish/Documents/Advanced Quant. Methods/Lab 3/Lab 3.2/AP-subject-4.csv","legacy","1 5 2 9","Lentiform Loewenfeld","3.3.12","2","y","0","left","right","NA","left","NA","627","3257","NA","627","NA","2","legacy","4","1024","2","48000","-16","experiment","4","even","5","28586","25309","26373","4048","NA","26377","NA","4060","NA","30590","31221","27381","7342","30590","NA","Sternberg Task","4","3525","4","yes","1024"
"100","100","868.8","868.8","black","practice","legacy","legacy","legacy","0","uniform","1","undefined","1","right","4","4","4","0","0","4","4","0","0","4","4","4","0","4","0","Sun Oct 16 23:18:57 2022","The main experiment item","yes","SternbergTask.osexp","/Users/alexisparrish/Documents/Advanced Quant. Methods/Lab 3/Lab 3.1","no","mono","no","18","no","white","no","yes","768","legacy","4","4","/Users/alexisparrish/Documents/Advanced Quant. Methods/Lab 3/Lab 3.2/AP-subject-4.csv","legacy","9 6 7 4 5","Lentiform Loewenfeld","3.3.12","0","n","0","right","right","NA","right","NA","819","3257","NA","819","NA","2","legacy","5","1024","2","48000","-16","experiment","4","even","3","34515","31232","32301","4048","NA","32306","NA","4060","NA","36519","37338","33310","7342","36519","NA","Sternberg Task","5","4344","5","yes","1024"
"100","100","849.5","849.5","black","practice","legacy","legacy","legacy","0","uniform","1","undefined","1","left","5","5","5","0","0","5","5","0","0","5","5","5","0","5","0","Sun Oct 16 23:18:57 2022","The main experiment item","yes","SternbergTask.osexp","/Users/alexisparrish/Documents/Advanced Quant. Methods/Lab 3/Lab 3.1","no","mono","no","18","no","white","no","yes","768","legacy","5","5","/Users/alexisparrish/Documents/Advanced Quant. Methods/Lab 3/Lab 3.2/AP-subject-4.csv","legacy","2 9 4","Lentiform Loewenfeld","3.3.12","3","y","0","left","right","NA","left","NA","753","3257","NA","753","NA","2","legacy","3","1024","2","48000","-16","experiment","4","even","4","40629","37350","38415","4048","NA","38419","NA","4060","NA","42633","43387","39424","7342","42633","NA","Sternberg Task","6","5097","6","yes","1024"
"100","100","832.7142857142857","832.7142857142857","black","practice","legacy","legacy","legacy","0","uniform","1","undefined","1","right","6","6","6","0","0","6","6","0","0","6","6","6","0","6","0","Sun Oct 16 23:18:57 2022","The main experiment item","yes","SternbergTask.osexp","/Users/alexisparrish/Documents/Advanced Quant. Methods/Lab 3/Lab 3.1","no","mono","no","18","no","white","no","yes","768","legacy","6","6","/Users/alexisparrish/Documents/Advanced Quant. Methods/Lab 3/Lab 3.2/AP-subject-4.csv","legacy","5 7 8 4 1 2","Lentiform Loewenfeld","3.3.12","0","n","0","right","right","NA","right","NA","732","3257","NA","732","NA","2","legacy","6","1024","2","48000","-16","experiment","4","even","6","46678","43397","44465","4048","NA","44469","NA","4060","NA","48682","49414","45473","7342","48682","NA","Sternberg Task","7","5829","7","yes","1024"
"100","100","853.75","853.75","black","practice","legacy","legacy","legacy","0","uniform","1","undefined","1","right","7","7","7","0","0","7","7","0","0","7","7","7","0","7","0","Sun Oct 16 23:18:57 2022","The main experiment item","yes","SternbergTask.osexp","/Users/alexisparrish/Documents/Advanced Quant. Methods/Lab 3/Lab 3.1","no","mono","no","18","no","white","no","yes","768","legacy","7","7","/Users/alexisparrish/Documents/Advanced Quant. Methods/Lab 3/Lab 3.2/AP-subject-4.csv","legacy","3 1 9 4","Lentiform Loewenfeld","3.3.12","0","n","0","right","right","NA","right","NA","1001","3257","NA","1001","NA","2","legacy","4","1024","2","48000","-16","experiment","4","even","6","52705","49427","50490","4048","NA","50495","NA","4060","NA","54709","55711","51499","7342","54709","NA","Sternberg Task","8","6830","8","yes","1024"
"100","100","830.3333333333334","830.3333333333334","black","practice","legacy","legacy","legacy","0","uniform","1","undefined","1","left","8","8","8","0","0","8","8","0","0","8","8","8","0","8","0","Sun Oct 16 23:18:57 2022","The main experiment item","yes","SternbergTask.osexp","/Users/alexisparrish/Documents/Advanced Quant. Methods/Lab 3/Lab 3.1","no","mono","no","18","no","white","no","yes","768","legacy","8","8","/Users/alexisparrish/Documents/Advanced Quant. Methods/Lab 3/Lab 3.2/AP-subject-4.csv","legacy","6","Lentiform Loewenfeld","3.3.12","1","y","0","left","right","NA","left","NA","643","3257","NA","643","NA","2","legacy","1","1024","2","48000","-16","experiment","4","even","6","59002","55722","56788","4048","NA","56793","NA","4060","NA","61006","61650","57797","7342","61006","NA","Sternberg Task","9","7473","9","yes","1024"
"100","100","813.6","813.6","black","practice","legacy","legacy","legacy","0","uniform","1","undefined","1","left","9","9","9","0","0","9","9","0","0","9","9","9","0","9","0","Sun Oct 16 23:18:57 2022","The main experiment item","yes","SternbergTask.osexp","/Users/alexisparrish/Documents/Advanced Quant. Methods/Lab 3/Lab 3.1","no","mono","no","18","no","white","no","yes","768","legacy","9","9","/Users/alexisparrish/Documents/Advanced Quant. Methods/Lab 3/Lab 3.2/AP-subject-4.csv","legacy","4 8","Lentiform Loewenfeld","3.3.12","1","y","0","left","right","NA","left","NA","663","3257","NA","663","NA","2","legacy","2","1024","2","48000","-16","experiment","4","even","4","64938","61662","62725","4048","NA","62729","NA","4060","NA","66942","67605","63733","7342","66942","NA","Sternberg Task","10","8136","10","yes","1024"
"100","100","806.4545454545455","806.4545454545455","black","practice","legacy","legacy","legacy","0","uniform","1","undefined","1","right","10","10","10","0","0","10","10","0","0","10","10","10","0","10","0","Sun Oct 16 23:18:57 2022","The main experiment item","yes","SternbergTask.osexp","/Users/alexisparrish/Documents/Advanced Quant. Methods/Lab 3/Lab 3.1","no","mono","no","18","no","white","no","yes","768","legacy","10","10","/Users/alexisparrish/Documents/Advanced Quant. Methods/Lab 3/Lab 3.2/AP-subject-4.csv","legacy","2 1","Lentiform Loewenfeld","3.3.12","0","n","0","right","right","NA","right","NA","735","3257","NA","735","NA","2","legacy","2","1024","2","48000","-16","experiment","4","even","5","70897","67616","68683","4048","NA","68687","NA","4060","NA","72901","73637","69692","7342","72901","NA","Sternberg Task","11","8871","11","yes","1024"
"100","100","794.9166666666666","794.9166666666666","black","practice","legacy","legacy","legacy","0","uniform","1","undefined","1","right","11","11","11","0","0","11","11","0","0","11","11","11","0","11","0","Sun Oct 16 23:18:57 2022","The main experiment item","yes","SternbergTask.osexp","/Users/alexisparrish/Documents/Advanced Quant. Methods/Lab 3/Lab 3.1","no","mono","no","18","no","white","no","yes","768","legacy","11","11","/Users/alexisparrish/Documents/Advanced Quant. Methods/Lab 3/Lab 3.2/AP-subject-4.csv","legacy","5","Lentiform Loewenfeld","3.3.12","0","n","0","right","right","NA","right","NA","668","3257","NA","668","NA","2","legacy","1","1024","2","48000","-16","experiment","4","even","3","76929","73649","74715","4048","NA","74720","NA","4060","NA","78933","79602","75724","7342","78933","NA","Sternberg Task","12","9539","12","yes","1024"
"100","100","795.1538461538462","795.1538461538462","black","experiment","legacy","legacy","legacy","0","uniform","1","undefined","1","left","12","12","12","0","0","12","12","0","0","12","12","12","0","12","0","Sun Oct 16 23:18:57 2022","The main experiment item","yes","SternbergTask.osexp","/Users/alexisparrish/Documents/Advanced Quant. Methods/Lab 3/Lab 3.1","no","mono","no","18","no","white","no","yes","768","legacy","0","11","/Users/alexisparrish/Documents/Advanced Quant. Methods/Lab 3/Lab 3.2/AP-subject-4.csv","legacy","8 5 4 7 3 1","Lentiform Loewenfeld","3.3.12","2","y","0","left","right","right","left","NA","798","3257","1010","798","NA","2","legacy","6","1024","2","48000","-16","experiment","4","even","5","83933","79614","81718","4048","81659","81722","NA","4060","80648","85937","86735","82727","7342","85937","NA","Sternberg Task","13","10337","13","yes","1024"
"100","100","795.2857142857143","795.2857142857143","black","experiment","legacy","legacy","legacy","0","uniform","1","undefined","1","left","13","13","13","0","0","13","13","0","0","13","13","13","0","13","0","Sun Oct 16 23:18:57 2022","The main experiment item","yes","SternbergTask.osexp","/Users/alexisparrish/Documents/Advanced Quant. Methods/Lab 3/Lab 3.1","no","mono","no","18","no","white","no","yes","768","legacy","1","11","/Users/alexisparrish/Documents/Advanced Quant. Methods/Lab 3/Lab 3.2/AP-subject-4.csv","legacy","8 5 3 7 4 6","Lentiform Loewenfeld","3.3.12","6","y","0","left","right","right","left","NA","797","3257","1010","797","NA","2","legacy","6","1024","2","48000","-16","experiment","4","even","6","90025","86747","87811","4048","81659","87816","NA","4060","80648","92029","92827","88820","7342","92029","NA","Sternberg Task","14","11134","14","yes","1024"
"100","100","781.0666666666667","781.0666666666667","black","experiment","legacy","legacy","legacy","0","uniform","1","undefined","1","right","14","14","14","0","0","14","14","0","0","14","14","14","0","14","0","Sun Oct 16 23:18:57 2022","The main experiment item","yes","SternbergTask.osexp","/Users/alexisparrish/Documents/Advanced Quant. Methods/Lab 3/Lab 3.1","no","mono","no","18","no","white","no","yes","768","legacy","2","11","/Users/alexisparrish/Documents/Advanced Quant. Methods/Lab 3/Lab 3.2/AP-subject-4.csv","legacy","1","Lentiform Loewenfeld","3.3.12","0","n","0","right","right","right","right","NA","582","3257","1010","582","NA","2","legacy","1","1024","2","48000","-16","experiment","4","even","7","96118","92839","93905","4048","81659","93909","NA","4060","80648","98122","98705","94913","7342","98122","NA","Sternberg Task","15","11716","15","yes","1024"
"100","100","786.6875","786.6875","black","experiment","legacy","legacy","legacy","0","uniform","1","undefined","1","right","15","15","15","0","0","15","15","0","0","15","15","15","0","15","0","Sun Oct 16 23:18:57 2022","The main experiment item","yes","SternbergTask.osexp","/Users/alexisparrish/Documents/Advanced Quant. Methods/Lab 3/Lab 3.1","no","mono","no","18","no","white","no","yes","768","legacy","3","11","/Users/alexisparrish/Documents/Advanced Quant. Methods/Lab 3/Lab 3.2/AP-subject-4.csv","legacy","7 9","Lentiform Loewenfeld","3.3.12","0","n","0","right","right","right","right","NA","871","3257","1010","871","NA","2","legacy","2","1024","2","48000","-16","experiment","4","even","1","102000","98717","99786","4048","81659","99791","NA","4060","80648","104004","104875","100795","7342","104004","NA","Sternberg Task","16","12587","16","yes","1024"
"100","100","801.2941176470588","801.2941176470588","black","experiment","legacy","legacy","legacy","0","uniform","1","undefined","1","left","16","16","16","0","0","16","16","0","0","16","16","16","0","16","0","Sun Oct 16 23:18:57 2022","The main experiment item","yes","SternbergTask.osexp","/Users/alexisparrish/Documents/Advanced Quant. Methods/Lab 3/Lab 3.1","no","mono","no","18","no","white","no","yes","768","legacy","4","11","/Users/alexisparrish/Documents/Advanced Quant. Methods/Lab 3/Lab 3.2/AP-subject-4.csv","legacy","9 3 8 2 1 4","Lentiform Loewenfeld","3.3.12","3","y","0","left","right","right","left","NA","1035","3257","1010","1035","NA","2","legacy","6","1024","2","48000","-16","experiment","4","even","8","108168","104887","105954","4048","81659","105958","NA","4060","80648","110172","111208","106963","7342","110172","NA","Sternberg Task","17","13622","17","yes","1024"
"100","100","799.7777777777778","799.7777777777778","black","experiment","legacy","legacy","legacy","0","uniform","1","undefined","1","right","17","17","17","0","0","17","17","0","0","17","17","17","0","17","0","Sun Oct 16 23:18:57 2022","The main experiment item","yes","SternbergTask.osexp","/Users/alexisparrish/Documents/Advanced Quant. Methods/Lab 3/Lab 3.1","no","mono","no","18","no","white","no","yes","768","legacy","5","11","/Users/alexisparrish/Documents/Advanced Quant. Methods/Lab 3/Lab 3.2/AP-subject-4.csv","legacy","3 4 2","Lentiform Loewenfeld","3.3.12","0","n","0","right","right","right","right","NA","774","3257","1010","774","NA","2","legacy","3","1024","2","48000","-16","experiment","4","even","5","114499","111220","112286","4048","81659","112290","NA","4060","80648","116503","117277","113294","7342","116503","NA","Sternberg Task","18","14396","18","yes","1024"
"100","100","801.1052631578947","801.1052631578947","black","experiment","legacy","legacy","legacy","0","uniform","1","undefined","1","left","18","18","18","0","0","18","18","0","0","18","18","18","0","18","0","Sun Oct 16 23:18:57 2022","The main experiment item","yes","SternbergTask.osexp","/Users/alexisparrish/Documents/Advanced Quant. Methods/Lab 3/Lab 3.1","no","mono","no","18","no","white","no","yes","768","legacy","6","11","/Users/alexisparrish/Documents/Advanced Quant. Methods/Lab 3/Lab 3.2/AP-subject-4.csv","legacy","4 1 8 7 5","Lentiform Loewenfeld","3.3.12","3","y","0","left","right","right","left","NA","825","3257","1010","825","NA","2","legacy","5","1024","2","48000","-16","experiment","4","even","8","120569","117289","118356","4048","81659","118360","NA","4060","80648","122573","123398","119364","7342","122573","NA","Sternberg Task","19","15221","19","yes","1024"
"100","100","791.4","791.4","black","experiment","legacy","legacy","legacy","0","uniform","1","undefined","1","left","19","19","19","0","0","19","19","0","0","19","19","19","0","19","0","Sun Oct 16 23:18:57 2022","The main experiment item","yes","SternbergTask.osexp","/Users/alexisparrish/Documents/Advanced Quant. Methods/Lab 3/Lab 3.1","no","mono","no","18","no","white","no","yes","768","legacy","7","11","/Users/alexisparrish/Documents/Advanced Quant. Methods/Lab 3/Lab 3.2/AP-subject-4.csv","legacy","6 8 9 3 4 9","Lentiform Loewenfeld","3.3.12","5","y","0","left","right","right","left","NA","607","3257","1010","607","NA","2","legacy","6","1024","2","48000","-16","experiment","4","even","4","126689","123410","124475","4048","81659","124480","NA","4060","80648","128693","129301","125484","7342","128693","NA","Sternberg Task","20","15828","20","yes","1024"
"100","100","783","783","black","experiment","legacy","legacy","legacy","0","uniform","1","undefined","1","left","20","20","20","0","0","20","20","0","0","20","20","20","0","20","0","Sun Oct 16 23:18:57 2022","The main experiment item","yes","SternbergTask.osexp","/Users/alexisparrish/Documents/Advanced Quant. Methods/Lab 3/Lab 3.1","no","mono","no","18","no","white","no","yes","768","legacy","8","11","/Users/alexisparrish/Documents/Advanced Quant. Methods/Lab 3/Lab 3.2/AP-subject-4.csv","legacy","3 2 1 4 7","Lentiform Loewenfeld","3.3.12","2","y","0","left","right","right","left","NA","615","3257","1010","615","NA","2","legacy","5","1024","2","48000","-16","experiment","4","even","2","132588","129311","130374","4048","81659","130379","NA","4060","80648","134592","135207","131383","7342","134592","NA","Sternberg Task","21","16443","21","yes","1024"
"100","100","779.5","779.5","black","experiment","legacy","legacy","legacy","0","uniform","1","undefined","1","left","21","21","21","0","0","21","21","0","0","21","21","21","0","21","0","Sun Oct 16 23:18:57 2022","The main experiment item","yes","SternbergTask.osexp","/Users/alexisparrish/Documents/Advanced Quant. Methods/Lab 3/Lab 3.1","no","mono","no","18","no","white","no","yes","768","legacy","9","11","/Users/alexisparrish/Documents/Advanced Quant. Methods/Lab 3/Lab 3.2/AP-subject-4.csv","legacy","4 3 2 5 8","Lentiform Loewenfeld","3.3.12","2","y","0","left","right","right","left","NA","706","3257","1010","706","NA","2","legacy","5","1024","2","48000","-16","experiment","4","even","3","138496","135219","136282","4048","81659","136287","NA","4060","80648","140500","141207","137291","7342","140500","NA","Sternberg Task","22","17149","22","yes","1024"
"100","100","774.5217391304348","774.5217391304348","black","experiment","legacy","legacy","legacy","0","uniform","1","undefined","1","left","22","22","22","0","0","22","22","0","0","22","22","22","0","22","0","Sun Oct 16 23:18:57 2022","The main experiment item","yes","SternbergTask.osexp","/Users/alexisparrish/Documents/Advanced Quant. Methods/Lab 3/Lab 3.1","no","mono","no","18","no","white","no","yes","768","legacy","10","11","/Users/alexisparrish/Documents/Advanced Quant. Methods/Lab 3/Lab 3.2/AP-subject-4.csv","legacy","8 1 6","Lentiform Loewenfeld","3.3.12","3","y","0","left","right","right","left","NA","665","3257","1010","665","NA","2","legacy","3","1024","2","48000","-16","experiment","4","even","6","144498","141218","142284","4048","81659","142289","NA","4060","80648","146503","147168","143293","7342","146503","NA","Sternberg Task","23","17814","23","yes","1024"
"100","100","771.5","771.5","black","experiment","legacy","legacy","legacy","0","uniform","1","undefined","1","left","23","23","23","0","0","23","23","0","0","23","23","23","0","23","0","Sun Oct 16 23:18:57 2022","The main experiment item","yes","SternbergTask.osexp","/Users/alexisparrish/Documents/Advanced Quant. Methods/Lab 3/Lab 3.1","no","mono","no","18","no","white","no","yes","768","legacy","11","11","/Users/alexisparrish/Documents/Advanced Quant. Methods/Lab 3/Lab 3.2/AP-subject-4.csv","legacy","7 2 3","Lentiform Loewenfeld","3.3.12","3","y","0","left","right","right","left","NA","702","3257","1010","702","NA","2","legacy","3","1024","2","48000","-16","experiment","4","even","3","150459","147179","148246","4048","81659","148250","NA","4060","80648","152463","153166","149254","7342","152463","NA","Sternberg Task","24","18516","24","yes","1024"
"100","100","765.92","765.92","black","experiment","legacy","legacy","legacy","0","uniform","1","undefined","1","left","24","24","24","0","0","24","24","0","0","24","24","24","0","24","0","Sun Oct 16 23:18:57 2022","The main experiment item","yes","SternbergTask.osexp","/Users/alexisparrish/Documents/Advanced Quant. Methods/Lab 3/Lab 3.1","no","mono","no","18","no","white","no","yes","768","legacy","12","11","/Users/alexisparrish/Documents/Advanced Quant. Methods/Lab 3/Lab 3.2/AP-subject-4.csv","legacy","2 4 6 9","Lentiform Loewenfeld","3.3.12","3","y","0","left","right","right","left","NA","632","3257","1010","632","NA","2","legacy","4","1024","2","48000","-16","experiment","4","even","6","156458","153178","154245","4048","81659","154249","NA","4060","80648","158462","159095","155253","7342","158462","NA","Sternberg Task","25","19148","25","yes","1024"
"100","100","771.5769230769231","771.5769230769231","black","experiment","legacy","legacy","legacy","0","uniform","1","undefined","1","right","25","25","25","0","0","25","25","0","0","25","25","25","0","25","0","Sun Oct 16 23:18:57 2022","The main experiment item","yes","SternbergTask.osexp","/Users/alexisparrish/Documents/Advanced Quant. Methods/Lab 3/Lab 3.1","no","mono","no","18","no","white","no","yes","768","legacy","13","11","/Users/alexisparrish/Documents/Advanced Quant. Methods/Lab 3/Lab 3.2/AP-subject-4.csv","legacy","4 2 6 9","Lentiform Loewenfeld","3.3.12","0","n","0","right","right","right","right","NA","913","3257","1010","913","NA","2","legacy","4","1024","2","48000","-16","experiment","4","even","7","162388","159107","160174","4048","81659","160179","NA","4060","80648","164392","165305","161183","7342","164392","NA","Sternberg Task","26","20061","26","yes","1024"
"100","100","768.3333333333334","768.3333333333334","black","experiment","legacy","legacy","legacy","0","uniform","1","undefined","1","left","26","26","26","0","0","26","26","0","0","26","26","26","0","26","0","Sun Oct 16 23:18:57 2022","The main experiment item","yes","SternbergTask.osexp","/Users/alexisparrish/Documents/Advanced Quant. Methods/Lab 3/Lab 3.1","no","mono","no","18","no","white","no","yes","768","legacy","14","11","/Users/alexisparrish/Documents/Advanced Quant. Methods/Lab 3/Lab 3.2/AP-subject-4.csv","legacy","6 7 8 5","Lentiform Loewenfeld","3.3.12","3","y","0","left","right","right","left","NA","684","3257","1010","684","NA","2","legacy","4","1024","2","48000","-16","experiment","4","even","8","168597","165316","166383","4048","81659","166387","NA","4060","80648","170601","171286","167391","7342","170601","NA","Sternberg Task","27","20745","27","yes","1024"
"100","100","769.1428571428571","769.1428571428571","black","experiment","legacy","legacy","legacy","0","uniform","1","undefined","1","right","27","27","27","0","0","27","27","0","0","27","27","27","0","27","0","Sun Oct 16 23:18:57 2022","The main experiment item","yes","SternbergTask.osexp","/Users/alexisparrish/Documents/Advanced Quant. Methods/Lab 3/Lab 3.1","no","mono","no","18","no","white","no","yes","768","legacy","15","11","/Users/alexisparrish/Documents/Advanced Quant. Methods/Lab 3/Lab 3.2/AP-subject-4.csv","legacy","1 7 5 2 9","Lentiform Loewenfeld","3.3.12","0","n","0","right","right","right","right","NA","791","3257","1010","791","NA","2","legacy","5","1024","2","48000","-16","experiment","4","even","3","174577","171296","172363","4048","81659","172368","NA","4060","80648","176581","177373","173372","7342","176581","NA","Sternberg Task","28","21536","28","yes","1024"
"100","100","772.1034482758621","772.1034482758621","black","experiment","legacy","legacy","legacy","0","uniform","1","undefined","1","right","28","28","28","0","0","28","28","0","0","28","28","28","0","28","0","Sun Oct 16 23:18:57 2022","The main experiment item","yes","SternbergTask.osexp","/Users/alexisparrish/Documents/Advanced Quant. Methods/Lab 3/Lab 3.1","no","mono","no","18","no","white","no","yes","768","legacy","16","11","/Users/alexisparrish/Documents/Advanced Quant. Methods/Lab 3/Lab 3.2/AP-subject-4.csv","legacy","8 4 3 9","Lentiform Loewenfeld","3.3.12","0","n","0","right","right","right","right","NA","855","3257","1010","855","NA","2","legacy","4","1024","2","48000","-16","experiment","4","even","5","180662","177384","178448","4048","81659","178453","NA","4060","80648","182666","183522","179457","7342","182666","NA","Sternberg Task","29","22391","29","yes","1024"
"100","100","791.7666666666667","791.7666666666667","black","experiment","legacy","legacy","legacy","0","uniform","1","undefined","1","left","29","29","29","0","0","29","29","0","0","29","29","29","0","29","0","Sun Oct 16 23:18:57 2022","The main experiment item","yes","SternbergTask.osexp","/Users/alexisparrish/Documents/Advanced Quant. Methods/Lab 3/Lab 3.1","no","mono","no","18","no","white","no","yes","768","legacy","17","11","/Users/alexisparrish/Documents/Advanced Quant. Methods/Lab 3/Lab 3.2/AP-subject-4.csv","legacy","4 7 6 8 2 3","Lentiform Loewenfeld","3.3.12","6","y","0","left","right","right","left","NA","1362","3257","1010","1362","NA","2","legacy","6","1024","2","48000","-16","experiment","4","even","3","186812","183532","184598","4048","81659","184603","NA","4060","80648","188816","190179","185607","7342","188816","NA","Sternberg Task","30","23753","30","yes","1024"
"100","100","788.0322580645161","788.0322580645161","black","experiment","legacy","legacy","legacy","0","uniform","1","undefined","1","left","30","30","30","0","0","30","30","0","0","30","30","30","0","30","0","Sun Oct 16 23:18:57 2022","The main experiment item","yes","SternbergTask.osexp","/Users/alexisparrish/Documents/Advanced Quant. Methods/Lab 3/Lab 3.1","no","mono","no","18","no","white","no","yes","768","legacy","18","11","/Users/alexisparrish/Documents/Advanced Quant. Methods/Lab 3/Lab 3.2/AP-subject-4.csv","legacy","8 5 1 3 9","Lentiform Loewenfeld","3.3.12","4","y","0","left","right","right","left","NA","676","3257","1010","676","NA","2","legacy","5","1024","2","48000","-16","experiment","4","even","3","193465","190190","191252","4048","81659","191256","NA","4060","80648","195469","196146","192260","7342","195469","NA","Sternberg Task","31","24429","31","yes","1024"
"100","100","788.90625","788.90625","black","experiment","legacy","legacy","legacy","0","uniform","1","undefined","1","right","31","31","31","0","0","31","31","0","0","31","31","31","0","31","0","Sun Oct 16 23:18:57 2022","The main experiment item","yes","SternbergTask.osexp","/Users/alexisparrish/Documents/Advanced Quant. Methods/Lab 3/Lab 3.1","no","mono","no","18","no","white","no","yes","768","legacy","19","11","/Users/alexisparrish/Documents/Advanced Quant. Methods/Lab 3/Lab 3.2/AP-subject-4.csv","legacy","6 2 9 3 8 4","Lentiform Loewenfeld","3.3.12","0","n","0","right","right","right","right","NA","816","3257","1010","816","NA","2","legacy","6","1024","2","48000","-16","experiment","4","even","1","199436","196157","197223","4048","81659","197227","NA","4060","80648","201440","202256","198231","7342","201440","NA","Sternberg Task","32","25245","32","yes","1024"
"100","100","788.5454545454545","788.5454545454545","black","experiment","legacy","legacy","legacy","0","uniform","1","undefined","1","right","32","32","32","0","0","32","32","0","0","32","32","32","0","32","0","Sun Oct 16 23:18:57 2022","The main experiment item","yes","SternbergTask.osexp","/Users/alexisparrish/Documents/Advanced Quant. Methods/Lab 3/Lab 3.1","no","mono","no","18","no","white","no","yes","768","legacy","20","11","/Users/alexisparrish/Documents/Advanced Quant. Methods/Lab 3/Lab 3.2/AP-subject-4.csv","legacy","5","Lentiform Loewenfeld","3.3.12","0","n","0","right","right","right","right","NA","777","3257","1010","777","NA","2","legacy","1","1024","2","48000","-16","experiment","4","even","8","205543","202268","203330","4048","81659","203334","NA","4060","80648","207547","208325","204338","7342","207547","NA","Sternberg Task","33","26022","33","yes","1024"
"100","100","794.3235294117648","794.3235294117648","black","experiment","legacy","legacy","legacy","0","uniform","1","undefined","1","right","33","33","33","0","0","33","33","0","0","33","33","33","0","33","0","Sun Oct 16 23:18:57 2022","The main experiment item","yes","SternbergTask.osexp","/Users/alexisparrish/Documents/Advanced Quant. Methods/Lab 3/Lab 3.1","no","mono","no","18","no","white","no","yes","768","legacy","21","11","/Users/alexisparrish/Documents/Advanced Quant. Methods/Lab 3/Lab 3.2/AP-subject-4.csv","legacy","7 1 5 6 3","Lentiform Loewenfeld","3.3.12","0","n","0","right","right","right","right","NA","985","3257","1010","985","NA","2","legacy","5","1024","2","48000","-16","experiment","4","even","8","211617","208336","209403","4048","81659","209408","NA","4060","80648","213621","214607","210412","7342","213621","NA","Sternberg Task","34","27007","34","yes","1024"
"100","100","799.8285714285714","799.8285714285714","black","experiment","legacy","legacy","legacy","0","uniform","1","undefined","1","left","34","34","34","0","0","34","34","0","0","34","34","34","0","34","0","Sun Oct 16 23:18:57 2022","The main experiment item","yes","SternbergTask.osexp","/Users/alexisparrish/Documents/Advanced Quant. Methods/Lab 3/Lab 3.1","no","mono","no","18","no","white","no","yes","768","legacy","22","11","/Users/alexisparrish/Documents/Advanced Quant. Methods/Lab 3/Lab 3.2/AP-subject-4.csv","legacy","7 1 8 5 6 2","Lentiform Loewenfeld","3.3.12","2","y","0","left","right","right","left","NA","987","3257","1010","987","NA","2","legacy","6","1024","2","48000","-16","experiment","4","even","1","217898","214619","215685","4048","81659","215689","NA","4060","80648","219902","220890","216693","7342","219902","NA","Sternberg Task","35","27994","35","yes","1024"
"100","100","816.3055555555555","816.3055555555555","black","experiment","legacy","legacy","legacy","0","uniform","1","undefined","1","right","35","35","35","0","0","35","35","0","0","35","35","35","0","35","0","Sun Oct 16 23:18:57 2022","The main experiment item","yes","SternbergTask.osexp","/Users/alexisparrish/Documents/Advanced Quant. Methods/Lab 3/Lab 3.1","no","mono","no","18","no","white","no","yes","768","legacy","23","11","/Users/alexisparrish/Documents/Advanced Quant. Methods/Lab 3/Lab 3.2/AP-subject-4.csv","legacy","9 5 3 2 8 6","Lentiform Loewenfeld","3.3.12","0","n","0","right","right","right","right","NA","1393","3257","1010","1393","NA","2","legacy","6","1024","2","48000","-16","experiment","4","even","7","224181","220900","221967","4048","81659","221972","NA","4060","80648","226185","227579","222976","7342","226185","NA","Sternberg Task","36","29387","36","yes","1024"
"100","100","822.4864864864865","822.4864864864865","black","experiment","legacy","legacy","legacy","0","uniform","1","undefined","1","right","36","36","36","0","0","36","36","0","0","36","36","36","0","36","0","Sun Oct 16 23:18:57 2022","The main experiment item","yes","SternbergTask.osexp","/Users/alexisparrish/Documents/Advanced Quant. Methods/Lab 3/Lab 3.1","no","mono","no","18","no","white","no","yes","768","legacy","24","11","/Users/alexisparrish/Documents/Advanced Quant. Methods/Lab 3/Lab 3.2/AP-subject-4.csv","legacy","9 7 4 5 8","Lentiform Loewenfeld","3.3.12","0","n","0","right","right","right","right","NA","1045","3257","1010","1045","NA","2","legacy","5","1024","2","48000","-16","experiment","4","even","6","230865","227591","228651","4048","81659","228656","NA","4060","80648","232869","233914","229660","7342","232869","NA","Sternberg Task","37","30432","37","yes","1024"
"100","100","823.2631578947369","823.2631578947369","black","experiment","legacy","legacy","legacy","0","uniform","1","undefined","1","left","37","37","37","0","0","37","37","0","0","37","37","37","0","37","0","Sun Oct 16 23:18:57 2022","The main experiment item","yes","SternbergTask.osexp","/Users/alexisparrish/Documents/Advanced Quant. Methods/Lab 3/Lab 3.1","no","mono","no","18","no","white","no","yes","768","legacy","25","11","/Users/alexisparrish/Documents/Advanced Quant. Methods/Lab 3/Lab 3.2/AP-subject-4.csv","legacy","6 5","Lentiform Loewenfeld","3.3.12","2","y","0","left","right","right","left","NA","852","3257","1010","852","NA","2","legacy","2","1024","2","48000","-16","experiment","4","even","5","237225","233925","235012","4048","81659","235016","NA","4060","80648","239229","240081","236020","7342","239229","NA","Sternberg Task","38","31284","38","yes","1024"
"100","100","822.8205128205128","822.8205128205128","black","experiment","legacy","legacy","legacy","0","uniform","1","undefined","1","right","38","38","38","0","0","38","38","0","0","38","38","38","0","38","0","Sun Oct 16 23:18:57 2022","The main experiment item","yes","SternbergTask.osexp","/Users/alexisparrish/Documents/Advanced Quant. Methods/Lab 3/Lab 3.1","no","mono","no","18","no","white","no","yes","768","legacy","26","11","/Users/alexisparrish/Documents/Advanced Quant. Methods/Lab 3/Lab 3.2/AP-subject-4.csv","legacy","4 8 1 2","Lentiform Loewenfeld","3.3.12","0","n","0","right","right","right","right","NA","806","3257","1010","806","NA","2","legacy","4","1024","2","48000","-16","experiment","4","even","7","243371","240094","241157","4048","81659","241162","NA","4060","80648","245375","246181","242166","7342","245375","NA","Sternberg Task","39","32090","39","yes","1024"
"100","100","823.175","823.175","black","experiment","legacy","legacy","legacy","0","uniform","1","undefined","1","left","39","39","39","0","0","39","39","0","0","39","39","39","0","39","0","Sun Oct 16 23:18:57 2022","The main experiment item","yes","SternbergTask.osexp","/Users/alexisparrish/Documents/Advanced Quant. Methods/Lab 3/Lab 3.1","no","mono","no","18","no","white","no","yes","768","legacy","27","11","/Users/alexisparrish/Documents/Advanced Quant. Methods/Lab 3/Lab 3.2/AP-subject-4.csv","legacy","6 9 7 4 5 1","Lentiform Loewenfeld","3.3.12","2","y","0","left","right","right","left","NA","837","3257","1010","837","NA","2","legacy","6","1024","2","48000","-16","experiment","4","even","9","249476","246193","247256","4048","81659","247261","NA","4060","80648","251480","252318","248271","7342","251480","NA","Sternberg Task","40","32927","40","yes","1024"
"100","100","825.8536585365854","825.8536585365854","black","experiment","legacy","legacy","legacy","0","uniform","1","undefined","1","left","40","40","40","0","0","40","40","0","0","40","40","40","0","40","0","Sun Oct 16 23:18:57 2022","The main experiment item","yes","SternbergTask.osexp","/Users/alexisparrish/Documents/Advanced Quant. Methods/Lab 3/Lab 3.1","no","mono","no","18","no","white","no","yes","768","legacy","28","11","/Users/alexisparrish/Documents/Advanced Quant. Methods/Lab 3/Lab 3.2/AP-subject-4.csv","legacy","3 9 7 6 4","Lentiform Loewenfeld","3.3.12","3","y","0","left","right","right","left","NA","933","3257","1010","933","NA","2","legacy","5","1024","2","48000","-16","experiment","4","even","7","255605","252328","253392","4048","81659","253396","NA","4060","80648","257609","258543","254400","7342","257609","NA","Sternberg Task","41","33860","41","yes","1024"
"100","100","825.2380952380952","825.2380952380952","black","experiment","legacy","legacy","legacy","0","uniform","1","undefined","1","right","41","41","41","0","0","41","41","0","0","41","41","41","0","41","0","Sun Oct 16 23:18:57 2022","The main experiment item","yes","SternbergTask.osexp","/Users/alexisparrish/Documents/Advanced Quant. Methods/Lab 3/Lab 3.1","no","mono","no","18","no","white","no","yes","768","legacy","29","11","/Users/alexisparrish/Documents/Advanced Quant. Methods/Lab 3/Lab 3.2/AP-subject-4.csv","legacy","1 6 4 3 9 7","Lentiform Loewenfeld","3.3.12","0","n","0","right","right","right","right","NA","800","3257","1010","800","NA","2","legacy","6","1024","2","48000","-16","experiment","4","even","8","261840","258555","259619","4048","81659","259624","NA","4060","80648","263844","264645","260628","7342","263844","NA","Sternberg Task","42","34660","42","yes","1024"
"100","100","828.8139534883721","828.8139534883721","black","experiment","legacy","legacy","legacy","0","uniform","1","undefined","1","right","42","42","42","0","0","42","42","0","0","42","42","42","0","42","0","Sun Oct 16 23:18:57 2022","The main experiment item","yes","SternbergTask.osexp","/Users/alexisparrish/Documents/Advanced Quant. Methods/Lab 3/Lab 3.1","no","mono","no","18","no","white","no","yes","768","legacy","30","11","/Users/alexisparrish/Documents/Advanced Quant. Methods/Lab 3/Lab 3.2/AP-subject-4.csv","legacy","6 9 4 5 3 2","Lentiform Loewenfeld","3.3.12","0","n","0","right","right","right","right","NA","979","3257","1010","979","NA","2","legacy","6","1024","2","48000","-16","experiment","4","even","8","267938","264657","265725","4048","81659","265729","NA","4060","80648","269942","270922","266733","7342","269942","NA","Sternberg Task","43","35639","43","yes","1024"
"100","100","836.2045454545455","836.2045454545455","black","experiment","legacy","legacy","legacy","0","uniform","1","undefined","1","right","43","43","43","0","0","43","43","0","0","43","43","43","0","43","0","Sun Oct 16 23:18:57 2022","The main experiment item","yes","SternbergTask.osexp","/Users/alexisparrish/Documents/Advanced Quant. Methods/Lab 3/Lab 3.1","no","mono","no","18","no","white","no","yes","768","legacy","31","11","/Users/alexisparrish/Documents/Advanced Quant. Methods/Lab 3/Lab 3.2/AP-subject-4.csv","legacy","2 8 9","Lentiform Loewenfeld","3.3.12","0","n","0","right","right","right","right","NA","1154","3257","1010","1154","NA","2","legacy","3","1024","2","48000","-16","experiment","4","even","6","274211","270934","271996","4048","81659","272001","NA","4060","80648","276215","277370","273006","7342","276215","NA","Sternberg Task","44","36793","44","yes","1024"
"100","100","835.6444444444444","835.6444444444444","black","experiment","legacy","legacy","legacy","0","uniform","1","undefined","1","right","44","44","44","0","0","44","44","0","0","44","44","44","0","44","0","Sun Oct 16 23:18:57 2022","The main experiment item","yes","SternbergTask.osexp","/Users/alexisparrish/Documents/Advanced Quant. Methods/Lab 3/Lab 3.1","no","mono","no","18","no","white","no","yes","768","legacy","32","11","/Users/alexisparrish/Documents/Advanced Quant. Methods/Lab 3/Lab 3.2/AP-subject-4.csv","legacy","5 2","Lentiform Loewenfeld","3.3.12","0","n","0","right","right","right","right","NA","811","3257","1010","811","NA","2","legacy","2","1024","2","48000","-16","experiment","4","even","7","280661","277382","278448","4048","81659","278452","NA","4060","80648","282665","283477","279456","7342","282665","NA","Sternberg Task","45","37604","45","yes","1024"
"100","100","834.7391304347826","834.7391304347826","black","experiment","legacy","legacy","legacy","0","uniform","1","undefined","1","left","45","45","45","0","0","45","45","0","0","45","45","45","0","45","0","Sun Oct 16 23:18:57 2022","The main experiment item","yes","SternbergTask.osexp","/Users/alexisparrish/Documents/Advanced Quant. Methods/Lab 3/Lab 3.1","no","mono","no","18","no","white","no","yes","768","legacy","33","11","/Users/alexisparrish/Documents/Advanced Quant. Methods/Lab 3/Lab 3.2/AP-subject-4.csv","legacy","4","Lentiform Loewenfeld","3.3.12","1","y","0","left","right","right","left","NA","794","3257","1010","794","NA","2","legacy","1","1024","2","48000","-16","experiment","4","even","4","286767","283487","284553","4048","81659","284558","NA","4060","80648","288771","289566","285562","7342","288771","NA","Sternberg Task","46","38398","46","yes","1024"
"100","100","835.063829787234","835.063829787234","black","experiment","legacy","legacy","legacy","0","uniform","1","undefined","1","left","46","46","46","0","0","46","46","0","0","46","46","46","0","46","0","Sun Oct 16 23:18:57 2022","The main experiment item","yes","SternbergTask.osexp","/Users/alexisparrish/Documents/Advanced Quant. Methods/Lab 3/Lab 3.1","no","mono","no","18","no","white","no","yes","768","legacy","34","11","/Users/alexisparrish/Documents/Advanced Quant. Methods/Lab 3/Lab 3.2/AP-subject-4.csv","legacy","3 4","Lentiform Loewenfeld","3.3.12","1","y","0","left","right","right","left","NA","850","3257","1010","850","NA","2","legacy","2","1024","2","48000","-16","experiment","4","even","3","292858","289578","290645","4048","81659","290649","NA","4060","80648","294862","295713","291653","7342","294862","NA","Sternberg Task","47","39248","47","yes","1024"
"100","100","836.9375","836.9375","black","experiment","legacy","legacy","legacy","0","uniform","1","undefined","1","right","47","47","47","0","0","47","47","0","0","47","47","47","0","47","0","Sun Oct 16 23:18:57 2022","The main experiment item","yes","SternbergTask.osexp","/Users/alexisparrish/Documents/Advanced Quant. Methods/Lab 3/Lab 3.1","no","mono","no","18","no","white","no","yes","768","legacy","35","11","/Users/alexisparrish/Documents/Advanced Quant. Methods/Lab 3/Lab 3.2/AP-subject-4.csv","legacy","6 9 7 3 8 2","Lentiform Loewenfeld","3.3.12","0","n","0","right","right","right","right","NA","925","3257","1010","925","NA","2","legacy","6","1024","2","48000","-16","experiment","4","even","5","299000","295724","296787","4048","81659","296791","NA","4060","80648","301004","301930","297795","7342","301004","NA","Sternberg Task","48","40173","48","yes","1024"
"100","100","836.0204081632653","836.0204081632653","black","experiment","legacy","legacy","legacy","0","uniform","1","undefined","1","left","48","48","48","0","0","48","48","0","0","48","48","48","0","48","0","Sun Oct 16 23:18:57 2022","The main experiment item","yes","SternbergTask.osexp","/Users/alexisparrish/Documents/Advanced Quant. Methods/Lab 3/Lab 3.1","no","mono","no","18","no","white","no","yes","768","legacy","36","11","/Users/alexisparrish/Documents/Advanced Quant. Methods/Lab 3/Lab 3.2/AP-subject-4.csv","legacy","3 5 4 7","Lentiform Loewenfeld","3.3.12","1","y","0","left","right","right","left","NA","792","3257","1010","792","NA","2","legacy","4","1024","2","48000","-16","experiment","4","even","3","305220","301941","303007","4048","81659","303011","NA","4060","80648","307224","308017","304015","7342","307224","NA","Sternberg Task","49","40965","49","yes","1024"
"100","100","838.5","838.5","black","experiment","legacy","legacy","legacy","0","uniform","1","undefined","1","right","49","49","49","0","0","49","49","0","0","49","49","49","0","49","0","Sun Oct 16 23:18:57 2022","The main experiment item","yes","SternbergTask.osexp","/Users/alexisparrish/Documents/Advanced Quant. Methods/Lab 3/Lab 3.1","no","mono","no","18","no","white","no","yes","768","legacy","37","11","/Users/alexisparrish/Documents/Advanced Quant. Methods/Lab 3/Lab 3.2/AP-subject-4.csv","legacy","3 4 9 6 7 8","Lentiform Loewenfeld","3.3.12","0","n","0","right","right","right","right","NA","960","3257","1010","960","NA","2","legacy","6","1024","2","48000","-16","experiment","4","even","2","311305","308027","309091","4048","81659","309096","NA","4060","80648","313309","314270","310100","7342","313309","NA","Sternberg Task","50","41925","50","yes","1024"
"100","100","838.6078431372549","838.6078431372549","black","experiment","legacy","legacy","legacy","0","uniform","1","undefined","1","right","50","50","50","0","0","50","50","0","0","50","50","50","0","50","0","Sun Oct 16 23:18:57 2022","The main experiment item","yes","SternbergTask.osexp","/Users/alexisparrish/Documents/Advanced Quant. Methods/Lab 3/Lab 3.1","no","mono","no","18","no","white","no","yes","768","legacy","38","11","/Users/alexisparrish/Documents/Advanced Quant. Methods/Lab 3/Lab 3.2/AP-subject-4.csv","legacy","6 8","Lentiform Loewenfeld","3.3.12","0","n","0","right","right","right","right","NA","844","3257","1010","844","NA","2","legacy","2","1024","2","48000","-16","experiment","4","even","9","317562","314281","315348","4048","81659","315352","NA","4060","80648","319566","320411","316357","7342","319566","NA","Sternberg Task","51","42769","51","yes","1024"
"100","100","841.7692307692307","841.7692307692307","black","experiment","legacy","legacy","legacy","0","uniform","1","undefined","1","left","51","51","51","0","0","51","51","0","0","51","51","51","0","51","0","Sun Oct 16 23:18:57 2022","The main experiment item","yes","SternbergTask.osexp","/Users/alexisparrish/Documents/Advanced Quant. Methods/Lab 3/Lab 3.1","no","mono","no","18","no","white","no","yes","768","legacy","39","11","/Users/alexisparrish/Documents/Advanced Quant. Methods/Lab 3/Lab 3.2/AP-subject-4.csv","legacy","8 9 6 1","Lentiform Loewenfeld","3.3.12","2","y","0","left","right","right","left","NA","1003","3257","1010","1003","NA","2","legacy","4","1024","2","48000","-16","experiment","4","even","9","323704","320422","321491","4048","81659","321495","NA","4060","80648","325708","326711","322499","7342","325708","NA","Sternberg Task","52","43772","52","yes","1024"
"100","100","842.4905660377359","842.4905660377359","black","experiment","legacy","legacy","legacy","0","uniform","1","undefined","1","right","52","52","52","0","0","52","52","0","0","52","52","52","0","52","0","Sun Oct 16 23:18:57 2022","The main experiment item","yes","SternbergTask.osexp","/Users/alexisparrish/Documents/Advanced Quant. Methods/Lab 3/Lab 3.1","no","mono","no","18","no","white","no","yes","768","legacy","40","11","/Users/alexisparrish/Documents/Advanced Quant. Methods/Lab 3/Lab 3.2/AP-subject-4.csv","legacy","6 9 4 5 2","Lentiform Loewenfeld","3.3.12","0","n","0","right","right","right","right","NA","880","3257","1010","880","NA","2","legacy","5","1024","2","48000","-16","experiment","4","even","1","329997","326719","327784","4048","81659","327788","NA","4060","80648","332001","332882","328792","7342","332001","NA","Sternberg Task","53","44652","53","yes","1024"
"100","100","841.574074074074","841.574074074074","black","experiment","legacy","legacy","legacy","0","uniform","1","undefined","1","left","53","53","53","0","0","53","53","0","0","53","53","53","0","53","0","Sun Oct 16 23:18:57 2022","The main experiment item","yes","SternbergTask.osexp","/Users/alexisparrish/Documents/Advanced Quant. Methods/Lab 3/Lab 3.1","no","mono","no","18","no","white","no","yes","768","legacy","41","11","/Users/alexisparrish/Documents/Advanced Quant. Methods/Lab 3/Lab 3.2/AP-subject-4.csv","legacy","8 3","Lentiform Loewenfeld","3.3.12","2","y","0","left","right","right","left","NA","793","3257","1010","793","NA","2","legacy","2","1024","2","48000","-16","experiment","4","even","3","336172","332893","333956","4048","81659","333963","NA","4060","80648","338176","338970","334967","7342","338176","NA","Sternberg Task","54","45445","54","yes","1024"
"100","100","842.2363636363636","842.2363636363636","black","experiment","legacy","legacy","legacy","0","uniform","1","undefined","1","right","54","54","54","0","0","54","54","0","0","54","54","54","0","54","0","Sun Oct 16 23:18:57 2022","The main experiment item","yes","SternbergTask.osexp","/Users/alexisparrish/Documents/Advanced Quant. Methods/Lab 3/Lab 3.1","no","mono","no","18","no","white","no","yes","768","legacy","42","11","/Users/alexisparrish/Documents/Advanced Quant. Methods/Lab 3/Lab 3.2/AP-subject-4.csv","legacy","2 8 6 3 1","Lentiform Loewenfeld","3.3.12","0","n","0","right","right","right","right","NA","878","3257","1010","878","NA","2","legacy","5","1024","2","48000","-16","experiment","4","even","7","342259","338981","340046","4048","81659","340050","NA","4060","80648","344263","345142","341054","7342","344263","NA","Sternberg Task","55","46323","55","yes","1024"
"100","100","843.6607142857143","843.6607142857143","black","experiment","legacy","legacy","legacy","0","uniform","1","undefined","1","right","55","55","55","0","0","55","55","0","0","55","55","55","0","55","0","Sun Oct 16 23:18:57 2022","The main experiment item","yes","SternbergTask.osexp","/Users/alexisparrish/Documents/Advanced Quant. Methods/Lab 3/Lab 3.1","no","mono","no","18","no","white","no","yes","768","legacy","43","11","/Users/alexisparrish/Documents/Advanced Quant. Methods/Lab 3/Lab 3.2/AP-subject-4.csv","legacy","1 3 2 6 9","Lentiform Loewenfeld","3.3.12","0","n","0","right","right","right","right","NA","922","3257","1010","922","NA","2","legacy","5","1024","2","48000","-16","experiment","4","even","5","348434","345153","346220","4048","81659","346225","NA","4060","80648","350438","351361","347229","7342","350438","NA","Sternberg Task","56","47245","56","yes","1024"
"100","100","842.2456140350877","842.2456140350877","black","experiment","legacy","legacy","legacy","0","uniform","1","undefined","1","left","56","56","56","0","0","56","56","0","0","56","56","56","0","56","0","Sun Oct 16 23:18:57 2022","The main experiment item","yes","SternbergTask.osexp","/Users/alexisparrish/Documents/Advanced Quant. Methods/Lab 3/Lab 3.1","no","mono","no","18","no","white","no","yes","768","legacy","44","11","/Users/alexisparrish/Documents/Advanced Quant. Methods/Lab 3/Lab 3.2/AP-subject-4.csv","legacy","9 3 1 2 5","Lentiform Loewenfeld","3.3.12","4","y","0","left","right","right","left","NA","763","3257","1010","763","NA","2","legacy","5","1024","2","48000","-16","experiment","4","even","2","354649","351372","352435","4048","81659","352439","NA","4060","80648","356653","357417","353444","7342","356653","NA","Sternberg Task","57","48008","57","yes","1024"
"100","100","840.6724137931035","840.6724137931035","black","experiment","legacy","legacy","legacy","0","uniform","1","undefined","1","left","57","57","57","0","0","57","57","0","0","57","57","57","0","57","0","Sun Oct 16 23:18:57 2022","The main experiment item","yes","SternbergTask.osexp","/Users/alexisparrish/Documents/Advanced Quant. Methods/Lab 3/Lab 3.1","no","mono","no","18","no","white","no","yes","768","legacy","45","11","/Users/alexisparrish/Documents/Advanced Quant. Methods/Lab 3/Lab 3.2/AP-subject-4.csv","legacy","7","Lentiform Loewenfeld","3.3.12","1","y","0","left","right","right","left","NA","751","3257","1010","751","NA","2","legacy","1","1024","2","48000","-16","experiment","4","even","7","360704","357429","358490","4048","81659","358495","NA","4060","80648","362708","363460","359499","7342","362708","NA","Sternberg Task","58","48759","58","yes","1024"
"100","100","840.1016949152543","840.1016949152543","black","experiment","legacy","legacy","legacy","0","uniform","1","undefined","1","right","58","58","58","0","0","58","58","0","0","58","58","58","0","58","0","Sun Oct 16 23:18:57 2022","The main experiment item","yes","SternbergTask.osexp","/Users/alexisparrish/Documents/Advanced Quant. Methods/Lab 3/Lab 3.1","no","mono","no","18","no","white","no","yes","768","legacy","46","11","/Users/alexisparrish/Documents/Advanced Quant. Methods/Lab 3/Lab 3.2/AP-subject-4.csv","legacy","8 9","Lentiform Loewenfeld","3.3.12","0","n","0","right","right","right","right","NA","807","3257","1010","807","NA","2","legacy","2","1024","2","48000","-16","experiment","4","even","5","366746","363471","364533","4048","81659","364537","NA","4060","80648","368750","369558","365541","7342","368750","NA","Sternberg Task","59","49566","59","yes","1024"
"100","100","843.5333333333333","843.5333333333333","black","experiment","legacy","legacy","legacy","0","uniform","1","undefined","1","right","59","59","59","0","0","59","59","0","0","59","59","59","0","59","0","Sun Oct 16 23:18:57 2022","The main experiment item","yes","SternbergTask.osexp","/Users/alexisparrish/Documents/Advanced Quant. Methods/Lab 3/Lab 3.1","no","mono","no","18","no","white","no","yes","768","legacy","47","11","/Users/alexisparrish/Documents/Advanced Quant. Methods/Lab 3/Lab 3.2/AP-subject-4.csv","legacy","8 5 7 3 6","Lentiform Loewenfeld","3.3.12","0","n","0","right","right","right","right","NA","1046","3257","1010","1046","NA","2","legacy","5","1024","2","48000","-16","experiment","4","even","9","372844","369570","370630","4048","81659","370634","NA","4060","80648","374848","375895","371639","7342","374848","NA","Sternberg Task","60","50612","60","yes","1024"
"100","100","844.9180327868852","844.9180327868852","black","experiment","legacy","legacy","legacy","0","uniform","1","undefined","1","right","60","60","60","0","0","60","60","0","0","60","60","60","0","60","0","Sun Oct 16 23:18:57 2022","The main experiment item","yes","SternbergTask.osexp","/Users/alexisparrish/Documents/Advanced Quant. Methods/Lab 3/Lab 3.1","no","mono","no","18","no","white","no","yes","768","legacy","48","11","/Users/alexisparrish/Documents/Advanced Quant. Methods/Lab 3/Lab 3.2/AP-subject-4.csv","legacy","8 2 1 4 5 9","Lentiform Loewenfeld","3.3.12","0","n","0","right","right","right","right","NA","928","3257","1010","928","NA","2","legacy","6","1024","2","48000","-16","experiment","4","even","7","379183","375907","376969","4048","81659","376974","NA","4060","80648","381187","382116","377978","7342","381187","NA","Sternberg Task","61","51540","61","yes","1024"
"100","100","846.241935483871","846.241935483871","black","experiment","legacy","legacy","legacy","0","uniform","1","undefined","1","left","61","61","61","0","0","61","61","0","0","61","61","61","0","61","0","Sun Oct 16 23:18:57 2022","The main experiment item","yes","SternbergTask.osexp","/Users/alexisparrish/Documents/Advanced Quant. Methods/Lab 3/Lab 3.1","no","mono","no","18","no","white","no","yes","768","legacy","49","11","/Users/alexisparrish/Documents/Advanced Quant. Methods/Lab 3/Lab 3.2/AP-subject-4.csv","legacy","7 8 4 6 9 5","Lentiform Loewenfeld","3.3.12","4","y","0","left","right","right","left","NA","927","3257","1010","927","NA","2","legacy","6","1024","2","48000","-16","experiment","4","even","6","385404","382128","383190","4048","81659","383195","NA","4060","80648","387408","388336","384199","7342","387408","NA","Sternberg Task","62","52467","62","yes","1024"
"100","100","846.2380952380952","846.2380952380952","black","experiment","legacy","legacy","legacy","0","uniform","1","undefined","1","left","62","62","62","0","0","62","62","0","0","62","62","62","0","62","0","Sun Oct 16 23:18:57 2022","The main experiment item","yes","SternbergTask.osexp","/Users/alexisparrish/Documents/Advanced Quant. Methods/Lab 3/Lab 3.1","no","mono","no","18","no","white","no","yes","768","legacy","50","11","/Users/alexisparrish/Documents/Advanced Quant. Methods/Lab 3/Lab 3.2/AP-subject-4.csv","legacy","3 5 7 1","Lentiform Loewenfeld","3.3.12","3","y","0","left","right","right","left","NA","846","3257","1010","846","NA","2","legacy","4","1024","2","48000","-16","experiment","4","even","7","391620","388346","389407","4048","81659","389411","NA","4060","80648","393624","394471","390415","7342","393624","NA","Sternberg Task","63","53313","63","yes","1024"
"100","100","849.625","849.625","black","experiment","legacy","legacy","legacy","0","uniform","1","undefined","1","left","63","63","63","0","0","63","63","0","0","63","63","63","0","63","0","Sun Oct 16 23:18:57 2022","The main experiment item","yes","SternbergTask.osexp","/Users/alexisparrish/Documents/Advanced Quant. Methods/Lab 3/Lab 3.1","no","mono","no","18","no","white","no","yes","768","legacy","51","11","/Users/alexisparrish/Documents/Advanced Quant. Methods/Lab 3/Lab 3.2/AP-subject-4.csv","legacy","7 4 2 6 3 5","Lentiform Loewenfeld","3.3.12","6","y","0","left","right","right","left","NA","1063","3257","1010","1063","NA","2","legacy","6","1024","2","48000","-16","experiment","4","even","5","397756","394482","395542","4048","81659","395547","NA","4060","80648","399760","400824","396551","7342","399760","NA","Sternberg Task","64","54376","64","yes","1024"
"100","100","852.4307692307692","852.4307692307692","black","experiment","legacy","legacy","legacy","0","uniform","1","undefined","1","left","64","64","64","0","0","64","64","0","0","64","64","64","0","64","0","Sun Oct 16 23:18:57 2022","The main experiment item","yes","SternbergTask.osexp","/Users/alexisparrish/Documents/Advanced Quant. Methods/Lab 3/Lab 3.1","no","mono","no","18","no","white","no","yes","768","legacy","52","11","/Users/alexisparrish/Documents/Advanced Quant. Methods/Lab 3/Lab 3.2/AP-subject-4.csv","legacy","2 4 8 5 1 3","Lentiform Loewenfeld","3.3.12","1","y","0","left","right","right","left","NA","1032","3257","1010","1032","NA","2","legacy","6","1024","2","48000","-16","experiment","4","even","2","404109","400835","401896","4048","81659","401900","NA","4060","80648","406113","407146","402904","7342","406113","NA","Sternberg Task","65","55408","65","yes","1024"
"100","100","855.8939393939394","855.8939393939394","black","experiment","legacy","legacy","legacy","0","uniform","1","undefined","1","right","65","65","65","0","0","65","65","0","0","65","65","65","0","65","0","Sun Oct 16 23:18:57 2022","The main experiment item","yes","SternbergTask.osexp","/Users/alexisparrish/Documents/Advanced Quant. Methods/Lab 3/Lab 3.1","no","mono","no","18","no","white","no","yes","768","legacy","53","11","/Users/alexisparrish/Documents/Advanced Quant. Methods/Lab 3/Lab 3.2/AP-subject-4.csv","legacy","7 1 8 4 9 3","Lentiform Loewenfeld","3.3.12","0","n","0","right","right","right","right","NA","1081","3257","1010","1081","NA","2","legacy","6","1024","2","48000","-16","experiment","4","even","6","410436","407157","408222","4048","81659","408227","NA","4060","80648","412440","413522","409231","7342","412440","NA","Sternberg Task","66","56489","66","yes","1024"
"100","100","853.3731343283582","853.3731343283582","black","experiment","legacy","legacy","legacy","0","uniform","1","undefined","1","left","66","66","66","0","0","66","66","0","0","66","66","66","0","66","0","Sun Oct 16 23:18:57 2022","The main experiment item","yes","SternbergTask.osexp","/Users/alexisparrish/Documents/Advanced Quant. Methods/Lab 3/Lab 3.1","no","mono","no","18","no","white","no","yes","768","legacy","54","11","/Users/alexisparrish/Documents/Advanced Quant. Methods/Lab 3/Lab 3.2/AP-subject-4.csv","legacy","4 6 5 8","Lentiform Loewenfeld","3.3.12","1","y","0","left","right","right","left","NA","687","3257","1010","687","NA","2","legacy","4","1024","2","48000","-16","experiment","4","even","4","416813","413533","414600","4048","81659","414604","NA","4060","80648","418817","419506","415608","7342","418817","NA","Sternberg Task","67","57176","67","yes","1024"
"100","100","853.7794117647059","853.7794117647059","black","experiment","legacy","legacy","legacy","0","uniform","1","undefined","1","right","67","67","67","0","0","67","67","0","0","67","67","67","0","67","0","Sun Oct 16 23:18:57 2022","The main experiment item","yes","SternbergTask.osexp","/Users/alexisparrish/Documents/Advanced Quant. Methods/Lab 3/Lab 3.1","no","mono","no","18","no","white","no","yes","768","legacy","55","11","/Users/alexisparrish/Documents/Advanced Quant. Methods/Lab 3/Lab 3.2/AP-subject-4.csv","legacy","2 7 5","Lentiform Loewenfeld","3.3.12","0","n","0","right","right","right","right","NA","881","3257","1010","881","NA","2","legacy","3","1024","2","48000","-16","experiment","4","even","8","422794","419517","420581","4048","81659","420585","NA","4060","80648","424798","425680","421589","7342","424798","NA","Sternberg Task","68","58057","68","yes","1024"
"100","100","854.0289855072464","854.0289855072464","black","experiment","legacy","legacy","legacy","0","uniform","1","undefined","1","left","68","68","68","0","0","68","68","0","0","68","68","68","0","68","0","Sun Oct 16 23:18:57 2022","The main experiment item","yes","SternbergTask.osexp","/Users/alexisparrish/Documents/Advanced Quant. Methods/Lab 3/Lab 3.1","no","mono","no","18","no","white","no","yes","768","legacy","56","11","/Users/alexisparrish/Documents/Advanced Quant. Methods/Lab 3/Lab 3.2/AP-subject-4.csv","legacy","4 6 2 5 1","Lentiform Loewenfeld","3.3.12","5","y","0","left","right","right","left","NA","871","3257","1010","871","NA","2","legacy","5","1024","2","48000","-16","experiment","4","even","1","428967","425692","426754","4048","81659","426758","NA","4060","80648","430971","431843","427762","7342","430971","NA","Sternberg Task","69","58928","69","yes","1024"
"100","100","865.1571428571428","865.1571428571428","black","experiment","legacy","legacy","legacy","0","uniform","1","undefined","1","right","69","69","69","0","0","69","69","0","0","69","69","69","0","69","0","Sun Oct 16 23:18:57 2022","The main experiment item","yes","SternbergTask.osexp","/Users/alexisparrish/Documents/Advanced Quant. Methods/Lab 3/Lab 3.1","no","mono","no","18","no","white","no","yes","768","legacy","57","11","/Users/alexisparrish/Documents/Advanced Quant. Methods/Lab 3/Lab 3.2/AP-subject-4.csv","legacy","1 4 9 3","Lentiform Loewenfeld","3.3.12","0","n","0","right","right","right","right","NA","1633","3257","1010","1633","NA","2","legacy","4","1024","2","48000","-16","experiment","4","even","5","435136","431853","432922","4048","81659","432927","NA","4060","80648","437140","438774","433931","7342","437140","NA","Sternberg Task","70","60561","70","yes","1024"
"100","100","863.5492957746479","863.5492957746479","black","experiment","legacy","legacy","legacy","0","uniform","1","undefined","1","left","70","70","70","0","0","70","70","0","0","70","70","70","0","70","0","Sun Oct 16 23:18:57 2022","The main experiment item","yes","SternbergTask.osexp","/Users/alexisparrish/Documents/Advanced Quant. Methods/Lab 3/Lab 3.1","no","mono","no","18","no","white","no","yes","768","legacy","58","11","/Users/alexisparrish/Documents/Advanced Quant. Methods/Lab 3/Lab 3.2/AP-subject-4.csv","legacy","3 9 6 2","Lentiform Loewenfeld","3.3.12","4","y","0","left","right","right","left","NA","751","3257","1010","751","NA","2","legacy","4","1024","2","48000","-16","experiment","4","even","2","442062","438785","439849","4048","81659","439853","NA","4060","80648","444066","444818","440857","7342","444066","NA","Sternberg Task","71","61312","71","yes","1024"
"100","100","861.4305555555555","861.4305555555555","black","experiment","legacy","legacy","legacy","0","uniform","1","undefined","1","left","71","71","71","0","0","71","71","0","0","71","71","71","0","71","0","Sun Oct 16 23:18:57 2022","The main experiment item","yes","SternbergTask.osexp","/Users/alexisparrish/Documents/Advanced Quant. Methods/Lab 3/Lab 3.1","no","mono","no","18","no","white","no","yes","768","legacy","59","11","/Users/alexisparrish/Documents/Advanced Quant. Methods/Lab 3/Lab 3.2/AP-subject-4.csv","legacy","8 9 5 7 1 6","Lentiform Loewenfeld","3.3.12","4","y","0","left","right","right","left","NA","711","3257","1010","711","NA","2","legacy","6","1024","2","48000","-16","experiment","4","even","7","448111","444828","445897","4048","81659","445902","NA","4060","80648","450115","450827","446906","7342","450115","NA","Sternberg Task","72","62023","72","yes","1024"
"100","100","861.3287671232877","861.3287671232877","black","experiment","legacy","legacy","legacy","0","uniform","1","undefined","1","right","72","72","72","0","0","72","72","0","0","72","72","72","0","72","0","Sun Oct 16 23:18:57 2022","The main experiment item","yes","SternbergTask.osexp","/Users/alexisparrish/Documents/Advanced Quant. Methods/Lab 3/Lab 3.1","no","mono","no","18","no","white","no","yes","768","legacy","60","11","/Users/alexisparrish/Documents/Advanced Quant. Methods/Lab 3/Lab 3.2/AP-subject-4.csv","legacy","5 7 3","Lentiform Loewenfeld","3.3.12","0","n","0","right","right","right","right","NA","854","3257","1010","854","NA","2","legacy","3","1024","2","48000","-16","experiment","4","even","9","454113","450839","451899","4048","81659","451904","NA","4060","80648","456117","456972","452908","7342","456117","NA","Sternberg Task","73","62877","73","yes","1024"
"100","100","859.5","859.5","black","experiment","legacy","legacy","legacy","0","uniform","1","undefined","1","left","73","73","73","0","0","73","73","0","0","73","73","73","0","73","0","Sun Oct 16 23:18:57 2022","The main experiment item","yes","SternbergTask.osexp","/Users/alexisparrish/Documents/Advanced Quant. Methods/Lab 3/Lab 3.1","no","mono","no","18","no","white","no","yes","768","legacy","61","11","/Users/alexisparrish/Documents/Advanced Quant. Methods/Lab 3/Lab 3.2/AP-subject-4.csv","legacy","7 8 6 3 1","Lentiform Loewenfeld","3.3.12","5","y","0","left","right","right","left","NA","726","3257","1010","726","NA","2","legacy","5","1024","2","48000","-16","experiment","4","even","1","460264","456984","458051","4048","81659","458055","NA","4060","80648","462268","462995","459059","7342","462268","NA","Sternberg Task","74","63603","74","yes","1024"
"100","100","859.2666666666667","859.2666666666667","black","experiment","legacy","legacy","legacy","0","uniform","1","undefined","1","right","74","74","74","0","0","74","74","0","0","74","74","74","0","74","0","Sun Oct 16 23:18:57 2022","The main experiment item","yes","SternbergTask.osexp","/Users/alexisparrish/Documents/Advanced Quant. Methods/Lab 3/Lab 3.1","no","mono","no","18","no","white","no","yes","768","legacy","62","11","/Users/alexisparrish/Documents/Advanced Quant. Methods/Lab 3/Lab 3.2/AP-subject-4.csv","legacy","3 9 1","Lentiform Loewenfeld","3.3.12","0","n","0","right","right","right","right","NA","842","3257","1010","842","NA","2","legacy","3","1024","2","48000","-16","experiment","4","even","7","466285","463007","464071","4048","81659","464076","NA","4060","80648","468289","469132","465080","7342","468289","NA","Sternberg Task","75","64445","75","yes","1024"
"100","100","857.4605263157895","857.4605263157895","black","experiment","legacy","legacy","legacy","0","uniform","1","undefined","1","left","75","75","75","0","0","75","75","0","0","75","75","75","0","75","0","Sun Oct 16 23:18:57 2022","The main experiment item","yes","SternbergTask.osexp","/Users/alexisparrish/Documents/Advanced Quant. Methods/Lab 3/Lab 3.1","no","mono","no","18","no","white","no","yes","768","legacy","63","11","/Users/alexisparrish/Documents/Advanced Quant. Methods/Lab 3/Lab 3.2/AP-subject-4.csv","legacy","5 7 3 6 2","Lentiform Loewenfeld","3.3.12","5","y","0","left","right","right","left","NA","722","3257","1010","722","NA","2","legacy","5","1024","2","48000","-16","experiment","4","even","2","472421","469144","470207","4048","81659","470212","NA","4060","80648","474425","475148","471216","7342","474425","NA","Sternberg Task","76","65167","76","yes","1024"
"100","100","857.2467532467532","857.2467532467532","black","experiment","legacy","legacy","legacy","0","uniform","1","undefined","1","left","76","76","76","0","0","76","76","0","0","76","76","76","0","76","0","Sun Oct 16 23:18:57 2022","The main experiment item","yes","SternbergTask.osexp","/Users/alexisparrish/Documents/Advanced Quant. Methods/Lab 3/Lab 3.1","no","mono","no","18","no","white","no","yes","768","legacy","64","11","/Users/alexisparrish/Documents/Advanced Quant. Methods/Lab 3/Lab 3.2/AP-subject-4.csv","legacy","6 7 9 3 1 2","Lentiform Loewenfeld","3.3.12","1","y","0","left","right","right","left","NA","841","3257","1010","841","NA","2","legacy","6","1024","2","48000","-16","experiment","4","even","6","478443","475161","476230","4048","81659","476234","NA","4060","80648","480447","481289","477238","7342","480447","NA","Sternberg Task","77","66008","77","yes","1024"
"100","100","859.3974358974359","859.3974358974359","black","experiment","legacy","legacy","legacy","0","uniform","1","undefined","1","right","77","77","77","0","0","77","77","0","0","77","77","77","0","77","0","Sun Oct 16 23:18:57 2022","The main experiment item","yes","SternbergTask.osexp","/Users/alexisparrish/Documents/Advanced Quant. Methods/Lab 3/Lab 3.1","no","mono","no","18","no","white","no","yes","768","legacy","65","11","/Users/alexisparrish/Documents/Advanced Quant. Methods/Lab 3/Lab 3.2/AP-subject-4.csv","legacy","7 9 1 6","Lentiform Loewenfeld","3.3.12","0","n","0","right","right","right","right","NA","1025","3257","1010","1025","NA","2","legacy","4","1024","2","48000","-16","experiment","4","even","4","484581","481300","482367","4048","81659","482372","NA","4060","80648","486585","487612","483376","7342","486585","NA","Sternberg Task","78","67033","78","yes","1024"
"100","100","856.620253164557","856.620253164557","black","experiment","legacy","legacy","legacy","0","uniform","1","undefined","1","left","78","78","78","0","0","78","78","0","0","78","78","78","0","78","0","Sun Oct 16 23:18:57 2022","The main experiment item","yes","SternbergTask.osexp","/Users/alexisparrish/Documents/Advanced Quant. Methods/Lab 3/Lab 3.1","no","mono","no","18","no","white","no","yes","768","legacy","66","11","/Users/alexisparrish/Documents/Advanced Quant. Methods/Lab 3/Lab 3.2/AP-subject-4.csv","legacy","2 6 1 7 4","Lentiform Loewenfeld","3.3.12","2","y","0","left","right","right","left","NA","640","3257","1010","640","NA","2","legacy","5","1024","2","48000","-16","experiment","4","even","6","490898","487620","488684","4048","81659","488689","NA","4060","80648","492902","493543","489693","7342","492902","NA","Sternberg Task","79","67673","79","yes","1024"
"100","100","857","857","black","experiment","legacy","legacy","legacy","0","uniform","1","undefined","1","right","79","79","79","0","0","79","79","0","0","79","79","79","0","79","0","Sun Oct 16 23:18:57 2022","The main experiment item","yes","SternbergTask.osexp","/Users/alexisparrish/Documents/Advanced Quant. Methods/Lab 3/Lab 3.1","no","mono","no","18","no","white","no","yes","768","legacy","67","11","/Users/alexisparrish/Documents/Advanced Quant. Methods/Lab 3/Lab 3.2/AP-subject-4.csv","legacy","6 8 4","Lentiform Loewenfeld","3.3.12","0","n","0","right","right","right","right","NA","887","3257","1010","887","NA","2","legacy","3","1024","2","48000","-16","experiment","4","even","1","496835","493555","494621","4048","81659","494626","NA","4060","80648","498839","499727","495630","7342","498839","NA","Sternberg Task","80","68560","80","yes","1024"
"100","100","855.8271604938271","855.8271604938271","black","experiment","legacy","legacy","legacy","0","uniform","1","undefined","1","left","80","80","80","0","0","80","80","0","0","80","80","80","0","80","0","Sun Oct 16 23:18:57 2022","The main experiment item","yes","SternbergTask.osexp","/Users/alexisparrish/Documents/Advanced Quant. Methods/Lab 3/Lab 3.1","no","mono","no","18","no","white","no","yes","768","legacy","68","11","/Users/alexisparrish/Documents/Advanced Quant. Methods/Lab 3/Lab 3.2/AP-subject-4.csv","legacy","6 9 3 1","Lentiform Loewenfeld","3.3.12","4","y","0","left","right","right","left","NA","762","3257","1010","762","NA","2","legacy","4","1024","2","48000","-16","experiment","4","even","1","503021","499739","500807","4048","81659","500812","NA","4060","80648","505025","505788","501816","7342","505025","NA","Sternberg Task","81","69322","81","yes","1024"
"100","100","854.7560975609756","854.7560975609756","black","experiment","legacy","legacy","legacy","0","uniform","1","undefined","1","left","81","81","81","0","0","81","81","0","0","81","81","81","0","81","0","Sun Oct 16 23:18:57 2022","The main experiment item","yes","SternbergTask.osexp","/Users/alexisparrish/Documents/Advanced Quant. Methods/Lab 3/Lab 3.1","no","mono","no","18","no","white","no","yes","768","legacy","69","11","/Users/alexisparrish/Documents/Advanced Quant. Methods/Lab 3/Lab 3.2/AP-subject-4.csv","legacy","5 2 6","Lentiform Loewenfeld","3.3.12","2","y","0","left","right","right","left","NA","768","3257","1010","768","NA","2","legacy","3","1024","2","48000","-16","experiment","4","even","2","509078","505798","506865","4048","81659","506869","NA","4060","80648","511082","511851","507873","7342","511082","NA","Sternberg Task","82","70090","82","yes","1024"
"100","100","856.1204819277109","856.1204819277109","black","experiment","legacy","legacy","legacy","0","uniform","1","undefined","1","right","82","82","82","0","0","82","82","0","0","82","82","82","0","82","0","Sun Oct 16 23:18:57 2022","The main experiment item","yes","SternbergTask.osexp","/Users/alexisparrish/Documents/Advanced Quant. Methods/Lab 3/Lab 3.1","no","mono","no","18","no","white","no","yes","768","legacy","70","11","/Users/alexisparrish/Documents/Advanced Quant. Methods/Lab 3/Lab 3.2/AP-subject-4.csv","legacy","8 4 3 5","Lentiform Loewenfeld","3.3.12","0","n","0","right","right","right","right","NA","968","3257","1010","968","NA","2","legacy","4","1024","2","48000","-16","experiment","4","even","6","515143","511862","512930","4048","81659","512934","NA","4060","80648","517147","518116","513938","7342","517147","NA","Sternberg Task","83","71058","83","yes","1024"
"100","100","856.0119047619048","856.0119047619048","black","experiment","legacy","legacy","legacy","0","uniform","1","undefined","1","left","83","83","83","0","0","83","83","0","0","83","83","83","0","83","0","Sun Oct 16 23:18:57 2022","The main experiment item","yes","SternbergTask.osexp","/Users/alexisparrish/Documents/Advanced Quant. Methods/Lab 3/Lab 3.1","no","mono","no","18","no","white","no","yes","768","legacy","71","11","/Users/alexisparrish/Documents/Advanced Quant. Methods/Lab 3/Lab 3.2/AP-subject-4.csv","legacy","1 4 9 3 2 5","Lentiform Loewenfeld","3.3.12","3","y","0","left","right","right","left","NA","847","3257","1010","847","NA","2","legacy","6","1024","2","48000","-16","experiment","4","even","9","521405","518126","519191","4048","81659","519195","NA","4060","80648","523409","524257","520200","7342","523409","NA","Sternberg Task","84","71905","84","yes","1024"
"100","100","855.5294117647059","855.5294117647059","black","experiment","legacy","legacy","legacy","0","uniform","1","undefined","1","right","84","84","84","0","0","84","84","0","0","84","84","84","0","84","0","Sun Oct 16 23:18:57 2022","The main experiment item","yes","SternbergTask.osexp","/Users/alexisparrish/Documents/Advanced Quant. Methods/Lab 3/Lab 3.1","no","mono","no","18","no","white","no","yes","768","legacy","72","11","/Users/alexisparrish/Documents/Advanced Quant. Methods/Lab 3/Lab 3.2/AP-subject-4.csv","legacy","1 4 3 6 5","Lentiform Loewenfeld","3.3.12","0","n","0","right","right","right","right","NA","815","3257","1010","815","NA","2","legacy","5","1024","2","48000","-16","experiment","4","even","8","527546","524269","525332","4048","81659","525337","NA","4060","80648","529550","530366","526341","7342","529550","NA","Sternberg Task","85","72720","85","yes","1024"
"100","100","859.6744186046511","859.6744186046511","black","experiment","legacy","legacy","legacy","0","uniform","1","undefined","1","left","85","85","85","0","0","85","85","0","0","85","85","85","0","85","0","Sun Oct 16 23:18:57 2022","The main experiment item","yes","SternbergTask.osexp","/Users/alexisparrish/Documents/Advanced Quant. Methods/Lab 3/Lab 3.1","no","mono","no","18","no","white","no","yes","768","legacy","73","11","/Users/alexisparrish/Documents/Advanced Quant. Methods/Lab 3/Lab 3.2/AP-subject-4.csv","legacy","4 9 7 8 5 3","Lentiform Loewenfeld","3.3.12","4","y","0","left","right","right","left","NA","1212","3257","1010","1212","NA","2","legacy","6","1024","2","48000","-16","experiment","4","even","8","533657","530378","531444","4048","81659","531448","NA","4060","80648","535661","536874","532452","7342","535661","NA","Sternberg Task","86","73932","86","yes","1024"
"100","100","859.5402298850574","859.5402298850574","black","experiment","legacy","legacy","legacy","0","uniform","1","undefined","1","right","86","86","86","0","0","86","86","0","0","86","86","86","0","86","0","Sun Oct 16 23:18:57 2022","The main experiment item","yes","SternbergTask.osexp","/Users/alexisparrish/Documents/Advanced Quant. Methods/Lab 3/Lab 3.1","no","mono","no","18","no","white","no","yes","768","legacy","74","11","/Users/alexisparrish/Documents/Advanced Quant. Methods/Lab 3/Lab 3.2/AP-subject-4.csv","legacy","6 7 5 9","Lentiform Loewenfeld","3.3.12","0","n","0","right","right","right","right","NA","848","3257","1010","848","NA","2","legacy","4","1024","2","48000","-16","experiment","4","even","2","540163","536885","537950","4048","81659","537954","NA","4060","80648","542167","543016","538958","7342","542167","NA","Sternberg Task","87","74780","87","yes","1024"
"100","100","858.5340909090909","858.5340909090909","black","experiment","legacy","legacy","legacy","0","uniform","1","undefined","1","right","87","87","87","0","0","87","87","0","0","87","87","87","0","87","0","Sun Oct 16 23:18:57 2022","The main experiment item","yes","SternbergTask.osexp","/Users/alexisparrish/Documents/Advanced Quant. Methods/Lab 3/Lab 3.1","no","mono","no","18","no","white","no","yes","768","legacy","75","11","/Users/alexisparrish/Documents/Advanced Quant. Methods/Lab 3/Lab 3.2/AP-subject-4.csv","legacy","4 1","Lentiform Loewenfeld","3.3.12","0","n","0","right","right","right","right","NA","771","3257","1010","771","NA","2","legacy","2","1024","2","48000","-16","experiment","4","even","6","546305","543027","544090","4048","81659","544095","NA","4060","80648","548309","549081","545099","7342","548309","NA","Sternberg Task","88","75551","88","yes","1024"
"100","100","860","860","black","experiment","legacy","legacy","legacy","0","uniform","1","undefined","1","right","88","88","88","0","0","88","88","0","0","88","88","88","0","88","0","Sun Oct 16 23:18:57 2022","The main experiment item","yes","SternbergTask.osexp","/Users/alexisparrish/Documents/Advanced Quant. Methods/Lab 3/Lab 3.1","no","mono","no","18","no","white","no","yes","768","legacy","76","11","/Users/alexisparrish/Documents/Advanced Quant. Methods/Lab 3/Lab 3.2/AP-subject-4.csv","legacy","4 2 7 6 1 3","Lentiform Loewenfeld","3.3.12","0","n","0","right","right","right","right","NA","989","3257","1010","989","NA","2","legacy","6","1024","2","48000","-16","experiment","4","even","8","552364","549088","550150","4048","81659","550154","NA","4060","80648","554368","555358","551159","7342","554368","NA","Sternberg Task","89","76540","89","yes","1024"
"100","100","860.5333333333333","860.5333333333333","black","experiment","legacy","legacy","legacy","0","uniform","1","undefined","1","right","89","89","89","0","0","89","89","0","0","89","89","89","0","89","0","Sun Oct 16 23:18:57 2022","The main experiment item","yes","SternbergTask.osexp","/Users/alexisparrish/Documents/Advanced Quant. Methods/Lab 3/Lab 3.1","no","mono","no","18","no","white","no","yes","768","legacy","77","11","/Users/alexisparrish/Documents/Advanced Quant. Methods/Lab 3/Lab 3.2/AP-subject-4.csv","legacy","2 6 4 3 9","Lentiform Loewenfeld","3.3.12","0","n","0","right","right","right","right","NA","908","3257","1010","908","NA","2","legacy","5","1024","2","48000","-16","experiment","4","even","1","558648","555370","556435","4048","81659","556439","NA","4060","80648","560652","561561","557443","7342","560652","NA","Sternberg Task","90","77448","90","yes","1024"
"100","100","859.5054945054945","859.5054945054945","black","experiment","legacy","legacy","legacy","0","uniform","1","undefined","1","left","90","90","90","0","0","90","90","0","0","90","90","90","0","90","0","Sun Oct 16 23:18:57 2022","The main experiment item","yes","SternbergTask.osexp","/Users/alexisparrish/Documents/Advanced Quant. Methods/Lab 3/Lab 3.1","no","mono","no","18","no","white","no","yes","768","legacy","78","11","/Users/alexisparrish/Documents/Advanced Quant. Methods/Lab 3/Lab 3.2/AP-subject-4.csv","legacy","8 7 3","Lentiform Loewenfeld","3.3.12","1","y","0","left","right","right","left","NA","767","3257","1010","767","NA","2","legacy","3","1024","2","48000","-16","experiment","4","even","8","564852","561572","562638","4048","81659","562643","NA","4060","80648","566856","567624","563647","7342","566856","NA","Sternberg Task","91","78215","91","yes","1024"
"100","100","858.6739130434783","858.6739130434783","black","experiment","legacy","legacy","legacy","0","uniform","1","undefined","1","right","91","91","91","0","0","91","91","0","0","91","91","91","0","91","0","Sun Oct 16 23:18:57 2022","The main experiment item","yes","SternbergTask.osexp","/Users/alexisparrish/Documents/Advanced Quant. Methods/Lab 3/Lab 3.1","no","mono","no","18","no","white","no","yes","768","legacy","79","11","/Users/alexisparrish/Documents/Advanced Quant. Methods/Lab 3/Lab 3.2/AP-subject-4.csv","legacy","7 8 6 1","Lentiform Loewenfeld","3.3.12","0","n","0","right","right","right","right","NA","783","3257","1010","783","NA","2","legacy","4","1024","2","48000","-16","experiment","4","even","3","570909","567635","568695","4048","81659","568700","NA","4060","80648","572913","573697","569704","7342","572913","NA","Sternberg Task","92","78998","92","yes","1024"
"100","100","857.5483870967741","857.5483870967741","black","experiment","legacy","legacy","legacy","0","uniform","1","undefined","1","left","92","92","92","0","0","92","92","0","0","92","92","92","0","92","0","Sun Oct 16 23:18:57 2022","The main experiment item","yes","SternbergTask.osexp","/Users/alexisparrish/Documents/Advanced Quant. Methods/Lab 3/Lab 3.1","no","mono","no","18","no","white","no","yes","768","legacy","80","11","/Users/alexisparrish/Documents/Advanced Quant. Methods/Lab 3/Lab 3.2/AP-subject-4.csv","legacy","9 5 3 8 4","Lentiform Loewenfeld","3.3.12","1","y","0","left","right","right","left","NA","754","3257","1010","754","NA","2","legacy","5","1024","2","48000","-16","experiment","4","even","9","576985","573709","574771","4048","81659","574776","NA","4060","80648","578989","579744","575780","7342","578989","NA","Sternberg Task","93","79752","93","yes","1024"
"100","100","860.9148936170212","860.9148936170212","black","experiment","legacy","legacy","legacy","0","uniform","1","undefined","1","right","93","93","93","0","0","93","93","0","0","93","93","93","0","93","0","Sun Oct 16 23:18:57 2022","The main experiment item","yes","SternbergTask.osexp","/Users/alexisparrish/Documents/Advanced Quant. Methods/Lab 3/Lab 3.1","no","mono","no","18","no","white","no","yes","768","legacy","81","11","/Users/alexisparrish/Documents/Advanced Quant. Methods/Lab 3/Lab 3.2/AP-subject-4.csv","legacy","5 3 2 6 9 8","Lentiform Loewenfeld","3.3.12","0","n","0","right","right","right","right","NA","1174","3257","1010","1174","NA","2","legacy","6","1024","2","48000","-16","experiment","4","even","4","583038","579756","580824","4048","81659","580829","NA","4060","80648","585042","586217","581833","7342","585042","NA","Sternberg Task","94","80926","94","yes","1024"
"100","100","859.2105263157895","859.2105263157895","black","experiment","legacy","legacy","legacy","0","uniform","1","undefined","1","left","94","94","94","0","0","94","94","0","0","94","94","94","0","94","0","Sun Oct 16 23:18:57 2022","The main experiment item","yes","SternbergTask.osexp","/Users/alexisparrish/Documents/Advanced Quant. Methods/Lab 3/Lab 3.1","no","mono","no","18","no","white","no","yes","768","legacy","82","11","/Users/alexisparrish/Documents/Advanced Quant. Methods/Lab 3/Lab 3.2/AP-subject-4.csv","legacy","9 5 8 1","Lentiform Loewenfeld","3.3.12","2","y","0","left","right","right","left","NA","699","3257","1010","699","NA","2","legacy","4","1024","2","48000","-16","experiment","4","even","5","589506","586228","587292","4048","81659","587296","NA","4060","80648","591510","592211","588301","7342","591510","NA","Sternberg Task","95","81625","95","yes","1024"
"100","100","861.8125","861.8125","black","experiment","legacy","legacy","legacy","0","uniform","1","undefined","1","right","95","95","95","0","0","95","95","0","0","95","95","95","0","95","0","Sun Oct 16 23:18:57 2022","The main experiment item","yes","SternbergTask.osexp","/Users/alexisparrish/Documents/Advanced Quant. Methods/Lab 3/Lab 3.1","no","mono","no","18","no","white","no","yes","768","legacy","83","11","/Users/alexisparrish/Documents/Advanced Quant. Methods/Lab 3/Lab 3.2/AP-subject-4.csv","legacy","5 3 8 7 2 4","Lentiform Loewenfeld","3.3.12","0","n","0","right","right","right","right","NA","1109","3257","1010","1109","NA","2","legacy","6","1024","2","48000","-16","experiment","4","even","9","595503","592222","593290","4048","81659","593294","NA","4060","80648","597507","598617","594298","7342","597507","NA","Sternberg Task","96","82734","96","yes","1024"
"100","100","861.2886597938144","861.2886597938144","black","experiment","legacy","legacy","legacy","0","uniform","1","undefined","1","left","96","96","96","0","0","96","96","0","0","96","96","96","0","96","0","Sun Oct 16 23:18:57 2022","The main experiment item","yes","SternbergTask.osexp","/Users/alexisparrish/Documents/Advanced Quant. Methods/Lab 3/Lab 3.1","no","mono","no","18","no","white","no","yes","768","legacy","84","11","/Users/alexisparrish/Documents/Advanced Quant. Methods/Lab 3/Lab 3.2/AP-subject-4.csv","legacy","9 1 6 7 8","Lentiform Loewenfeld","3.3.12","1","y","0","left","right","right","left","NA","811","3257","1010","811","NA","2","legacy","5","1024","2","48000","-16","experiment","4","even","9","601905","598627","599691","4048","81659","599696","NA","4060","80648","603909","604721","600700","7342","603909","NA","Sternberg Task","97","83545","97","yes","1024"
"100","100","862.734693877551","862.734693877551","black","experiment","legacy","legacy","legacy","0","uniform","1","undefined","1","right","97","97","97","0","0","97","97","0","0","97","97","97","0","97","0","Sun Oct 16 23:18:57 2022","The main experiment item","yes","SternbergTask.osexp","/Users/alexisparrish/Documents/Advanced Quant. Methods/Lab 3/Lab 3.1","no","mono","no","18","no","white","no","yes","768","legacy","85","11","/Users/alexisparrish/Documents/Advanced Quant. Methods/Lab 3/Lab 3.2/AP-subject-4.csv","legacy","1 4 9 2 5","Lentiform Loewenfeld","3.3.12","0","n","0","right","right","right","right","NA","1003","3257","1010","1003","NA","2","legacy","5","1024","2","48000","-16","experiment","4","even","7","608014","604733","605801","4048","81659","605805","NA","4060","80648","610018","611022","606809","7342","610018","NA","Sternberg Task","98","84548","98","yes","1024"
"100","100","864.4141414141415","864.4141414141415","black","experiment","legacy","legacy","legacy","0","uniform","1","undefined","1","right","98","98","98","0","0","98","98","0","0","98","98","98","0","98","0","Sun Oct 16 23:18:57 2022","The main experiment item","yes","SternbergTask.osexp","/Users/alexisparrish/Documents/Advanced Quant. Methods/Lab 3/Lab 3.1","no","mono","no","18","no","white","no","yes","768","legacy","86","11","/Users/alexisparrish/Documents/Advanced Quant. Methods/Lab 3/Lab 3.2/AP-subject-4.csv","legacy","7 6 4 8 1 2","Lentiform Loewenfeld","3.3.12","0","n","0","right","right","right","right","NA","1029","3257","1010","1029","NA","2","legacy","6","1024","2","48000","-16","experiment","4","even","9","614311","611034","612099","4048","81659","612103","NA","4060","80648","616315","617345","613107","7342","616315","NA","Sternberg Task","99","85577","99","yes","1024"
"100","100","862.94","862.94","black","experiment","legacy","legacy","legacy","0","uniform","1","undefined","1","left","99","99","99","0","0","99","99","0","0","99","99","99","0","99","0","Sun Oct 16 23:18:57 2022","The main experiment item","yes","SternbergTask.osexp","/Users/alexisparrish/Documents/Advanced Quant. Methods/Lab 3/Lab 3.1","no","mono","no","18","no","white","no","yes","768","legacy","87","11","/Users/alexisparrish/Documents/Advanced Quant. Methods/Lab 3/Lab 3.2/AP-subject-4.csv","legacy","6 2","Lentiform Loewenfeld","3.3.12","1","y","0","left","right","right","left","NA","717","3257","1010","717","NA","2","legacy","2","1024","2","48000","-16","experiment","4","even","6","620634","617356","618420","4048","81659","618425","NA","4060","80648","622638","623356","619429","7342","622638","NA","Sternberg Task","100","86294","100","yes","1024"
"100","100","862.6534653465346","862.6534653465346","black","experiment","legacy","legacy","legacy","0","uniform","1","undefined","1","left","100","100","100","0","0","100","100","0","0","100","100","100","0","100","0","Sun Oct 16 23:18:57 2022","The main experiment item","yes","SternbergTask.osexp","/Users/alexisparrish/Documents/Advanced Quant. Methods/Lab 3/Lab 3.1","no","mono","no","18","no","white","no","yes","768","legacy","88","11","/Users/alexisparrish/Documents/Advanced Quant. Methods/Lab 3/Lab 3.2/AP-subject-4.csv","legacy","7 6","Lentiform Loewenfeld","3.3.12","2","y","0","left","right","right","left","NA","834","3257","1010","834","NA","2","legacy","2","1024","2","48000","-16","experiment","4","even","6","626642","623363","624430","4048","81659","624434","NA","4060","80648","628646","629481","625438","7342","628646","NA","Sternberg Task","101","87128","101","yes","1024"
"100","100","861.9901960784314","861.9901960784314","black","experiment","legacy","legacy","legacy","0","uniform","1","undefined","1","left","101","101","101","0","0","101","101","0","0","101","101","101","0","101","0","Sun Oct 16 23:18:57 2022","The main experiment item","yes","SternbergTask.osexp","/Users/alexisparrish/Documents/Advanced Quant. Methods/Lab 3/Lab 3.1","no","mono","no","18","no","white","no","yes","768","legacy","89","11","/Users/alexisparrish/Documents/Advanced Quant. Methods/Lab 3/Lab 3.2/AP-subject-4.csv","legacy","6 1 2","Lentiform Loewenfeld","3.3.12","3","y","0","left","right","right","left","NA","795","3257","1010","795","NA","2","legacy","3","1024","2","48000","-16","experiment","4","even","2","632774","629493","630560","4048","81659","630565","NA","4060","80648","634778","635574","631569","7342","634778","NA","Sternberg Task","102","87923","102","yes","1024"
"100","100","861.6310679611651","861.6310679611651","black","experiment","legacy","legacy","legacy","0","uniform","1","undefined","1","right","102","102","102","0","0","102","102","0","0","102","102","102","0","102","0","Sun Oct 16 23:18:57 2022","The main experiment item","yes","SternbergTask.osexp","/Users/alexisparrish/Documents/Advanced Quant. Methods/Lab 3/Lab 3.1","no","mono","no","18","no","white","no","yes","768","legacy","90","11","/Users/alexisparrish/Documents/Advanced Quant. Methods/Lab 3/Lab 3.2/AP-subject-4.csv","legacy","5 9 2 3","Lentiform Loewenfeld","3.3.12","0","n","0","right","right","right","right","NA","825","3257","1010","825","NA","2","legacy","4","1024","2","48000","-16","experiment","4","even","8","638866","635586","636652","4048","81659","636656","NA","4060","80648","640870","641696","637661","7342","640870","NA","Sternberg Task","103","88748","103","yes","1024"
"100","100","863.1538461538462","863.1538461538462","black","experiment","legacy","legacy","legacy","0","uniform","1","undefined","1","right","103","103","103","0","0","103","103","0","0","103","103","103","0","103","0","Sun Oct 16 23:18:57 2022","The main experiment item","yes","SternbergTask.osexp","/Users/alexisparrish/Documents/Advanced Quant. Methods/Lab 3/Lab 3.1","no","mono","no","18","no","white","no","yes","768","legacy","91","11","/Users/alexisparrish/Documents/Advanced Quant. Methods/Lab 3/Lab 3.2/AP-subject-4.csv","legacy","8 5 4 2 9 6","Lentiform Loewenfeld","3.3.12","0","n","0","right","right","right","right","NA","1020","3257","1010","1020","NA","2","legacy","6","1024","2","48000","-16","experiment","4","even","3","644985","641708","642771","4048","81659","642776","NA","4060","80648","646989","648010","643780","7342","646989","NA","Sternberg Task","104","89768","104","yes","1024"
"100","100","866.6476190476191","866.6476190476191","black","experiment","legacy","legacy","legacy","0","uniform","1","undefined","1","right","104","104","104","0","0","104","104","0","0","104","104","104","0","104","0","Sun Oct 16 23:18:57 2022","The main experiment item","yes","SternbergTask.osexp","/Users/alexisparrish/Documents/Advanced Quant. Methods/Lab 3/Lab 3.1","no","mono","no","18","no","white","no","yes","768","legacy","92","11","/Users/alexisparrish/Documents/Advanced Quant. Methods/Lab 3/Lab 3.2/AP-subject-4.csv","legacy","2 8 7 9 5 3","Lentiform Loewenfeld","3.3.12","0","n","0","right","right","right","right","NA","1230","3257","1010","1230","NA","2","legacy","6","1024","2","48000","-16","experiment","4","even","6","651301","648021","649087","4048","81659","649092","NA","4060","80648","653305","654537","650096","7342","653305","NA","Sternberg Task","105","90998","105","yes","1024"
"100","100","866.8207547169811","866.8207547169811","black","experiment","legacy","legacy","legacy","0","uniform","1","undefined","1","right","105","105","105","0","0","105","105","0","0","105","105","105","0","105","0","Sun Oct 16 23:18:57 2022","The main experiment item","yes","SternbergTask.osexp","/Users/alexisparrish/Documents/Advanced Quant. Methods/Lab 3/Lab 3.1","no","mono","no","18","no","white","no","yes","768","legacy","93","11","/Users/alexisparrish/Documents/Advanced Quant. Methods/Lab 3/Lab 3.2/AP-subject-4.csv","legacy","2 5 1 4","Lentiform Loewenfeld","3.3.12","0","n","0","right","right","right","right","NA","885","3257","1010","885","NA","2","legacy","4","1024","2","48000","-16","experiment","4","even","6","657826","654549","655613","4048","81659","655617","NA","4060","80648","659830","660716","656621","7342","659830","NA","Sternberg Task","106","91883","106","yes","1024"
"100","100","865.981308411215","865.981308411215","black","experiment","legacy","legacy","legacy","0","uniform","1","undefined","1","left","106","106","106","0","0","106","106","0","0","106","106","106","0","106","0","Sun Oct 16 23:18:57 2022","The main experiment item","yes","SternbergTask.osexp","/Users/alexisparrish/Documents/Advanced Quant. Methods/Lab 3/Lab 3.1","no","mono","no","18","no","white","no","yes","768","legacy","94","11","/Users/alexisparrish/Documents/Advanced Quant. Methods/Lab 3/Lab 3.2/AP-subject-4.csv","legacy","3 5 9 6 2 4","Lentiform Loewenfeld","3.3.12","1","y","0","left","right","right","left","NA","777","3257","1010","777","NA","2","legacy","6","1024","2","48000","-16","experiment","4","even","3","664001","660727","661787","4048","81659","661791","NA","4060","80648","666005","666783","662796","7342","666005","NA","Sternberg Task","107","92660","107","yes","1024"
"100","100","865.2222222222222","865.2222222222222","black","experiment","legacy","legacy","legacy","0","uniform","1","undefined","1","left","107","107","107","0","0","107","107","0","0","107","107","107","0","107","0","Sun Oct 16 23:18:57 2022","The main experiment item","yes","SternbergTask.osexp","/Users/alexisparrish/Documents/Advanced Quant. Methods/Lab 3/Lab 3.1","no","mono","no","18","no","white","no","yes","768","legacy","95","11","/Users/alexisparrish/Documents/Advanced Quant. Methods/Lab 3/Lab 3.2/AP-subject-4.csv","legacy","5 7 8 2 3 8","Lentiform Loewenfeld","3.3.12","5","y","0","left","right","right","left","NA","784","3257","1010","784","NA","2","legacy","6","1024","2","48000","-16","experiment","4","even","3","670072","666792","667859","4048","81659","667863","NA","4060","80648","672076","672862","668867","7342","672076","NA","Sternberg Task","108","93444","108","yes","1024"
"100","100","865.1743119266055","865.1743119266055","black","experiment","legacy","legacy","legacy","0","uniform","1","undefined","1","right","108","108","108","0","0","108","108","0","0","108","108","108","0","108","0","Sun Oct 16 23:18:57 2022","The main experiment item","yes","SternbergTask.osexp","/Users/alexisparrish/Documents/Advanced Quant. Methods/Lab 3/Lab 3.1","no","mono","no","18","no","white","no","yes","768","legacy","96","11","/Users/alexisparrish/Documents/Advanced Quant. Methods/Lab 3/Lab 3.2/AP-subject-4.csv","legacy","2 3 8 5 6 7","Lentiform Loewenfeld","3.3.12","0","n","0","right","right","right","right","NA","860","3257","1010","860","NA","2","legacy","6","1024","2","48000","-16","experiment","4","even","1","676155","672873","673941","4048","81659","673946","NA","4060","80648","678159","679020","674950","7342","678159","NA","Sternberg Task","109","94304","109","yes","1024"
"100","100","864.5636363636364","864.5636363636364","black","experiment","legacy","legacy","legacy","0","uniform","1","undefined","1","right","109","109","109","0","0","109","109","0","0","109","109","109","0","109","0","Sun Oct 16 23:18:57 2022","The main experiment item","yes","SternbergTask.osexp","/Users/alexisparrish/Documents/Advanced Quant. Methods/Lab 3/Lab 3.1","no","mono","no","18","no","white","no","yes","768","legacy","97","11","/Users/alexisparrish/Documents/Advanced Quant. Methods/Lab 3/Lab 3.2/AP-subject-4.csv","legacy","3 9 8 1 6 4","Lentiform Loewenfeld","3.3.12","0","n","0","right","right","right","right","NA","798","3257","1010","798","NA","2","legacy","6","1024","2","48000","-16","experiment","4","even","7","682310","679032","680096","4048","81659","680101","NA","4060","80648","684314","685113","681105","7342","684314","NA","Sternberg Task","110","95102","110","yes","1024"
"100","100","862.5135135135135","862.5135135135135","black","experiment","legacy","legacy","legacy","0","uniform","1","undefined","1","left","110","110","110","0","0","110","110","0","0","110","110","110","0","110","0","Sun Oct 16 23:18:57 2022","The main experiment item","yes","SternbergTask.osexp","/Users/alexisparrish/Documents/Advanced Quant. Methods/Lab 3/Lab 3.1","no","mono","no","18","no","white","no","yes","768","legacy","98","11","/Users/alexisparrish/Documents/Advanced Quant. Methods/Lab 3/Lab 3.2/AP-subject-4.csv","legacy","9 1 7 2","Lentiform Loewenfeld","3.3.12","2","y","0","left","right","right","left","NA","637","3257","1010","637","NA","2","legacy","4","1024","2","48000","-16","experiment","4","even","1","688407","685126","686194","4048","81659","686198","NA","4060","80648","690411","691049","687202","7342","690411","NA","Sternberg Task","111","95739","111","yes","1024"
