"acc","accuracy","average_response_time","avg_rt","background","block","canvas_backend","clock_backend","color_backend","correct","correct_instruction1","correct_keyboard_response","correct_response","count_ISI","count_correctFeedback","count_expSequence","count_experiment","count_experimentLoop","count_fixation","count_incorrectFeedback","count_instruction1","count_instructions2","count_keyboard_response","count_logger","count_memorySet","count_practiceLoop","count_probe","count_thankYou","datetime","description","disable_garbage_collection","experiment_file","experiment_path","font_bold","font_family","font_italic","font_size","font_underline","foreground","form_clicks","fullscreen","height","keyboard_backend","live_row","live_row_practiceLoop","logfile","mouse_backend","numberSet","opensesame_codename","opensesame_version","posInSet","present","repeat_cycle","response","response_instruction1","response_instructions2","response_keyboard_response","response_thankYou","response_time","response_time_instruction1","response_time_instructions2","response_time_keyboard_response","response_time_thankYou","round_decimals","sampler_backend","setSize","sound_buf_size","sound_channels","sound_freq","sound_sample_size","start","subject_nr","subject_parity","target","time_ISI","time_correctFeedback","time_expSequence","time_experiment","time_experimentLoop","time_fixation","time_incorrectFeedback","time_instruction1","time_instructions2","time_keyboard_response","time_logger","time_memorySet","time_practiceLoop","time_probe","time_thankYou","title","total_correct","total_response_time","total_responses","width"
"100","100","1809","1809","#3d3846","practice","legacy","legacy","legacy","1","undefined","1","left","0","0","0","0","0","0","0","0","0","0","0","0","0","0","0","Wed Oct 18 12:11:53 2023","The main experiment item","False","Sternbergtask.osexp","C:/Users/stcka/OneDrive/Sam Docs/Psychology Program/AP Textbooks/Quantitative Methods","False","mono","False","18","no","white","no","yes","768","legacy","0","0","C:/Users/stcka/OneDrive/Sam Docs/Psychology Program/AP Textbooks/Quantitative Methods/SA-subject-4.csv","legacy","1 7 9 8 5","Melodramatic Milgram","4.0.5","4","y","0","left","left","NA","left","NA","1809.0","598","NA","1809","NA","2","legacy","5","1024","2","48000","-16","experiment","4","even","8","8420","NA","6219","2549","NA","6220","NA","2552","NA","10421","12231","7220","3151","10421","NA","Sternberg task","1","1809.0","1","1024"
"100","100","1508","1508","#3d3846","practice","legacy","legacy","legacy","1","undefined","1","left","1","1","1","0","0","1","1","0","0","1","1","1","0","1","0","Wed Oct 18 12:11:53 2023","The main experiment item","False","Sternbergtask.osexp","C:/Users/stcka/OneDrive/Sam Docs/Psychology Program/AP Textbooks/Quantitative Methods","False","mono","False","18","no","white","no","yes","768","legacy","1","1","C:/Users/stcka/OneDrive/Sam Docs/Psychology Program/AP Textbooks/Quantitative Methods/SA-subject-4.csv","legacy","4 8","Melodramatic Milgram","4.0.5","1","y","0","left","left","NA","left","NA","1208.0","598","NA","1208","NA","2","legacy","2","1024","2","48000","-16","experiment","4","even","4","15486","12259","13285","2549","NA","13286","NA","2552","NA","17486","18695","14286","3151","17486","NA","Sternberg task","2","3017.0","2","1024"
"100","100","1305","1305","#3d3846","practice","legacy","legacy","legacy","1","undefined","1","left","2","2","2","0","0","2","2","0","0","2","2","2","0","2","0","Wed Oct 18 12:11:53 2023","The main experiment item","False","Sternbergtask.osexp","C:/Users/stcka/OneDrive/Sam Docs/Psychology Program/AP Textbooks/Quantitative Methods","False","mono","False","18","no","white","no","yes","768","legacy","2","2","C:/Users/stcka/OneDrive/Sam Docs/Psychology Program/AP Textbooks/Quantitative Methods/SA-subject-4.csv","legacy","2 9 4","Melodramatic Milgram","4.0.5","3","y","0","left","left","NA","left","NA","898.0","598","NA","898","NA","2","legacy","3","1024","2","48000","-16","experiment","4","even","4","21924","18700","19722","2549","NA","19723","NA","2552","NA","23925","24823","20724","3151","23924","NA","Sternberg task","3","3915.0","3","1024"
"100","100","1331","1331","#3d3846","practice","legacy","legacy","legacy","1","undefined","1","right","3","3","3","0","0","3","3","0","0","3","3","3","0","3","0","Wed Oct 18 12:11:53 2023","The main experiment item","False","Sternbergtask.osexp","C:/Users/stcka/OneDrive/Sam Docs/Psychology Program/AP Textbooks/Quantitative Methods","False","mono","False","18","no","white","no","yes","768","legacy","3","3","C:/Users/stcka/OneDrive/Sam Docs/Psychology Program/AP Textbooks/Quantitative Methods/SA-subject-4.csv","legacy","9 6 7 4 5","Melodramatic Milgram","4.0.5","0","n","0","right","left","NA","right","NA","1410.0","598","NA","1410","NA","2","legacy","5","1024","2","48000","-16","experiment","4","even","3","28057","24828","25855","2549","NA","25856","NA","2552","NA","30059","31469","26857","3151","30059","NA","Sternberg task","4","5325.0","4","1024"
"100","100","1323","1323","#3d3846","practice","legacy","legacy","legacy","1","undefined","1","right","4","4","4","0","0","4","4","0","0","4","4","4","0","4","0","Wed Oct 18 12:11:53 2023","The main experiment item","False","Sternbergtask.osexp","C:/Users/stcka/OneDrive/Sam Docs/Psychology Program/AP Textbooks/Quantitative Methods","False","mono","False","18","no","white","no","yes","768","legacy","4","4","C:/Users/stcka/OneDrive/Sam Docs/Psychology Program/AP Textbooks/Quantitative Methods/SA-subject-4.csv","legacy","5","Melodramatic Milgram","4.0.5","0","n","0","right","left","NA","right","NA","1294.0","598","NA","1294","NA","2","legacy","1","1024","2","48000","-16","experiment","4","even","3","34704","31473","32501","2549","NA","32502","NA","2552","NA","36704","37998","33502","3151","36704","NA","Sternberg task","5","6619.0","5","1024"
"100","100","1231","1231","#3d3846","practice","legacy","legacy","legacy","1","undefined","1","right","5","5","5","0","0","5","5","0","0","5","5","5","0","5","0","Wed Oct 18 12:11:53 2023","The main experiment item","False","Sternbergtask.osexp","C:/Users/stcka/OneDrive/Sam Docs/Psychology Program/AP Textbooks/Quantitative Methods","False","mono","False","18","no","white","no","yes","768","legacy","5","5","C:/Users/stcka/OneDrive/Sam Docs/Psychology Program/AP Textbooks/Quantitative Methods/SA-subject-4.csv","legacy","2 1","Melodramatic Milgram","4.0.5","0","n","0","right","left","NA","right","NA","769.0","598","NA","769","NA","2","legacy","2","1024","2","48000","-16","experiment","4","even","5","41236","38004","39033","2549","NA","39034","NA","2552","NA","43237","44006","40035","3151","43236","NA","Sternberg task","6","7388.0","6","1024"
"100","100","1217","1217","#3d3846","practice","legacy","legacy","legacy","1","undefined","1","left","6","6","6","0","0","6","6","0","0","6","6","6","0","6","0","Wed Oct 18 12:11:53 2023","The main experiment item","False","Sternbergtask.osexp","C:/Users/stcka/OneDrive/Sam Docs/Psychology Program/AP Textbooks/Quantitative Methods","False","mono","False","18","no","white","no","yes","768","legacy","6","6","C:/Users/stcka/OneDrive/Sam Docs/Psychology Program/AP Textbooks/Quantitative Methods/SA-subject-4.csv","legacy","1 5 2 9","Melodramatic Milgram","4.0.5","2","y","0","left","left","NA","left","NA","1137.0","598","NA","1137","NA","2","legacy","4","1024","2","48000","-16","experiment","4","even","5","47248","44011","45045","2549","NA","45047","NA","2552","NA","49250","50388","46048","3151","49249","NA","Sternberg task","7","8525.0","7","1024"
"100","100","1214","1214","#3d3846","practice","legacy","legacy","legacy","1","undefined","1","right","7","7","7","0","0","7","7","0","0","7","7","7","0","7","0","Wed Oct 18 12:11:53 2023","The main experiment item","False","Sternbergtask.osexp","C:/Users/stcka/OneDrive/Sam Docs/Psychology Program/AP Textbooks/Quantitative Methods","False","mono","False","18","no","white","no","yes","768","legacy","7","7","C:/Users/stcka/OneDrive/Sam Docs/Psychology Program/AP Textbooks/Quantitative Methods/SA-subject-4.csv","legacy","3 1 9 4","Melodramatic Milgram","4.0.5","0","n","0","right","left","NA","right","NA","1190.0","598","NA","1190","NA","2","legacy","4","1024","2","48000","-16","experiment","4","even","6","53622","50393","51419","2549","NA","51420","NA","2552","NA","55622","56813","52421","3151","55622","NA","Sternberg task","8","9715.0","8","1024"
"100","100","1174","1174","#3d3846","practice","legacy","legacy","legacy","1","undefined","1","right","8","8","8","0","0","8","8","0","0","8","8","8","0","8","0","Wed Oct 18 12:11:53 2023","The main experiment item","False","Sternbergtask.osexp","C:/Users/stcka/OneDrive/Sam Docs/Psychology Program/AP Textbooks/Quantitative Methods","False","mono","False","18","no","white","no","yes","768","legacy","8","8","C:/Users/stcka/OneDrive/Sam Docs/Psychology Program/AP Textbooks/Quantitative Methods/SA-subject-4.csv","legacy","4 1 5","Melodramatic Milgram","4.0.5","0","n","0","right","left","NA","right","NA","852.0","598","NA","852","NA","2","legacy","3","1024","2","48000","-16","experiment","4","even","2","60040","56817","57839","2549","NA","57840","NA","2552","NA","62041","62894","58840","3151","62040","NA","Sternberg task","9","10567.0","9","1024"
"100","100","1169","1169","#3d3846","practice","legacy","legacy","legacy","1","undefined","1","left","9","9","9","0","0","9","9","0","0","9","9","9","0","9","0","Wed Oct 18 12:11:53 2023","The main experiment item","False","Sternbergtask.osexp","C:/Users/stcka/OneDrive/Sam Docs/Psychology Program/AP Textbooks/Quantitative Methods","False","mono","False","18","no","white","no","yes","768","legacy","9","9","C:/Users/stcka/OneDrive/Sam Docs/Psychology Program/AP Textbooks/Quantitative Methods/SA-subject-4.csv","legacy","4 3 1 7 9 8","Melodramatic Milgram","4.0.5","1","y","0","left","left","NA","left","NA","1131.0","598","NA","1131","NA","2","legacy","6","1024","2","48000","-16","experiment","4","even","4","66130","62899","63928","2549","NA","63929","NA","2552","NA","68131","69262","64929","3151","68131","NA","Sternberg task","10","11698.0","10","1024"
"100","100","1138","1138","#3d3846","practice","legacy","legacy","legacy","1","undefined","1","right","10","10","10","0","0","10","10","0","0","10","10","10","0","10","0","Wed Oct 18 12:11:53 2023","The main experiment item","False","Sternbergtask.osexp","C:/Users/stcka/OneDrive/Sam Docs/Psychology Program/AP Textbooks/Quantitative Methods","False","mono","False","18","no","white","no","yes","768","legacy","10","10","C:/Users/stcka/OneDrive/Sam Docs/Psychology Program/AP Textbooks/Quantitative Methods/SA-subject-4.csv","legacy","5 7 8 4 1 2","Melodramatic Milgram","4.0.5","0","n","0","right","left","NA","right","NA","826.0","598","NA","826","NA","2","legacy","6","1024","2","48000","-16","experiment","4","even","6","72504","69268","70301","2549","NA","70302","NA","2552","NA","74505","75332","71303","3151","74504","NA","Sternberg task","11","12524.0","11","1024"
"100","100","1071","1071","#3d3846","practice","legacy","legacy","legacy","1","undefined","1","left","11","11","11","0","0","11","11","0","0","11","11","11","0","11","0","Wed Oct 18 12:11:53 2023","The main experiment item","False","Sternbergtask.osexp","C:/Users/stcka/OneDrive/Sam Docs/Psychology Program/AP Textbooks/Quantitative Methods","False","mono","False","18","no","white","no","yes","768","legacy","11","11","C:/Users/stcka/OneDrive/Sam Docs/Psychology Program/AP Textbooks/Quantitative Methods/SA-subject-4.csv","legacy","6","Melodramatic Milgram","4.0.5","1","y","0","left","left","NA","left","NA","339.0","598","NA","339","NA","2","legacy","1","1024","2","48000","-16","experiment","4","even","6","78564","75338","76362","2549","NA","76363","NA","2552","NA","80564","80903","77363","3151","80564","NA","Sternberg task","12","12863.0","12","1024"
"100","100","1095","1095","#3d3846","experiment","legacy","legacy","legacy","1","undefined","1","right","12","12","12","0","0","12","12","0","0","12","12","12","0","12","0","Wed Oct 18 12:11:53 2023","The main experiment item","False","Sternbergtask.osexp","C:/Users/stcka/OneDrive/Sam Docs/Psychology Program/AP Textbooks/Quantitative Methods","False","mono","False","18","no","white","no","yes","768","legacy","0","11","C:/Users/stcka/OneDrive/Sam Docs/Psychology Program/AP Textbooks/Quantitative Methods/SA-subject-4.csv","legacy","1 4 9 3","Melodramatic Milgram","4.0.5","0","n","0","right","left","right","right","NA","1381.0","598","1998","1381","NA","2","legacy","4","1024","2","48000","-16","experiment","4","even","5","86193","80908","83990","2549","83907","83991","NA","2552","81909","88194","89575","84992","3151","88193","NA","Sternberg task","13","14244.0","13","1024"
"92","92","1079","1079","#3d3846","experiment","legacy","legacy","legacy","0","undefined","0","right","13","13","13","0","0","13","13","0","0","13","13","13","0","13","0","Wed Oct 18 12:11:53 2023","The main experiment item","False","Sternbergtask.osexp","C:/Users/stcka/OneDrive/Sam Docs/Psychology Program/AP Textbooks/Quantitative Methods","False","mono","False","18","no","white","no","yes","768","legacy","1","11","C:/Users/stcka/OneDrive/Sam Docs/Psychology Program/AP Textbooks/Quantitative Methods/SA-subject-4.csv","legacy","8 6 3 4 7","Melodramatic Milgram","4.0.5","0","n","0","left","left","right","left","NA","867.0","598","1998","867","NA","2","legacy","5","1024","2","48000","-16","experiment","4","even","1","92803","89580","90602","2549","83907","90603","NA","2552","81909","94804","95672","91603","3151","94803","NA","Sternberg task","13","15111.0","14","1024"
"93","93","1056","1056","#3d3846","experiment","legacy","legacy","legacy","1","undefined","1","left","14","14","14","0","0","14","14","0","0","14","14","14","0","14","0","Wed Oct 18 12:11:53 2023","The main experiment item","False","Sternbergtask.osexp","C:/Users/stcka/OneDrive/Sam Docs/Psychology Program/AP Textbooks/Quantitative Methods","False","mono","False","18","no","white","no","yes","768","legacy","2","11","C:/Users/stcka/OneDrive/Sam Docs/Psychology Program/AP Textbooks/Quantitative Methods/SA-subject-4.csv","legacy","7","Melodramatic Milgram","4.0.5","1","y","0","left","left","right","left","NA","729.0","598","1998","729","NA","2","legacy","1","1024","2","48000","-16","experiment","4","even","7","98908","89580","96705","2549","83907","96707","95677","2552","81909","100909","101638","97708","3151","100909","NA","Sternberg task","14","15840.0","15","1024"
"93","93","1053","1053","#3d3846","experiment","legacy","legacy","legacy","1","undefined","1","right","15","15","15","0","0","15","15","0","0","15","15","15","0","15","0","Wed Oct 18 12:11:53 2023","The main experiment item","False","Sternbergtask.osexp","C:/Users/stcka/OneDrive/Sam Docs/Psychology Program/AP Textbooks/Quantitative Methods","False","mono","False","18","no","white","no","yes","768","legacy","3","11","C:/Users/stcka/OneDrive/Sam Docs/Psychology Program/AP Textbooks/Quantitative Methods/SA-subject-4.csv","legacy","8 5 7 3 6","Melodramatic Milgram","4.0.5","0","n","0","right","left","right","right","NA","1013.0","598","1998","1013","NA","2","legacy","5","1024","2","48000","-16","experiment","4","even","9","104872","101644","102671","2549","83907","102672","95677","2552","81909","106873","107887","103672","3151","106873","NA","Sternberg task","15","16853.0","16","1024"
"94","94","1036","1036","#3d3846","experiment","legacy","legacy","legacy","1","undefined","1","right","16","16","16","0","0","16","16","0","0","16","16","16","0","16","0","Wed Oct 18 12:11:53 2023","The main experiment item","False","Sternbergtask.osexp","C:/Users/stcka/OneDrive/Sam Docs/Psychology Program/AP Textbooks/Quantitative Methods","False","mono","False","18","no","white","no","yes","768","legacy","4","11","C:/Users/stcka/OneDrive/Sam Docs/Psychology Program/AP Textbooks/Quantitative Methods/SA-subject-4.csv","legacy","5 7 3","Melodramatic Milgram","4.0.5","0","n","0","right","left","right","right","NA","774.0","598","1998","774","NA","2","legacy","3","1024","2","48000","-16","experiment","4","even","9","111121","107892","108919","2549","83907","108920","95677","2552","81909","113122","113897","109920","3151","113121","NA","Sternberg task","16","17627.0","17","1024"
"94","94","1029","1029","#3d3846","experiment","legacy","legacy","legacy","1","undefined","1","left","17","17","17","0","0","17","17","0","0","17","17","17","0","17","0","Wed Oct 18 12:11:53 2023","The main experiment item","False","Sternbergtask.osexp","C:/Users/stcka/OneDrive/Sam Docs/Psychology Program/AP Textbooks/Quantitative Methods","False","mono","False","18","no","white","no","yes","768","legacy","5","11","C:/Users/stcka/OneDrive/Sam Docs/Psychology Program/AP Textbooks/Quantitative Methods/SA-subject-4.csv","legacy","2 3 7 4","Melodramatic Milgram","4.0.5","1","y","0","left","left","right","left","NA","900.0","598","1998","900","NA","2","legacy","4","1024","2","48000","-16","experiment","4","even","2","117131","113903","114928","2549","83907","114929","95677","2552","81909","119132","120033","115929","3151","119132","NA","Sternberg task","17","18527.0","18","1024"
"94","94","1019","1019","#3d3846","experiment","legacy","legacy","legacy","1","undefined","1","right","18","18","18","0","0","18","18","0","0","18","18","18","0","18","0","Wed Oct 18 12:11:53 2023","The main experiment item","False","Sternbergtask.osexp","C:/Users/stcka/OneDrive/Sam Docs/Psychology Program/AP Textbooks/Quantitative Methods","False","mono","False","18","no","white","no","yes","768","legacy","6","11","C:/Users/stcka/OneDrive/Sam Docs/Psychology Program/AP Textbooks/Quantitative Methods/SA-subject-4.csv","legacy","5 3 2 6 9 8","Melodramatic Milgram","4.0.5","0","n","0","right","left","right","right","NA","837.0","598","1998","837","NA","2","legacy","6","1024","2","48000","-16","experiment","4","even","4","123277","120037","121075","2549","83907","121076","95677","2552","81909","125278","126116","122076","3151","125278","NA","Sternberg task","18","19364.0","19","1024"
"95","95","1015","1015","#3d3846","experiment","legacy","legacy","legacy","1","undefined","1","right","19","19","19","0","0","19","19","0","0","19","19","19","0","19","0","Wed Oct 18 12:11:53 2023","The main experiment item","False","Sternbergtask.osexp","C:/Users/stcka/OneDrive/Sam Docs/Psychology Program/AP Textbooks/Quantitative Methods","False","mono","False","18","no","white","no","yes","768","legacy","7","11","C:/Users/stcka/OneDrive/Sam Docs/Psychology Program/AP Textbooks/Quantitative Methods/SA-subject-4.csv","legacy","1 6 4 3 9 7","Melodramatic Milgram","4.0.5","0","n","0","right","left","right","right","NA","937.0","598","1998","937","NA","2","legacy","6","1024","2","48000","-16","experiment","4","even","8","129352","126120","127149","2549","83907","127150","95677","2552","81909","131353","132290","128150","3151","131353","NA","Sternberg task","19","20301.0","20","1024"
"95","95","1001","1001","#3d3846","experiment","legacy","legacy","legacy","1","undefined","1","right","20","20","20","0","0","20","20","0","0","20","20","20","0","20","0","Wed Oct 18 12:11:53 2023","The main experiment item","False","Sternbergtask.osexp","C:/Users/stcka/OneDrive/Sam Docs/Psychology Program/AP Textbooks/Quantitative Methods","False","mono","False","18","no","white","no","yes","768","legacy","8","11","C:/Users/stcka/OneDrive/Sam Docs/Psychology Program/AP Textbooks/Quantitative Methods/SA-subject-4.csv","legacy","7 4 2 8 1 9","Melodramatic Milgram","4.0.5","0","n","0","right","left","right","right","NA","733.0","598","1998","733","NA","2","legacy","6","1024","2","48000","-16","experiment","4","even","5","135520","132294","133318","2549","83907","133319","95677","2552","81909","137520","138253","134319","3151","137520","NA","Sternberg task","20","21034.0","21","1024"
"95","95","1006","1006","#3d3846","experiment","legacy","legacy","legacy","1","undefined","1","right","21","21","21","0","0","21","21","0","0","21","21","21","0","21","0","Wed Oct 18 12:11:53 2023","The main experiment item","False","Sternbergtask.osexp","C:/Users/stcka/OneDrive/Sam Docs/Psychology Program/AP Textbooks/Quantitative Methods","False","mono","False","18","no","white","no","yes","768","legacy","9","11","C:/Users/stcka/OneDrive/Sam Docs/Psychology Program/AP Textbooks/Quantitative Methods/SA-subject-4.csv","legacy","5 2","Melodramatic Milgram","4.0.5","0","n","0","right","left","right","right","NA","1098.0","598","1998","1098","NA","2","legacy","2","1024","2","48000","-16","experiment","4","even","7","141485","138257","139282","2549","83907","139283","95677","2552","81909","143486","144585","140283","3151","143486","NA","Sternberg task","21","22132.0","22","1024"
"95","95","1005","1005","#3d3846","experiment","legacy","legacy","legacy","1","undefined","1","left","22","22","22","0","0","22","22","0","0","22","22","22","0","22","0","Wed Oct 18 12:11:53 2023","The main experiment item","False","Sternbergtask.osexp","C:/Users/stcka/OneDrive/Sam Docs/Psychology Program/AP Textbooks/Quantitative Methods","False","mono","False","18","no","white","no","yes","768","legacy","10","11","C:/Users/stcka/OneDrive/Sam Docs/Psychology Program/AP Textbooks/Quantitative Methods/SA-subject-4.csv","legacy","9 5 8 1","Melodramatic Milgram","4.0.5","2","y","0","left","left","right","left","NA","997.0","598","1998","997","NA","2","legacy","4","1024","2","48000","-16","experiment","4","even","5","147821","144589","145618","2549","83907","145620","95677","2552","81909","149822","150819","146620","3151","149822","NA","Sternberg task","22","23129.0","23","1024"
"95","95","996","996","#3d3846","experiment","legacy","legacy","legacy","1","undefined","1","right","23","23","23","0","0","23","23","0","0","23","23","23","0","23","0","Wed Oct 18 12:11:53 2023","The main experiment item","False","Sternbergtask.osexp","C:/Users/stcka/OneDrive/Sam Docs/Psychology Program/AP Textbooks/Quantitative Methods","False","mono","False","18","no","white","no","yes","768","legacy","11","11","C:/Users/stcka/OneDrive/Sam Docs/Psychology Program/AP Textbooks/Quantitative Methods/SA-subject-4.csv","legacy","2 6 4 3 9","Melodramatic Milgram","4.0.5","0","n","0","right","left","right","right","NA","789.0","598","1998","789","NA","2","legacy","5","1024","2","48000","-16","experiment","4","even","1","154063","150824","151860","2549","83907","151861","95677","2552","81909","156064","156854","152861","3151","156064","NA","Sternberg task","23","23918.0","24","1024"
"92","92","1036","1036","#3d3846","experiment","legacy","legacy","legacy","0","undefined","0","right","24","24","24","0","0","24","24","0","0","24","24","24","0","24","0","Wed Oct 18 12:11:53 2023","The main experiment item","False","Sternbergtask.osexp","C:/Users/stcka/OneDrive/Sam Docs/Psychology Program/AP Textbooks/Quantitative Methods","False","mono","False","18","no","white","no","yes","768","legacy","12","11","C:/Users/stcka/OneDrive/Sam Docs/Psychology Program/AP Textbooks/Quantitative Methods/SA-subject-4.csv","legacy","1 4 9 2 5","Melodramatic Milgram","4.0.5","0","n","0","None","left","right","None","NA","2000.0","598","1998","2000","NA","2","legacy","5","1024","2","48000","-16","experiment","4","even","7","160090","156859","157888","2549","83907","157889","95677","2552","81909","162091","164091","158889","3151","162090","NA","Sternberg task","23","25918.0","25","1024"
"88","88","1030","1030","#3d3846","experiment","legacy","legacy","legacy","0","undefined","0","right","25","25","25","0","0","25","25","0","0","25","25","25","0","25","0","Wed Oct 18 12:11:53 2023","The main experiment item","False","Sternbergtask.osexp","C:/Users/stcka/OneDrive/Sam Docs/Psychology Program/AP Textbooks/Quantitative Methods","False","mono","False","18","no","white","no","yes","768","legacy","13","11","C:/Users/stcka/OneDrive/Sam Docs/Psychology Program/AP Textbooks/Quantitative Methods/SA-subject-4.csv","legacy","6 2 9 3 8 4","Melodramatic Milgram","4.0.5","0","n","0","left","left","right","left","NA","881.0","598","1998","881","NA","2","legacy","6","1024","2","48000","-16","experiment","4","even","1","167322","156859","165118","2549","83907","165120","164095","2552","81909","169323","170204","166120","3151","169322","NA","Sternberg task","23","26799.0","26","1024"
"88","88","1015","1015","#3d3846","experiment","legacy","legacy","legacy","1","undefined","1","right","26","26","26","0","0","26","26","0","0","26","26","26","0","26","0","Wed Oct 18 12:11:53 2023","The main experiment item","False","Sternbergtask.osexp","C:/Users/stcka/OneDrive/Sam Docs/Psychology Program/AP Textbooks/Quantitative Methods","False","mono","False","18","no","white","no","yes","768","legacy","14","11","C:/Users/stcka/OneDrive/Sam Docs/Psychology Program/AP Textbooks/Quantitative Methods/SA-subject-4.csv","legacy","6 7 5 9","Melodramatic Milgram","4.0.5","0","n","0","right","left","right","right","NA","628.0","598","1998","628","NA","2","legacy","4","1024","2","48000","-16","experiment","4","even","2","173434","156859","171232","2549","83907","171233","170209","2552","81909","175434","176063","172234","3151","175434","NA","Sternberg task","24","27427.0","27","1024"
"89","89","1021","1021","#3d3846","experiment","legacy","legacy","legacy","1","undefined","1","left","27","27","27","0","0","27","27","0","0","27","27","27","0","27","0","Wed Oct 18 12:11:53 2023","The main experiment item","False","Sternbergtask.osexp","C:/Users/stcka/OneDrive/Sam Docs/Psychology Program/AP Textbooks/Quantitative Methods","False","mono","False","18","no","white","no","yes","768","legacy","15","11","C:/Users/stcka/OneDrive/Sam Docs/Psychology Program/AP Textbooks/Quantitative Methods/SA-subject-4.csv","legacy","4 1 8 7 5","Melodramatic Milgram","4.0.5","3","y","0","left","left","right","left","NA","1170.0","598","1998","1170","NA","2","legacy","5","1024","2","48000","-16","experiment","4","even","8","179295","176068","177092","2549","83907","177093","170209","2552","81909","181296","182467","178093","3151","181296","NA","Sternberg task","25","28597.0","28","1024"
"89","89","1011","1011","#3d3846","experiment","legacy","legacy","legacy","1","undefined","1","right","28","28","28","0","0","28","28","0","0","28","28","28","0","28","0","Wed Oct 18 12:11:53 2023","The main experiment item","False","Sternbergtask.osexp","C:/Users/stcka/OneDrive/Sam Docs/Psychology Program/AP Textbooks/Quantitative Methods","False","mono","False","18","no","white","no","yes","768","legacy","16","11","C:/Users/stcka/OneDrive/Sam Docs/Psychology Program/AP Textbooks/Quantitative Methods/SA-subject-4.csv","legacy","8 4 3 9","Melodramatic Milgram","4.0.5","0","n","0","right","left","right","right","NA","734.0","598","1998","734","NA","2","legacy","4","1024","2","48000","-16","experiment","4","even","5","185699","182472","183496","2549","83907","183497","170209","2552","81909","187699","188433","184498","3151","187699","NA","Sternberg task","26","29331.0","29","1024"
"90","90","1008","1008","#3d3846","experiment","legacy","legacy","legacy","1","undefined","1","left","29","29","29","0","0","29","29","0","0","29","29","29","0","29","0","Wed Oct 18 12:11:53 2023","The main experiment item","False","Sternbergtask.osexp","C:/Users/stcka/OneDrive/Sam Docs/Psychology Program/AP Textbooks/Quantitative Methods","False","mono","False","18","no","white","no","yes","768","legacy","17","11","C:/Users/stcka/OneDrive/Sam Docs/Psychology Program/AP Textbooks/Quantitative Methods/SA-subject-4.csv","legacy","8 7 3","Melodramatic Milgram","4.0.5","1","y","0","left","left","right","left","NA","937.0","598","1998","937","NA","2","legacy","3","1024","2","48000","-16","experiment","4","even","8","191663","188439","189460","2549","83907","189460","170209","2552","81909","193664","194603","190462","3151","193664","NA","Sternberg task","27","30268.0","30","1024"
"87","87","992","992","#3d3846","experiment","legacy","legacy","legacy","0","undefined","0","left","30","30","30","0","0","30","30","0","0","30","30","30","0","30","0","Wed Oct 18 12:11:53 2023","The main experiment item","False","Sternbergtask.osexp","C:/Users/stcka/OneDrive/Sam Docs/Psychology Program/AP Textbooks/Quantitative Methods","False","mono","False","18","no","white","no","yes","768","legacy","18","11","C:/Users/stcka/OneDrive/Sam Docs/Psychology Program/AP Textbooks/Quantitative Methods/SA-subject-4.csv","legacy","5 2 9 6 1 7","Melodramatic Milgram","4.0.5","3","y","0","right","left","right","right","NA","493.0","598","1998","493","NA","2","legacy","6","1024","2","48000","-16","experiment","4","even","9","197832","194608","195629","2549","83907","195630","170209","2552","81909","199833","200327","196631","3151","199832","NA","Sternberg task","27","30761.0","31","1024"
"87","87","990","990","#3d3846","experiment","legacy","legacy","legacy","1","undefined","1","right","31","31","31","0","0","31","31","0","0","31","31","31","0","31","0","Wed Oct 18 12:11:53 2023","The main experiment item","False","Sternbergtask.osexp","C:/Users/stcka/OneDrive/Sam Docs/Psychology Program/AP Textbooks/Quantitative Methods","False","mono","False","18","no","white","no","yes","768","legacy","19","11","C:/Users/stcka/OneDrive/Sam Docs/Psychology Program/AP Textbooks/Quantitative Methods/SA-subject-4.csv","legacy","9 7 4 5 8","Melodramatic Milgram","4.0.5","0","n","0","right","left","right","right","NA","922.0","598","1998","922","NA","2","legacy","5","1024","2","48000","-16","experiment","4","even","6","203561","194608","201358","2549","83907","201359","200332","2552","81909","205562","206485","202360","3151","205561","NA","Sternberg task","28","31683.0","32","1024"
"84","84","1020","1020","#3d3846","experiment","legacy","legacy","legacy","0","undefined","0","left","32","32","32","0","0","32","32","0","0","32","32","32","0","32","0","Wed Oct 18 12:11:53 2023","The main experiment item","False","Sternbergtask.osexp","C:/Users/stcka/OneDrive/Sam Docs/Psychology Program/AP Textbooks/Quantitative Methods","False","mono","False","18","no","white","no","yes","768","legacy","20","11","C:/Users/stcka/OneDrive/Sam Docs/Psychology Program/AP Textbooks/Quantitative Methods/SA-subject-4.csv","legacy","9 5 3 8 4","Melodramatic Milgram","4.0.5","1","y","0","None","left","right","None","NA","2000.0","598","1998","2000","NA","2","legacy","5","1024","2","48000","-16","experiment","4","even","9","209719","206490","207516","2549","83907","207517","200332","2552","81909","211719","213719","208518","3151","211719","NA","Sternberg task","28","33683.0","33","1024"
"85","85","1008","1008","#3d3846","experiment","legacy","legacy","legacy","1","undefined","1","right","33","33","33","0","0","33","33","0","0","33","33","33","0","33","0","Wed Oct 18 12:11:53 2023","The main experiment item","False","Sternbergtask.osexp","C:/Users/stcka/OneDrive/Sam Docs/Psychology Program/AP Textbooks/Quantitative Methods","False","mono","False","18","no","white","no","yes","768","legacy","21","11","C:/Users/stcka/OneDrive/Sam Docs/Psychology Program/AP Textbooks/Quantitative Methods/SA-subject-4.csv","legacy","6 8","Melodramatic Milgram","4.0.5","0","n","0","right","left","right","right","NA","596.0","598","1998","596","NA","2","legacy","2","1024","2","48000","-16","experiment","4","even","9","216949","206490","214748","2549","83907","214749","213724","2552","81909","218950","219547","215749","3151","218949","NA","Sternberg task","29","34279.0","34","1024"
"82","82","1036","1036","#3d3846","experiment","legacy","legacy","legacy","0","undefined","0","left","34","34","34","0","0","34","34","0","0","34","34","34","0","34","0","Wed Oct 18 12:11:53 2023","The main experiment item","False","Sternbergtask.osexp","C:/Users/stcka/OneDrive/Sam Docs/Psychology Program/AP Textbooks/Quantitative Methods","False","mono","False","18","no","white","no","yes","768","legacy","22","11","C:/Users/stcka/OneDrive/Sam Docs/Psychology Program/AP Textbooks/Quantitative Methods/SA-subject-4.csv","legacy","2 3","Melodramatic Milgram","4.0.5","1","y","0","None","left","right","None","NA","2000.0","598","1998","2000","NA","2","legacy","2","1024","2","48000","-16","experiment","4","even","2","222775","219552","220573","2549","83907","220574","213724","2552","81909","224775","226775","221575","3151","224775","NA","Sternberg task","29","36279.0","35","1024"
"83","83","1029","1029","#3d3846","experiment","legacy","legacy","legacy","1","undefined","1","right","35","35","35","0","0","35","35","0","0","35","35","35","0","35","0","Wed Oct 18 12:11:53 2023","The main experiment item","False","Sternbergtask.osexp","C:/Users/stcka/OneDrive/Sam Docs/Psychology Program/AP Textbooks/Quantitative Methods","False","mono","False","18","no","white","no","yes","768","legacy","23","11","C:/Users/stcka/OneDrive/Sam Docs/Psychology Program/AP Textbooks/Quantitative Methods/SA-subject-4.csv","legacy","6 3 1 7 9 8","Melodramatic Milgram","4.0.5","0","n","0","right","left","right","right","NA","799.0","598","1998","799","NA","2","legacy","6","1024","2","48000","-16","experiment","4","even","4","230004","219552","227802","2549","83907","227803","226780","2552","81909","232006","232805","228804","3151","232005","NA","Sternberg task","30","37078.0","36","1024"
"83","83","1025","1025","#3d3846","experiment","legacy","legacy","legacy","1","undefined","1","right","36","36","36","0","0","36","36","0","0","36","36","36","0","36","0","Wed Oct 18 12:11:53 2023","The main experiment item","False","Sternbergtask.osexp","C:/Users/stcka/OneDrive/Sam Docs/Psychology Program/AP Textbooks/Quantitative Methods","False","mono","False","18","no","white","no","yes","768","legacy","24","11","C:/Users/stcka/OneDrive/Sam Docs/Psychology Program/AP Textbooks/Quantitative Methods/SA-subject-4.csv","legacy","6 8 4","Melodramatic Milgram","4.0.5","0","n","0","right","left","right","right","NA","869.0","598","1998","869","NA","2","legacy","3","1024","2","48000","-16","experiment","4","even","1","236037","232810","233834","2549","83907","233835","226780","2552","81909","238037","238907","234836","3151","238037","NA","Sternberg task","31","37947.0","37","1024"
"84","84","1022","1022","#3d3846","experiment","legacy","legacy","legacy","1","undefined","1","left","37","37","37","0","0","37","37","0","0","37","37","37","0","37","0","Wed Oct 18 12:11:53 2023","The main experiment item","False","Sternbergtask.osexp","C:/Users/stcka/OneDrive/Sam Docs/Psychology Program/AP Textbooks/Quantitative Methods","False","mono","False","18","no","white","no","yes","768","legacy","25","11","C:/Users/stcka/OneDrive/Sam Docs/Psychology Program/AP Textbooks/Quantitative Methods/SA-subject-4.csv","legacy","4 6 5 8","Melodramatic Milgram","4.0.5","1","y","0","left","left","right","left","NA","915.0","598","1998","915","NA","2","legacy","4","1024","2","48000","-16","experiment","4","even","4","242140","238914","239937","2549","83907","239938","226780","2552","81909","244140","245055","240939","3151","244140","NA","Sternberg task","32","38862.0","38","1024"
"84","84","1015","1015","#3d3846","experiment","legacy","legacy","legacy","1","undefined","1","left","38","38","38","0","0","38","38","0","0","38","38","38","0","38","0","Wed Oct 18 12:11:53 2023","The main experiment item","False","Sternbergtask.osexp","C:/Users/stcka/OneDrive/Sam Docs/Psychology Program/AP Textbooks/Quantitative Methods","False","mono","False","18","no","white","no","yes","768","legacy","26","11","C:/Users/stcka/OneDrive/Sam Docs/Psychology Program/AP Textbooks/Quantitative Methods/SA-subject-4.csv","legacy","8","Melodramatic Milgram","4.0.5","1","y","0","left","left","right","left","NA","760.0","598","1998","760","NA","2","legacy","1","1024","2","48000","-16","experiment","4","even","8","248289","245060","246086","2549","83907","246087","226780","2552","81909","250290","251050","247087","3151","250290","NA","Sternberg task","33","39622.0","39","1024"
"85","85","1011","1011","#3d3846","experiment","legacy","legacy","legacy","1","undefined","1","right","39","39","39","0","0","39","39","0","0","39","39","39","0","39","0","Wed Oct 18 12:11:53 2023","The main experiment item","False","Sternbergtask.osexp","C:/Users/stcka/OneDrive/Sam Docs/Psychology Program/AP Textbooks/Quantitative Methods","False","mono","False","18","no","white","no","yes","768","legacy","27","11","C:/Users/stcka/OneDrive/Sam Docs/Psychology Program/AP Textbooks/Quantitative Methods/SA-subject-4.csv","legacy","2 3 8 5 6 7","Melodramatic Milgram","4.0.5","0","n","0","right","left","right","right","NA","823.0","598","1998","823","NA","2","legacy","6","1024","2","48000","-16","experiment","4","even","1","254282","251055","252080","2549","83907","252081","226780","2552","81909","256282","257106","253082","3151","256282","NA","Sternberg task","34","40445.0","40","1024"
"85","85","1005","1005","#3d3846","experiment","legacy","legacy","legacy","1","undefined","1","right","40","40","40","0","0","40","40","0","0","40","40","40","0","40","0","Wed Oct 18 12:11:53 2023","The main experiment item","False","Sternbergtask.osexp","C:/Users/stcka/OneDrive/Sam Docs/Psychology Program/AP Textbooks/Quantitative Methods","False","mono","False","18","no","white","no","yes","768","legacy","28","11","C:/Users/stcka/OneDrive/Sam Docs/Psychology Program/AP Textbooks/Quantitative Methods/SA-subject-4.csv","legacy","1 5 3 2 8","Melodramatic Milgram","4.0.5","0","n","0","right","left","right","right","NA","784.0","598","1998","784","NA","2","legacy","5","1024","2","48000","-16","experiment","4","even","4","260342","257112","258140","2549","83907","258141","226780","2552","81909","262344","263129","259141","3151","262344","NA","Sternberg task","35","41229.0","41","1024"
"85","85","1003","1003","#3d3846","experiment","legacy","legacy","legacy","1","undefined","1","left","41","41","41","0","0","41","41","0","0","41","41","41","0","41","0","Wed Oct 18 12:11:53 2023","The main experiment item","False","Sternbergtask.osexp","C:/Users/stcka/OneDrive/Sam Docs/Psychology Program/AP Textbooks/Quantitative Methods","False","mono","False","18","no","white","no","yes","768","legacy","29","11","C:/Users/stcka/OneDrive/Sam Docs/Psychology Program/AP Textbooks/Quantitative Methods/SA-subject-4.csv","legacy","8 5 1 3 9","Melodramatic Milgram","4.0.5","4","y","0","left","left","right","left","NA","922.0","598","1998","922","NA","2","legacy","5","1024","2","48000","-16","experiment","4","even","3","266359","263134","264157","2549","83907","264158","226780","2552","81909","268359","269282","265158","3151","268359","NA","Sternberg task","36","42151.0","42","1024"
"86","86","1004","1004","#3d3846","experiment","legacy","legacy","legacy","1","undefined","1","left","42","42","42","0","0","42","42","0","0","42","42","42","0","42","0","Wed Oct 18 12:11:53 2023","The main experiment item","False","Sternbergtask.osexp","C:/Users/stcka/OneDrive/Sam Docs/Psychology Program/AP Textbooks/Quantitative Methods","False","mono","False","18","no","white","no","yes","768","legacy","30","11","C:/Users/stcka/OneDrive/Sam Docs/Psychology Program/AP Textbooks/Quantitative Methods/SA-subject-4.csv","legacy","7 8 6 3 1","Melodramatic Milgram","4.0.5","5","y","0","left","left","right","left","NA","1025.0","598","1998","1025","NA","2","legacy","5","1024","2","48000","-16","experiment","4","even","1","272509","269287","270308","2549","83907","270309","226780","2552","81909","274510","275535","271309","3151","274510","NA","Sternberg task","37","43176.0","43","1024"
"86","86","995","995","#3d3846","experiment","legacy","legacy","legacy","1","undefined","1","right","43","43","43","0","0","43","43","0","0","43","43","43","0","43","0","Wed Oct 18 12:11:53 2023","The main experiment item","False","Sternbergtask.osexp","C:/Users/stcka/OneDrive/Sam Docs/Psychology Program/AP Textbooks/Quantitative Methods","False","mono","False","18","no","white","no","yes","768","legacy","31","11","C:/Users/stcka/OneDrive/Sam Docs/Psychology Program/AP Textbooks/Quantitative Methods/SA-subject-4.csv","legacy","2 7 5","Melodramatic Milgram","4.0.5","0","n","0","right","left","right","right","NA","633.0","598","1998","633","NA","2","legacy","3","1024","2","48000","-16","experiment","4","even","8","278772","275539","276569","2549","83907","276570","226780","2552","81909","280773","281407","277571","3151","280773","NA","Sternberg task","38","43809.0","44","1024"
"86","86","993","993","#3d3846","experiment","legacy","legacy","legacy","1","undefined","1","left","44","44","44","0","0","44","44","0","0","44","44","44","0","44","0","Wed Oct 18 12:11:53 2023","The main experiment item","False","Sternbergtask.osexp","C:/Users/stcka/OneDrive/Sam Docs/Psychology Program/AP Textbooks/Quantitative Methods","False","mono","False","18","no","white","no","yes","768","legacy","32","11","C:/Users/stcka/OneDrive/Sam Docs/Psychology Program/AP Textbooks/Quantitative Methods/SA-subject-4.csv","legacy","7 6","Melodramatic Milgram","4.0.5","2","y","0","left","left","right","left","NA","920.0","598","1998","920","NA","2","legacy","2","1024","2","48000","-16","experiment","4","even","6","284638","281410","282435","2549","83907","282436","226780","2552","81909","286639","287559","283437","3151","286639","NA","Sternberg task","39","44729.0","45","1024"
"86","86","997","997","#3d3846","experiment","legacy","legacy","legacy","1","undefined","1","left","45","45","45","0","0","45","45","0","0","45","45","45","0","45","0","Wed Oct 18 12:11:53 2023","The main experiment item","False","Sternbergtask.osexp","C:/Users/stcka/OneDrive/Sam Docs/Psychology Program/AP Textbooks/Quantitative Methods","False","mono","False","18","no","white","no","yes","768","legacy","33","11","C:/Users/stcka/OneDrive/Sam Docs/Psychology Program/AP Textbooks/Quantitative Methods/SA-subject-4.csv","legacy","9 3 1 2 5","Melodramatic Milgram","4.0.5","4","y","0","left","left","right","left","NA","1177.0","598","1998","1177","NA","2","legacy","5","1024","2","48000","-16","experiment","4","even","2","290790","287563","288587","2549","83907","288588","226780","2552","81909","292790","293968","289588","3151","292790","NA","Sternberg task","40","45906.0","46","1024"
"87","87","998","998","#3d3846","experiment","legacy","legacy","legacy","1","undefined","1","left","46","46","46","0","0","46","46","0","0","46","46","46","0","46","0","Wed Oct 18 12:11:53 2023","The main experiment item","False","Sternbergtask.osexp","C:/Users/stcka/OneDrive/Sam Docs/Psychology Program/AP Textbooks/Quantitative Methods","False","mono","False","18","no","white","no","yes","768","legacy","34","11","C:/Users/stcka/OneDrive/Sam Docs/Psychology Program/AP Textbooks/Quantitative Methods/SA-subject-4.csv","legacy","4 7 6 8 2 3","Melodramatic Milgram","4.0.5","6","y","0","left","left","right","left","NA","1030.0","598","1998","1030","NA","2","legacy","6","1024","2","48000","-16","experiment","4","even","3","297208","293972","295006","2549","83907","295007","226780","2552","81909","299210","300240","296007","3151","299209","NA","Sternberg task","41","46936.0","47","1024"
"87","87","998","998","#3d3846","experiment","legacy","legacy","legacy","1","undefined","1","left","47","47","47","0","0","47","47","0","0","47","47","47","0","47","0","Wed Oct 18 12:11:53 2023","The main experiment item","False","Sternbergtask.osexp","C:/Users/stcka/OneDrive/Sam Docs/Psychology Program/AP Textbooks/Quantitative Methods","False","mono","False","18","no","white","no","yes","768","legacy","35","11","C:/Users/stcka/OneDrive/Sam Docs/Psychology Program/AP Textbooks/Quantitative Methods/SA-subject-4.csv","legacy","6 8 9 3 4 9","Melodramatic Milgram","4.0.5","5","y","0","left","left","right","left","NA","1012.0","598","1998","1012","NA","2","legacy","6","1024","2","48000","-16","experiment","4","even","4","303468","300244","301266","2549","83907","301267","226780","2552","81909","305469","306481","302267","3151","305468","NA","Sternberg task","42","47948.0","48","1024"
"87","87","989","989","#3d3846","experiment","legacy","legacy","legacy","1","undefined","1","left","48","48","48","0","0","48","48","0","0","48","48","48","0","48","0","Wed Oct 18 12:11:53 2023","The main experiment item","False","Sternbergtask.osexp","C:/Users/stcka/OneDrive/Sam Docs/Psychology Program/AP Textbooks/Quantitative Methods","False","mono","False","18","no","white","no","yes","768","legacy","36","11","C:/Users/stcka/OneDrive/Sam Docs/Psychology Program/AP Textbooks/Quantitative Methods/SA-subject-4.csv","legacy","7 2 3","Melodramatic Milgram","4.0.5","3","y","0","left","left","right","left","NA","525.0","598","1998","525","NA","2","legacy","3","1024","2","48000","-16","experiment","4","even","3","309713","306486","307509","2549","83907","307510","226780","2552","81909","311713","312238","308511","3151","311713","NA","Sternberg task","43","48473.0","49","1024"
"88","88","988","988","#3d3846","experiment","legacy","legacy","legacy","1","undefined","1","left","49","49","49","0","0","49","49","0","0","49","49","49","0","49","0","Wed Oct 18 12:11:53 2023","The main experiment item","False","Sternbergtask.osexp","C:/Users/stcka/OneDrive/Sam Docs/Psychology Program/AP Textbooks/Quantitative Methods","False","mono","False","18","no","white","no","yes","768","legacy","37","11","C:/Users/stcka/OneDrive/Sam Docs/Psychology Program/AP Textbooks/Quantitative Methods/SA-subject-4.csv","legacy","1 4 9 3 2 5","Melodramatic Milgram","4.0.5","3","y","0","left","left","right","left","NA","941.0","598","1998","941","NA","2","legacy","6","1024","2","48000","-16","experiment","4","even","9","315468","312242","313266","2549","83907","313267","226780","2552","81909","317468","318410","314267","3151","317468","NA","Sternberg task","44","49414.0","50","1024"
"88","88","991","991","#3d3846","experiment","legacy","legacy","legacy","1","undefined","1","right","50","50","50","0","0","50","50","0","0","50","50","50","0","50","0","Wed Oct 18 12:11:53 2023","The main experiment item","False","Sternbergtask.osexp","C:/Users/stcka/OneDrive/Sam Docs/Psychology Program/AP Textbooks/Quantitative Methods","False","mono","False","18","no","white","no","yes","768","legacy","38","11","C:/Users/stcka/OneDrive/Sam Docs/Psychology Program/AP Textbooks/Quantitative Methods/SA-subject-4.csv","legacy","5 9 2 3","Melodramatic Milgram","4.0.5","0","n","0","right","left","right","right","NA","1170.0","598","1998","1170","NA","2","legacy","4","1024","2","48000","-16","experiment","4","even","8","321639","318415","319436","2549","83907","319436","226780","2552","81909","323639","324810","320438","3151","323639","NA","Sternberg task","45","50584.0","51","1024"
"88","88","987","987","#3d3846","experiment","legacy","legacy","legacy","1","undefined","1","right","51","51","51","0","0","51","51","0","0","51","51","51","0","51","0","Wed Oct 18 12:11:53 2023","The main experiment item","False","Sternbergtask.osexp","C:/Users/stcka/OneDrive/Sam Docs/Psychology Program/AP Textbooks/Quantitative Methods","False","mono","False","18","no","white","no","yes","768","legacy","39","11","C:/Users/stcka/OneDrive/Sam Docs/Psychology Program/AP Textbooks/Quantitative Methods/SA-subject-4.csv","legacy","1 4 3 6 5","Melodramatic Milgram","4.0.5","0","n","0","right","left","right","right","NA","768.0","598","1998","768","NA","2","legacy","5","1024","2","48000","-16","experiment","4","even","8","328038","324814","325836","2549","83907","325837","226780","2552","81909","330039","330807","326837","3151","330039","NA","Sternberg task","46","51352.0","52","1024"
"88","88","982","982","#3d3846","experiment","legacy","legacy","legacy","1","undefined","1","left","52","52","52","0","0","52","52","0","0","52","52","52","0","52","0","Wed Oct 18 12:11:53 2023","The main experiment item","False","Sternbergtask.osexp","C:/Users/stcka/OneDrive/Sam Docs/Psychology Program/AP Textbooks/Quantitative Methods","False","mono","False","18","no","white","no","yes","768","legacy","40","11","C:/Users/stcka/OneDrive/Sam Docs/Psychology Program/AP Textbooks/Quantitative Methods/SA-subject-4.csv","legacy","3 9 7 6 4","Melodramatic Milgram","4.0.5","3","y","0","left","left","right","left","NA","735.0","598","1998","735","NA","2","legacy","5","1024","2","48000","-16","experiment","4","even","7","334043","330812","331840","2549","83907","331841","226780","2552","81909","336044","336779","332842","3151","336043","NA","Sternberg task","47","52087.0","53","1024"
"88","88","980","980","#3d3846","experiment","legacy","legacy","legacy","1","undefined","1","left","53","53","53","0","0","53","53","0","0","53","53","53","0","53","0","Wed Oct 18 12:11:53 2023","The main experiment item","False","Sternbergtask.osexp","C:/Users/stcka/OneDrive/Sam Docs/Psychology Program/AP Textbooks/Quantitative Methods","False","mono","False","18","no","white","no","yes","768","legacy","41","11","C:/Users/stcka/OneDrive/Sam Docs/Psychology Program/AP Textbooks/Quantitative Methods/SA-subject-4.csv","legacy","7 1 3","Melodramatic Milgram","4.0.5","2","y","0","left","left","right","left","NA","850.0","598","1998","850","NA","2","legacy","3","1024","2","48000","-16","experiment","4","even","1","340019","336784","337816","2549","83907","337817","226780","2552","81909","342019","342869","338818","3151","342019","NA","Sternberg task","48","52937.0","54","1024"
"89","89","979","979","#3d3846","experiment","legacy","legacy","legacy","1","undefined","1","left","54","54","54","0","0","54","54","0","0","54","54","54","0","54","0","Wed Oct 18 12:11:53 2023","The main experiment item","False","Sternbergtask.osexp","C:/Users/stcka/OneDrive/Sam Docs/Psychology Program/AP Textbooks/Quantitative Methods","False","mono","False","18","no","white","no","yes","768","legacy","42","11","C:/Users/stcka/OneDrive/Sam Docs/Psychology Program/AP Textbooks/Quantitative Methods/SA-subject-4.csv","legacy","9 3 8 2 1 4","Melodramatic Milgram","4.0.5","3","y","0","left","left","right","left","NA","929.0","598","1998","929","NA","2","legacy","6","1024","2","48000","-16","experiment","4","even","8","346099","342874","343898","2549","83907","343899","226780","2552","81909","348100","349029","344899","3151","348099","NA","Sternberg task","49","53866.0","55","1024"
"89","89","974","974","#3d3846","experiment","legacy","legacy","legacy","1","undefined","1","left","55","55","55","0","0","55","55","0","0","55","55","55","0","55","0","Wed Oct 18 12:11:53 2023","The main experiment item","False","Sternbergtask.osexp","C:/Users/stcka/OneDrive/Sam Docs/Psychology Program/AP Textbooks/Quantitative Methods","False","mono","False","18","no","white","no","yes","768","legacy","43","11","C:/Users/stcka/OneDrive/Sam Docs/Psychology Program/AP Textbooks/Quantitative Methods/SA-subject-4.csv","legacy","4","Melodramatic Milgram","4.0.5","1","y","0","left","left","right","left","NA","713.0","598","1998","713","NA","2","legacy","1","1024","2","48000","-16","experiment","4","even","4","352259","349034","350056","2549","83907","350057","226780","2552","81909","354260","354974","351058","3151","354260","NA","Sternberg task","50","54579.0","56","1024"
"89","89","976","976","#3d3846","experiment","legacy","legacy","legacy","1","undefined","1","left","56","56","56","0","0","56","56","0","0","56","56","56","0","56","0","Wed Oct 18 12:11:53 2023","The main experiment item","False","Sternbergtask.osexp","C:/Users/stcka/OneDrive/Sam Docs/Psychology Program/AP Textbooks/Quantitative Methods","False","mono","False","18","no","white","no","yes","768","legacy","44","11","C:/Users/stcka/OneDrive/Sam Docs/Psychology Program/AP Textbooks/Quantitative Methods/SA-subject-4.csv","legacy","8 5 3 7 4 6","Melodramatic Milgram","4.0.5","6","y","0","left","left","right","left","NA","1097.0","598","1998","1097","NA","2","legacy","6","1024","2","48000","-16","experiment","4","even","6","358204","354979","356001","2549","83907","356002","226780","2552","81909","360204","361301","357003","3151","360204","NA","Sternberg task","51","55676.0","57","1024"
"89","89","975","975","#3d3846","experiment","legacy","legacy","legacy","1","undefined","1","right","57","57","57","0","0","57","57","0","0","57","57","57","0","57","0","Wed Oct 18 12:11:53 2023","The main experiment item","False","Sternbergtask.osexp","C:/Users/stcka/OneDrive/Sam Docs/Psychology Program/AP Textbooks/Quantitative Methods","False","mono","False","18","no","white","no","yes","768","legacy","45","11","C:/Users/stcka/OneDrive/Sam Docs/Psychology Program/AP Textbooks/Quantitative Methods/SA-subject-4.csv","legacy","7 1 5 6 3","Melodramatic Milgram","4.0.5","0","n","0","right","left","right","right","NA","881.0","598","1998","881","NA","2","legacy","5","1024","2","48000","-16","experiment","4","even","8","364532","361306","362330","2549","83907","362331","226780","2552","81909","366532","367413","363332","3151","366532","NA","Sternberg task","52","56557.0","58","1024"
"89","89","976","976","#3d3846","experiment","legacy","legacy","legacy","1","undefined","1","left","58","58","58","0","0","58","58","0","0","58","58","58","0","58","0","Wed Oct 18 12:11:53 2023","The main experiment item","False","Sternbergtask.osexp","C:/Users/stcka/OneDrive/Sam Docs/Psychology Program/AP Textbooks/Quantitative Methods","False","mono","False","18","no","white","no","yes","768","legacy","46","11","C:/Users/stcka/OneDrive/Sam Docs/Psychology Program/AP Textbooks/Quantitative Methods/SA-subject-4.csv","legacy","3 5 4 7","Melodramatic Milgram","4.0.5","1","y","0","left","left","right","left","NA","1037.0","598","1998","1037","NA","2","legacy","4","1024","2","48000","-16","experiment","4","even","3","370644","367418","368442","2549","83907","368443","226780","2552","81909","372645","373683","369443","3151","372645","NA","Sternberg task","53","57594.0","59","1024"
"90","90","972","972","#3d3846","experiment","legacy","legacy","legacy","1","undefined","1","left","59","59","59","0","0","59","59","0","0","59","59","59","0","59","0","Wed Oct 18 12:11:53 2023","The main experiment item","False","Sternbergtask.osexp","C:/Users/stcka/OneDrive/Sam Docs/Psychology Program/AP Textbooks/Quantitative Methods","False","mono","False","18","no","white","no","yes","768","legacy","47","11","C:/Users/stcka/OneDrive/Sam Docs/Psychology Program/AP Textbooks/Quantitative Methods/SA-subject-4.csv","legacy","8 3","Melodramatic Milgram","4.0.5","2","y","0","left","left","right","left","NA","728.0","598","1998","728","NA","2","legacy","2","1024","2","48000","-16","experiment","4","even","3","376915","373688","374712","2549","83907","374713","226780","2552","81909","378915","379644","375714","3151","378915","NA","Sternberg task","54","58322.0","60","1024"
"90","90","967","967","#3d3846","experiment","legacy","legacy","legacy","1","undefined","1","right","60","60","60","0","0","60","60","0","0","60","60","60","0","60","0","Wed Oct 18 12:11:53 2023","The main experiment item","False","Sternbergtask.osexp","C:/Users/stcka/OneDrive/Sam Docs/Psychology Program/AP Textbooks/Quantitative Methods","False","mono","False","18","no","white","no","yes","768","legacy","48","11","C:/Users/stcka/OneDrive/Sam Docs/Psychology Program/AP Textbooks/Quantitative Methods/SA-subject-4.csv","legacy","3 9 8 1 6 4","Melodramatic Milgram","4.0.5","0","n","0","right","left","right","right","NA","668.0","598","1998","668","NA","2","legacy","6","1024","2","48000","-16","experiment","4","even","7","382873","379647","380671","2549","83907","380672","226780","2552","81909","384873","385541","381672","3151","384873","NA","Sternberg task","55","58990.0","61","1024"
"90","90","966","966","#3d3846","experiment","legacy","legacy","legacy","1","undefined","1","right","61","61","61","0","0","61","61","0","0","61","61","61","0","61","0","Wed Oct 18 12:11:53 2023","The main experiment item","False","Sternbergtask.osexp","C:/Users/stcka/OneDrive/Sam Docs/Psychology Program/AP Textbooks/Quantitative Methods","False","mono","False","18","no","white","no","yes","768","legacy","49","11","C:/Users/stcka/OneDrive/Sam Docs/Psychology Program/AP Textbooks/Quantitative Methods/SA-subject-4.csv","legacy","6 9 5","Melodramatic Milgram","4.0.5","0","n","0","right","left","right","right","NA","909.0","598","1998","909","NA","2","legacy","3","1024","2","48000","-16","experiment","4","even","8","388780","385546","386579","2549","83907","386580","226780","2552","81909","390781","391690","387580","3151","390780","NA","Sternberg task","56","59899.0","62","1024"
"90","90","962","962","#3d3846","experiment","legacy","legacy","legacy","1","undefined","1","right","62","62","62","0","0","62","62","0","0","62","62","62","0","62","0","Wed Oct 18 12:11:53 2023","The main experiment item","False","Sternbergtask.osexp","C:/Users/stcka/OneDrive/Sam Docs/Psychology Program/AP Textbooks/Quantitative Methods","False","mono","False","18","no","white","no","yes","768","legacy","50","11","C:/Users/stcka/OneDrive/Sam Docs/Psychology Program/AP Textbooks/Quantitative Methods/SA-subject-4.csv","legacy","6 9 7 3 8 2","Melodramatic Milgram","4.0.5","0","n","0","right","left","right","right","NA","739.0","598","1998","739","NA","2","legacy","6","1024","2","48000","-16","experiment","4","even","5","394925","391696","392723","2549","83907","392724","226780","2552","81909","396926","397666","393724","3151","396925","NA","Sternberg task","57","60638.0","63","1024"
"90","90","958","958","#3d3846","experiment","legacy","legacy","legacy","1","undefined","1","left","63","63","63","0","0","63","63","0","0","63","63","63","0","63","0","Wed Oct 18 12:11:53 2023","The main experiment item","False","Sternbergtask.osexp","C:/Users/stcka/OneDrive/Sam Docs/Psychology Program/AP Textbooks/Quantitative Methods","False","mono","False","18","no","white","no","yes","768","legacy","51","11","C:/Users/stcka/OneDrive/Sam Docs/Psychology Program/AP Textbooks/Quantitative Methods/SA-subject-4.csv","legacy","8 9 5 7 1 6","Melodramatic Milgram","4.0.5","4","y","0","left","left","right","left","NA","723.0","598","1998","723","NA","2","legacy","6","1024","2","48000","-16","experiment","4","even","7","400893","397671","398691","2549","83907","398692","226780","2552","81909","402893","403617","399692","3151","402893","NA","Sternberg task","58","61361.0","64","1024"
"90","90","955","955","#3d3846","experiment","legacy","legacy","legacy","1","undefined","1","left","64","64","64","0","0","64","64","0","0","64","64","64","0","64","0","Wed Oct 18 12:11:53 2023","The main experiment item","False","Sternbergtask.osexp","C:/Users/stcka/OneDrive/Sam Docs/Psychology Program/AP Textbooks/Quantitative Methods","False","mono","False","18","no","white","no","yes","768","legacy","52","11","C:/Users/stcka/OneDrive/Sam Docs/Psychology Program/AP Textbooks/Quantitative Methods/SA-subject-4.csv","legacy","7 4 2 6 3 5","Melodramatic Milgram","4.0.5","6","y","0","left","left","right","left","NA","749.0","598","1998","749","NA","2","legacy","6","1024","2","48000","-16","experiment","4","even","5","406844","403622","404643","2549","83907","404644","226780","2552","81909","408844","409594","405644","3151","408844","NA","Sternberg task","59","62110.0","65","1024"
"90","90","953","953","#3d3846","experiment","legacy","legacy","legacy","1","undefined","1","left","65","65","65","0","0","65","65","0","0","65","65","65","0","65","0","Wed Oct 18 12:11:53 2023","The main experiment item","False","Sternbergtask.osexp","C:/Users/stcka/OneDrive/Sam Docs/Psychology Program/AP Textbooks/Quantitative Methods","False","mono","False","18","no","white","no","yes","768","legacy","53","11","C:/Users/stcka/OneDrive/Sam Docs/Psychology Program/AP Textbooks/Quantitative Methods/SA-subject-4.csv","legacy","4 9 7 8 5 3","Melodramatic Milgram","4.0.5","4","y","0","left","left","right","left","NA","790.0","598","1998","790","NA","2","legacy","6","1024","2","48000","-16","experiment","4","even","8","412829","409599","410627","2549","83907","410628","226780","2552","81909","414830","415621","411628","3151","414829","NA","Sternberg task","60","62900.0","66","1024"
"89","89","950","950","#3d3846","experiment","legacy","legacy","legacy","0","undefined","0","right","66","66","66","0","0","66","66","0","0","66","66","66","0","66","0","Wed Oct 18 12:11:53 2023","The main experiment item","False","Sternbergtask.osexp","C:/Users/stcka/OneDrive/Sam Docs/Psychology Program/AP Textbooks/Quantitative Methods","False","mono","False","18","no","white","no","yes","768","legacy","54","11","C:/Users/stcka/OneDrive/Sam Docs/Psychology Program/AP Textbooks/Quantitative Methods/SA-subject-4.csv","legacy","7 1","Melodramatic Milgram","4.0.5","0","n","0","left","left","right","left","NA","797.0","598","1998","797","NA","2","legacy","2","1024","2","48000","-16","experiment","4","even","8","418854","415626","416651","2549","83907","416652","226780","2552","81909","420854","421652","417653","3151","420854","NA","Sternberg task","60","63697.0","67","1024"
"89","89","949","949","#3d3846","experiment","legacy","legacy","legacy","1","undefined","1","left","67","67","67","0","0","67","67","0","0","67","67","67","0","67","0","Wed Oct 18 12:11:53 2023","The main experiment item","False","Sternbergtask.osexp","C:/Users/stcka/OneDrive/Sam Docs/Psychology Program/AP Textbooks/Quantitative Methods","False","mono","False","18","no","white","no","yes","768","legacy","55","11","C:/Users/stcka/OneDrive/Sam Docs/Psychology Program/AP Textbooks/Quantitative Methods/SA-subject-4.csv","legacy","3 5 9 6 2 4","Melodramatic Milgram","4.0.5","1","y","0","left","left","right","left","NA","896.0","598","1998","896","NA","2","legacy","6","1024","2","48000","-16","experiment","4","even","3","424880","415626","422677","2549","83907","422678","421656","2552","81909","426881","427778","423679","3151","426880","NA","Sternberg task","61","64593.0","68","1024"
"89","89","950","950","#3d3846","experiment","legacy","legacy","legacy","1","undefined","1","right","68","68","68","0","0","68","68","0","0","68","68","68","0","68","0","Wed Oct 18 12:11:53 2023","The main experiment item","False","Sternbergtask.osexp","C:/Users/stcka/OneDrive/Sam Docs/Psychology Program/AP Textbooks/Quantitative Methods","False","mono","False","18","no","white","no","yes","768","legacy","56","11","C:/Users/stcka/OneDrive/Sam Docs/Psychology Program/AP Textbooks/Quantitative Methods/SA-subject-4.csv","legacy","6 9 4 5 3 2","Melodramatic Milgram","4.0.5","0","n","0","right","left","right","right","NA","983.0","598","1998","983","NA","2","legacy","6","1024","2","48000","-16","experiment","4","even","8","431012","427783","428809","2549","83907","428810","421656","2552","81909","433012","433996","429811","3151","433012","NA","Sternberg task","62","65576.0","69","1024"
"90","90","947","947","#3d3846","experiment","legacy","legacy","legacy","1","undefined","1","right","69","69","69","0","0","69","69","0","0","69","69","69","0","69","0","Wed Oct 18 12:11:53 2023","The main experiment item","False","Sternbergtask.osexp","C:/Users/stcka/OneDrive/Sam Docs/Psychology Program/AP Textbooks/Quantitative Methods","False","mono","False","18","no","white","no","yes","768","legacy","57","11","C:/Users/stcka/OneDrive/Sam Docs/Psychology Program/AP Textbooks/Quantitative Methods/SA-subject-4.csv","legacy","8 9","Melodramatic Milgram","4.0.5","0","n","0","right","left","right","right","NA","780.0","598","1998","780","NA","2","legacy","2","1024","2","48000","-16","experiment","4","even","5","437228","434001","435025","2549","83907","435026","421656","2552","81909","439228","440009","436027","3151","439228","NA","Sternberg task","63","66356.0","70","1024"
"90","90","944","944","#3d3846","experiment","legacy","legacy","legacy","1","undefined","1","left","70","70","70","0","0","70","70","0","0","70","70","70","0","70","0","Wed Oct 18 12:11:53 2023","The main experiment item","False","Sternbergtask.osexp","C:/Users/stcka/OneDrive/Sam Docs/Psychology Program/AP Textbooks/Quantitative Methods","False","mono","False","18","no","white","no","yes","768","legacy","58","11","C:/Users/stcka/OneDrive/Sam Docs/Psychology Program/AP Textbooks/Quantitative Methods/SA-subject-4.csv","legacy","2 5 4 8 7","Melodramatic Milgram","4.0.5","3","y","0","left","left","right","left","NA","692.0","598","1998","692","NA","2","legacy","5","1024","2","48000","-16","experiment","4","even","4","443237","440013","441035","2549","83907","441035","421656","2552","81909","445238","445931","442036","3151","445238","NA","Sternberg task","64","67048.0","71","1024"
"90","90","940","940","#3d3846","experiment","legacy","legacy","legacy","1","undefined","1","right","71","71","71","0","0","71","71","0","0","71","71","71","0","71","0","Wed Oct 18 12:11:53 2023","The main experiment item","False","Sternbergtask.osexp","C:/Users/stcka/OneDrive/Sam Docs/Psychology Program/AP Textbooks/Quantitative Methods","False","mono","False","18","no","white","no","yes","768","legacy","59","11","C:/Users/stcka/OneDrive/Sam Docs/Psychology Program/AP Textbooks/Quantitative Methods/SA-subject-4.csv","legacy","1 7 5 2","Melodramatic Milgram","4.0.5","0","n","0","right","left","right","right","NA","677.0","598","1998","677","NA","2","legacy","4","1024","2","48000","-16","experiment","4","even","3","449160","445936","446959","2549","83907","446960","421656","2552","81909","451162","451840","447960","3151","451162","NA","Sternberg task","65","67725.0","72","1024"
"90","90","937","937","#3d3846","experiment","legacy","legacy","legacy","1","undefined","1","left","72","72","72","0","0","72","72","0","0","72","72","72","0","72","0","Wed Oct 18 12:11:53 2023","The main experiment item","False","Sternbergtask.osexp","C:/Users/stcka/OneDrive/Sam Docs/Psychology Program/AP Textbooks/Quantitative Methods","False","mono","False","18","no","white","no","yes","768","legacy","60","11","C:/Users/stcka/OneDrive/Sam Docs/Psychology Program/AP Textbooks/Quantitative Methods/SA-subject-4.csv","legacy","9 8 4","Melodramatic Milgram","4.0.5","1","y","0","left","left","right","left","NA","704.0","598","1998","704","NA","2","legacy","3","1024","2","48000","-16","experiment","4","even","9","455081","451844","452878","2549","83907","452879","421656","2552","81909","457082","457787","453880","3151","457081","NA","Sternberg task","66","68429.0","73","1024"
"90","90","936","936","#3d3846","experiment","legacy","legacy","legacy","1","undefined","1","right","73","73","73","0","0","73","73","0","0","73","73","73","0","73","0","Wed Oct 18 12:11:53 2023","The main experiment item","False","Sternbergtask.osexp","C:/Users/stcka/OneDrive/Sam Docs/Psychology Program/AP Textbooks/Quantitative Methods","False","mono","False","18","no","white","no","yes","768","legacy","61","11","C:/Users/stcka/OneDrive/Sam Docs/Psychology Program/AP Textbooks/Quantitative Methods/SA-subject-4.csv","legacy","2 5 1 4","Melodramatic Milgram","4.0.5","0","n","0","right","left","right","right","NA","862.0","598","1998","862","NA","2","legacy","4","1024","2","48000","-16","experiment","4","even","6","461025","457791","458823","2549","83907","458824","421656","2552","81909","463025","463888","459824","3151","463025","NA","Sternberg task","67","69291.0","74","1024"
"90","90","935","935","#3d3846","experiment","legacy","legacy","legacy","1","undefined","1","left","74","74","74","0","0","74","74","0","0","74","74","74","0","74","0","Wed Oct 18 12:11:53 2023","The main experiment item","False","Sternbergtask.osexp","C:/Users/stcka/OneDrive/Sam Docs/Psychology Program/AP Textbooks/Quantitative Methods","False","mono","False","18","no","white","no","yes","768","legacy","62","11","C:/Users/stcka/OneDrive/Sam Docs/Psychology Program/AP Textbooks/Quantitative Methods/SA-subject-4.csv","legacy","4 3 2 5 8","Melodramatic Milgram","4.0.5","2","y","0","left","left","right","left","NA","887.0","598","1998","887","NA","2","legacy","5","1024","2","48000","-16","experiment","4","even","3","467123","463893","464920","2549","83907","464921","421656","2552","81909","469124","470012","465921","3151","469123","NA","Sternberg task","68","70178.0","75","1024"
"90","90","935","935","#3d3846","experiment","legacy","legacy","legacy","1","undefined","1","left","75","75","75","0","0","75","75","0","0","75","75","75","0","75","0","Wed Oct 18 12:11:53 2023","The main experiment item","False","Sternbergtask.osexp","C:/Users/stcka/OneDrive/Sam Docs/Psychology Program/AP Textbooks/Quantitative Methods","False","mono","False","18","no","white","no","yes","768","legacy","63","11","C:/Users/stcka/OneDrive/Sam Docs/Psychology Program/AP Textbooks/Quantitative Methods/SA-subject-4.csv","legacy","3 9 6 2","Melodramatic Milgram","4.0.5","4","y","0","left","left","right","left","NA","922.0","598","1998","922","NA","2","legacy","4","1024","2","48000","-16","experiment","4","even","2","473244","470017","471041","2549","83907","471041","421656","2552","81909","475244","476167","472043","3151","475244","NA","Sternberg task","69","71100.0","76","1024"
"90","90","933","933","#3d3846","experiment","legacy","legacy","legacy","1","undefined","1","right","76","76","76","0","0","76","76","0","0","76","76","76","0","76","0","Wed Oct 18 12:11:53 2023","The main experiment item","False","Sternbergtask.osexp","C:/Users/stcka/OneDrive/Sam Docs/Psychology Program/AP Textbooks/Quantitative Methods","False","mono","False","18","no","white","no","yes","768","legacy","64","11","C:/Users/stcka/OneDrive/Sam Docs/Psychology Program/AP Textbooks/Quantitative Methods/SA-subject-4.csv","legacy","3 9 1","Melodramatic Milgram","4.0.5","0","n","0","right","left","right","right","NA","760.0","598","1998","760","NA","2","legacy","3","1024","2","48000","-16","experiment","4","even","7","479401","476172","477197","2549","83907","477198","421656","2552","81909","481402","482163","478199","3151","481402","NA","Sternberg task","70","71860.0","77","1024"
"91","91","930","930","#3d3846","experiment","legacy","legacy","legacy","1","undefined","1","right","77","77","77","0","0","77","77","0","0","77","77","77","0","77","0","Wed Oct 18 12:11:53 2023","The main experiment item","False","Sternbergtask.osexp","C:/Users/stcka/OneDrive/Sam Docs/Psychology Program/AP Textbooks/Quantitative Methods","False","mono","False","18","no","white","no","yes","768","legacy","65","11","C:/Users/stcka/OneDrive/Sam Docs/Psychology Program/AP Textbooks/Quantitative Methods/SA-subject-4.csv","legacy","7 9","Melodramatic Milgram","4.0.5","0","n","0","right","left","right","right","NA","748.0","598","1998","748","NA","2","legacy","2","1024","2","48000","-16","experiment","4","even","1","485393","482168","483190","2549","83907","483191","421656","2552","81909","487394","488143","484191","3151","487394","NA","Sternberg task","71","72608.0","78","1024"
"91","91","929","929","#3d3846","experiment","legacy","legacy","legacy","1","undefined","1","right","78","78","78","0","0","78","78","0","0","78","78","78","0","78","0","Wed Oct 18 12:11:53 2023","The main experiment item","False","Sternbergtask.osexp","C:/Users/stcka/OneDrive/Sam Docs/Psychology Program/AP Textbooks/Quantitative Methods","False","mono","False","18","no","white","no","yes","768","legacy","66","11","C:/Users/stcka/OneDrive/Sam Docs/Psychology Program/AP Textbooks/Quantitative Methods/SA-subject-4.csv","legacy","9 8 2 7 4","Melodramatic Milgram","4.0.5","0","n","0","right","left","right","right","NA","853.0","598","1998","853","NA","2","legacy","5","1024","2","48000","-16","experiment","4","even","5","491372","488148","489170","2549","83907","489171","421656","2552","81909","493373","494227","490171","3151","493373","NA","Sternberg task","72","73461.0","79","1024"
"91","91","930","930","#3d3846","experiment","legacy","legacy","legacy","1","undefined","1","left","79","79","79","0","0","79","79","0","0","79","79","79","0","79","0","Wed Oct 18 12:11:53 2023","The main experiment item","False","Sternbergtask.osexp","C:/Users/stcka/OneDrive/Sam Docs/Psychology Program/AP Textbooks/Quantitative Methods","False","mono","False","18","no","white","no","yes","768","legacy","67","11","C:/Users/stcka/OneDrive/Sam Docs/Psychology Program/AP Textbooks/Quantitative Methods/SA-subject-4.csv","legacy","7 1 8 5 6 2","Melodramatic Milgram","4.0.5","2","y","0","left","left","right","left","NA","951.0","598","1998","951","NA","2","legacy","6","1024","2","48000","-16","experiment","4","even","1","497461","494232","495258","2549","83907","495259","421656","2552","81909","499461","500412","496260","3151","499461","NA","Sternberg task","73","74412.0","80","1024"
"91","91","932","932","#3d3846","experiment","legacy","legacy","legacy","1","undefined","1","right","80","80","80","0","0","80","80","0","0","80","80","80","0","80","0","Wed Oct 18 12:11:53 2023","The main experiment item","False","Sternbergtask.osexp","C:/Users/stcka/OneDrive/Sam Docs/Psychology Program/AP Textbooks/Quantitative Methods","False","mono","False","18","no","white","no","yes","768","legacy","68","11","C:/Users/stcka/OneDrive/Sam Docs/Psychology Program/AP Textbooks/Quantitative Methods/SA-subject-4.csv","legacy","7 3 2 8","Melodramatic Milgram","4.0.5","0","n","0","right","left","right","right","NA","1147.0","598","1998","1147","NA","2","legacy","4","1024","2","48000","-16","experiment","4","even","4","503643","500417","501440","2549","83907","501441","421656","2552","81909","505643","506791","502442","3151","505643","NA","Sternberg task","74","75559.0","81","1024"
"91","91","928","928","#3d3846","experiment","legacy","legacy","legacy","1","undefined","1","right","81","81","81","0","0","81","81","0","0","81","81","81","0","81","0","Wed Oct 18 12:11:53 2023","The main experiment item","False","Sternbergtask.osexp","C:/Users/stcka/OneDrive/Sam Docs/Psychology Program/AP Textbooks/Quantitative Methods","False","mono","False","18","no","white","no","yes","768","legacy","69","11","C:/Users/stcka/OneDrive/Sam Docs/Psychology Program/AP Textbooks/Quantitative Methods/SA-subject-4.csv","legacy","4 1","Melodramatic Milgram","4.0.5","0","n","0","right","left","right","right","NA","599.0","598","1998","599","NA","2","legacy","2","1024","2","48000","-16","experiment","4","even","6","510019","506796","507816","2549","83907","507817","421656","2552","81909","512020","512619","508817","3151","512019","NA","Sternberg task","75","76158.0","82","1024"
"91","91","924","924","#3d3846","experiment","legacy","legacy","legacy","1","undefined","1","right","82","82","82","0","0","82","82","0","0","82","82","82","0","82","0","Wed Oct 18 12:11:53 2023","The main experiment item","False","Sternbergtask.osexp","C:/Users/stcka/OneDrive/Sam Docs/Psychology Program/AP Textbooks/Quantitative Methods","False","mono","False","18","no","white","no","yes","768","legacy","70","11","C:/Users/stcka/OneDrive/Sam Docs/Psychology Program/AP Textbooks/Quantitative Methods/SA-subject-4.csv","legacy","4 2 6 9","Melodramatic Milgram","4.0.5","0","n","0","right","left","right","right","NA","543.0","598","1998","543","NA","2","legacy","4","1024","2","48000","-16","experiment","4","even","7","515847","512623","513644","2549","83907","513645","421656","2552","81909","517847","518392","514646","3151","517847","NA","Sternberg task","76","76701.0","83","1024"
"91","91","923","923","#3d3846","experiment","legacy","legacy","legacy","1","undefined","1","left","83","83","83","0","0","83","83","0","0","83","83","83","0","83","0","Wed Oct 18 12:11:53 2023","The main experiment item","False","Sternbergtask.osexp","C:/Users/stcka/OneDrive/Sam Docs/Psychology Program/AP Textbooks/Quantitative Methods","False","mono","False","18","no","white","no","yes","768","legacy","71","11","C:/Users/stcka/OneDrive/Sam Docs/Psychology Program/AP Textbooks/Quantitative Methods/SA-subject-4.csv","legacy","5 7 8 2 3 8","Melodramatic Milgram","4.0.5","5","y","0","left","left","right","left","NA","871.0","598","1998","871","NA","2","legacy","6","1024","2","48000","-16","experiment","4","even","3","521627","518397","519424","2549","83907","519425","421656","2552","81909","523629","524501","520426","3151","523629","NA","Sternberg task","77","77572.0","84","1024"
"90","90","922","922","#3d3846","experiment","legacy","legacy","legacy","0","undefined","0","left","84","84","84","0","0","84","84","0","0","84","84","84","0","84","0","Wed Oct 18 12:11:53 2023","The main experiment item","False","Sternbergtask.osexp","C:/Users/stcka/OneDrive/Sam Docs/Psychology Program/AP Textbooks/Quantitative Methods","False","mono","False","18","no","white","no","yes","768","legacy","72","11","C:/Users/stcka/OneDrive/Sam Docs/Psychology Program/AP Textbooks/Quantitative Methods/SA-subject-4.csv","legacy","2 6 1 7 4","Melodramatic Milgram","4.0.5","2","y","0","right","left","right","right","NA","850.0","598","1998","850","NA","2","legacy","5","1024","2","48000","-16","experiment","4","even","6","527732","524505","525529","2549","83907","525530","421656","2552","81909","529732","530583","526531","3151","529732","NA","Sternberg task","77","78422.0","85","1024"
"90","90","917","917","#3d3846","experiment","legacy","legacy","legacy","1","undefined","1","left","85","85","85","0","0","85","85","0","0","85","85","85","0","85","0","Wed Oct 18 12:11:53 2023","The main experiment item","False","Sternbergtask.osexp","C:/Users/stcka/OneDrive/Sam Docs/Psychology Program/AP Textbooks/Quantitative Methods","False","mono","False","18","no","white","no","yes","768","legacy","73","11","C:/Users/stcka/OneDrive/Sam Docs/Psychology Program/AP Textbooks/Quantitative Methods/SA-subject-4.csv","legacy","9 1 7 2","Melodramatic Milgram","4.0.5","2","y","0","left","left","right","left","NA","519.0","598","1998","519","NA","2","legacy","4","1024","2","48000","-16","experiment","4","even","1","533811","524505","531610","2549","83907","531610","530588","2552","81909","535812","536332","532611","3151","535812","NA","Sternberg task","78","78941.0","86","1024"
"90","90","918","918","#3d3846","experiment","legacy","legacy","legacy","1","undefined","1","right","86","86","86","0","0","86","86","0","0","86","86","86","0","86","0","Wed Oct 18 12:11:53 2023","The main experiment item","False","Sternbergtask.osexp","C:/Users/stcka/OneDrive/Sam Docs/Psychology Program/AP Textbooks/Quantitative Methods","False","mono","False","18","no","white","no","yes","768","legacy","74","11","C:/Users/stcka/OneDrive/Sam Docs/Psychology Program/AP Textbooks/Quantitative Methods/SA-subject-4.csv","legacy","5 3 8 7 2 4","Melodramatic Milgram","4.0.5","0","n","0","right","left","right","right","NA","979.0","598","1998","979","NA","2","legacy","6","1024","2","48000","-16","experiment","4","even","9","539562","536337","537359","2549","83907","537360","530588","2552","81909","541563","542543","538361","3151","541562","NA","Sternberg task","79","79920.0","87","1024"
"90","90","918","918","#3d3846","experiment","legacy","legacy","legacy","1","undefined","1","left","87","87","87","0","0","87","87","0","0","87","87","87","0","87","0","Wed Oct 18 12:11:53 2023","The main experiment item","False","Sternbergtask.osexp","C:/Users/stcka/OneDrive/Sam Docs/Psychology Program/AP Textbooks/Quantitative Methods","False","mono","False","18","no","white","no","yes","768","legacy","75","11","C:/Users/stcka/OneDrive/Sam Docs/Psychology Program/AP Textbooks/Quantitative Methods/SA-subject-4.csv","legacy","5 2 6","Melodramatic Milgram","4.0.5","2","y","0","left","left","right","left","NA","878.0","598","1998","878","NA","2","legacy","3","1024","2","48000","-16","experiment","4","even","2","545776","542548","543574","2549","83907","543575","530588","2552","81909","547778","548657","544575","3151","547778","NA","Sternberg task","80","80798.0","88","1024"
"91","91","915","915","#3d3846","experiment","legacy","legacy","legacy","1","undefined","1","right","88","88","88","0","0","88","88","0","0","88","88","88","0","88","0","Wed Oct 18 12:11:53 2023","The main experiment item","False","Sternbergtask.osexp","C:/Users/stcka/OneDrive/Sam Docs/Psychology Program/AP Textbooks/Quantitative Methods","False","mono","False","18","no","white","no","yes","768","legacy","76","11","C:/Users/stcka/OneDrive/Sam Docs/Psychology Program/AP Textbooks/Quantitative Methods/SA-subject-4.csv","legacy","4 8 1 2","Melodramatic Milgram","4.0.5","0","n","0","right","left","right","right","NA","674.0","598","1998","674","NA","2","legacy","4","1024","2","48000","-16","experiment","4","even","7","551885","548661","549682","2549","83907","549683","530588","2552","81909","553885","554560","550684","3151","553885","NA","Sternberg task","81","81472.0","89","1024"
"91","91","916","916","#3d3846","experiment","legacy","legacy","legacy","1","undefined","1","right","89","89","89","0","0","89","89","0","0","89","89","89","0","89","0","Wed Oct 18 12:11:53 2023","The main experiment item","False","Sternbergtask.osexp","C:/Users/stcka/OneDrive/Sam Docs/Psychology Program/AP Textbooks/Quantitative Methods","False","mono","False","18","no","white","no","yes","768","legacy","77","11","C:/Users/stcka/OneDrive/Sam Docs/Psychology Program/AP Textbooks/Quantitative Methods/SA-subject-4.csv","legacy","2 8 9","Melodramatic Milgram","4.0.5","0","n","0","right","left","right","right","NA","989.0","598","1998","989","NA","2","legacy","3","1024","2","48000","-16","experiment","4","even","6","557794","554565","555590","2549","83907","555591","530588","2552","81909","559794","560783","556591","3151","559794","NA","Sternberg task","82","82461.0","90","1024"
"91","91","918","918","#3d3846","experiment","legacy","legacy","legacy","1","undefined","1","left","90","90","90","0","0","90","90","0","0","90","90","90","0","90","0","Wed Oct 18 12:11:53 2023","The main experiment item","False","Sternbergtask.osexp","C:/Users/stcka/OneDrive/Sam Docs/Psychology Program/AP Textbooks/Quantitative Methods","False","mono","False","18","no","white","no","yes","768","legacy","78","11","C:/Users/stcka/OneDrive/Sam Docs/Psychology Program/AP Textbooks/Quantitative Methods/SA-subject-4.csv","legacy","7 8 4 6 9 5","Melodramatic Milgram","4.0.5","4","y","0","left","left","right","left","NA","1130.0","598","1998","1130","NA","2","legacy","6","1024","2","48000","-16","experiment","4","even","6","564011","560787","561809","2549","83907","561810","530588","2552","81909","566012","567143","562810","3151","566012","NA","Sternberg task","83","83591.0","91","1024"
"91","91","920","920","#3d3846","experiment","legacy","legacy","legacy","1","undefined","1","right","91","91","91","0","0","91","91","0","0","91","91","91","0","91","0","Wed Oct 18 12:11:53 2023","The main experiment item","False","Sternbergtask.osexp","C:/Users/stcka/OneDrive/Sam Docs/Psychology Program/AP Textbooks/Quantitative Methods","False","mono","False","18","no","white","no","yes","768","legacy","79","11","C:/Users/stcka/OneDrive/Sam Docs/Psychology Program/AP Textbooks/Quantitative Methods/SA-subject-4.csv","legacy","7 8 6 1","Melodramatic Milgram","4.0.5","0","n","0","right","left","right","right","NA","1140.0","598","1998","1140","NA","2","legacy","4","1024","2","48000","-16","experiment","4","even","3","570383","567146","568181","2549","83907","568182","530588","2552","81909","572384","573525","569182","3151","572384","NA","Sternberg task","84","84731.0","92","1024"
"91","91","920","920","#3d3846","experiment","legacy","legacy","legacy","1","undefined","1","left","92","92","92","0","0","92","92","0","0","92","92","92","0","92","0","Wed Oct 18 12:11:53 2023","The main experiment item","False","Sternbergtask.osexp","C:/Users/stcka/OneDrive/Sam Docs/Psychology Program/AP Textbooks/Quantitative Methods","False","mono","False","18","no","white","no","yes","768","legacy","80","11","C:/Users/stcka/OneDrive/Sam Docs/Psychology Program/AP Textbooks/Quantitative Methods/SA-subject-4.csv","legacy","6 7 9 3 1 2","Melodramatic Milgram","4.0.5","1","y","0","left","left","right","left","NA","864.0","598","1998","864","NA","2","legacy","6","1024","2","48000","-16","experiment","4","even","6","576761","573530","574559","2549","83907","574560","530588","2552","81909","578762","579627","575560","3151","578762","NA","Sternberg task","85","85595.0","93","1024"
"91","91","918","918","#3d3846","experiment","legacy","legacy","legacy","1","undefined","1","left","93","93","93","0","0","93","93","0","0","93","93","93","0","93","0","Wed Oct 18 12:11:53 2023","The main experiment item","False","Sternbergtask.osexp","C:/Users/stcka/OneDrive/Sam Docs/Psychology Program/AP Textbooks/Quantitative Methods","False","mono","False","18","no","white","no","yes","768","legacy","81","11","C:/Users/stcka/OneDrive/Sam Docs/Psychology Program/AP Textbooks/Quantitative Methods/SA-subject-4.csv","legacy","8 9 6 1","Melodramatic Milgram","4.0.5","2","y","0","left","left","right","left","NA","770.0","598","1998","770","NA","2","legacy","4","1024","2","48000","-16","experiment","4","even","9","582858","579632","580655","2549","83907","580656","530588","2552","81909","584858","585628","581657","3151","584858","NA","Sternberg task","86","86365.0","94","1024"
"91","91","921","921","#3d3846","experiment","legacy","legacy","legacy","1","undefined","1","left","94","94","94","0","0","94","94","0","0","94","94","94","0","94","0","Wed Oct 18 12:11:53 2023","The main experiment item","False","Sternbergtask.osexp","C:/Users/stcka/OneDrive/Sam Docs/Psychology Program/AP Textbooks/Quantitative Methods","False","mono","False","18","no","white","no","yes","768","legacy","82","11","C:/Users/stcka/OneDrive/Sam Docs/Psychology Program/AP Textbooks/Quantitative Methods/SA-subject-4.csv","legacy","3 5 7 1","Melodramatic Milgram","4.0.5","3","y","0","left","left","right","left","NA","1165.0","598","1998","1165","NA","2","legacy","4","1024","2","48000","-16","experiment","4","even","7","588860","585634","586656","2549","83907","586657","530588","2552","81909","590861","592027","587658","3151","590860","NA","Sternberg task","87","87530.0","95","1024"
"91","91","919","919","#3d3846","experiment","legacy","legacy","legacy","1","undefined","1","right","95","95","95","0","0","95","95","0","0","95","95","95","0","95","0","Wed Oct 18 12:11:53 2023","The main experiment item","False","Sternbergtask.osexp","C:/Users/stcka/OneDrive/Sam Docs/Psychology Program/AP Textbooks/Quantitative Methods","False","mono","False","18","no","white","no","yes","768","legacy","83","11","C:/Users/stcka/OneDrive/Sam Docs/Psychology Program/AP Textbooks/Quantitative Methods/SA-subject-4.csv","legacy","8 5 4 2 9 6","Melodramatic Milgram","4.0.5","0","n","0","right","left","right","right","NA","756.0","598","1998","756","NA","2","legacy","6","1024","2","48000","-16","experiment","4","even","3","595257","592032","593053","2549","83907","593054","530588","2552","81909","597257","598015","594055","3151","597257","NA","Sternberg task","88","88286.0","96","1024"
"91","91","920","920","#3d3846","experiment","legacy","legacy","legacy","1","undefined","1","left","96","96","96","0","0","96","96","0","0","96","96","96","0","96","0","Wed Oct 18 12:11:53 2023","The main experiment item","False","Sternbergtask.osexp","C:/Users/stcka/OneDrive/Sam Docs/Psychology Program/AP Textbooks/Quantitative Methods","False","mono","False","18","no","white","no","yes","768","legacy","84","11","C:/Users/stcka/OneDrive/Sam Docs/Psychology Program/AP Textbooks/Quantitative Methods/SA-subject-4.csv","legacy","3 2 1 4 7","Melodramatic Milgram","4.0.5","2","y","0","left","left","right","left","NA","975.0","598","1998","975","NA","2","legacy","5","1024","2","48000","-16","experiment","4","even","2","601244","598020","599041","2549","83907","599042","530588","2552","81909","603245","604221","600043","3151","603244","NA","Sternberg task","89","89261.0","97","1024"
"91","91","920","920","#3d3846","experiment","legacy","legacy","legacy","1","undefined","1","right","97","97","97","0","0","97","97","0","0","97","97","97","0","97","0","Wed Oct 18 12:11:53 2023","The main experiment item","False","Sternbergtask.osexp","C:/Users/stcka/OneDrive/Sam Docs/Psychology Program/AP Textbooks/Quantitative Methods","False","mono","False","18","no","white","no","yes","768","legacy","85","11","C:/Users/stcka/OneDrive/Sam Docs/Psychology Program/AP Textbooks/Quantitative Methods/SA-subject-4.csv","legacy","3 4 9 6 7 8","Melodramatic Milgram","4.0.5","0","n","0","right","left","right","right","NA","930.0","598","1998","930","NA","2","legacy","6","1024","2","48000","-16","experiment","4","even","2","607449","604226","605246","2549","83907","605247","530588","2552","81909","609450","610380","606247","3151","609450","NA","Sternberg task","90","90191.0","98","1024"
"91","91","920","920","#3d3846","experiment","legacy","legacy","legacy","1","undefined","1","left","98","98","98","0","0","98","98","0","0","98","98","98","0","98","0","Wed Oct 18 12:11:53 2023","The main experiment item","False","Sternbergtask.osexp","C:/Users/stcka/OneDrive/Sam Docs/Psychology Program/AP Textbooks/Quantitative Methods","False","mono","False","18","no","white","no","yes","768","legacy","86","11","C:/Users/stcka/OneDrive/Sam Docs/Psychology Program/AP Textbooks/Quantitative Methods/SA-subject-4.csv","legacy","9 4 2","Melodramatic Milgram","4.0.5","1","y","0","left","left","right","left","NA","954.0","598","1998","954","NA","2","legacy","3","1024","2","48000","-16","experiment","4","even","9","613613","610385","611410","2549","83907","611411","530588","2552","81909","615613","616568","612412","3151","615613","NA","Sternberg task","91","91145.0","99","1024"
"92","92","919","919","#3d3846","experiment","legacy","legacy","legacy","1","undefined","1","left","99","99","99","0","0","99","99","0","0","99","99","99","0","99","0","Wed Oct 18 12:11:53 2023","The main experiment item","False","Sternbergtask.osexp","C:/Users/stcka/OneDrive/Sam Docs/Psychology Program/AP Textbooks/Quantitative Methods","False","mono","False","18","no","white","no","yes","768","legacy","87","11","C:/Users/stcka/OneDrive/Sam Docs/Psychology Program/AP Textbooks/Quantitative Methods/SA-subject-4.csv","legacy","6 1 2","Melodramatic Milgram","4.0.5","3","y","0","left","left","right","left","NA","817.0","598","1998","817","NA","2","legacy","3","1024","2","48000","-16","experiment","4","even","2","619799","616573","617596","2549","83907","617597","530588","2552","81909","621799","622616","618598","3151","621799","NA","Sternberg task","92","91962.0","100","1024"
"92","92","917","917","#3d3846","experiment","legacy","legacy","legacy","1","undefined","1","left","100","100","100","0","0","100","100","0","0","100","100","100","0","100","0","Wed Oct 18 12:11:53 2023","The main experiment item","False","Sternbergtask.osexp","C:/Users/stcka/OneDrive/Sam Docs/Psychology Program/AP Textbooks/Quantitative Methods","False","mono","False","18","no","white","no","yes","768","legacy","88","11","C:/Users/stcka/OneDrive/Sam Docs/Psychology Program/AP Textbooks/Quantitative Methods/SA-subject-4.csv","legacy","2 4 8 5 1 3","Melodramatic Milgram","4.0.5","1","y","0","left","left","right","left","NA","749.0","598","1998","749","NA","2","legacy","6","1024","2","48000","-16","experiment","4","even","2","625848","622621","623644","2549","83907","623645","530588","2552","81909","627849","628598","624646","3151","627848","NA","Sternberg task","93","92711.0","101","1024"
"92","92","915","915","#3d3846","experiment","legacy","legacy","legacy","1","undefined","1","right","101","101","101","0","0","101","101","0","0","101","101","101","0","101","0","Wed Oct 18 12:11:53 2023","The main experiment item","False","Sternbergtask.osexp","C:/Users/stcka/OneDrive/Sam Docs/Psychology Program/AP Textbooks/Quantitative Methods","False","mono","False","18","no","white","no","yes","768","legacy","89","11","C:/Users/stcka/OneDrive/Sam Docs/Psychology Program/AP Textbooks/Quantitative Methods/SA-subject-4.csv","legacy","1","Melodramatic Milgram","4.0.5","0","n","0","right","left","right","right","NA","678.0","598","1998","678","NA","2","legacy","1","1024","2","48000","-16","experiment","4","even","7","631833","628603","629630","2549","83907","629631","530588","2552","81909","633834","634513","630632","3151","633833","NA","Sternberg task","94","93389.0","102","1024"
"92","92","914","914","#3d3846","experiment","legacy","legacy","legacy","1","undefined","1","left","102","102","102","0","0","102","102","0","0","102","102","102","0","102","0","Wed Oct 18 12:11:53 2023","The main experiment item","False","Sternbergtask.osexp","C:/Users/stcka/OneDrive/Sam Docs/Psychology Program/AP Textbooks/Quantitative Methods","False","mono","False","18","no","white","no","yes","768","legacy","90","11","C:/Users/stcka/OneDrive/Sam Docs/Psychology Program/AP Textbooks/Quantitative Methods/SA-subject-4.csv","legacy","2 4 6 9","Melodramatic Milgram","4.0.5","3","y","0","left","left","right","left","NA","823.0","598","1998","823","NA","2","legacy","4","1024","2","48000","-16","experiment","4","even","6","637746","634518","635544","2549","83907","635545","530588","2552","81909","639748","640572","636545","3151","639748","NA","Sternberg task","95","94212.0","103","1024"
"92","92","912","912","#3d3846","experiment","legacy","legacy","legacy","1","undefined","1","left","103","103","103","0","0","103","103","0","0","103","103","103","0","103","0","Wed Oct 18 12:11:53 2023","The main experiment item","False","Sternbergtask.osexp","C:/Users/stcka/OneDrive/Sam Docs/Psychology Program/AP Textbooks/Quantitative Methods","False","mono","False","18","no","white","no","yes","768","legacy","91","11","C:/Users/stcka/OneDrive/Sam Docs/Psychology Program/AP Textbooks/Quantitative Methods/SA-subject-4.csv","legacy","9 6 2 4 1","Melodramatic Milgram","4.0.5","4","y","0","left","left","right","left","NA","667.0","598","1998","667","NA","2","legacy","5","1024","2","48000","-16","experiment","4","even","4","643799","640577","641597","2549","83907","641598","530588","2552","81909","645799","646468","642598","3151","645799","NA","Sternberg task","96","94879.0","104","1024"
"92","92","910","910","#3d3846","experiment","legacy","legacy","legacy","1","undefined","1","right","104","104","104","0","0","104","104","0","0","104","104","104","0","104","0","Wed Oct 18 12:11:53 2023","The main experiment item","False","Sternbergtask.osexp","C:/Users/stcka/OneDrive/Sam Docs/Psychology Program/AP Textbooks/Quantitative Methods","False","mono","False","18","no","white","no","yes","768","legacy","92","11","C:/Users/stcka/OneDrive/Sam Docs/Psychology Program/AP Textbooks/Quantitative Methods/SA-subject-4.csv","legacy","9","Melodramatic Milgram","4.0.5","0","n","0","right","left","right","right","NA","731.0","598","1998","731","NA","2","legacy","1","1024","2","48000","-16","experiment","4","even","6","649701","646479","647499","2549","83907","647500","530588","2552","81909","651702","652434","648501","3151","651701","NA","Sternberg task","97","95610.0","105","1024"
"92","92","912","912","#3d3846","experiment","legacy","legacy","legacy","1","undefined","1","right","105","105","105","0","0","105","105","0","0","105","105","105","0","105","0","Wed Oct 18 12:11:53 2023","The main experiment item","False","Sternbergtask.osexp","C:/Users/stcka/OneDrive/Sam Docs/Psychology Program/AP Textbooks/Quantitative Methods","False","mono","False","18","no","white","no","yes","768","legacy","93","11","C:/Users/stcka/OneDrive/Sam Docs/Psychology Program/AP Textbooks/Quantitative Methods/SA-subject-4.csv","legacy","1 3 2 6 9","Melodramatic Milgram","4.0.5","0","n","0","right","left","right","right","NA","1070.0","598","1998","1070","NA","2","legacy","5","1024","2","48000","-16","experiment","4","even","5","655665","652439","653462","2549","83907","653463","530588","2552","81909","657665","658736","654464","3151","657665","NA","Sternberg task","98","96680.0","106","1024"
"92","92","911","911","#3d3846","experiment","legacy","legacy","legacy","1","undefined","1","left","106","106","106","0","0","106","106","0","0","106","106","106","0","106","0","Wed Oct 18 12:11:53 2023","The main experiment item","False","Sternbergtask.osexp","C:/Users/stcka/OneDrive/Sam Docs/Psychology Program/AP Textbooks/Quantitative Methods","False","mono","False","18","no","white","no","yes","768","legacy","94","11","C:/Users/stcka/OneDrive/Sam Docs/Psychology Program/AP Textbooks/Quantitative Methods/SA-subject-4.csv","legacy","5 7 3 6 2","Melodramatic Milgram","4.0.5","5","y","0","left","left","right","left","NA","855.0","598","1998","855","NA","2","legacy","5","1024","2","48000","-16","experiment","4","even","2","661969","658741","659766","2549","83907","659767","530588","2552","81909","663969","664825","660768","3151","663969","NA","Sternberg task","99","97535.0","107","1024"
"92","92","908","908","#3d3846","experiment","legacy","legacy","legacy","1","undefined","1","right","107","107","107","0","0","107","107","0","0","107","107","107","0","107","0","Wed Oct 18 12:11:53 2023","The main experiment item","False","Sternbergtask.osexp","C:/Users/stcka/OneDrive/Sam Docs/Psychology Program/AP Textbooks/Quantitative Methods","False","mono","False","18","no","white","no","yes","768","legacy","95","11","C:/Users/stcka/OneDrive/Sam Docs/Psychology Program/AP Textbooks/Quantitative Methods/SA-subject-4.csv","legacy","5","Melodramatic Milgram","4.0.5","0","n","0","right","left","right","right","NA","530.0","598","1998","530","NA","2","legacy","1","1024","2","48000","-16","experiment","4","even","8","668053","664830","665850","2549","83907","665851","530588","2552","81909","670053","670584","666852","3151","670053","NA","Sternberg task","100","98065.0","108","1024"
"92","92","913","913","#3d3846","experiment","legacy","legacy","legacy","1","undefined","1","right","108","108","108","0","0","108","108","0","0","108","108","108","0","108","0","Wed Oct 18 12:11:53 2023","The main experiment item","False","Sternbergtask.osexp","C:/Users/stcka/OneDrive/Sam Docs/Psychology Program/AP Textbooks/Quantitative Methods","False","mono","False","18","no","white","no","yes","768","legacy","96","11","C:/Users/stcka/OneDrive/Sam Docs/Psychology Program/AP Textbooks/Quantitative Methods/SA-subject-4.csv","legacy","9 5 3 2 8 6","Melodramatic Milgram","4.0.5","0","n","0","right","left","right","right","NA","1458.0","598","1998","1458","NA","2","legacy","6","1024","2","48000","-16","experiment","4","even","7","673814","670589","671611","2549","83907","671612","530588","2552","81909","675814","677273","672613","3151","675814","NA","Sternberg task","101","99523.0","109","1024"
"92","92","910","910","#3d3846","experiment","legacy","legacy","legacy","1","undefined","1","right","109","109","109","0","0","109","109","0","0","109","109","109","0","109","0","Wed Oct 18 12:11:53 2023","The main experiment item","False","Sternbergtask.osexp","C:/Users/stcka/OneDrive/Sam Docs/Psychology Program/AP Textbooks/Quantitative Methods","False","mono","False","18","no","white","no","yes","768","legacy","97","11","C:/Users/stcka/OneDrive/Sam Docs/Psychology Program/AP Textbooks/Quantitative Methods/SA-subject-4.csv","legacy","3 4 2","Melodramatic Milgram","4.0.5","0","n","0","right","left","right","right","NA","586.0","598","1998","586","NA","2","legacy","3","1024","2","48000","-16","experiment","4","even","5","680502","677276","678299","2549","83907","678300","530588","2552","81909","682502","683089","679301","3151","682502","NA","Sternberg task","102","100109.0","110","1024"
