acc,accuracy,average_response_time,avg_rt,background,block,canvas_backend,clock_backend,color_backend,correct,correct_instuctions1,correct_keyboard_response,correct_response,count_Exp_sequence,count_Fixation,count_ISI,count_MemorySet,count_correctFeedback,count_experiment,count_experiment_loop,count_incorrectFeeback,count_instructions2,count_instuctions1,count_keyboard_response,count_logger,count_practice_loop,count_probe,count_thankyou,datetime,description,disable_garbage_collection,experiment_file,experiment_path,font_bold,font_family,font_italic,font_size,font_underline,foreground,form_clicks,fullscreen,height,keyboard_backend,live_row,live_row_practice_loop,logfile,mouse_backend,numberSet,opensesame_codename,opensesame_version,posInSet,present,repeat_cycle,response,response_instructions2,response_instuctions1,response_keyboard_response,response_thankyou,response_time,response_time_instructions2,response_time_instuctions1,response_time_keyboard_response,response_time_thankyou,round_decimals,sampler_backend,setSize,sound_buf_size,sound_channels,sound_freq,sound_sample_size,start,subject_nr,subject_parity,target,time_Exp_sequence,time_Fixation,time_ISI,time_MemorySet,time_correctFeedback,time_experiment,time_experiment_loop,time_incorrectFeeback,time_instructions2,time_instuctions1,time_keyboard_response,time_logger,time_practice_loop,time_probe,time_thankyou,title,total_correct,total_response_time,total_responses,width
100,100,647,647,#3d3846,practice,legacy,legacy,legacy,1,undefined,1,right,0,0,0,0,0,0,0,0,0,0,0,0,0,0,0,Thu Oct 13 16:28:55 2023,The main experiment item,TRUE,SternbergTask.osexp,/Users/RMILLER1/Library/CloudStorage/OneDrive-tarleton.edu(NTNET)/TSU Online Classes/Graduate Class/ Adv Quant Methods and Design,FALSE,mono,FALSE,18,no,white,no,no,768,legacy,0,0,/Users/RMILLER1/Library/CloudStorage/OneDrive-tarleton.edu(NTNET)/TSU Online Classes/Graduate Class/ Adv Quant Methods and Design/Sternberg/RM-subject-1.csv,legacy,2 1,Melodramatic Milgram,4.0.5,0,n,0,right,NA,left,right,NA,647.0,NA,20230,647,NA,2,legacy,2,1024,2,48000,-16,experiment,1,odd,5,33379,33382,35591,34387,NA,13015,NA,NA,NA,13066,37596,38244,33327,37596,NA,SternbergTask,1,647.0,1,1024
100,100,727,727,#3d3846,practice,legacy,legacy,legacy,1,undefined,1,left,1,1,1,1,1,0,0,1,0,0,1,1,0,1,0,Thu Oct 13 16:28:55 2023,The main experiment item,TRUE,SternbergTask.osexp,/Users/RMILLER1/Library/CloudStorage/OneDrive-tarleton.edu(NTNET)/TSU Online Classes/Graduate Class/ Adv Quant Methods and Design,FALSE,mono,FALSE,18,no,white,no,no,768,legacy,1,1,/Users/RMILLER1/Library/CloudStorage/OneDrive-tarleton.edu(NTNET)/TSU Online Classes/Graduate Class/ Adv Quant Methods and Design/Sternberg/RM-subject-1.csv,legacy,1 7 9 8 5,Melodramatic Milgram,4.0.5,4,y,0,left,NA,left,left,NA,807.0,NA,20230,807,NA,2,legacy,5,1024,2,48000,-16,experiment,1,odd,8,39327,39332,41541,40338,38278,13015,NA,NA,NA,13066,43546,44353,33327,43546,NA,SternbergTask,2,1454.0,2,1024
100,100,685,685,#3d3846,practice,legacy,legacy,legacy,1,undefined,1,left,2,2,2,2,2,0,0,2,0,0,2,2,0,2,0,Thu Oct 13 16:28:55 2023,The main experiment item,TRUE,SternbergTask.osexp,/Users/RMILLER1/Library/CloudStorage/OneDrive-tarleton.edu(NTNET)/TSU Online Classes/Graduate Class/ Adv Quant Methods and Design,FALSE,mono,FALSE,18,no,white,no,no,768,legacy,2,2,/Users/RMILLER1/Library/CloudStorage/OneDrive-tarleton.edu(NTNET)/TSU Online Classes/Graduate Class/ Adv Quant Methods and Design/Sternberg/RM-subject-1.csv,legacy,2 9 4,Melodramatic Milgram,4.0.5,3,y,0,left,NA,left,left,NA,603.0,NA,20230,603,NA,2,legacy,3,1024,2,48000,-16,experiment,1,odd,4,45407,45409,47618,46413,44358,13015,NA,NA,NA,13066,49622,50233,33327,49622,NA,SternbergTask,3,2057.0,3,1024
100,100,827,827,#3d3846,practice,legacy,legacy,legacy,1,undefined,1,left,3,3,3,3,3,0,0,3,0,0,3,3,0,3,0,Thu Oct 13 16:28:55 2023,The main experiment item,TRUE,SternbergTask.osexp,/Users/RMILLER1/Library/CloudStorage/OneDrive-tarleton.edu(NTNET)/TSU Online Classes/Graduate Class/ Adv Quant Methods and Design,FALSE,mono,FALSE,18,no,white,no,no,768,legacy,3,3,/Users/RMILLER1/Library/CloudStorage/OneDrive-tarleton.edu(NTNET)/TSU Online Classes/Graduate Class/ Adv Quant Methods and Design/Sternberg/RM-subject-1.csv,legacy,6,Melodramatic Milgram,4.0.5,1,y,0,left,NA,left,left,NA,1251.0,NA,20230,1251,NA,2,legacy,1,1024,2,48000,-16,experiment,1,odd,6,51285,51289,53496,52293,50241,13015,NA,NA,NA,13066,55500,56752,33327,55500,NA,SternbergTask,4,3308.0,4,1024
100,100,767,767,#3d3846,practice,legacy,legacy,legacy,1,undefined,1,right,4,4,4,4,4,0,0,4,0,0,4,4,0,4,0,Thu Oct 13 16:28:55 2023,The main experiment item,TRUE,SternbergTask.osexp,/Users/RMILLER1/Library/CloudStorage/OneDrive-tarleton.edu(NTNET)/TSU Online Classes/Graduate Class/ Adv Quant Methods and Design,FALSE,mono,FALSE,18,no,white,no,no,768,legacy,4,4,/Users/RMILLER1/Library/CloudStorage/OneDrive-tarleton.edu(NTNET)/TSU Online Classes/Graduate Class/ Adv Quant Methods and Design/Sternberg/RM-subject-1.csv,legacy,4 1 5,Melodramatic Milgram,4.0.5,0,n,0,right,NA,left,right,NA,530.0,NA,20230,530,NA,2,legacy,3,1024,2,48000,-16,experiment,1,odd,2,57789,57792,60002,58796,56755,13015,NA,NA,NA,13066,62004,62535,33327,62004,NA,SternbergTask,5,3838.0,5,1024
100,100,815,815,#3d3846,practice,legacy,legacy,legacy,1,undefined,1,right,5,5,5,5,5,0,0,5,0,0,5,5,0,5,0,Thu Oct 13 16:28:55 2023,The main experiment item,TRUE,SternbergTask.osexp,/Users/RMILLER1/Library/CloudStorage/OneDrive-tarleton.edu(NTNET)/TSU Online Classes/Graduate Class/ Adv Quant Methods and Design,FALSE,mono,FALSE,18,no,white,no,no,768,legacy,5,5,/Users/RMILLER1/Library/CloudStorage/OneDrive-tarleton.edu(NTNET)/TSU Online Classes/Graduate Class/ Adv Quant Methods and Design/Sternberg/RM-subject-1.csv,legacy,5 7 8 4 1 2,Melodramatic Milgram,4.0.5,0,n,0,right,NA,left,right,NA,1052.0,NA,20230,1052,NA,2,legacy,6,1024,2,48000,-16,experiment,1,odd,6,63573,63576,65788,64582,62539,13015,NA,NA,NA,13066,67793,68846,33327,67792,NA,SternbergTask,6,4890.0,6,1024
100,100,799,799,#3d3846,practice,legacy,legacy,legacy,1,undefined,1,right,6,6,6,6,6,0,0,6,0,0,6,6,0,6,0,Thu Oct 13 16:28:55 2023,The main experiment item,TRUE,SternbergTask.osexp,/Users/RMILLER1/Library/CloudStorage/OneDrive-tarleton.edu(NTNET)/TSU Online Classes/Graduate Class/ Adv Quant Methods and Design,FALSE,mono,FALSE,18,no,white,no,no,768,legacy,6,6,/Users/RMILLER1/Library/CloudStorage/OneDrive-tarleton.edu(NTNET)/TSU Online Classes/Graduate Class/ Adv Quant Methods and Design/Sternberg/RM-subject-1.csv,legacy,5,Melodramatic Milgram,4.0.5,0,n,0,right,NA,left,right,NA,705.0,NA,20230,705,NA,2,legacy,1,1024,2,48000,-16,experiment,1,odd,3,69886,69890,72100,70894,68851,13015,NA,NA,NA,13066,74103,74808,33327,74103,NA,SternbergTask,7,5595.0,7,1024
100,100,776,776,#3d3846,practice,legacy,legacy,legacy,1,undefined,1,left,7,7,7,7,7,0,0,7,0,0,7,7,0,7,0,Thu Oct 13 16:28:55 2023,The main experiment item,TRUE,SternbergTask.osexp,/Users/RMILLER1/Library/CloudStorage/OneDrive-tarleton.edu(NTNET)/TSU Online Classes/Graduate Class/ Adv Quant Methods and Design,FALSE,mono,FALSE,18,no,white,no,no,768,legacy,7,7,/Users/RMILLER1/Library/CloudStorage/OneDrive-tarleton.edu(NTNET)/TSU Online Classes/Graduate Class/ Adv Quant Methods and Design/Sternberg/RM-subject-1.csv,legacy,4 8,Melodramatic Milgram,4.0.5,1,y,0,left,NA,left,left,NA,617.0,NA,20230,617,NA,2,legacy,2,1024,2,48000,-16,experiment,1,odd,4,75844,75849,78058,76853,74814,13015,NA,NA,NA,13066,80063,80681,33327,80063,NA,SternbergTask,8,6212.0,8,1024
100,100,757,757,#3d3846,practice,legacy,legacy,legacy,1,undefined,1,right,8,8,8,8,8,0,0,8,0,0,8,8,0,8,0,Thu Oct 13 16:28:55 2023,The main experiment item,TRUE,SternbergTask.osexp,/Users/RMILLER1/Library/CloudStorage/OneDrive-tarleton.edu(NTNET)/TSU Online Classes/Graduate Class/ Adv Quant Methods and Design,FALSE,mono,FALSE,18,no,white,no,no,768,legacy,8,8,/Users/RMILLER1/Library/CloudStorage/OneDrive-tarleton.edu(NTNET)/TSU Online Classes/Graduate Class/ Adv Quant Methods and Design/Sternberg/RM-subject-1.csv,legacy,3 1 9 4,Melodramatic Milgram,4.0.5,0,n,0,right,NA,left,right,NA,608.0,NA,20230,608,NA,2,legacy,4,1024,2,48000,-16,experiment,1,odd,6,81726,81730,83941,82735,80687,13015,NA,NA,NA,13066,85945,86554,33327,85944,NA,SternbergTask,9,6820.0,9,1024
100,100,753,753,#3d3846,practice,legacy,legacy,legacy,1,undefined,1,right,9,9,9,9,9,0,0,9,0,0,9,9,0,9,0,Thu Oct 13 16:28:55 2023,The main experiment item,TRUE,SternbergTask.osexp,/Users/RMILLER1/Library/CloudStorage/OneDrive-tarleton.edu(NTNET)/TSU Online Classes/Graduate Class/ Adv Quant Methods and Design,FALSE,mono,FALSE,18,no,white,no,no,768,legacy,9,9,/Users/RMILLER1/Library/CloudStorage/OneDrive-tarleton.edu(NTNET)/TSU Online Classes/Graduate Class/ Adv Quant Methods and Design/Sternberg/RM-subject-1.csv,legacy,9 6 7 4 5,Melodramatic Milgram,4.0.5,0,n,0,right,NA,left,right,NA,714.0,NA,20230,714,NA,2,legacy,5,1024,2,48000,-16,experiment,1,odd,3,87596,87599,89808,88605,86557,13015,NA,NA,NA,13066,91811,92526,33327,91811,NA,SternbergTask,10,7534.0,10,1024
100,100,733,733,#3d3846,practice,legacy,legacy,legacy,1,undefined,1,left,10,10,10,10,10,0,0,10,0,0,10,10,0,10,0,Thu Oct 13 16:28:55 2023,The main experiment item,TRUE,SternbergTask.osexp,/Users/RMILLER1/Library/CloudStorage/OneDrive-tarleton.edu(NTNET)/TSU Online Classes/Graduate Class/ Adv Quant Methods and Design,FALSE,mono,FALSE,18,no,white,no,no,768,legacy,10,10,/Users/RMILLER1/Library/CloudStorage/OneDrive-tarleton.edu(NTNET)/TSU Online Classes/Graduate Class/ Adv Quant Methods and Design/Sternberg/RM-subject-1.csv,legacy,4 3 1 7 9 8,Melodramatic Milgram,4.0.5,1,y,0,left,NA,left,left,NA,534.0,NA,20230,534,NA,2,legacy,6,1024,2,48000,-16,experiment,1,odd,4,93571,93574,95781,94578,92532,13015,NA,NA,NA,13066,97785,98319,33327,97785,NA,SternbergTask,11,8068.0,11,1024
100,100,719,719,#3d3846,practice,legacy,legacy,legacy,1,undefined,1,left,11,11,11,11,11,0,0,11,0,0,11,11,0,11,0,Thu Oct 13 16:28:55 2023,The main experiment item,TRUE,SternbergTask.osexp,/Users/RMILLER1/Library/CloudStorage/OneDrive-tarleton.edu(NTNET)/TSU Online Classes/Graduate Class/ Adv Quant Methods and Design,FALSE,mono,FALSE,18,no,white,no,no,768,legacy,11,11,/Users/RMILLER1/Library/CloudStorage/OneDrive-tarleton.edu(NTNET)/TSU Online Classes/Graduate Class/ Adv Quant Methods and Design/Sternberg/RM-subject-1.csv,legacy,1 5 2 9,Melodramatic Milgram,4.0.5,2,y,0,left,NA,left,left,NA,564.0,NA,20230,564,NA,2,legacy,4,1024,2,48000,-16,experiment,1,odd,5,99357,99359,101569,100363,98324,13015,NA,NA,NA,13066,103573,104137,33327,103573,NA,SternbergTask,12,8632.0,12,1024
92,92,713,713,#3d3846,experiment,legacy,legacy,legacy,0,undefined,0,left,12,12,12,12,12,0,0,12,0,0,12,12,0,12,0,Thu Oct 13 16:28:55 2023,The main experiment item,TRUE,SternbergTask.osexp,/Users/RMILLER1/Library/CloudStorage/OneDrive-tarleton.edu(NTNET)/TSU Online Classes/Graduate Class/ Adv Quant Methods and Design,FALSE,mono,FALSE,18,no,white,no,no,768,legacy,0,11,/Users/RMILLER1/Library/CloudStorage/OneDrive-tarleton.edu(NTNET)/TSU Online Classes/Graduate Class/ Adv Quant Methods and Design/Sternberg/RM-subject-1.csv,legacy,7 4 2 6 3 5,Melodramatic Milgram,4.0.5,6,y,0,right,right,left,right,NA,640.0,5065,20230,640,NA,2,legacy,6,1024,2,48000,-16,experiment,1,odd,5,110241,110243,112453,111249,104143,13015,110213,NA,105148,13066,114457,115098,33327,114457,NA,SternbergTask,12,9272.0,13,1024
92,92,718,718,#3d3846,experiment,legacy,legacy,legacy,1,undefined,1,right,13,13,13,13,13,0,0,13,0,0,13,13,0,13,0,Thu Oct 13 16:28:55 2023,The main experiment item,TRUE,SternbergTask.osexp,/Users/RMILLER1/Library/CloudStorage/OneDrive-tarleton.edu(NTNET)/TSU Online Classes/Graduate Class/ Adv Quant Methods and Design,FALSE,mono,FALSE,18,no,white,no,no,768,legacy,1,11,/Users/RMILLER1/Library/CloudStorage/OneDrive-tarleton.edu(NTNET)/TSU Online Classes/Graduate Class/ Adv Quant Methods and Design/Sternberg/RM-subject-1.csv,legacy,3 9 8 1 6 4,Melodramatic Milgram,4.0.5,0,n,0,right,right,left,right,NA,784.0,5065,20230,784,NA,2,legacy,6,1024,2,48000,-16,experiment,1,odd,7,116134,116137,118347,117141,104143,13015,110213,115101,105148,13066,120351,121136,33327,120351,NA,SternbergTask,13,10056.0,14,1024
93,93,710,710,#3d3846,experiment,legacy,legacy,legacy,1,undefined,1,right,14,14,14,14,14,0,0,14,0,0,14,14,0,14,0,Thu Oct 13 16:28:55 2023,The main experiment item,TRUE,SternbergTask.osexp,/Users/RMILLER1/Library/CloudStorage/OneDrive-tarleton.edu(NTNET)/TSU Online Classes/Graduate Class/ Adv Quant Methods and Design,FALSE,mono,FALSE,18,no,white,no,no,768,legacy,2,11,/Users/RMILLER1/Library/CloudStorage/OneDrive-tarleton.edu(NTNET)/TSU Online Classes/Graduate Class/ Adv Quant Methods and Design/Sternberg/RM-subject-1.csv,legacy,6 7 5 9,Melodramatic Milgram,4.0.5,0,n,0,right,right,left,right,NA,601.0,5065,20230,601,NA,2,legacy,4,1024,2,48000,-16,experiment,1,odd,2,122182,122185,124392,123188,121141,13015,110213,115101,105148,13066,126396,126997,33327,126396,NA,SternbergTask,14,10657.0,15,1024
93,93,709,709,#3d3846,experiment,legacy,legacy,legacy,1,undefined,1,right,15,15,15,15,15,0,0,15,0,0,15,15,0,15,0,Thu Oct 13 16:28:55 2023,The main experiment item,TRUE,SternbergTask.osexp,/Users/RMILLER1/Library/CloudStorage/OneDrive-tarleton.edu(NTNET)/TSU Online Classes/Graduate Class/ Adv Quant Methods and Design,FALSE,mono,FALSE,18,no,white,no,no,768,legacy,3,11,/Users/RMILLER1/Library/CloudStorage/OneDrive-tarleton.edu(NTNET)/TSU Online Classes/Graduate Class/ Adv Quant Methods and Design/Sternberg/RM-subject-1.csv,legacy,2 6 4 3 9,Melodramatic Milgram,4.0.5,0,n,0,right,right,left,right,NA,688.0,5065,20230,688,NA,2,legacy,5,1024,2,48000,-16,experiment,1,odd,1,128043,128047,130256,129053,127000,13015,110213,115101,105148,13066,132260,132949,33327,132260,NA,SternbergTask,15,11345.0,16,1024
94,94,717,717,#3d3846,experiment,legacy,legacy,legacy,1,undefined,1,left,16,16,16,16,16,0,0,16,0,0,16,16,0,16,0,Thu Oct 13 16:28:55 2023,The main experiment item,TRUE,SternbergTask.osexp,/Users/RMILLER1/Library/CloudStorage/OneDrive-tarleton.edu(NTNET)/TSU Online Classes/Graduate Class/ Adv Quant Methods and Design,FALSE,mono,FALSE,18,no,white,no,no,768,legacy,4,11,/Users/RMILLER1/Library/CloudStorage/OneDrive-tarleton.edu(NTNET)/TSU Online Classes/Graduate Class/ Adv Quant Methods and Design/Sternberg/RM-subject-1.csv,legacy,8 5 1 3 9,Melodramatic Milgram,4.0.5,4,y,0,left,right,left,left,NA,847.0,5065,20230,847,NA,2,legacy,5,1024,2,48000,-16,experiment,1,odd,3,133988,133993,136205,134998,132955,13015,110213,115101,105148,13066,138210,139058,33327,138209,NA,SternbergTask,16,12192.0,17,1024
94,94,721,721,#3d3846,experiment,legacy,legacy,legacy,1,undefined,1,left,17,17,17,17,17,0,0,17,0,0,17,17,0,17,0,Thu Oct 13 16:28:55 2023,The main experiment item,TRUE,SternbergTask.osexp,/Users/RMILLER1/Library/CloudStorage/OneDrive-tarleton.edu(NTNET)/TSU Online Classes/Graduate Class/ Adv Quant Methods and Design,FALSE,mono,FALSE,18,no,white,no,no,768,legacy,5,11,/Users/RMILLER1/Library/CloudStorage/OneDrive-tarleton.edu(NTNET)/TSU Online Classes/Graduate Class/ Adv Quant Methods and Design/Sternberg/RM-subject-1.csv,legacy,4 1 5,Melodramatic Milgram,4.0.5,2,y,0,left,right,left,left,NA,795.0,5065,20230,795,NA,2,legacy,3,1024,2,48000,-16,experiment,1,odd,1,140106,140110,142322,141114,139064,13015,110213,115101,105148,13066,144326,145121,33327,144326,NA,SternbergTask,17,12987.0,18,1024
94,94,711,711,#3d3846,experiment,legacy,legacy,legacy,1,undefined,1,right,18,18,18,18,18,0,0,18,0,0,18,18,0,18,0,Thu Oct 13 16:28:55 2023,The main experiment item,TRUE,SternbergTask.osexp,/Users/RMILLER1/Library/CloudStorage/OneDrive-tarleton.edu(NTNET)/TSU Online Classes/Graduate Class/ Adv Quant Methods and Design,FALSE,mono,FALSE,18,no,white,no,no,768,legacy,6,11,/Users/RMILLER1/Library/CloudStorage/OneDrive-tarleton.edu(NTNET)/TSU Online Classes/Graduate Class/ Adv Quant Methods and Design/Sternberg/RM-subject-1.csv,legacy,1 5 3 2 8,Melodramatic Milgram,4.0.5,0,n,0,right,right,left,right,NA,525.0,5065,20230,525,NA,2,legacy,5,1024,2,48000,-16,experiment,1,odd,4,146173,146176,148385,147181,145128,13015,110213,115101,105148,13066,150389,150915,33327,150389,NA,SternbergTask,18,13512.0,19,1024
95,95,707,707,#3d3846,experiment,legacy,legacy,legacy,1,undefined,1,right,19,19,19,19,19,0,0,19,0,0,19,19,0,19,0,Thu Oct 13 16:28:55 2023,The main experiment item,TRUE,SternbergTask.osexp,/Users/RMILLER1/Library/CloudStorage/OneDrive-tarleton.edu(NTNET)/TSU Online Classes/Graduate Class/ Adv Quant Methods and Design,FALSE,mono,FALSE,18,no,white,no,no,768,legacy,7,11,/Users/RMILLER1/Library/CloudStorage/OneDrive-tarleton.edu(NTNET)/TSU Online Classes/Graduate Class/ Adv Quant Methods and Design/Sternberg/RM-subject-1.csv,legacy,6 3 1 7 9 8,Melodramatic Milgram,4.0.5,0,n,0,right,right,left,right,NA,634.0,5065,20230,634,NA,2,legacy,6,1024,2,48000,-16,experiment,1,odd,4,151953,151955,154171,152960,150920,13015,110213,115101,105148,13066,156175,156810,33327,156175,NA,SternbergTask,19,14146.0,20,1024
95,95,702,702,#3d3846,experiment,legacy,legacy,legacy,1,undefined,1,right,20,20,20,20,20,0,0,20,0,0,20,20,0,20,0,Thu Oct 13 16:28:55 2023,The main experiment item,TRUE,SternbergTask.osexp,/Users/RMILLER1/Library/CloudStorage/OneDrive-tarleton.edu(NTNET)/TSU Online Classes/Graduate Class/ Adv Quant Methods and Design,FALSE,mono,FALSE,18,no,white,no,no,768,legacy,8,11,/Users/RMILLER1/Library/CloudStorage/OneDrive-tarleton.edu(NTNET)/TSU Online Classes/Graduate Class/ Adv Quant Methods and Design/Sternberg/RM-subject-1.csv,legacy,1 7 5 2,Melodramatic Milgram,4.0.5,0,n,0,right,right,left,right,NA,599.0,5065,20230,599,NA,2,legacy,4,1024,2,48000,-16,experiment,1,odd,3,157843,157846,160056,158851,156813,13015,110213,115101,105148,13066,162060,162660,33327,162060,NA,SternbergTask,20,14745.0,21,1024
95,95,723,723,#3d3846,experiment,legacy,legacy,legacy,1,undefined,1,left,21,21,21,21,21,0,0,21,0,0,21,21,0,21,0,Thu Oct 13 16:28:55 2023,The main experiment item,TRUE,SternbergTask.osexp,/Users/RMILLER1/Library/CloudStorage/OneDrive-tarleton.edu(NTNET)/TSU Online Classes/Graduate Class/ Adv Quant Methods and Design,FALSE,mono,FALSE,18,no,white,no,no,768,legacy,9,11,/Users/RMILLER1/Library/CloudStorage/OneDrive-tarleton.edu(NTNET)/TSU Online Classes/Graduate Class/ Adv Quant Methods and Design/Sternberg/RM-subject-1.csv,legacy,4 1 8 7 5,Melodramatic Milgram,4.0.5,3,y,0,left,right,left,left,NA,1161.0,5065,20230,1161,NA,2,legacy,5,1024,2,48000,-16,experiment,1,odd,8,163697,163699,165907,164703,162664,13015,110213,115101,105148,13066,167911,169072,33327,167911,NA,SternbergTask,21,15906.0,22,1024
95,95,717,717,#3d3846,experiment,legacy,legacy,legacy,1,undefined,1,left,22,22,22,22,22,0,0,22,0,0,22,22,0,22,0,Thu Oct 13 16:28:55 2023,The main experiment item,TRUE,SternbergTask.osexp,/Users/RMILLER1/Library/CloudStorage/OneDrive-tarleton.edu(NTNET)/TSU Online Classes/Graduate Class/ Adv Quant Methods and Design,FALSE,mono,FALSE,18,no,white,no,no,768,legacy,10,11,/Users/RMILLER1/Library/CloudStorage/OneDrive-tarleton.edu(NTNET)/TSU Online Classes/Graduate Class/ Adv Quant Methods and Design/Sternberg/RM-subject-1.csv,legacy,4 3 2 5 8,Melodramatic Milgram,4.0.5,2,y,0,left,right,left,left,NA,600.0,5065,20230,600,NA,2,legacy,5,1024,2,48000,-16,experiment,1,odd,3,170099,170101,172306,171104,169076,13015,110213,115101,105148,13066,174310,174911,33327,174310,NA,SternbergTask,22,16506.0,23,1024
95,95,711,711,#3d3846,experiment,legacy,legacy,legacy,1,undefined,1,left,23,23,23,23,23,0,0,23,0,0,23,23,0,23,0,Thu Oct 13 16:28:55 2023,The main experiment item,TRUE,SternbergTask.osexp,/Users/RMILLER1/Library/CloudStorage/OneDrive-tarleton.edu(NTNET)/TSU Online Classes/Graduate Class/ Adv Quant Methods and Design,FALSE,mono,FALSE,18,no,white,no,no,768,legacy,11,11,/Users/RMILLER1/Library/CloudStorage/OneDrive-tarleton.edu(NTNET)/TSU Online Classes/Graduate Class/ Adv Quant Methods and Design/Sternberg/RM-subject-1.csv,legacy,4 9 7 8 5 3,Melodramatic Milgram,4.0.5,4,y,0,left,right,left,left,NA,561.0,5065,20230,561,NA,2,legacy,6,1024,2,48000,-16,experiment,1,odd,8,175932,175935,178140,176938,174916,13015,110213,115101,105148,13066,180144,180706,33327,180144,NA,SternbergTask,23,17067.0,24,1024
96,96,707,707,#3d3846,experiment,legacy,legacy,legacy,1,undefined,1,left,24,24,24,24,24,0,0,24,0,0,24,24,0,24,0,Thu Oct 13 16:28:55 2023,The main experiment item,TRUE,SternbergTask.osexp,/Users/RMILLER1/Library/CloudStorage/OneDrive-tarleton.edu(NTNET)/TSU Online Classes/Graduate Class/ Adv Quant Methods and Design,FALSE,mono,FALSE,18,no,white,no,no,768,legacy,12,11,/Users/RMILLER1/Library/CloudStorage/OneDrive-tarleton.edu(NTNET)/TSU Online Classes/Graduate Class/ Adv Quant Methods and Design/Sternberg/RM-subject-1.csv,legacy,9 4 2,Melodramatic Milgram,4.0.5,1,y,0,left,right,left,left,NA,619.0,5065,20230,619,NA,2,legacy,3,1024,2,48000,-16,experiment,1,odd,9,181739,181743,183955,182747,180709,13015,110213,115101,105148,13066,185957,186577,33327,185957,NA,SternbergTask,24,17686.0,25,1024
92,92,704,704,#3d3846,experiment,legacy,legacy,legacy,0,undefined,0,right,25,25,25,25,25,0,0,25,0,0,25,25,0,25,0,Thu Oct 13 16:28:55 2023,The main experiment item,TRUE,SternbergTask.osexp,/Users/RMILLER1/Library/CloudStorage/OneDrive-tarleton.edu(NTNET)/TSU Online Classes/Graduate Class/ Adv Quant Methods and Design,FALSE,mono,FALSE,18,no,white,no,no,768,legacy,13,11,/Users/RMILLER1/Library/CloudStorage/OneDrive-tarleton.edu(NTNET)/TSU Online Classes/Graduate Class/ Adv Quant Methods and Design/Sternberg/RM-subject-1.csv,legacy,9 8 2 7 4,Melodramatic Milgram,4.0.5,0,n,0,left,right,left,left,NA,639.0,5065,20230,639,NA,2,legacy,5,1024,2,48000,-16,experiment,1,odd,5,187616,187622,189830,188626,186582,13015,110213,115101,105148,13066,191834,192474,33327,191834,NA,SternbergTask,24,18325.0,26,1024
92,92,702,702,#3d3846,experiment,legacy,legacy,legacy,1,undefined,1,left,26,26,26,26,26,0,0,26,0,0,26,26,0,26,0,Thu Oct 13 16:28:55 2023,The main experiment item,TRUE,SternbergTask.osexp,/Users/RMILLER1/Library/CloudStorage/OneDrive-tarleton.edu(NTNET)/TSU Online Classes/Graduate Class/ Adv Quant Methods and Design,FALSE,mono,FALSE,18,no,white,no,no,768,legacy,14,11,/Users/RMILLER1/Library/CloudStorage/OneDrive-tarleton.edu(NTNET)/TSU Online Classes/Graduate Class/ Adv Quant Methods and Design/Sternberg/RM-subject-1.csv,legacy,6 9 7 4 5 1,Melodramatic Milgram,4.0.5,2,y,0,left,right,left,left,NA,632.0,5065,20230,632,NA,2,legacy,6,1024,2,48000,-16,experiment,1,odd,9,193513,193518,195729,194524,186582,13015,110213,192479,105148,13066,197734,198367,33327,197733,NA,SternbergTask,25,18957.0,27,1024
92,92,698,698,#3d3846,experiment,legacy,legacy,legacy,1,undefined,1,right,27,27,27,27,27,0,0,27,0,0,27,27,0,27,0,Thu Oct 13 16:28:55 2023,The main experiment item,TRUE,SternbergTask.osexp,/Users/RMILLER1/Library/CloudStorage/OneDrive-tarleton.edu(NTNET)/TSU Online Classes/Graduate Class/ Adv Quant Methods and Design,FALSE,mono,FALSE,18,no,white,no,no,768,legacy,15,11,/Users/RMILLER1/Library/CloudStorage/OneDrive-tarleton.edu(NTNET)/TSU Online Classes/Graduate Class/ Adv Quant Methods and Design/Sternberg/RM-subject-1.csv,legacy,1 3 2 6 9,Melodramatic Milgram,4.0.5,0,n,0,right,right,left,right,NA,605.0,5065,20230,605,NA,2,legacy,5,1024,2,48000,-16,experiment,1,odd,5,199408,199411,201619,200415,198372,13015,110213,192479,105148,13066,203623,204229,33327,203622,NA,SternbergTask,26,19562.0,28,1024
93,93,697,697,#3d3846,experiment,legacy,legacy,legacy,1,undefined,1,right,28,28,28,28,28,0,0,28,0,0,28,28,0,28,0,Thu Oct 13 16:28:55 2023,The main experiment item,TRUE,SternbergTask.osexp,/Users/RMILLER1/Library/CloudStorage/OneDrive-tarleton.edu(NTNET)/TSU Online Classes/Graduate Class/ Adv Quant Methods and Design,FALSE,mono,FALSE,18,no,white,no,no,768,legacy,16,11,/Users/RMILLER1/Library/CloudStorage/OneDrive-tarleton.edu(NTNET)/TSU Online Classes/Graduate Class/ Adv Quant Methods and Design/Sternberg/RM-subject-1.csv,legacy,1 4 3 6 5,Melodramatic Milgram,4.0.5,0,n,0,right,right,left,right,NA,674.0,5065,20230,674,NA,2,legacy,5,1024,2,48000,-16,experiment,1,odd,8,205266,205270,207477,206274,204234,13015,110213,192479,105148,13066,209483,210158,33327,209483,NA,SternbergTask,27,20236.0,29,1024
93,93,697,697,#3d3846,experiment,legacy,legacy,legacy,1,undefined,1,right,29,29,29,29,29,0,0,29,0,0,29,29,0,29,0,Thu Oct 13 16:28:55 2023,The main experiment item,TRUE,SternbergTask.osexp,/Users/RMILLER1/Library/CloudStorage/OneDrive-tarleton.edu(NTNET)/TSU Online Classes/Graduate Class/ Adv Quant Methods and Design,FALSE,mono,FALSE,18,no,white,no,no,768,legacy,17,11,/Users/RMILLER1/Library/CloudStorage/OneDrive-tarleton.edu(NTNET)/TSU Online Classes/Graduate Class/ Adv Quant Methods and Design/Sternberg/RM-subject-1.csv,legacy,5 3 2 6 9 8,Melodramatic Milgram,4.0.5,0,n,0,right,right,left,right,NA,684.0,5065,20230,684,NA,2,legacy,6,1024,2,48000,-16,experiment,1,odd,4,211207,211210,213421,212216,210163,13015,110213,192479,105148,13066,215425,216109,33327,215425,NA,SternbergTask,28,20920.0,30,1024
93,93,692,692,#3d3846,experiment,legacy,legacy,legacy,1,undefined,1,left,30,30,30,30,30,0,0,30,0,0,30,30,0,30,0,Thu Oct 13 16:28:55 2023,The main experiment item,TRUE,SternbergTask.osexp,/Users/RMILLER1/Library/CloudStorage/OneDrive-tarleton.edu(NTNET)/TSU Online Classes/Graduate Class/ Adv Quant Methods and Design,FALSE,mono,FALSE,18,no,white,no,no,768,legacy,18,11,/Users/RMILLER1/Library/CloudStorage/OneDrive-tarleton.edu(NTNET)/TSU Online Classes/Graduate Class/ Adv Quant Methods and Design/Sternberg/RM-subject-1.csv,legacy,9 1 6 7 8,Melodramatic Milgram,4.0.5,1,y,0,left,right,left,left,NA,552.0,5065,20230,552,NA,2,legacy,5,1024,2,48000,-16,experiment,1,odd,9,217157,217161,219369,218165,216115,13015,110213,192479,105148,13066,221372,221925,33327,221372,NA,SternbergTask,29,21472.0,31,1024
93,93,695,695,#3d3846,experiment,legacy,legacy,legacy,1,undefined,1,right,31,31,31,31,31,0,0,31,0,0,31,31,0,31,0,Thu Oct 13 16:28:55 2023,The main experiment item,TRUE,SternbergTask.osexp,/Users/RMILLER1/Library/CloudStorage/OneDrive-tarleton.edu(NTNET)/TSU Online Classes/Graduate Class/ Adv Quant Methods and Design,FALSE,mono,FALSE,18,no,white,no,no,768,legacy,19,11,/Users/RMILLER1/Library/CloudStorage/OneDrive-tarleton.edu(NTNET)/TSU Online Classes/Graduate Class/ Adv Quant Methods and Design/Sternberg/RM-subject-1.csv,legacy,8 4 3 5,Melodramatic Milgram,4.0.5,0,n,0,right,right,left,right,NA,784.0,5065,20230,784,NA,2,legacy,4,1024,2,48000,-16,experiment,1,odd,6,222964,222968,225178,223972,221931,13015,110213,192479,105148,13066,227183,227967,33327,227182,NA,SternbergTask,30,22256.0,32,1024
93,93,688,688,#3d3846,experiment,legacy,legacy,legacy,1,undefined,1,left,32,32,32,32,32,0,0,32,0,0,32,32,0,32,0,Thu Oct 13 16:28:55 2023,The main experiment item,TRUE,SternbergTask.osexp,/Users/RMILLER1/Library/CloudStorage/OneDrive-tarleton.edu(NTNET)/TSU Online Classes/Graduate Class/ Adv Quant Methods and Design,FALSE,mono,FALSE,18,no,white,no,no,768,legacy,20,11,/Users/RMILLER1/Library/CloudStorage/OneDrive-tarleton.edu(NTNET)/TSU Online Classes/Graduate Class/ Adv Quant Methods and Design/Sternberg/RM-subject-1.csv,legacy,6 8 9 3 4 9,Melodramatic Milgram,4.0.5,5,y,0,left,right,left,left,NA,470.0,5065,20230,470,NA,2,legacy,6,1024,2,48000,-16,experiment,1,odd,4,229019,229022,231231,230026,227973,13015,110213,192479,105148,13066,233235,233705,33327,233235,NA,SternbergTask,31,22726.0,33,1024
91,91,726,726,#3d3846,experiment,legacy,legacy,legacy,0,undefined,0,left,33,33,33,33,33,0,0,33,0,0,33,33,0,33,0,Thu Oct 13 16:28:55 2023,The main experiment item,TRUE,SternbergTask.osexp,/Users/RMILLER1/Library/CloudStorage/OneDrive-tarleton.edu(NTNET)/TSU Online Classes/Graduate Class/ Adv Quant Methods and Design,FALSE,mono,FALSE,18,no,white,no,no,768,legacy,21,11,/Users/RMILLER1/Library/CloudStorage/OneDrive-tarleton.edu(NTNET)/TSU Online Classes/Graduate Class/ Adv Quant Methods and Design/Sternberg/RM-subject-1.csv,legacy,3 2 1 4 7,Melodramatic Milgram,4.0.5,2,y,0,right,right,left,right,NA,1983.0,5065,20230,1983,NA,2,legacy,5,1024,2,48000,-16,experiment,1,odd,2,234743,234747,236961,235752,233709,13015,110213,192479,105148,13066,238966,240950,33327,238966,NA,SternbergTask,31,24709.0,34,1024
91,91,725,725,#3d3846,experiment,legacy,legacy,legacy,1,undefined,1,right,34,34,34,34,34,0,0,34,0,0,34,34,0,34,0,Thu Oct 13 16:28:55 2023,The main experiment item,TRUE,SternbergTask.osexp,/Users/RMILLER1/Library/CloudStorage/OneDrive-tarleton.edu(NTNET)/TSU Online Classes/Graduate Class/ Adv Quant Methods and Design,FALSE,mono,FALSE,18,no,white,no,no,768,legacy,22,11,/Users/RMILLER1/Library/CloudStorage/OneDrive-tarleton.edu(NTNET)/TSU Online Classes/Graduate Class/ Adv Quant Methods and Design/Sternberg/RM-subject-1.csv,legacy,1 6 4 3 9 7,Melodramatic Milgram,4.0.5,0,n,0,right,right,left,right,NA,683.0,5065,20230,683,NA,2,legacy,6,1024,2,48000,-16,experiment,1,odd,8,241990,241993,244203,242997,233709,13015,110213,240956,105148,13066,246207,246890,33327,246206,NA,SternbergTask,32,25392.0,35,1024
91,91,722,722,#3d3846,experiment,legacy,legacy,legacy,1,undefined,1,left,35,35,35,35,35,0,0,35,0,0,35,35,0,35,0,Thu Oct 13 16:28:55 2023,The main experiment item,TRUE,SternbergTask.osexp,/Users/RMILLER1/Library/CloudStorage/OneDrive-tarleton.edu(NTNET)/TSU Online Classes/Graduate Class/ Adv Quant Methods and Design,FALSE,mono,FALSE,18,no,white,no,no,768,legacy,23,11,/Users/RMILLER1/Library/CloudStorage/OneDrive-tarleton.edu(NTNET)/TSU Online Classes/Graduate Class/ Adv Quant Methods and Design/Sternberg/RM-subject-1.csv,legacy,4 6 2 5 1,Melodramatic Milgram,4.0.5,5,y,0,left,right,left,left,NA,601.0,5065,20230,601,NA,2,legacy,5,1024,2,48000,-16,experiment,1,odd,1,247936,247940,250148,248944,246894,13015,110213,240956,105148,13066,252152,252753,33327,252152,NA,SternbergTask,33,25993.0,36,1024
89,89,717,717,#3d3846,experiment,legacy,legacy,legacy,0,undefined,0,right,36,36,36,36,36,0,0,36,0,0,36,36,0,36,0,Thu Oct 13 16:28:55 2023,The main experiment item,TRUE,SternbergTask.osexp,/Users/RMILLER1/Library/CloudStorage/OneDrive-tarleton.edu(NTNET)/TSU Online Classes/Graduate Class/ Adv Quant Methods and Design,FALSE,mono,FALSE,18,no,white,no,no,768,legacy,24,11,/Users/RMILLER1/Library/CloudStorage/OneDrive-tarleton.edu(NTNET)/TSU Online Classes/Graduate Class/ Adv Quant Methods and Design/Sternberg/RM-subject-1.csv,legacy,6 9 7 3 8 2,Melodramatic Milgram,4.0.5,0,n,0,left,right,left,left,NA,561.0,5065,20230,561,NA,2,legacy,6,1024,2,48000,-16,experiment,1,odd,5,253789,253792,256002,254796,252758,13015,110213,240956,105148,13066,258005,258567,33327,258005,NA,SternbergTask,33,26554.0,37,1024
86,86,716,716,#3d3846,experiment,legacy,legacy,legacy,0,undefined,0,right,37,37,37,37,37,0,0,37,0,0,37,37,0,37,0,Thu Oct 13 16:28:55 2023,The main experiment item,TRUE,SternbergTask.osexp,/Users/RMILLER1/Library/CloudStorage/OneDrive-tarleton.edu(NTNET)/TSU Online Classes/Graduate Class/ Adv Quant Methods and Design,FALSE,mono,FALSE,18,no,white,no,no,768,legacy,25,11,/Users/RMILLER1/Library/CloudStorage/OneDrive-tarleton.edu(NTNET)/TSU Online Classes/Graduate Class/ Adv Quant Methods and Design/Sternberg/RM-subject-1.csv,legacy,8 5 4 2 9 6,Melodramatic Milgram,4.0.5,0,n,0,left,right,left,left,NA,672.0,5065,20230,672,NA,2,legacy,6,1024,2,48000,-16,experiment,1,odd,3,259606,259609,261821,260615,252758,13015,110213,258572,105148,13066,263824,264496,33327,263824,NA,SternbergTask,33,27226.0,38,1024
87,87,712,712,#3d3846,experiment,legacy,legacy,legacy,1,undefined,1,right,38,38,38,38,38,0,0,38,0,0,38,38,0,38,0,Thu Oct 13 16:28:55 2023,The main experiment item,TRUE,SternbergTask.osexp,/Users/RMILLER1/Library/CloudStorage/OneDrive-tarleton.edu(NTNET)/TSU Online Classes/Graduate Class/ Adv Quant Methods and Design,FALSE,mono,FALSE,18,no,white,no,no,768,legacy,26,11,/Users/RMILLER1/Library/CloudStorage/OneDrive-tarleton.edu(NTNET)/TSU Online Classes/Graduate Class/ Adv Quant Methods and Design/Sternberg/RM-subject-1.csv,legacy,7 8 6 1,Melodramatic Milgram,4.0.5,0,n,0,right,right,left,right,NA,548.0,5065,20230,548,NA,2,legacy,4,1024,2,48000,-16,experiment,1,odd,3,265544,265547,267759,266552,252758,13015,110213,264500,105148,13066,269764,270312,33327,269764,NA,SternbergTask,34,27774.0,39,1024
87,87,706,706,#3d3846,experiment,legacy,legacy,legacy,1,undefined,1,left,39,39,39,39,39,0,0,39,0,0,39,39,0,39,0,Thu Oct 13 16:28:55 2023,The main experiment item,TRUE,SternbergTask.osexp,/Users/RMILLER1/Library/CloudStorage/OneDrive-tarleton.edu(NTNET)/TSU Online Classes/Graduate Class/ Adv Quant Methods and Design,FALSE,mono,FALSE,18,no,white,no,no,768,legacy,27,11,/Users/RMILLER1/Library/CloudStorage/OneDrive-tarleton.edu(NTNET)/TSU Online Classes/Graduate Class/ Adv Quant Methods and Design/Sternberg/RM-subject-1.csv,legacy,8 9 5 7 1 6,Melodramatic Milgram,4.0.5,4,y,0,left,right,left,left,NA,504.0,5065,20230,504,NA,2,legacy,6,1024,2,48000,-16,experiment,1,odd,7,271346,271349,273564,272354,270317,13015,110213,264500,105148,13066,275568,276073,33327,275567,NA,SternbergTask,35,28278.0,40,1024
87,87,707,707,#3d3846,experiment,legacy,legacy,legacy,1,undefined,1,right,40,40,40,40,40,0,0,40,0,0,40,40,0,40,0,Thu Oct 13 16:28:55 2023,The main experiment item,TRUE,SternbergTask.osexp,/Users/RMILLER1/Library/CloudStorage/OneDrive-tarleton.edu(NTNET)/TSU Online Classes/Graduate Class/ Adv Quant Methods and Design,FALSE,mono,FALSE,18,no,white,no,no,768,legacy,28,11,/Users/RMILLER1/Library/CloudStorage/OneDrive-tarleton.edu(NTNET)/TSU Online Classes/Graduate Class/ Adv Quant Methods and Design/Sternberg/RM-subject-1.csv,legacy,3 4 9 6 7 8,Melodramatic Milgram,4.0.5,0,n,0,right,right,left,right,NA,714.0,5065,20230,714,NA,2,legacy,6,1024,2,48000,-16,experiment,1,odd,2,277102,277105,279317,278109,276076,13015,110213,264500,105148,13066,281320,282035,33327,281320,NA,SternbergTask,36,28992.0,41,1024
85,85,707,707,#3d3846,experiment,legacy,legacy,legacy,0,undefined,0,right,41,41,41,41,41,0,0,41,0,0,41,41,0,41,0,Thu Oct 13 16:28:55 2023,The main experiment item,TRUE,SternbergTask.osexp,/Users/RMILLER1/Library/CloudStorage/OneDrive-tarleton.edu(NTNET)/TSU Online Classes/Graduate Class/ Adv Quant Methods and Design,FALSE,mono,FALSE,18,no,white,no,no,768,legacy,29,11,/Users/RMILLER1/Library/CloudStorage/OneDrive-tarleton.edu(NTNET)/TSU Online Classes/Graduate Class/ Adv Quant Methods and Design/Sternberg/RM-subject-1.csv,legacy,6 9 4 5 2,Melodramatic Milgram,4.0.5,0,n,0,left,right,left,left,NA,705.0,5065,20230,705,NA,2,legacy,5,1024,2,48000,-16,experiment,1,odd,1,283074,283079,285288,284084,282041,13015,110213,264500,105148,13066,287292,287998,33327,287292,NA,SternbergTask,36,29697.0,42,1024
83,83,707,707,#3d3846,experiment,legacy,legacy,legacy,0,undefined,0,right,42,42,42,42,42,0,0,42,0,0,42,42,0,42,0,Thu Oct 13 16:28:55 2023,The main experiment item,TRUE,SternbergTask.osexp,/Users/RMILLER1/Library/CloudStorage/OneDrive-tarleton.edu(NTNET)/TSU Online Classes/Graduate Class/ Adv Quant Methods and Design,FALSE,mono,FALSE,18,no,white,no,no,768,legacy,30,11,/Users/RMILLER1/Library/CloudStorage/OneDrive-tarleton.edu(NTNET)/TSU Online Classes/Graduate Class/ Adv Quant Methods and Design/Sternberg/RM-subject-1.csv,legacy,8 5 7 3 6,Melodramatic Milgram,4.0.5,0,n,0,left,right,left,left,NA,737.0,5065,20230,737,NA,2,legacy,5,1024,2,48000,-16,experiment,1,odd,9,289041,289044,291254,290048,282041,13015,110213,288001,105148,13066,293257,293994,33327,293257,NA,SternbergTask,36,30434.0,43,1024
84,84,703,703,#3d3846,experiment,legacy,legacy,legacy,1,undefined,1,left,43,43,43,43,43,0,0,43,0,0,43,43,0,43,0,Thu Oct 13 16:28:55 2023,The main experiment item,TRUE,SternbergTask.osexp,/Users/RMILLER1/Library/CloudStorage/OneDrive-tarleton.edu(NTNET)/TSU Online Classes/Graduate Class/ Adv Quant Methods and Design,FALSE,mono,FALSE,18,no,white,no,no,768,legacy,31,11,/Users/RMILLER1/Library/CloudStorage/OneDrive-tarleton.edu(NTNET)/TSU Online Classes/Graduate Class/ Adv Quant Methods and Design/Sternberg/RM-subject-1.csv,legacy,5 2 6,Melodramatic Milgram,4.0.5,2,y,0,left,right,left,left,NA,519.0,5065,20230,519,NA,2,legacy,3,1024,2,48000,-16,experiment,1,odd,2,295025,295029,297241,296034,282041,13015,110213,293998,105148,13066,299245,299765,33327,299245,NA,SternbergTask,37,30953.0,44,1024
84,84,699,699,#3d3846,experiment,legacy,legacy,legacy,1,undefined,1,left,44,44,44,44,44,0,0,44,0,0,44,44,0,44,0,Thu Oct 13 16:28:55 2023,The main experiment item,TRUE,SternbergTask.osexp,/Users/RMILLER1/Library/CloudStorage/OneDrive-tarleton.edu(NTNET)/TSU Online Classes/Graduate Class/ Adv Quant Methods and Design,FALSE,mono,FALSE,18,no,white,no,no,768,legacy,32,11,/Users/RMILLER1/Library/CloudStorage/OneDrive-tarleton.edu(NTNET)/TSU Online Classes/Graduate Class/ Adv Quant Methods and Design/Sternberg/RM-subject-1.csv,legacy,2 4 8 5 1 3,Melodramatic Milgram,4.0.5,1,y,0,left,right,left,left,NA,536.0,5065,20230,536,NA,2,legacy,6,1024,2,48000,-16,experiment,1,odd,2,300801,300804,303016,301808,299770,13015,110213,293998,105148,13066,305021,305558,33327,305021,NA,SternbergTask,38,31489.0,45,1024
84,84,695,695,#3d3846,experiment,legacy,legacy,legacy,1,undefined,1,left,45,45,45,45,45,0,0,45,0,0,45,45,0,45,0,Thu Oct 13 16:28:55 2023,The main experiment item,TRUE,SternbergTask.osexp,/Users/RMILLER1/Library/CloudStorage/OneDrive-tarleton.edu(NTNET)/TSU Online Classes/Graduate Class/ Adv Quant Methods and Design,FALSE,mono,FALSE,18,no,white,no,no,768,legacy,33,11,/Users/RMILLER1/Library/CloudStorage/OneDrive-tarleton.edu(NTNET)/TSU Online Classes/Graduate Class/ Adv Quant Methods and Design/Sternberg/RM-subject-1.csv,legacy,9 5 8 1,Melodramatic Milgram,4.0.5,2,y,0,left,right,left,left,NA,506.0,5065,20230,506,NA,2,legacy,4,1024,2,48000,-16,experiment,1,odd,5,306602,306607,308820,307611,305565,13015,110213,293998,105148,13066,310825,311331,33327,310825,NA,SternbergTask,39,31995.0,46,1024
85,85,691,691,#3d3846,experiment,legacy,legacy,legacy,1,undefined,1,left,46,46,46,46,46,0,0,46,0,0,46,46,0,46,0,Thu Oct 13 16:28:55 2023,The main experiment item,TRUE,SternbergTask.osexp,/Users/RMILLER1/Library/CloudStorage/OneDrive-tarleton.edu(NTNET)/TSU Online Classes/Graduate Class/ Adv Quant Methods and Design,FALSE,mono,FALSE,18,no,white,no,no,768,legacy,34,11,/Users/RMILLER1/Library/CloudStorage/OneDrive-tarleton.edu(NTNET)/TSU Online Classes/Graduate Class/ Adv Quant Methods and Design/Sternberg/RM-subject-1.csv,legacy,9 1 7 2,Melodramatic Milgram,4.0.5,2,y,0,left,right,left,left,NA,502.0,5065,20230,502,NA,2,legacy,4,1024,2,48000,-16,experiment,1,odd,1,312369,312372,314582,313376,311337,13015,110213,293998,105148,13066,316586,317089,33327,316586,NA,SternbergTask,40,32497.0,47,1024
85,85,689,689,#3d3846,experiment,legacy,legacy,legacy,1,undefined,1,right,47,47,47,47,47,0,0,47,0,0,47,47,0,47,0,Thu Oct 13 16:28:55 2023,The main experiment item,TRUE,SternbergTask.osexp,/Users/RMILLER1/Library/CloudStorage/OneDrive-tarleton.edu(NTNET)/TSU Online Classes/Graduate Class/ Adv Quant Methods and Design,FALSE,mono,FALSE,18,no,white,no,no,768,legacy,35,11,/Users/RMILLER1/Library/CloudStorage/OneDrive-tarleton.edu(NTNET)/TSU Online Classes/Graduate Class/ Adv Quant Methods and Design/Sternberg/RM-subject-1.csv,legacy,1 7 8 3 9,Melodramatic Milgram,4.0.5,0,n,0,right,right,left,right,NA,617.0,5065,20230,617,NA,2,legacy,5,1024,2,48000,-16,experiment,1,odd,2,318121,318124,320341,319130,317093,13015,110213,293998,105148,13066,322345,322964,33327,322345,NA,SternbergTask,41,33114.0,48,1024
85,85,687,687,#3d3846,experiment,legacy,legacy,legacy,1,undefined,1,left,48,48,48,48,48,0,0,48,0,0,48,48,0,48,0,Thu Oct 13 16:28:55 2023,The main experiment item,TRUE,SternbergTask.osexp,/Users/RMILLER1/Library/CloudStorage/OneDrive-tarleton.edu(NTNET)/TSU Online Classes/Graduate Class/ Adv Quant Methods and Design,FALSE,mono,FALSE,18,no,white,no,no,768,legacy,36,11,/Users/RMILLER1/Library/CloudStorage/OneDrive-tarleton.edu(NTNET)/TSU Online Classes/Graduate Class/ Adv Quant Methods and Design/Sternberg/RM-subject-1.csv,legacy,8 3,Melodramatic Milgram,4.0.5,2,y,0,left,right,left,left,NA,575.0,5065,20230,575,NA,2,legacy,2,1024,2,48000,-16,experiment,1,odd,3,324001,324003,326212,325008,322972,13015,110213,293998,105148,13066,328216,328791,33327,328216,NA,SternbergTask,42,33689.0,49,1024
86,86,690,690,#3d3846,experiment,legacy,legacy,legacy,1,undefined,1,right,49,49,49,49,49,0,0,49,0,0,49,49,0,49,0,Thu Oct 13 16:28:55 2023,The main experiment item,TRUE,SternbergTask.osexp,/Users/RMILLER1/Library/CloudStorage/OneDrive-tarleton.edu(NTNET)/TSU Online Classes/Graduate Class/ Adv Quant Methods and Design,FALSE,mono,FALSE,18,no,white,no,no,768,legacy,37,11,/Users/RMILLER1/Library/CloudStorage/OneDrive-tarleton.edu(NTNET)/TSU Online Classes/Graduate Class/ Adv Quant Methods and Design/Sternberg/RM-subject-1.csv,legacy,2 3 8 5 6 7,Melodramatic Milgram,4.0.5,0,n,0,right,right,left,right,NA,815.0,5065,20230,815,NA,2,legacy,6,1024,2,48000,-16,experiment,1,odd,1,329832,329836,332045,330840,328799,13015,110213,293998,105148,13066,334050,334866,33327,334050,NA,SternbergTask,43,34504.0,50,1024
86,86,691,691,#3d3846,experiment,legacy,legacy,legacy,1,undefined,1,right,50,50,50,50,50,0,0,50,0,0,50,50,0,50,0,Thu Oct 13 16:28:55 2023,The main experiment item,TRUE,SternbergTask.osexp,/Users/RMILLER1/Library/CloudStorage/OneDrive-tarleton.edu(NTNET)/TSU Online Classes/Graduate Class/ Adv Quant Methods and Design,FALSE,mono,FALSE,18,no,white,no,no,768,legacy,38,11,/Users/RMILLER1/Library/CloudStorage/OneDrive-tarleton.edu(NTNET)/TSU Online Classes/Graduate Class/ Adv Quant Methods and Design/Sternberg/RM-subject-1.csv,legacy,2 8 7 9 5 3,Melodramatic Milgram,4.0.5,0,n,0,right,right,left,right,NA,742.0,5065,20230,742,NA,2,legacy,6,1024,2,48000,-16,experiment,1,odd,6,335906,335909,338119,336914,334872,13015,110213,293998,105148,13066,340122,340864,33327,340122,NA,SternbergTask,44,35246.0,51,1024
86,86,695,695,#3d3846,experiment,legacy,legacy,legacy,1,undefined,1,right,51,51,51,51,51,0,0,51,0,0,51,51,0,51,0,Thu Oct 13 16:28:55 2023,The main experiment item,TRUE,SternbergTask.osexp,/Users/RMILLER1/Library/CloudStorage/OneDrive-tarleton.edu(NTNET)/TSU Online Classes/Graduate Class/ Adv Quant Methods and Design,FALSE,mono,FALSE,18,no,white,no,no,768,legacy,39,11,/Users/RMILLER1/Library/CloudStorage/OneDrive-tarleton.edu(NTNET)/TSU Online Classes/Graduate Class/ Adv Quant Methods and Design/Sternberg/RM-subject-1.csv,legacy,2 8 9 4 1,Melodramatic Milgram,4.0.5,0,n,0,right,right,left,right,NA,925.0,5065,20230,925,NA,2,legacy,5,1024,2,48000,-16,experiment,1,odd,5,341903,341906,344120,342910,340870,13015,110213,293998,105148,13066,346124,347050,33327,346124,NA,SternbergTask,45,36171.0,52,1024
86,86,695,695,#3d3846,experiment,legacy,legacy,legacy,1,undefined,1,left,52,52,52,52,52,0,0,52,0,0,52,52,0,52,0,Thu Oct 13 16:28:55 2023,The main experiment item,TRUE,SternbergTask.osexp,/Users/RMILLER1/Library/CloudStorage/OneDrive-tarleton.edu(NTNET)/TSU Online Classes/Graduate Class/ Adv Quant Methods and Design,FALSE,mono,FALSE,18,no,white,no,no,768,legacy,40,11,/Users/RMILLER1/Library/CloudStorage/OneDrive-tarleton.edu(NTNET)/TSU Online Classes/Graduate Class/ Adv Quant Methods and Design/Sternberg/RM-subject-1.csv,legacy,7 6,Melodramatic Milgram,4.0.5,2,y,0,left,right,left,left,NA,699.0,5065,20230,699,NA,2,legacy,2,1024,2,48000,-16,experiment,1,odd,6,348098,348101,350307,349104,347053,13015,110213,293998,105148,13066,352312,353011,33327,352312,NA,SternbergTask,46,36870.0,53,1024
87,87,694,694,#3d3846,experiment,legacy,legacy,legacy,1,undefined,1,left,53,53,53,53,53,0,0,53,0,0,53,53,0,53,0,Thu Oct 13 16:28:55 2023,The main experiment item,TRUE,SternbergTask.osexp,/Users/RMILLER1/Library/CloudStorage/OneDrive-tarleton.edu(NTNET)/TSU Online Classes/Graduate Class/ Adv Quant Methods and Design,FALSE,mono,FALSE,18,no,white,no,no,768,legacy,41,11,/Users/RMILLER1/Library/CloudStorage/OneDrive-tarleton.edu(NTNET)/TSU Online Classes/Graduate Class/ Adv Quant Methods and Design/Sternberg/RM-subject-1.csv,legacy,9 5 3 8 4,Melodramatic Milgram,4.0.5,1,y,0,left,right,left,left,NA,659.0,5065,20230,659,NA,2,legacy,5,1024,2,48000,-16,experiment,1,odd,9,354048,354052,356264,355055,353015,13015,110213,293998,105148,13066,358268,358927,33327,358268,NA,SternbergTask,47,37529.0,54,1024
87,87,691,691,#3d3846,experiment,legacy,legacy,legacy,1,undefined,1,left,54,54,54,54,54,0,0,54,0,0,54,54,0,54,0,Thu Oct 13 16:28:55 2023,The main experiment item,TRUE,SternbergTask.osexp,/Users/RMILLER1/Library/CloudStorage/OneDrive-tarleton.edu(NTNET)/TSU Online Classes/Graduate Class/ Adv Quant Methods and Design,FALSE,mono,FALSE,18,no,white,no,no,768,legacy,42,11,/Users/RMILLER1/Library/CloudStorage/OneDrive-tarleton.edu(NTNET)/TSU Online Classes/Graduate Class/ Adv Quant Methods and Design/Sternberg/RM-subject-1.csv,legacy,5 7 8 2 3 8,Melodramatic Milgram,4.0.5,5,y,0,left,right,left,left,NA,522.0,5065,20230,522,NA,2,legacy,6,1024,2,48000,-16,experiment,1,odd,3,359965,359968,362175,360972,358932,13015,110213,293998,105148,13066,364179,364702,33327,364179,NA,SternbergTask,48,38051.0,55,1024
87,87,700,700,#3d3846,experiment,legacy,legacy,legacy,1,undefined,1,left,55,55,55,55,55,0,0,55,0,0,55,55,0,55,0,Thu Oct 13 16:28:55 2023,The main experiment item,TRUE,SternbergTask.osexp,/Users/RMILLER1/Library/CloudStorage/OneDrive-tarleton.edu(NTNET)/TSU Online Classes/Graduate Class/ Adv Quant Methods and Design,FALSE,mono,FALSE,18,no,white,no,no,768,legacy,43,11,/Users/RMILLER1/Library/CloudStorage/OneDrive-tarleton.edu(NTNET)/TSU Online Classes/Graduate Class/ Adv Quant Methods and Design/Sternberg/RM-subject-1.csv,legacy,5 7 3 6 2,Melodramatic Milgram,4.0.5,5,y,0,left,right,left,left,NA,1168.0,5065,20230,1168,NA,2,legacy,5,1024,2,48000,-16,experiment,1,odd,2,365738,365741,367952,366745,364705,13015,110213,293998,105148,13066,369956,371125,33327,369956,NA,SternbergTask,49,39219.0,56,1024
87,87,698,698,#3d3846,experiment,legacy,legacy,legacy,1,undefined,1,right,56,56,56,56,56,0,0,56,0,0,56,56,0,56,0,Thu Oct 13 16:28:55 2023,The main experiment item,TRUE,SternbergTask.osexp,/Users/RMILLER1/Library/CloudStorage/OneDrive-tarleton.edu(NTNET)/TSU Online Classes/Graduate Class/ Adv Quant Methods and Design,FALSE,mono,FALSE,18,no,white,no,no,768,legacy,44,11,/Users/RMILLER1/Library/CloudStorage/OneDrive-tarleton.edu(NTNET)/TSU Online Classes/Graduate Class/ Adv Quant Methods and Design/Sternberg/RM-subject-1.csv,legacy,2 5 1 4,Melodramatic Milgram,4.0.5,0,n,0,right,right,left,right,NA,596.0,5065,20230,596,NA,2,legacy,4,1024,2,48000,-16,experiment,1,odd,6,372160,372164,374374,373168,371132,13015,110213,293998,105148,13066,376377,376974,33327,376377,NA,SternbergTask,50,39815.0,57,1024
87,87,694,694,#3d3846,experiment,legacy,legacy,legacy,1,undefined,1,left,57,57,57,57,57,0,0,57,0,0,57,57,0,57,0,Thu Oct 13 16:28:55 2023,The main experiment item,TRUE,SternbergTask.osexp,/Users/RMILLER1/Library/CloudStorage/OneDrive-tarleton.edu(NTNET)/TSU Online Classes/Graduate Class/ Adv Quant Methods and Design,FALSE,mono,FALSE,18,no,white,no,no,768,legacy,45,11,/Users/RMILLER1/Library/CloudStorage/OneDrive-tarleton.edu(NTNET)/TSU Online Classes/Graduate Class/ Adv Quant Methods and Design/Sternberg/RM-subject-1.csv,legacy,8 5 4 7 3 1,Melodramatic Milgram,4.0.5,2,y,0,left,right,left,left,NA,487.0,5065,20230,487,NA,2,legacy,6,1024,2,48000,-16,experiment,1,odd,5,378007,378013,380221,379016,376977,13015,110213,293998,105148,13066,382225,382713,33327,382225,NA,SternbergTask,51,40302.0,58,1024
88,88,695,695,#3d3846,experiment,legacy,legacy,legacy,1,undefined,1,right,58,58,58,58,58,0,0,58,0,0,58,58,0,58,0,Thu Oct 13 16:28:55 2023,The main experiment item,TRUE,SternbergTask.osexp,/Users/RMILLER1/Library/CloudStorage/OneDrive-tarleton.edu(NTNET)/TSU Online Classes/Graduate Class/ Adv Quant Methods and Design,FALSE,mono,FALSE,18,no,white,no,no,768,legacy,46,11,/Users/RMILLER1/Library/CloudStorage/OneDrive-tarleton.edu(NTNET)/TSU Online Classes/Graduate Class/ Adv Quant Methods and Design/Sternberg/RM-subject-1.csv,legacy,5 9 2 3,Melodramatic Milgram,4.0.5,0,n,0,right,right,left,right,NA,726.0,5065,20230,726,NA,2,legacy,4,1024,2,48000,-16,experiment,1,odd,8,383753,383756,385967,384760,382719,13015,110213,293998,105148,13066,387971,388698,33327,387971,NA,SternbergTask,52,41028.0,59,1024
88,88,692,692,#3d3846,experiment,legacy,legacy,legacy,1,undefined,1,left,59,59,59,59,59,0,0,59,0,0,59,59,0,59,0,Thu Oct 13 16:28:55 2023,The main experiment item,TRUE,SternbergTask.osexp,/Users/RMILLER1/Library/CloudStorage/OneDrive-tarleton.edu(NTNET)/TSU Online Classes/Graduate Class/ Adv Quant Methods and Design,FALSE,mono,FALSE,18,no,white,no,no,768,legacy,47,11,/Users/RMILLER1/Library/CloudStorage/OneDrive-tarleton.edu(NTNET)/TSU Online Classes/Graduate Class/ Adv Quant Methods and Design/Sternberg/RM-subject-1.csv,legacy,7 1 8 5 6 2,Melodramatic Milgram,4.0.5,2,y,0,left,right,left,left,NA,497.0,5065,20230,497,NA,2,legacy,6,1024,2,48000,-16,experiment,1,odd,1,389738,389742,391956,390748,388702,13015,110213,293998,105148,13066,393960,394458,33327,393960,NA,SternbergTask,53,41525.0,60,1024
88,88,688,688,#3d3846,experiment,legacy,legacy,legacy,1,undefined,1,left,60,60,60,60,60,0,0,60,0,0,60,60,0,60,0,Thu Oct 13 16:28:55 2023,The main experiment item,TRUE,SternbergTask.osexp,/Users/RMILLER1/Library/CloudStorage/OneDrive-tarleton.edu(NTNET)/TSU Online Classes/Graduate Class/ Adv Quant Methods and Design,FALSE,mono,FALSE,18,no,white,no,no,768,legacy,48,11,/Users/RMILLER1/Library/CloudStorage/OneDrive-tarleton.edu(NTNET)/TSU Online Classes/Graduate Class/ Adv Quant Methods and Design/Sternberg/RM-subject-1.csv,legacy,2 8 5 1,Melodramatic Milgram,4.0.5,4,y,0,left,right,left,left,NA,461.0,5065,20230,461,NA,2,legacy,4,1024,2,48000,-16,experiment,1,odd,1,395494,395497,397707,396500,394461,13015,110213,293998,105148,13066,399711,400172,33327,399710,NA,SternbergTask,54,41986.0,61,1024
88,88,687,687,#3d3846,experiment,legacy,legacy,legacy,1,undefined,1,right,61,61,61,61,61,0,0,61,0,0,61,61,0,61,0,Thu Oct 13 16:28:55 2023,The main experiment item,TRUE,SternbergTask.osexp,/Users/RMILLER1/Library/CloudStorage/OneDrive-tarleton.edu(NTNET)/TSU Online Classes/Graduate Class/ Adv Quant Methods and Design,FALSE,mono,FALSE,18,no,white,no,no,768,legacy,49,11,/Users/RMILLER1/Library/CloudStorage/OneDrive-tarleton.edu(NTNET)/TSU Online Classes/Graduate Class/ Adv Quant Methods and Design/Sternberg/RM-subject-1.csv,legacy,1 4 9 2 5,Melodramatic Milgram,4.0.5,0,n,0,right,right,left,right,NA,638.0,5065,20230,638,NA,2,legacy,5,1024,2,48000,-16,experiment,1,odd,7,401212,401215,403424,402219,400179,13015,110213,293998,105148,13066,405429,406068,33327,405429,NA,SternbergTask,55,42624.0,62,1024
88,88,685,685,#3d3846,experiment,legacy,legacy,legacy,1,undefined,1,left,62,62,62,62,62,0,0,62,0,0,62,62,0,62,0,Thu Oct 13 16:28:55 2023,The main experiment item,TRUE,SternbergTask.osexp,/Users/RMILLER1/Library/CloudStorage/OneDrive-tarleton.edu(NTNET)/TSU Online Classes/Graduate Class/ Adv Quant Methods and Design,FALSE,mono,FALSE,18,no,white,no,no,768,legacy,50,11,/Users/RMILLER1/Library/CloudStorage/OneDrive-tarleton.edu(NTNET)/TSU Online Classes/Graduate Class/ Adv Quant Methods and Design/Sternberg/RM-subject-1.csv,legacy,4,Melodramatic Milgram,4.0.5,1,y,0,left,right,left,left,NA,552.0,5065,20230,552,NA,2,legacy,1,1024,2,48000,-16,experiment,1,odd,4,407105,407108,409315,408111,406072,13015,110213,293998,105148,13066,411319,411872,33327,411319,NA,SternbergTask,56,43176.0,63,1024
89,89,686,686,#3d3846,experiment,legacy,legacy,legacy,1,undefined,1,left,63,63,63,63,63,0,0,63,0,0,63,63,0,63,0,Thu Oct 13 16:28:55 2023,The main experiment item,TRUE,SternbergTask.osexp,/Users/RMILLER1/Library/CloudStorage/OneDrive-tarleton.edu(NTNET)/TSU Online Classes/Graduate Class/ Adv Quant Methods and Design,FALSE,mono,FALSE,18,no,white,no,no,768,legacy,51,11,/Users/RMILLER1/Library/CloudStorage/OneDrive-tarleton.edu(NTNET)/TSU Online Classes/Graduate Class/ Adv Quant Methods and Design/Sternberg/RM-subject-1.csv,legacy,3 5 9 6 2 4,Melodramatic Milgram,4.0.5,1,y,0,left,right,left,left,NA,770.0,5065,20230,770,NA,2,legacy,6,1024,2,48000,-16,experiment,1,odd,3,412912,412915,415126,413921,411878,13015,110213,293998,105148,13066,417131,417902,33327,417131,NA,SternbergTask,57,43946.0,64,1024
89,89,686,686,#3d3846,experiment,legacy,legacy,legacy,1,undefined,1,left,64,64,64,64,64,0,0,64,0,0,64,64,0,64,0,Thu Oct 13 16:28:55 2023,The main experiment item,TRUE,SternbergTask.osexp,/Users/RMILLER1/Library/CloudStorage/OneDrive-tarleton.edu(NTNET)/TSU Online Classes/Graduate Class/ Adv Quant Methods and Design,FALSE,mono,FALSE,18,no,white,no,no,768,legacy,52,11,/Users/RMILLER1/Library/CloudStorage/OneDrive-tarleton.edu(NTNET)/TSU Online Classes/Graduate Class/ Adv Quant Methods and Design/Sternberg/RM-subject-1.csv,legacy,8 9 6 1,Melodramatic Milgram,4.0.5,2,y,0,left,right,left,left,NA,669.0,5065,20230,669,NA,2,legacy,4,1024,2,48000,-16,experiment,1,odd,9,418945,418949,421158,419953,417906,13015,110213,293998,105148,13066,423161,423831,33327,423161,NA,SternbergTask,58,44615.0,65,1024
89,89,685,685,#3d3846,experiment,legacy,legacy,legacy,1,undefined,1,right,65,65,65,65,65,0,0,65,0,0,65,65,0,65,0,Thu Oct 13 16:28:55 2023,The main experiment item,TRUE,SternbergTask.osexp,/Users/RMILLER1/Library/CloudStorage/OneDrive-tarleton.edu(NTNET)/TSU Online Classes/Graduate Class/ Adv Quant Methods and Design,FALSE,mono,FALSE,18,no,white,no,no,768,legacy,53,11,/Users/RMILLER1/Library/CloudStorage/OneDrive-tarleton.edu(NTNET)/TSU Online Classes/Graduate Class/ Adv Quant Methods and Design/Sternberg/RM-subject-1.csv,legacy,8 2 1 4 5 9,Melodramatic Milgram,4.0.5,0,n,0,right,right,left,right,NA,601.0,5065,20230,601,NA,2,legacy,6,1024,2,48000,-16,experiment,1,odd,7,424875,424878,427087,425882,423841,13015,110213,293998,105148,13066,429091,429693,33327,429091,NA,SternbergTask,59,45216.0,66,1024
89,89,686,686,#3d3846,experiment,legacy,legacy,legacy,1,undefined,1,left,66,66,66,66,66,0,0,66,0,0,66,66,0,66,0,Thu Oct 13 16:28:55 2023,The main experiment item,TRUE,SternbergTask.osexp,/Users/RMILLER1/Library/CloudStorage/OneDrive-tarleton.edu(NTNET)/TSU Online Classes/Graduate Class/ Adv Quant Methods and Design,FALSE,mono,FALSE,18,no,white,no,no,768,legacy,54,11,/Users/RMILLER1/Library/CloudStorage/OneDrive-tarleton.edu(NTNET)/TSU Online Classes/Graduate Class/ Adv Quant Methods and Design/Sternberg/RM-subject-1.csv,legacy,7 1 3,Melodramatic Milgram,4.0.5,2,y,0,left,right,left,left,NA,777.0,5065,20230,777,NA,2,legacy,3,1024,2,48000,-16,experiment,1,odd,1,430727,430731,432941,431735,429698,13015,110213,293998,105148,13066,434945,435723,33327,434945,NA,SternbergTask,60,45993.0,67,1024
89,89,684,684,#3d3846,experiment,legacy,legacy,legacy,1,undefined,1,left,67,67,67,67,67,0,0,67,0,0,67,67,0,67,0,Thu Oct 13 16:28:55 2023,The main experiment item,TRUE,SternbergTask.osexp,/Users/RMILLER1/Library/CloudStorage/OneDrive-tarleton.edu(NTNET)/TSU Online Classes/Graduate Class/ Adv Quant Methods and Design,FALSE,mono,FALSE,18,no,white,no,no,768,legacy,55,11,/Users/RMILLER1/Library/CloudStorage/OneDrive-tarleton.edu(NTNET)/TSU Online Classes/Graduate Class/ Adv Quant Methods and Design/Sternberg/RM-subject-1.csv,legacy,6 9 3 1,Melodramatic Milgram,4.0.5,4,y,0,left,right,left,left,NA,522.0,5065,20230,522,NA,2,legacy,4,1024,2,48000,-16,experiment,1,odd,1,436769,436772,438980,437775,435729,13015,110213,293998,105148,13066,440983,441506,33327,440983,NA,SternbergTask,61,46515.0,68,1024
89,89,681,681,#3d3846,experiment,legacy,legacy,legacy,1,undefined,1,left,68,68,68,68,68,0,0,68,0,0,68,68,0,68,0,Thu Oct 13 16:28:55 2023,The main experiment item,TRUE,SternbergTask.osexp,/Users/RMILLER1/Library/CloudStorage/OneDrive-tarleton.edu(NTNET)/TSU Online Classes/Graduate Class/ Adv Quant Methods and Design,FALSE,mono,FALSE,18,no,white,no,no,768,legacy,56,11,/Users/RMILLER1/Library/CloudStorage/OneDrive-tarleton.edu(NTNET)/TSU Online Classes/Graduate Class/ Adv Quant Methods and Design/Sternberg/RM-subject-1.csv,legacy,7 8 4 6 9 5,Melodramatic Milgram,4.0.5,4,y,0,left,right,left,left,NA,538.0,5065,20230,538,NA,2,legacy,6,1024,2,48000,-16,experiment,1,odd,6,442542,442545,444755,443551,441509,13015,110213,293998,105148,13066,446759,447298,33327,446759,NA,SternbergTask,62,47053.0,69,1024
88,88,679,679,#3d3846,experiment,legacy,legacy,legacy,0,undefined,0,right,69,69,69,69,69,0,0,69,0,0,69,69,0,69,0,Thu Oct 13 16:28:55 2023,The main experiment item,TRUE,SternbergTask.osexp,/Users/RMILLER1/Library/CloudStorage/OneDrive-tarleton.edu(NTNET)/TSU Online Classes/Graduate Class/ Adv Quant Methods and Design,FALSE,mono,FALSE,18,no,white,no,no,768,legacy,57,11,/Users/RMILLER1/Library/CloudStorage/OneDrive-tarleton.edu(NTNET)/TSU Online Classes/Graduate Class/ Adv Quant Methods and Design/Sternberg/RM-subject-1.csv,legacy,3 4 2,Melodramatic Milgram,4.0.5,0,n,0,left,right,left,left,NA,538.0,5065,20230,538,NA,2,legacy,3,1024,2,48000,-16,experiment,1,odd,5,448336,448341,450550,449346,447303,13015,110213,293998,105148,13066,452554,453093,33327,452553,NA,SternbergTask,62,47591.0,70,1024
87,87,678,678,#3d3846,experiment,legacy,legacy,legacy,0,undefined,0,left,70,70,70,70,70,0,0,70,0,0,70,70,0,70,0,Thu Oct 13 16:28:55 2023,The main experiment item,TRUE,SternbergTask.osexp,/Users/RMILLER1/Library/CloudStorage/OneDrive-tarleton.edu(NTNET)/TSU Online Classes/Graduate Class/ Adv Quant Methods and Design,FALSE,mono,FALSE,18,no,white,no,no,768,legacy,58,11,/Users/RMILLER1/Library/CloudStorage/OneDrive-tarleton.edu(NTNET)/TSU Online Classes/Graduate Class/ Adv Quant Methods and Design/Sternberg/RM-subject-1.csv,legacy,8 1 6,Melodramatic Milgram,4.0.5,3,y,0,right,right,left,right,NA,616.0,5065,20230,616,NA,2,legacy,3,1024,2,48000,-16,experiment,1,odd,6,454133,454136,456346,455141,447303,13015,110213,453101,105148,13066,458350,458966,33327,458349,NA,SternbergTask,62,48207.0,71,1024
87,87,676,676,#3d3846,experiment,legacy,legacy,legacy,1,undefined,1,left,71,71,71,71,71,0,0,71,0,0,71,71,0,71,0,Thu Oct 13 16:28:55 2023,The main experiment item,TRUE,SternbergTask.osexp,/Users/RMILLER1/Library/CloudStorage/OneDrive-tarleton.edu(NTNET)/TSU Online Classes/Graduate Class/ Adv Quant Methods and Design,FALSE,mono,FALSE,18,no,white,no,no,768,legacy,59,11,/Users/RMILLER1/Library/CloudStorage/OneDrive-tarleton.edu(NTNET)/TSU Online Classes/Graduate Class/ Adv Quant Methods and Design/Sternberg/RM-subject-1.csv,legacy,2 5 4 8 7,Melodramatic Milgram,4.0.5,3,y,0,left,right,left,left,NA,491.0,5065,20230,491,NA,2,legacy,5,1024,2,48000,-16,experiment,1,odd,4,460004,460010,462219,461015,447303,13015,110213,458971,105148,13066,464223,464714,33327,464222,NA,SternbergTask,63,48698.0,72,1024
87,87,678,678,#3d3846,experiment,legacy,legacy,legacy,1,undefined,1,left,72,72,72,72,72,0,0,72,0,0,72,72,0,72,0,Thu Oct 13 16:28:55 2023,The main experiment item,TRUE,SternbergTask.osexp,/Users/RMILLER1/Library/CloudStorage/OneDrive-tarleton.edu(NTNET)/TSU Online Classes/Graduate Class/ Adv Quant Methods and Design,FALSE,mono,FALSE,18,no,white,no,no,768,legacy,60,11,/Users/RMILLER1/Library/CloudStorage/OneDrive-tarleton.edu(NTNET)/TSU Online Classes/Graduate Class/ Adv Quant Methods and Design/Sternberg/RM-subject-1.csv,legacy,3 9 7 6 4,Melodramatic Milgram,4.0.5,3,y,0,left,right,left,left,NA,854.0,5065,20230,854,NA,2,legacy,5,1024,2,48000,-16,experiment,1,odd,7,465752,465755,467965,466759,464720,13015,110213,458971,105148,13066,469969,470824,33327,469969,NA,SternbergTask,64,49552.0,73,1024
87,87,677,677,#3d3846,experiment,legacy,legacy,legacy,1,undefined,1,left,73,73,73,73,73,0,0,73,0,0,73,73,0,73,0,Thu Oct 13 16:28:55 2023,The main experiment item,TRUE,SternbergTask.osexp,/Users/RMILLER1/Library/CloudStorage/OneDrive-tarleton.edu(NTNET)/TSU Online Classes/Graduate Class/ Adv Quant Methods and Design,FALSE,mono,FALSE,18,no,white,no,no,768,legacy,61,11,/Users/RMILLER1/Library/CloudStorage/OneDrive-tarleton.edu(NTNET)/TSU Online Classes/Graduate Class/ Adv Quant Methods and Design/Sternberg/RM-subject-1.csv,legacy,4 6 5 8,Melodramatic Milgram,4.0.5,1,y,0,left,right,left,left,NA,576.0,5065,20230,576,NA,2,legacy,4,1024,2,48000,-16,experiment,1,odd,4,471875,471878,474091,472882,470829,13015,110213,458971,105148,13066,476095,476671,33327,476095,NA,SternbergTask,65,50128.0,74,1024
88,88,676,676,#3d3846,experiment,legacy,legacy,legacy,1,undefined,1,right,74,74,74,74,74,0,0,74,0,0,74,74,0,74,0,Thu Oct 13 16:28:55 2023,The main experiment item,TRUE,SternbergTask.osexp,/Users/RMILLER1/Library/CloudStorage/OneDrive-tarleton.edu(NTNET)/TSU Online Classes/Graduate Class/ Adv Quant Methods and Design,FALSE,mono,FALSE,18,no,white,no,no,768,legacy,62,11,/Users/RMILLER1/Library/CloudStorage/OneDrive-tarleton.edu(NTNET)/TSU Online Classes/Graduate Class/ Adv Quant Methods and Design/Sternberg/RM-subject-1.csv,legacy,1 7 5 2 9,Melodramatic Milgram,4.0.5,0,n,0,right,right,left,right,NA,603.0,5065,20230,603,NA,2,legacy,5,1024,2,48000,-16,experiment,1,odd,3,477705,477709,479917,478711,476677,13015,110213,458971,105148,13066,481920,482523,33327,481920,NA,SternbergTask,66,50731.0,75,1024
88,88,674,674,#3d3846,experiment,legacy,legacy,legacy,1,undefined,1,left,75,75,75,75,75,0,0,75,0,0,75,75,0,75,0,Thu Oct 13 16:28:55 2023,The main experiment item,TRUE,SternbergTask.osexp,/Users/RMILLER1/Library/CloudStorage/OneDrive-tarleton.edu(NTNET)/TSU Online Classes/Graduate Class/ Adv Quant Methods and Design,FALSE,mono,FALSE,18,no,white,no,no,768,legacy,63,11,/Users/RMILLER1/Library/CloudStorage/OneDrive-tarleton.edu(NTNET)/TSU Online Classes/Graduate Class/ Adv Quant Methods and Design/Sternberg/RM-subject-1.csv,legacy,7 2 3,Melodramatic Milgram,4.0.5,3,y,0,left,right,left,left,NA,499.0,5065,20230,499,NA,2,legacy,3,1024,2,48000,-16,experiment,1,odd,3,483560,483563,485772,484567,482527,13015,110213,458971,105148,13066,487776,488275,33327,487776,NA,SternbergTask,67,51230.0,76,1024
88,88,673,673,#3d3846,experiment,legacy,legacy,legacy,1,undefined,1,right,76,76,76,76,76,0,0,76,0,0,76,76,0,76,0,Thu Oct 13 16:28:55 2023,The main experiment item,TRUE,SternbergTask.osexp,/Users/RMILLER1/Library/CloudStorage/OneDrive-tarleton.edu(NTNET)/TSU Online Classes/Graduate Class/ Adv Quant Methods and Design,FALSE,mono,FALSE,18,no,white,no,no,768,legacy,64,11,/Users/RMILLER1/Library/CloudStorage/OneDrive-tarleton.edu(NTNET)/TSU Online Classes/Graduate Class/ Adv Quant Methods and Design/Sternberg/RM-subject-1.csv,legacy,9 7 4 5 8,Melodramatic Milgram,4.0.5,0,n,0,right,right,left,right,NA,650.0,5065,20230,650,NA,2,legacy,5,1024,2,48000,-16,experiment,1,odd,6,489313,489316,491524,490320,488279,13015,110213,458971,105148,13066,493528,494178,33327,493528,NA,SternbergTask,68,51880.0,77,1024
88,88,671,671,#3d3846,experiment,legacy,legacy,legacy,1,undefined,1,left,77,77,77,77,77,0,0,77,0,0,77,77,0,77,0,Thu Oct 13 16:28:55 2023,The main experiment item,TRUE,SternbergTask.osexp,/Users/RMILLER1/Library/CloudStorage/OneDrive-tarleton.edu(NTNET)/TSU Online Classes/Graduate Class/ Adv Quant Methods and Design,FALSE,mono,FALSE,18,no,white,no,no,768,legacy,65,11,/Users/RMILLER1/Library/CloudStorage/OneDrive-tarleton.edu(NTNET)/TSU Online Classes/Graduate Class/ Adv Quant Methods and Design/Sternberg/RM-subject-1.csv,legacy,2 4 6 9,Melodramatic Milgram,4.0.5,3,y,0,left,right,left,left,NA,509.0,5065,20230,509,NA,2,legacy,4,1024,2,48000,-16,experiment,1,odd,6,495219,495224,497435,496230,494187,13015,110213,458971,105148,13066,499439,499949,33327,499439,NA,SternbergTask,69,52389.0,78,1024
88,88,671,671,#3d3846,experiment,legacy,legacy,legacy,1,undefined,1,right,78,78,78,78,78,0,0,78,0,0,78,78,0,78,0,Thu Oct 13 16:28:55 2023,The main experiment item,TRUE,SternbergTask.osexp,/Users/RMILLER1/Library/CloudStorage/OneDrive-tarleton.edu(NTNET)/TSU Online Classes/Graduate Class/ Adv Quant Methods and Design,FALSE,mono,FALSE,18,no,white,no,no,768,legacy,66,11,/Users/RMILLER1/Library/CloudStorage/OneDrive-tarleton.edu(NTNET)/TSU Online Classes/Graduate Class/ Adv Quant Methods and Design/Sternberg/RM-subject-1.csv,legacy,4 8 1 2,Melodramatic Milgram,4.0.5,0,n,0,right,right,left,right,NA,638.0,5065,20230,638,NA,2,legacy,4,1024,2,48000,-16,experiment,1,odd,7,500984,500988,503199,501992,499953,13015,110213,458971,105148,13066,505206,505845,33327,505205,NA,SternbergTask,70,53027.0,79,1024
88,88,669,669,#3d3846,experiment,legacy,legacy,legacy,1,undefined,1,left,79,79,79,79,79,0,0,79,0,0,79,79,0,79,0,Thu Oct 13 16:28:55 2023,The main experiment item,TRUE,SternbergTask.osexp,/Users/RMILLER1/Library/CloudStorage/OneDrive-tarleton.edu(NTNET)/TSU Online Classes/Graduate Class/ Adv Quant Methods and Design,FALSE,mono,FALSE,18,no,white,no,no,768,legacy,67,11,/Users/RMILLER1/Library/CloudStorage/OneDrive-tarleton.edu(NTNET)/TSU Online Classes/Graduate Class/ Adv Quant Methods and Design/Sternberg/RM-subject-1.csv,legacy,4 7 6 8 2 3,Melodramatic Milgram,4.0.5,6,y,0,left,right,left,left,NA,535.0,5065,20230,535,NA,2,legacy,6,1024,2,48000,-16,experiment,1,odd,3,506883,506887,509099,507891,505851,13015,110213,458971,105148,13066,511104,511639,33327,511103,NA,SternbergTask,71,53562.0,80,1024
88,88,668,668,#3d3846,experiment,legacy,legacy,legacy,1,undefined,1,right,80,80,80,80,80,0,0,80,0,0,80,80,0,80,0,Thu Oct 13 16:28:55 2023,The main experiment item,TRUE,SternbergTask.osexp,/Users/RMILLER1/Library/CloudStorage/OneDrive-tarleton.edu(NTNET)/TSU Online Classes/Graduate Class/ Adv Quant Methods and Design,FALSE,mono,FALSE,18,no,white,no,no,768,legacy,68,11,/Users/RMILLER1/Library/CloudStorage/OneDrive-tarleton.edu(NTNET)/TSU Online Classes/Graduate Class/ Adv Quant Methods and Design/Sternberg/RM-subject-1.csv,legacy,5 3 8 7 2 4,Melodramatic Milgram,4.0.5,0,n,0,right,right,left,right,NA,588.0,5065,20230,588,NA,2,legacy,6,1024,2,48000,-16,experiment,1,odd,9,512682,512685,514897,513691,511645,13015,110213,458971,105148,13066,516900,517488,33327,516900,NA,SternbergTask,72,54150.0,81,1024
89,89,678,678,#3d3846,experiment,legacy,legacy,legacy,1,undefined,1,right,81,81,81,81,81,0,0,81,0,0,81,81,0,81,0,Thu Oct 13 16:28:55 2023,The main experiment item,TRUE,SternbergTask.osexp,/Users/RMILLER1/Library/CloudStorage/OneDrive-tarleton.edu(NTNET)/TSU Online Classes/Graduate Class/ Adv Quant Methods and Design,FALSE,mono,FALSE,18,no,white,no,no,768,legacy,69,11,/Users/RMILLER1/Library/CloudStorage/OneDrive-tarleton.edu(NTNET)/TSU Online Classes/Graduate Class/ Adv Quant Methods and Design/Sternberg/RM-subject-1.csv,legacy,4 2 7 6 1 3,Melodramatic Milgram,4.0.5,0,n,0,right,right,left,right,NA,1524.0,5065,20230,1524,NA,2,legacy,6,1024,2,48000,-16,experiment,1,odd,8,518528,518532,520745,519536,517493,13015,110213,458971,105148,13066,522749,524274,33327,522749,NA,SternbergTask,73,55674.0,82,1024
89,89,676,676,#3d3846,experiment,legacy,legacy,legacy,1,undefined,1,left,82,82,82,82,82,0,0,82,0,0,82,82,0,82,0,Thu Oct 13 16:28:55 2023,The main experiment item,TRUE,SternbergTask.osexp,/Users/RMILLER1/Library/CloudStorage/OneDrive-tarleton.edu(NTNET)/TSU Online Classes/Graduate Class/ Adv Quant Methods and Design,FALSE,mono,FALSE,18,no,white,no,no,768,legacy,70,11,/Users/RMILLER1/Library/CloudStorage/OneDrive-tarleton.edu(NTNET)/TSU Online Classes/Graduate Class/ Adv Quant Methods and Design/Sternberg/RM-subject-1.csv,legacy,7 8 6 3 1,Melodramatic Milgram,4.0.5,5,y,0,left,right,left,left,NA,474.0,5065,20230,474,NA,2,legacy,5,1024,2,48000,-16,experiment,1,odd,1,525310,525313,527523,526317,524278,13015,110213,458971,105148,13066,529525,530000,33327,529525,NA,SternbergTask,74,56148.0,83,1024
89,89,679,679,#3d3846,experiment,legacy,legacy,legacy,1,undefined,1,right,83,83,83,83,83,0,0,83,0,0,83,83,0,83,0,Thu Oct 13 16:28:55 2023,The main experiment item,TRUE,SternbergTask.osexp,/Users/RMILLER1/Library/CloudStorage/OneDrive-tarleton.edu(NTNET)/TSU Online Classes/Graduate Class/ Adv Quant Methods and Design,FALSE,mono,FALSE,18,no,white,no,no,768,legacy,71,11,/Users/RMILLER1/Library/CloudStorage/OneDrive-tarleton.edu(NTNET)/TSU Online Classes/Graduate Class/ Adv Quant Methods and Design/Sternberg/RM-subject-1.csv,legacy,6 9 5,Melodramatic Milgram,4.0.5,0,n,0,right,right,left,right,NA,965.0,5065,20230,965,NA,2,legacy,3,1024,2,48000,-16,experiment,1,odd,8,531034,531037,533247,532041,530003,13015,110213,458971,105148,13066,535254,536222,33327,535253,NA,SternbergTask,75,57113.0,84,1024
89,89,684,684,#3d3846,experiment,legacy,legacy,legacy,1,undefined,1,right,84,84,84,84,84,0,0,84,0,0,84,84,0,84,0,Thu Oct 13 16:28:55 2023,The main experiment item,TRUE,SternbergTask.osexp,/Users/RMILLER1/Library/CloudStorage/OneDrive-tarleton.edu(NTNET)/TSU Online Classes/Graduate Class/ Adv Quant Methods and Design,FALSE,mono,FALSE,18,no,white,no,no,768,legacy,72,11,/Users/RMILLER1/Library/CloudStorage/OneDrive-tarleton.edu(NTNET)/TSU Online Classes/Graduate Class/ Adv Quant Methods and Design/Sternberg/RM-subject-1.csv,legacy,6 9 4 5 3 2,Melodramatic Milgram,4.0.5,0,n,0,right,right,left,right,NA,1102.0,5065,20230,1102,NA,2,legacy,6,1024,2,48000,-16,experiment,1,odd,8,537265,537269,539480,538274,536227,13015,110213,458971,105148,13066,541484,542587,33327,541484,NA,SternbergTask,76,58215.0,85,1024
89,89,686,686,#3d3846,experiment,legacy,legacy,legacy,1,undefined,1,right,85,85,85,85,85,0,0,85,0,0,85,85,0,85,0,Thu Oct 13 16:28:55 2023,The main experiment item,TRUE,SternbergTask.osexp,/Users/RMILLER1/Library/CloudStorage/OneDrive-tarleton.edu(NTNET)/TSU Online Classes/Graduate Class/ Adv Quant Methods and Design,FALSE,mono,FALSE,18,no,white,no,no,768,legacy,73,11,/Users/RMILLER1/Library/CloudStorage/OneDrive-tarleton.edu(NTNET)/TSU Online Classes/Graduate Class/ Adv Quant Methods and Design/Sternberg/RM-subject-1.csv,legacy,8 9,Melodramatic Milgram,4.0.5,0,n,0,right,right,left,right,NA,832.0,5065,20230,832,NA,2,legacy,2,1024,2,48000,-16,experiment,1,odd,5,543608,543610,545814,544612,542590,13015,110213,458971,105148,13066,547818,548650,33327,547817,NA,SternbergTask,77,59047.0,86,1024
88,88,687,687,#3d3846,experiment,legacy,legacy,legacy,0,undefined,0,right,86,86,86,86,86,0,0,86,0,0,86,86,0,86,0,Thu Oct 13 16:28:55 2023,The main experiment item,TRUE,SternbergTask.osexp,/Users/RMILLER1/Library/CloudStorage/OneDrive-tarleton.edu(NTNET)/TSU Online Classes/Graduate Class/ Adv Quant Methods and Design,FALSE,mono,FALSE,18,no,white,no,no,768,legacy,74,11,/Users/RMILLER1/Library/CloudStorage/OneDrive-tarleton.edu(NTNET)/TSU Online Classes/Graduate Class/ Adv Quant Methods and Design/Sternberg/RM-subject-1.csv,legacy,7 4 2 8 1 9,Melodramatic Milgram,4.0.5,0,n,0,left,right,left,left,NA,753.0,5065,20230,753,NA,2,legacy,6,1024,2,48000,-16,experiment,1,odd,5,549701,549704,551911,550708,548657,13015,110213,458971,105148,13066,553916,554670,33327,553915,NA,SternbergTask,77,59800.0,87,1024
88,88,687,687,#3d3846,experiment,legacy,legacy,legacy,1,undefined,1,left,87,87,87,87,87,0,0,87,0,0,87,87,0,87,0,Thu Oct 13 16:28:55 2023,The main experiment item,TRUE,SternbergTask.osexp,/Users/RMILLER1/Library/CloudStorage/OneDrive-tarleton.edu(NTNET)/TSU Online Classes/Graduate Class/ Adv Quant Methods and Design,FALSE,mono,FALSE,18,no,white,no,no,768,legacy,75,11,/Users/RMILLER1/Library/CloudStorage/OneDrive-tarleton.edu(NTNET)/TSU Online Classes/Graduate Class/ Adv Quant Methods and Design/Sternberg/RM-subject-1.csv,legacy,8 9 5 6 7,Melodramatic Milgram,4.0.5,1,y,0,left,right,left,left,NA,737.0,5065,20230,737,NA,2,legacy,5,1024,2,48000,-16,experiment,1,odd,8,555714,555716,557925,556720,548657,13015,110213,554673,105148,13066,559929,560667,33327,559929,NA,SternbergTask,78,60537.0,88,1024
88,88,689,689,#3d3846,experiment,legacy,legacy,legacy,1,undefined,1,right,88,88,88,88,88,0,0,88,0,0,88,88,0,88,0,Thu Oct 13 16:28:55 2023,The main experiment item,TRUE,SternbergTask.osexp,/Users/RMILLER1/Library/CloudStorage/OneDrive-tarleton.edu(NTNET)/TSU Online Classes/Graduate Class/ Adv Quant Methods and Design,FALSE,mono,FALSE,18,no,white,no,no,768,legacy,76,11,/Users/RMILLER1/Library/CloudStorage/OneDrive-tarleton.edu(NTNET)/TSU Online Classes/Graduate Class/ Adv Quant Methods and Design/Sternberg/RM-subject-1.csv,legacy,7 6 4 8 1 2,Melodramatic Milgram,4.0.5,0,n,0,right,right,left,right,NA,800.0,5065,20230,800,NA,2,legacy,6,1024,2,48000,-16,experiment,1,odd,9,561712,561715,563927,562719,560671,13015,110213,554673,105148,13066,565930,566731,33327,565930,NA,SternbergTask,79,61337.0,89,1024
88,88,687,687,#3d3846,experiment,legacy,legacy,legacy,1,undefined,1,right,89,89,89,89,89,0,0,89,0,0,89,89,0,89,0,Thu Oct 13 16:28:55 2023,The main experiment item,TRUE,SternbergTask.osexp,/Users/RMILLER1/Library/CloudStorage/OneDrive-tarleton.edu(NTNET)/TSU Online Classes/Graduate Class/ Adv Quant Methods and Design,FALSE,mono,FALSE,18,no,white,no,no,768,legacy,77,11,/Users/RMILLER1/Library/CloudStorage/OneDrive-tarleton.edu(NTNET)/TSU Online Classes/Graduate Class/ Adv Quant Methods and Design/Sternberg/RM-subject-1.csv,legacy,7 9,Melodramatic Milgram,4.0.5,0,n,0,right,right,left,right,NA,511.0,5065,20230,511,NA,2,legacy,2,1024,2,48000,-16,experiment,1,odd,1,567781,567784,569995,568787,566738,13015,110213,554673,105148,13066,572001,572513,33327,572001,NA,SternbergTask,80,61848.0,90,1024
89,89,692,692,#3d3846,experiment,legacy,legacy,legacy,1,undefined,1,left,90,90,90,90,90,0,0,90,0,0,90,90,0,90,0,Thu Oct 13 16:28:55 2023,The main experiment item,TRUE,SternbergTask.osexp,/Users/RMILLER1/Library/CloudStorage/OneDrive-tarleton.edu(NTNET)/TSU Online Classes/Graduate Class/ Adv Quant Methods and Design,FALSE,mono,FALSE,18,no,white,no,no,768,legacy,78,11,/Users/RMILLER1/Library/CloudStorage/OneDrive-tarleton.edu(NTNET)/TSU Online Classes/Graduate Class/ Adv Quant Methods and Design/Sternberg/RM-subject-1.csv,legacy,6 1 2,Melodramatic Milgram,4.0.5,3,y,0,left,right,left,left,NA,1134.0,5065,20230,1134,NA,2,legacy,3,1024,2,48000,-16,experiment,1,odd,2,573548,573551,575811,574555,572519,13015,110213,554673,105148,13066,577814,578948,33327,577814,NA,SternbergTask,81,62982.0,91,1024
89,89,688,688,#3d3846,experiment,legacy,legacy,legacy,1,undefined,1,left,91,91,91,91,91,0,0,91,0,0,91,91,0,91,0,Thu Oct 13 16:28:55 2023,The main experiment item,TRUE,SternbergTask.osexp,/Users/RMILLER1/Library/CloudStorage/OneDrive-tarleton.edu(NTNET)/TSU Online Classes/Graduate Class/ Adv Quant Methods and Design,FALSE,mono,FALSE,18,no,white,no,no,768,legacy,79,11,/Users/RMILLER1/Library/CloudStorage/OneDrive-tarleton.edu(NTNET)/TSU Online Classes/Graduate Class/ Adv Quant Methods and Design/Sternberg/RM-subject-1.csv,legacy,7,Melodramatic Milgram,4.0.5,1,y,0,left,right,left,left,NA,372.0,5065,20230,372,NA,2,legacy,1,1024,2,48000,-16,experiment,1,odd,7,579979,579982,582189,580984,578951,13015,110213,554673,105148,13066,584191,584564,33327,584191,NA,SternbergTask,82,63354.0,92,1024
88,88,686,686,#3d3846,experiment,legacy,legacy,legacy,0,undefined,0,left,92,92,92,92,92,0,0,92,0,0,92,92,0,92,0,Thu Oct 13 16:28:55 2023,The main experiment item,TRUE,SternbergTask.osexp,/Users/RMILLER1/Library/CloudStorage/OneDrive-tarleton.edu(NTNET)/TSU Online Classes/Graduate Class/ Adv Quant Methods and Design,FALSE,mono,FALSE,18,no,white,no,no,768,legacy,80,11,/Users/RMILLER1/Library/CloudStorage/OneDrive-tarleton.edu(NTNET)/TSU Online Classes/Graduate Class/ Adv Quant Methods and Design/Sternberg/RM-subject-1.csv,legacy,8 5 3 7 4 6,Melodramatic Milgram,4.0.5,6,y,0,right,right,left,right,NA,493.0,5065,20230,493,NA,2,legacy,6,1024,2,48000,-16,experiment,1,odd,6,585600,585603,587815,586609,584567,13015,110213,554673,105148,13066,589818,590312,33327,589818,NA,SternbergTask,82,63847.0,93,1024
88,88,687,687,#3d3846,experiment,legacy,legacy,legacy,1,undefined,1,left,93,93,93,93,93,0,0,93,0,0,93,93,0,93,0,Thu Oct 13 16:28:55 2023,The main experiment item,TRUE,SternbergTask.osexp,/Users/RMILLER1/Library/CloudStorage/OneDrive-tarleton.edu(NTNET)/TSU Online Classes/Graduate Class/ Adv Quant Methods and Design,FALSE,mono,FALSE,18,no,white,no,no,768,legacy,81,11,/Users/RMILLER1/Library/CloudStorage/OneDrive-tarleton.edu(NTNET)/TSU Online Classes/Graduate Class/ Adv Quant Methods and Design/Sternberg/RM-subject-1.csv,legacy,6 7 8 5,Melodramatic Milgram,4.0.5,3,y,0,left,right,left,left,NA,740.0,5065,20230,740,NA,2,legacy,4,1024,2,48000,-16,experiment,1,odd,8,591348,591351,593563,592355,584567,13015,110213,590316,105148,13066,595567,596307,33327,595567,NA,SternbergTask,83,64587.0,94,1024
88,88,687,687,#3d3846,experiment,legacy,legacy,legacy,1,undefined,1,right,94,94,94,94,94,0,0,94,0,0,94,94,0,94,0,Thu Oct 13 16:28:55 2023,The main experiment item,TRUE,SternbergTask.osexp,/Users/RMILLER1/Library/CloudStorage/OneDrive-tarleton.edu(NTNET)/TSU Online Classes/Graduate Class/ Adv Quant Methods and Design,FALSE,mono,FALSE,18,no,white,no,no,768,legacy,82,11,/Users/RMILLER1/Library/CloudStorage/OneDrive-tarleton.edu(NTNET)/TSU Online Classes/Graduate Class/ Adv Quant Methods and Design/Sternberg/RM-subject-1.csv,legacy,9 5 3 2 8 6,Melodramatic Milgram,4.0.5,0,n,0,right,right,left,right,NA,691.0,5065,20230,691,NA,2,legacy,6,1024,2,48000,-16,experiment,1,odd,7,597347,597350,599561,598354,596312,13015,110213,590316,105148,13066,601566,602258,33327,601566,NA,SternbergTask,84,65278.0,95,1024
88,88,689,689,#3d3846,experiment,legacy,legacy,legacy,1,undefined,1,right,95,95,95,95,95,0,0,95,0,0,95,95,0,95,0,Thu Oct 13 16:28:55 2023,The main experiment item,TRUE,SternbergTask.osexp,/Users/RMILLER1/Library/CloudStorage/OneDrive-tarleton.edu(NTNET)/TSU Online Classes/Graduate Class/ Adv Quant Methods and Design,FALSE,mono,FALSE,18,no,white,no,no,768,legacy,83,11,/Users/RMILLER1/Library/CloudStorage/OneDrive-tarleton.edu(NTNET)/TSU Online Classes/Graduate Class/ Adv Quant Methods and Design/Sternberg/RM-subject-1.csv,legacy,4 2 6 9,Melodramatic Milgram,4.0.5,0,n,0,right,right,left,right,NA,945.0,5065,20230,945,NA,2,legacy,4,1024,2,48000,-16,experiment,1,odd,7,603292,603296,605507,604304,602264,13015,110213,590316,105148,13066,607511,608457,33327,607510,NA,SternbergTask,85,66223.0,96,1024
88,88,688,688,#3d3846,experiment,legacy,legacy,legacy,1,undefined,1,left,96,96,96,96,96,0,0,96,0,0,96,96,0,96,0,Thu Oct 13 16:28:55 2023,The main experiment item,TRUE,SternbergTask.osexp,/Users/RMILLER1/Library/CloudStorage/OneDrive-tarleton.edu(NTNET)/TSU Online Classes/Graduate Class/ Adv Quant Methods and Design,FALSE,mono,FALSE,18,no,white,no,no,768,legacy,84,11,/Users/RMILLER1/Library/CloudStorage/OneDrive-tarleton.edu(NTNET)/TSU Online Classes/Graduate Class/ Adv Quant Methods and Design/Sternberg/RM-subject-1.csv,legacy,3 5 7 1,Melodramatic Milgram,4.0.5,3,y,0,left,right,left,left,NA,572.0,5065,20230,572,NA,2,legacy,4,1024,2,48000,-16,experiment,1,odd,7,609507,609509,611719,610513,608462,13015,110213,590316,105148,13066,613723,614295,33327,613723,NA,SternbergTask,86,66795.0,97,1024
88,88,686,686,#3d3846,experiment,legacy,legacy,legacy,1,undefined,1,right,97,97,97,97,97,0,0,97,0,0,97,97,0,97,0,Thu Oct 13 16:28:55 2023,The main experiment item,TRUE,SternbergTask.osexp,/Users/RMILLER1/Library/CloudStorage/OneDrive-tarleton.edu(NTNET)/TSU Online Classes/Graduate Class/ Adv Quant Methods and Design,FALSE,mono,FALSE,18,no,white,no,no,768,legacy,85,11,/Users/RMILLER1/Library/CloudStorage/OneDrive-tarleton.edu(NTNET)/TSU Online Classes/Graduate Class/ Adv Quant Methods and Design/Sternberg/RM-subject-1.csv,legacy,5,Melodramatic Milgram,4.0.5,0,n,0,right,right,left,right,NA,462.0,5065,20230,462,NA,2,legacy,1,1024,2,48000,-16,experiment,1,odd,8,615330,615332,617544,616337,614299,13015,110213,590316,105148,13066,619548,620011,33327,619548,NA,SternbergTask,87,67257.0,98,1024
88,88,694,694,#3d3846,experiment,legacy,legacy,legacy,1,undefined,1,left,98,98,98,98,98,0,0,98,0,0,98,98,0,98,0,Thu Oct 13 16:28:55 2023,The main experiment item,TRUE,SternbergTask.osexp,/Users/RMILLER1/Library/CloudStorage/OneDrive-tarleton.edu(NTNET)/TSU Online Classes/Graduate Class/ Adv Quant Methods and Design,FALSE,mono,FALSE,18,no,white,no,no,768,legacy,86,11,/Users/RMILLER1/Library/CloudStorage/OneDrive-tarleton.edu(NTNET)/TSU Online Classes/Graduate Class/ Adv Quant Methods and Design/Sternberg/RM-subject-1.csv,legacy,2 3,Melodramatic Milgram,4.0.5,1,y,0,left,right,left,left,NA,1461.0,5065,20230,1461,NA,2,legacy,2,1024,2,48000,-16,experiment,1,odd,2,621049,621052,623265,622057,620013,13015,110213,590316,105148,13066,625268,626730,33327,625268,NA,SternbergTask,88,68718.0,99,1024
89,89,696,696,#3d3846,experiment,legacy,legacy,legacy,1,undefined,1,right,99,99,99,99,99,0,0,99,0,0,99,99,0,99,0,Thu Oct 13 16:28:55 2023,The main experiment item,TRUE,SternbergTask.osexp,/Users/RMILLER1/Library/CloudStorage/OneDrive-tarleton.edu(NTNET)/TSU Online Classes/Graduate Class/ Adv Quant Methods and Design,FALSE,mono,FALSE,18,no,white,no,no,768,legacy,87,11,/Users/RMILLER1/Library/CloudStorage/OneDrive-tarleton.edu(NTNET)/TSU Online Classes/Graduate Class/ Adv Quant Methods and Design/Sternberg/RM-subject-1.csv,legacy,5 7 3,Melodramatic Milgram,4.0.5,0,n,0,right,right,left,right,NA,961.0,5065,20230,961,NA,2,legacy,3,1024,2,48000,-16,experiment,1,odd,9,627763,627766,629974,628770,626733,13015,110213,590316,105148,13066,631977,632939,33327,631977,NA,SternbergTask,89,69679.0,100,1024
89,89,697,697,#3d3846,experiment,legacy,legacy,legacy,1,undefined,1,left,100,100,100,100,100,0,0,100,0,0,100,100,0,100,0,Thu Oct 13 16:28:55 2023,The main experiment item,TRUE,SternbergTask.osexp,/Users/RMILLER1/Library/CloudStorage/OneDrive-tarleton.edu(NTNET)/TSU Online Classes/Graduate Class/ Adv Quant Methods and Design,FALSE,mono,FALSE,18,no,white,no,no,768,legacy,88,11,/Users/RMILLER1/Library/CloudStorage/OneDrive-tarleton.edu(NTNET)/TSU Online Classes/Graduate Class/ Adv Quant Methods and Design/Sternberg/RM-subject-1.csv,legacy,3 5 4 7,Melodramatic Milgram,4.0.5,1,y,0,left,right,left,left,NA,762.0,5065,20230,762,NA,2,legacy,4,1024,2,48000,-16,experiment,1,odd,3,633974,633977,636190,634981,632942,13015,110213,590316,105148,13066,638194,638956,33327,638194,NA,SternbergTask,90,70441.0,101,1024
89,89,696,696,#3d3846,experiment,legacy,legacy,legacy,1,undefined,1,right,101,101,101,101,101,0,0,101,0,0,101,101,0,101,0,Thu Oct 13 16:28:55 2023,The main experiment item,TRUE,SternbergTask.osexp,/Users/RMILLER1/Library/CloudStorage/OneDrive-tarleton.edu(NTNET)/TSU Online Classes/Graduate Class/ Adv Quant Methods and Design,FALSE,mono,FALSE,18,no,white,no,no,768,legacy,89,11,/Users/RMILLER1/Library/CloudStorage/OneDrive-tarleton.edu(NTNET)/TSU Online Classes/Graduate Class/ Adv Quant Methods and Design/Sternberg/RM-subject-1.csv,legacy,4 1,Melodramatic Milgram,4.0.5,0,n,0,right,right,left,right,NA,555.0,5065,20230,555,NA,2,legacy,2,1024,2,48000,-16,experiment,1,odd,6,639995,640006,642213,641010,638960,13015,110213,590316,105148,13066,644217,644773,33327,644217,NA,SternbergTask,91,70996.0,102,1024
89,89,695,695,#3d3846,experiment,legacy,legacy,legacy,1,undefined,1,left,102,102,102,102,102,0,0,102,0,0,102,102,0,102,0,Thu Oct 13 16:28:55 2023,The main experiment item,TRUE,SternbergTask.osexp,/Users/RMILLER1/Library/CloudStorage/OneDrive-tarleton.edu(NTNET)/TSU Online Classes/Graduate Class/ Adv Quant Methods and Design,FALSE,mono,FALSE,18,no,white,no,no,768,legacy,90,11,/Users/RMILLER1/Library/CloudStorage/OneDrive-tarleton.edu(NTNET)/TSU Online Classes/Graduate Class/ Adv Quant Methods and Design/Sternberg/RM-subject-1.csv,legacy,9 8 4,Melodramatic Milgram,4.0.5,1,y,0,left,right,left,left,NA,615.0,5065,20230,615,NA,2,legacy,3,1024,2,48000,-16,experiment,1,odd,9,645811,645814,648023,646818,644778,13015,110213,590316,105148,13066,650028,650643,33327,650027,NA,SternbergTask,92,71611.0,103,1024
89,89,706,706,#3d3846,experiment,legacy,legacy,legacy,1,undefined,1,right,103,103,103,103,103,0,0,103,0,0,103,103,0,103,0,Thu Oct 13 16:28:55 2023,The main experiment item,TRUE,SternbergTask.osexp,/Users/RMILLER1/Library/CloudStorage/OneDrive-tarleton.edu(NTNET)/TSU Online Classes/Graduate Class/ Adv Quant Methods and Design,FALSE,mono,FALSE,18,no,white,no,no,768,legacy,91,11,/Users/RMILLER1/Library/CloudStorage/OneDrive-tarleton.edu(NTNET)/TSU Online Classes/Graduate Class/ Adv Quant Methods and Design/Sternberg/RM-subject-1.csv,legacy,8 4 3 9,Melodramatic Milgram,4.0.5,0,n,0,right,right,left,right,NA,1875.0,5065,20230,1875,NA,2,legacy,4,1024,2,48000,-16,experiment,1,odd,5,651675,651678,653887,652682,650647,13015,110213,590316,105148,13066,655893,657769,33327,655892,NA,SternbergTask,93,73486.0,104,1024
89,89,708,708,#3d3846,experiment,legacy,legacy,legacy,1,undefined,1,right,104,104,104,104,104,0,0,104,0,0,104,104,0,104,0,Thu Oct 13 16:28:55 2023,The main experiment item,TRUE,SternbergTask.osexp,/Users/RMILLER1/Library/CloudStorage/OneDrive-tarleton.edu(NTNET)/TSU Online Classes/Graduate Class/ Adv Quant Methods and Design,FALSE,mono,FALSE,18,no,white,no,no,768,legacy,92,11,/Users/RMILLER1/Library/CloudStorage/OneDrive-tarleton.edu(NTNET)/TSU Online Classes/Graduate Class/ Adv Quant Methods and Design/Sternberg/RM-subject-1.csv,legacy,7 1 5 6 3,Melodramatic Milgram,4.0.5,0,n,0,right,right,left,right,NA,907.0,5065,20230,907,NA,2,legacy,5,1024,2,48000,-16,experiment,1,odd,8,658805,658809,661019,659813,657773,13015,110213,590316,105148,13066,663023,663931,33327,663023,NA,SternbergTask,94,74393.0,105,1024
89,89,706,706,#3d3846,experiment,legacy,legacy,legacy,1,undefined,1,left,105,105,105,105,105,0,0,105,0,0,105,105,0,105,0,Thu Oct 13 16:28:55 2023,The main experiment item,TRUE,SternbergTask.osexp,/Users/RMILLER1/Library/CloudStorage/OneDrive-tarleton.edu(NTNET)/TSU Online Classes/Graduate Class/ Adv Quant Methods and Design,FALSE,mono,FALSE,18,no,white,no,no,768,legacy,93,11,/Users/RMILLER1/Library/CloudStorage/OneDrive-tarleton.edu(NTNET)/TSU Online Classes/Graduate Class/ Adv Quant Methods and Design/Sternberg/RM-subject-1.csv,legacy,6 5,Melodramatic Milgram,4.0.5,2,y,0,left,right,left,left,NA,505.0,5065,20230,505,NA,2,legacy,2,1024,2,48000,-16,experiment,1,odd,5,664982,664986,667192,665989,663936,13015,110213,590316,105148,13066,669196,669702,33327,669195,NA,SternbergTask,95,74898.0,106,1024
89,89,708,708,#3d3846,experiment,legacy,legacy,legacy,1,undefined,1,right,106,106,106,106,106,0,0,106,0,0,106,106,0,106,0,Thu Oct 13 16:28:55 2023,The main experiment item,TRUE,SternbergTask.osexp,/Users/RMILLER1/Library/CloudStorage/OneDrive-tarleton.edu(NTNET)/TSU Online Classes/Graduate Class/ Adv Quant Methods and Design,FALSE,mono,FALSE,18,no,white,no,no,768,legacy,94,11,/Users/RMILLER1/Library/CloudStorage/OneDrive-tarleton.edu(NTNET)/TSU Online Classes/Graduate Class/ Adv Quant Methods and Design/Sternberg/RM-subject-1.csv,legacy,6 8,Melodramatic Milgram,4.0.5,0,n,0,right,right,left,right,NA,906.0,5065,20230,906,NA,2,legacy,2,1024,2,48000,-16,experiment,1,odd,9,670742,670745,672957,671750,669708,13015,110213,590316,105148,13066,674961,675868,33327,674961,NA,SternbergTask,96,75804.0,107,1024
89,89,708,708,#3d3846,experiment,legacy,legacy,legacy,1,undefined,1,right,107,107,107,107,107,0,0,107,0,0,107,107,0,107,0,Thu Oct 13 16:28:55 2023,The main experiment item,TRUE,SternbergTask.osexp,/Users/RMILLER1/Library/CloudStorage/OneDrive-tarleton.edu(NTNET)/TSU Online Classes/Graduate Class/ Adv Quant Methods and Design,FALSE,mono,FALSE,18,no,white,no,no,768,legacy,95,11,/Users/RMILLER1/Library/CloudStorage/OneDrive-tarleton.edu(NTNET)/TSU Online Classes/Graduate Class/ Adv Quant Methods and Design/Sternberg/RM-subject-1.csv,legacy,5 2,Melodramatic Milgram,4.0.5,0,n,0,right,right,left,right,NA,675.0,5065,20230,675,NA,2,legacy,2,1024,2,48000,-16,experiment,1,odd,7,676905,676908,679119,677915,675873,13015,110213,590316,105148,13066,681123,681798,33327,681123,NA,SternbergTask,97,76479.0,108,1024
89,89,710,710,#3d3846,experiment,legacy,legacy,legacy,1,undefined,1,right,108,108,108,108,108,0,0,108,0,0,108,108,0,108,0,Thu Oct 13 16:28:55 2023,The main experiment item,TRUE,SternbergTask.osexp,/Users/RMILLER1/Library/CloudStorage/OneDrive-tarleton.edu(NTNET)/TSU Online Classes/Graduate Class/ Adv Quant Methods and Design,FALSE,mono,FALSE,18,no,white,no,no,768,legacy,96,11,/Users/RMILLER1/Library/CloudStorage/OneDrive-tarleton.edu(NTNET)/TSU Online Classes/Graduate Class/ Adv Quant Methods and Design/Sternberg/RM-subject-1.csv,legacy,2 8 9,Melodramatic Milgram,4.0.5,0,n,0,right,right,left,right,NA,914.0,5065,20230,914,NA,2,legacy,3,1024,2,48000,-16,experiment,1,odd,6,682831,682835,685041,683838,681804,13015,110213,590316,105148,13066,687045,687960,33327,687045,NA,SternbergTask,98,77393.0,109,1024
90,90,710,710,#3d3846,experiment,legacy,legacy,legacy,1,undefined,1,right,109,109,109,109,109,0,0,109,0,0,109,109,0,109,0,Thu Oct 13 16:28:55 2023,The main experiment item,TRUE,SternbergTask.osexp,/Users/RMILLER1/Library/CloudStorage/OneDrive-tarleton.edu(NTNET)/TSU Online Classes/Graduate Class/ Adv Quant Methods and Design,FALSE,mono,FALSE,18,no,white,no,no,768,legacy,97,11,/Users/RMILLER1/Library/CloudStorage/OneDrive-tarleton.edu(NTNET)/TSU Online Classes/Graduate Class/ Adv Quant Methods and Design/Sternberg/RM-subject-1.csv,legacy,6 2 9 3 8 4,Melodramatic Milgram,4.0.5,0,n,0,right,right,left,right,NA,753.0,5065,20230,753,NA,2,legacy,6,1024,2,48000,-16,experiment,1,odd,1,689011,689014,691223,690017,687967,13015,110213,590316,105148,13066,693227,693981,33327,693227,NA,SternbergTask,99,78146.0,110,1024
90,90,709,709,#3d3846,experiment,legacy,legacy,legacy,1,undefined,1,left,110,110,110,110,110,0,0,110,0,0,110,110,0,110,0,Thu Oct 13 16:28:55 2023,The main experiment item,TRUE,SternbergTask.osexp,/Users/RMILLER1/Library/CloudStorage/OneDrive-tarleton.edu(NTNET)/TSU Online Classes/Graduate Class/ Adv Quant Methods and Design,FALSE,mono,FALSE,18,no,white,no,no,768,legacy,98,11,/Users/RMILLER1/Library/CloudStorage/OneDrive-tarleton.edu(NTNET)/TSU Online Classes/Graduate Class/ Adv Quant Methods and Design/Sternberg/RM-subject-1.csv,legacy,8,Melodramatic Milgram,4.0.5,1,y,0,left,right,left,left,NA,611.0,5065,20230,611,NA,2,legacy,1,1024,2,48000,-16,experiment,1,odd,8,695015,695019,697227,696022,693986,13015,110213,590316,105148,13066,699230,699842,33327,699230,NA,SternbergTask,100,78757.0,111,1024
90,90,712,712,#3d3846,experiment,legacy,legacy,legacy,1,undefined,1,right,111,111,111,111,111,0,0,111,0,0,111,111,0,111,0,Thu Oct 13 16:28:55 2023,The main experiment item,TRUE,SternbergTask.osexp,/Users/RMILLER1/Library/CloudStorage/OneDrive-tarleton.edu(NTNET)/TSU Online Classes/Graduate Class/ Adv Quant Methods and Design,FALSE,mono,FALSE,18,no,white,no,no,768,legacy,99,11,/Users/RMILLER1/Library/CloudStorage/OneDrive-tarleton.edu(NTNET)/TSU Online Classes/Graduate Class/ Adv Quant Methods and Design/Sternberg/RM-subject-1.csv,legacy,7 1,Melodramatic Milgram,4.0.5,0,n,0,right,right,left,right,NA,1037.0,5065,20230,1037,NA,2,legacy,2,1024,2,48000,-16,experiment,1,odd,8,700876,700879,703088,701883,699845,13015,110213,590316,105148,13066,705092,706130,33327,705092,NA,SternbergTask,101,79794.0,112,1024
89,89,723,723,#3d3846,experiment,legacy,legacy,legacy,0,undefined,0,right,112,112,112,112,112,0,0,112,0,0,112,112,0,112,0,Thu Oct 13 16:28:55 2023,The main experiment item,TRUE,SternbergTask.osexp,/Users/RMILLER1/Library/CloudStorage/OneDrive-tarleton.edu(NTNET)/TSU Online Classes/Graduate Class/ Adv Quant Methods and Design,FALSE,mono,FALSE,18,no,white,no,no,768,legacy,100,11,/Users/RMILLER1/Library/CloudStorage/OneDrive-tarleton.edu(NTNET)/TSU Online Classes/Graduate Class/ Adv Quant Methods and Design/Sternberg/RM-subject-1.csv,legacy,7 1 8 4 9 3,Melodramatic Milgram,4.0.5,0,n,0,None,right,left,None,NA,2000.0,5065,20230,2000,NA,2,legacy,6,1024,2,48000,-16,experiment,1,odd,6,707151,707154,709359,708157,706135,13015,110213,590316,105148,13066,711363,713363,33327,711362,NA,SternbergTask,101,81794.0,113,1024
89,89,725,725,#3d3846,experiment,legacy,legacy,legacy,1,undefined,1,left,113,113,113,113,113,0,0,113,0,0,113,113,0,113,0,Thu Oct 13 16:28:55 2023,The main experiment item,TRUE,SternbergTask.osexp,/Users/RMILLER1/Library/CloudStorage/OneDrive-tarleton.edu(NTNET)/TSU Online Classes/Graduate Class/ Adv Quant Methods and Design,FALSE,mono,FALSE,18,no,white,no,no,768,legacy,101,11,/Users/RMILLER1/Library/CloudStorage/OneDrive-tarleton.edu(NTNET)/TSU Online Classes/Graduate Class/ Adv Quant Methods and Design/Sternberg/RM-subject-1.csv,legacy,6 7 9 3 1 2,Melodramatic Milgram,4.0.5,1,y,0,left,right,left,left,NA,933.0,5065,20230,933,NA,2,legacy,6,1024,2,48000,-16,experiment,1,odd,6,714403,714406,716615,715410,706135,13015,110213,713368,105148,13066,718619,719553,33327,718619,NA,SternbergTask,102,82727.0,114,1024
89,89,732,732,#3d3846,experiment,legacy,legacy,legacy,1,undefined,1,left,114,114,114,114,114,0,0,114,0,0,114,114,0,114,0,Thu Oct 13 16:28:55 2023,The main experiment item,TRUE,SternbergTask.osexp,/Users/RMILLER1/Library/CloudStorage/OneDrive-tarleton.edu(NTNET)/TSU Online Classes/Graduate Class/ Adv Quant Methods and Design,FALSE,mono,FALSE,18,no,white,no,no,768,legacy,102,11,/Users/RMILLER1/Library/CloudStorage/OneDrive-tarleton.edu(NTNET)/TSU Online Classes/Graduate Class/ Adv Quant Methods and Design/Sternberg/RM-subject-1.csv,legacy,2 3 7 4,Melodramatic Milgram,4.0.5,1,y,0,left,right,left,left,NA,1538.0,5065,20230,1538,NA,2,legacy,4,1024,2,48000,-16,experiment,1,odd,2,720595,720598,722807,721604,719559,13015,110213,713368,105148,13066,724810,726349,33327,724810,NA,SternbergTask,103,84265.0,115,1024
89,89,733,733,#3d3846,experiment,legacy,legacy,legacy,1,undefined,1,left,115,115,115,115,115,0,0,115,0,0,115,115,0,115,0,Thu Oct 13 16:28:55 2023,The main experiment item,TRUE,SternbergTask.osexp,/Users/RMILLER1/Library/CloudStorage/OneDrive-tarleton.edu(NTNET)/TSU Online Classes/Graduate Class/ Adv Quant Methods and Design,FALSE,mono,FALSE,18,no,white,no,no,768,legacy,103,11,/Users/RMILLER1/Library/CloudStorage/OneDrive-tarleton.edu(NTNET)/TSU Online Classes/Graduate Class/ Adv Quant Methods and Design/Sternberg/RM-subject-1.csv,legacy,9 3 8 2 1 4,Melodramatic Milgram,4.0.5,3,y,0,left,right,left,left,NA,865.0,5065,20230,865,NA,2,legacy,6,1024,2,48000,-16,experiment,1,odd,8,727384,727387,729596,728391,726353,13015,110213,713368,105148,13066,731601,732467,33327,731601,NA,SternbergTask,104,85130.0,116,1024
89,89,732,732,#3d3846,experiment,legacy,legacy,legacy,1,undefined,1,left,116,116,116,116,116,0,0,116,0,0,116,116,0,116,0,Thu Oct 13 16:28:55 2023,The main experiment item,TRUE,SternbergTask.osexp,/Users/RMILLER1/Library/CloudStorage/OneDrive-tarleton.edu(NTNET)/TSU Online Classes/Graduate Class/ Adv Quant Methods and Design,FALSE,mono,FALSE,18,no,white,no,no,768,legacy,104,11,/Users/RMILLER1/Library/CloudStorage/OneDrive-tarleton.edu(NTNET)/TSU Online Classes/Graduate Class/ Adv Quant Methods and Design/Sternberg/RM-subject-1.csv,legacy,9 6 2 4 1,Melodramatic Milgram,4.0.5,4,y,0,left,right,left,left,NA,553.0,5065,20230,553,NA,2,legacy,5,1024,2,48000,-16,experiment,1,odd,4,733502,733504,735715,734509,732473,13015,110213,713368,105148,13066,737718,738272,33327,737718,NA,SternbergTask,105,85683.0,117,1024
89,89,730,730,#3d3846,experiment,legacy,legacy,legacy,1,undefined,1,left,117,117,117,117,117,0,0,117,0,0,117,117,0,117,0,Thu Oct 13 16:28:55 2023,The main experiment item,TRUE,SternbergTask.osexp,/Users/RMILLER1/Library/CloudStorage/OneDrive-tarleton.edu(NTNET)/TSU Online Classes/Graduate Class/ Adv Quant Methods and Design,FALSE,mono,FALSE,18,no,white,no,no,768,legacy,105,11,/Users/RMILLER1/Library/CloudStorage/OneDrive-tarleton.edu(NTNET)/TSU Online Classes/Graduate Class/ Adv Quant Methods and Design/Sternberg/RM-subject-1.csv,legacy,6 2,Melodramatic Milgram,4.0.5,1,y,0,left,right,left,left,NA,473.0,5065,20230,473,NA,2,legacy,2,1024,2,48000,-16,experiment,1,odd,6,739310,739314,741522,740317,738277,13015,110213,713368,105148,13066,743526,744000,33327,743525,NA,SternbergTask,106,86156.0,118,1024
89,89,727,727,#3d3846,experiment,legacy,legacy,legacy,1,undefined,1,left,118,118,118,118,118,0,0,118,0,0,118,118,0,118,0,Thu Oct 13 16:28:55 2023,The main experiment item,TRUE,SternbergTask.osexp,/Users/RMILLER1/Library/CloudStorage/OneDrive-tarleton.edu(NTNET)/TSU Online Classes/Graduate Class/ Adv Quant Methods and Design,FALSE,mono,FALSE,18,no,white,no,no,768,legacy,106,11,/Users/RMILLER1/Library/CloudStorage/OneDrive-tarleton.edu(NTNET)/TSU Online Classes/Graduate Class/ Adv Quant Methods and Design/Sternberg/RM-subject-1.csv,legacy,3 4 9 6 2 9,Melodramatic Milgram,4.0.5,5,y,0,left,right,left,left,NA,454.0,5065,20230,454,NA,2,legacy,6,1024,2,48000,-16,experiment,1,odd,2,745039,745042,747254,746047,744004,13015,110213,713368,105148,13066,749259,749714,33327,749258,NA,SternbergTask,107,86610.0,119,1024
90,90,726,726,#3d3846,experiment,legacy,legacy,legacy,1,undefined,1,left,119,119,119,119,119,0,0,119,0,0,119,119,0,119,0,Thu Oct 13 16:28:55 2023,The main experiment item,TRUE,SternbergTask.osexp,/Users/RMILLER1/Library/CloudStorage/OneDrive-tarleton.edu(NTNET)/TSU Online Classes/Graduate Class/ Adv Quant Methods and Design,FALSE,mono,FALSE,18,no,white,no,no,768,legacy,107,11,/Users/RMILLER1/Library/CloudStorage/OneDrive-tarleton.edu(NTNET)/TSU Online Classes/Graduate Class/ Adv Quant Methods and Design/Sternberg/RM-subject-1.csv,legacy,9 3 1 2 5,Melodramatic Milgram,4.0.5,4,y,0,left,right,left,left,NA,611.0,5065,20230,611,NA,2,legacy,5,1024,2,48000,-16,experiment,1,odd,2,750750,750753,752969,751757,749717,13015,110213,713368,105148,13066,754973,755585,33327,754973,NA,SternbergTask,108,87221.0,120,1024
90,90,725,725,#3d3846,experiment,legacy,legacy,legacy,1,undefined,1,right,120,120,120,120,120,0,0,120,0,0,120,120,0,120,0,Thu Oct 13 16:28:55 2023,The main experiment item,TRUE,SternbergTask.osexp,/Users/RMILLER1/Library/CloudStorage/OneDrive-tarleton.edu(NTNET)/TSU Online Classes/Graduate Class/ Adv Quant Methods and Design,FALSE,mono,FALSE,18,no,white,no,no,768,legacy,108,11,/Users/RMILLER1/Library/CloudStorage/OneDrive-tarleton.edu(NTNET)/TSU Online Classes/Graduate Class/ Adv Quant Methods and Design/Sternberg/RM-subject-1.csv,legacy,1,Melodramatic Milgram,4.0.5,0,n,0,right,right,left,right,NA,534.0,5065,20230,534,NA,2,legacy,1,1024,2,48000,-16,experiment,1,odd,7,756618,756620,758830,757624,755590,13015,110213,713368,105148,13066,760833,761368,33327,760833,NA,SternbergTask,109,87755.0,121,1024
89,89,727,727,#3d3846,experiment,legacy,legacy,legacy,0,undefined,0,right,121,121,121,121,121,0,0,121,0,0,121,121,0,121,0,Thu Oct 13 16:28:55 2023,The main experiment item,TRUE,SternbergTask.osexp,/Users/RMILLER1/Library/CloudStorage/OneDrive-tarleton.edu(NTNET)/TSU Online Classes/Graduate Class/ Adv Quant Methods and Design,FALSE,mono,FALSE,18,no,white,no,no,768,legacy,109,11,/Users/RMILLER1/Library/CloudStorage/OneDrive-tarleton.edu(NTNET)/TSU Online Classes/Graduate Class/ Adv Quant Methods and Design/Sternberg/RM-subject-1.csv,legacy,2 8 6 3 1,Melodramatic Milgram,4.0.5,0,n,0,left,right,left,left,NA,1017.0,5065,20230,1017,NA,2,legacy,5,1024,2,48000,-16,experiment,1,odd,7,762401,762404,764613,763407,761371,13015,110213,713368,105148,13066,766617,767635,33327,766617,NA,SternbergTask,109,88772.0,122,1024
