"acc","accuracy","average_response_time","avg_rt","background","block","canvas_backend","clock_backend","color_backend","compensation","coordinates","correct","correct_instructions1","correct_keyboard_response","correct_response","count_ISI","count_IncorrectFeedback","count_PracticeLoop","count_correctFeedback","count_expSequence","count_experiment","count_experimentloop","count_fixation","count_instructions1","count_instructions2","count_keyboard_response","count_logger","count_memorySet","count_probe","count_thankyou","datetime","description","disable_garbage_collection","experiment_file","experiment_path","font_bold","font_family","font_italic","font_size","font_underline","foreground","form_clicks","fullscreen","height","keyboard_backend","live_row","live_row_PracticeLoop","logfile","mouse_backend","numberSet","opensesame_codename","opensesame_version","posInSet","present","psychopy_waitblanking","repeat_cycle","response","response_instructions1","response_instructions2","response_keyboard_response","response_thankyou","response_time","response_time_instructions1","response_time_instructions2","response_time_keyboard_response","response_time_thankyou","round_decimals","sampler_backend","setSize","sound_buf_size","sound_channels","sound_freq","sound_sample_size","start","subject_nr","subject_parity","target","time_ISI","time_IncorrectFeedback","time_PracticeLoop","time_correctFeedback","time_expSequence","time_experiment","time_experimentloop","time_fixation","time_instructions1","time_instructions2","time_keyboard_response","time_logger","time_memorySet","time_probe","time_thankyou","title","total_correct","total_response_time","total_responses","uniform_coordinates","width"
"0","0","2000","2000","black","practice","legacy","legacy","legacy","0","uniform","0","undefined","0","left","0","0","0","0","0","0","0","0","0","0","0","0","0","0","0","Mon Oct 12 13:34:13 2020","The main experiment item","yes","SternbergTask.osexp","C:\Users\Owner","no","mono","no","18","no","white","no","yes","768","legacy","0","0","C:/Users/Owner/KMPsubject-4.csv","legacy","6","Lentiform Loewenfeld","3.3.3","1","y","yes","0","None","left","NA","None","NA","2000","47750","NA","2000","NA","2","legacy","1","1024","2","48000","-16","experiment","4","even","6","54792","NA","51382","NA","52582","3628","NA","52584","3630","NA","56796","58796","53587","56796","NA","Sternberg Task ","0","2000","1","yes","1024"
"50","50","1479","1479","black","practice","legacy","legacy","legacy","0","uniform","1","undefined","1","right","1","1","0","1","1","0","0","1","0","0","1","1","1","1","0","Mon Oct 12 13:34:13 2020","The main experiment item","yes","SternbergTask.osexp","C:\Users\Owner","no","mono","no","18","no","white","no","yes","768","legacy","1","1","C:/Users/Owner/KMPsubject-4.csv","legacy","9 6 7 4 5","Lentiform Loewenfeld","3.3.3","0","n","yes","0","right","left","NA","right","NA","958","47750","NA","958","NA","2","legacy","5","1024","2","48000","-16","experiment","4","even","3","62113","58839","51382","NA","59906","3628","NA","59908","3630","NA","64117","65075","60909","64117","NA","Sternberg Task ","1","2958","2","yes","1024"
"33.333333333333336","33.333333333333336","1503.3333333333333","1503.3333333333333","black","practice","legacy","legacy","legacy","0","uniform","0","undefined","0","left","2","2","0","2","2","0","0","2","0","0","2","2","2","2","0","Mon Oct 12 13:34:13 2020","The main experiment item","yes","SternbergTask.osexp","C:\Users\Owner","no","mono","no","18","no","white","no","yes","768","legacy","2","2","C:/Users/Owner/KMPsubject-4.csv","legacy","1 5 2 9","Lentiform Loewenfeld","3.3.3","2","y","yes","0","right","left","NA","right","NA","1552","47750","NA","1552","NA","2","legacy","4","1024","2","48000","-16","experiment","4","even","5","68407","58839","51382","65079","66197","3628","NA","66199","3630","NA","70411","71964","67202","70411","NA","Sternberg Task ","1","4510","3","yes","1024"
"50","50","1548","1548","black","practice","legacy","legacy","legacy","0","uniform","1","undefined","1","right","3","3","0","3","3","0","0","3","0","0","3","3","3","3","0","Mon Oct 12 13:34:13 2020","The main experiment item","yes","SternbergTask.osexp","C:\Users\Owner","no","mono","no","18","no","white","no","yes","768","legacy","3","3","C:/Users/Owner/KMPsubject-4.csv","legacy","5 7 8 4 1 2","Lentiform Loewenfeld","3.3.3","0","n","yes","0","right","left","NA","right","NA","1682","47750","NA","1682","NA","2","legacy","6","1024","2","48000","-16","experiment","4","even","6","75280","71966","51382","65079","73071","3628","NA","73072","3630","NA","77284","78967","74076","77284","NA","Sternberg Task ","2","6192","4","yes","1024"
"40","40","1436","1436","black","practice","legacy","legacy","legacy","0","uniform","0","undefined","0","left","4","4","0","4","4","0","0","4","0","0","4","4","4","4","0","Mon Oct 12 13:34:13 2020","The main experiment item","yes","SternbergTask.osexp","C:\Users\Owner","no","mono","no","18","no","white","no","yes","768","legacy","4","4","C:/Users/Owner/KMPsubject-4.csv","legacy","1 7 9 8 5","Lentiform Loewenfeld","3.3.3","4","y","yes","0","right","left","NA","right","NA","988","47750","NA","988","NA","2","legacy","5","1024","2","48000","-16","experiment","4","even","8","82290","71966","51382","78971","80081","3628","NA","80082","3630","NA","84295","85284","81086","84295","NA","Sternberg Task ","2","7180","5","yes","1024"
"33.333333333333336","33.333333333333336","1530","1530","black","practice","legacy","legacy","legacy","0","uniform","0","undefined","0","right","5","5","0","5","5","0","0","5","0","0","5","5","5","5","0","Mon Oct 12 13:34:13 2020","The main experiment item","yes","SternbergTask.osexp","C:\Users\Owner","no","mono","no","18","no","white","no","yes","768","legacy","5","5","C:/Users/Owner/KMPsubject-4.csv","legacy","5","Lentiform Loewenfeld","3.3.3","0","n","yes","0","None","left","NA","None","NA","2000","47750","NA","2000","NA","2","legacy","1","1024","2","48000","-16","experiment","4","even","3","88681","85287","51382","78971","86471","3628","NA","86473","3630","NA","90688","92688","87477","90685","NA","Sternberg Task ","2","9180","6","yes","1024"
"42.857142857142854","42.857142857142854","1487.5714285714287","1487.5714285714287","black","practice","legacy","legacy","legacy","0","uniform","1","undefined","1","left","6","6","0","6","6","0","0","6","0","0","6","6","6","6","0","Mon Oct 12 13:34:13 2020","The main experiment item","yes","SternbergTask.osexp","C:\Users\Owner","no","mono","no","18","no","white","no","yes","768","legacy","6","6","C:/Users/Owner/KMPsubject-4.csv","legacy","2 9 4","Lentiform Loewenfeld","3.3.3","3","y","yes","0","left","left","NA","left","NA","1233","47750","NA","1233","NA","2","legacy","3","1024","2","48000","-16","experiment","4","even","4","95970","92692","51382","78971","93761","3628","NA","93762","3630","NA","97974","99209","94766","97974","NA","Sternberg Task ","3","10413","7","yes","1024"
"50","50","1425","1425","black","practice","legacy","legacy","legacy","0","uniform","1","undefined","1","left","7","7","0","7","7","0","0","7","0","0","7","7","7","7","0","Mon Oct 12 13:34:13 2020","The main experiment item","yes","SternbergTask.osexp","C:\Users\Owner","no","mono","no","18","no","white","no","yes","768","legacy","7","7","C:/Users/Owner/KMPsubject-4.csv","legacy","4 3 1 7 9 8","Lentiform Loewenfeld","3.3.3","1","y","yes","0","left","left","NA","left","NA","987","47750","NA","987","NA","2","legacy","6","1024","2","48000","-16","experiment","4","even","4","102525","92692","51382","99211","100314","3628","NA","100316","3630","NA","104529","105517","101320","104529","NA","Sternberg Task ","4","11400","8","yes","1024"
"55.55555555555556","55.55555555555556","1377.4444444444443","1377.4444444444443","black","practice","legacy","legacy","legacy","0","uniform","1","undefined","1","right","8","8","0","8","8","0","0","8","0","0","8","8","8","8","0","Mon Oct 12 13:34:13 2020","The main experiment item","yes","SternbergTask.osexp","C:\Users\Owner","no","mono","no","18","no","white","no","yes","768","legacy","8","8","C:/Users/Owner/KMPsubject-4.csv","legacy","4 1 5","Lentiform Loewenfeld","3.3.3","0","n","yes","0","right","left","NA","right","NA","997","47750","NA","997","NA","2","legacy","3","1024","2","48000","-16","experiment","4","even","2","108832","92692","51382","105523","106623","3628","NA","106624","3630","NA","110833","111830","107628","110833","NA","Sternberg Task ","5","12397","9","yes","1024"
"60","60","1308.8","1308.8","black","practice","legacy","legacy","legacy","0","uniform","1","undefined","1","left","9","9","0","9","9","0","0","9","0","0","9","9","9","9","0","Mon Oct 12 13:34:13 2020","The main experiment item","yes","SternbergTask.osexp","C:\Users\Owner","no","mono","no","18","no","white","no","yes","768","legacy","9","9","C:/Users/Owner/KMPsubject-4.csv","legacy","4 8","Lentiform Loewenfeld","3.3.3","1","y","yes","0","left","left","NA","left","NA","691","47750","NA","691","NA","2","legacy","2","1024","2","48000","-16","experiment","4","even","4","115156","92692","51382","111836","112945","3628","NA","112947","3630","NA","117160","117851","113952","117160","NA","Sternberg Task ","6","13088","10","yes","1024"
"63.63636363636363","63.63636363636363","1256","1256","black","practice","legacy","legacy","legacy","0","uniform","1","undefined","1","right","10","10","0","10","10","0","0","10","0","0","10","10","10","10","0","Mon Oct 12 13:34:13 2020","The main experiment item","yes","SternbergTask.osexp","C:\Users\Owner","no","mono","no","18","no","white","no","yes","768","legacy","10","10","C:/Users/Owner/KMPsubject-4.csv","legacy","2 1","Lentiform Loewenfeld","3.3.3","0","n","yes","0","right","left","NA","right","NA","728","47750","NA","728","NA","2","legacy","2","1024","2","48000","-16","experiment","4","even","5","121181","92692","51382","117855","118973","3628","NA","118974","3630","NA","123185","123914","119976","123185","NA","Sternberg Task ","7","13816","11","yes","1024"
"66.66666666666667","66.66666666666667","1285.1666666666667","1285.1666666666667","black","practice","legacy","legacy","legacy","0","uniform","1","undefined","1","right","11","11","0","11","11","0","0","11","0","0","11","11","11","11","0","Mon Oct 12 13:34:13 2020","The main experiment item","yes","SternbergTask.osexp","C:\Users\Owner","no","mono","no","18","no","white","no","yes","768","legacy","11","11","C:/Users/Owner/KMPsubject-4.csv","legacy","3 1 9 4","Lentiform Loewenfeld","3.3.3","0","n","yes","0","right","left","NA","right","NA","1606","47750","NA","1606","NA","2","legacy","4","1024","2","48000","-16","experiment","4","even","6","127233","92692","51382","123919","125024","3628","NA","125025","3630","NA","129237","130844","126029","129237","NA","Sternberg Task ","8","15422","12","yes","1024"
"69.23076923076923","69.23076923076923","1276.3076923076924","1276.3076923076924","black","experiment","legacy","legacy","legacy","0","uniform","1","undefined","1","right","12","12","0","12","12","0","0","12","0","0","12","12","12","12","0","Mon Oct 12 13:34:13 2020","The main experiment item","yes","SternbergTask.osexp","C:\Users\Owner","no","mono","no","18","no","white","no","yes","768","legacy","0","11","C:/Users/Owner/KMPsubject-4.csv","legacy","2 8 6 3 1","Lentiform Loewenfeld","3.3.3","0","n","yes","0","right","left","right","right","NA","1170","47750","8394","1170","NA","2","legacy","5","1024","2","48000","-16","experiment","4","even","7","142572","92692","51382","130848","140362","3628","140296","140364","3630","131901","144576","145747","141368","144576","NA","Sternberg Task ","9","16592","13","yes","1024"
"71.42857142857143","71.42857142857143","1273.9285714285713","1273.9285714285713","black","experiment","legacy","legacy","legacy","0","uniform","1","undefined","1","right","13","13","0","13","13","0","0","13","0","0","13","13","13","13","0","Mon Oct 12 13:34:13 2020","The main experiment item","yes","SternbergTask.osexp","C:\Users\Owner","no","mono","no","18","no","white","no","yes","768","legacy","1","11","C:/Users/Owner/KMPsubject-4.csv","legacy","9","Lentiform Loewenfeld","3.3.3","0","n","yes","0","right","left","right","right","NA","1243","47750","8394","1243","NA","2","legacy","1","1024","2","48000","-16","experiment","4","even","6","149073","92692","51382","145751","146865","3628","140296","146866","3630","131901","151078","152322","147869","151078","NA","Sternberg Task ","10","17835","14","yes","1024"
"73.33333333333333","73.33333333333333","1294.7333333333333","1294.7333333333333","black","experiment","legacy","legacy","legacy","0","uniform","1","undefined","1","left","14","14","0","14","14","0","0","14","0","0","14","14","14","14","0","Mon Oct 12 13:34:13 2020","The main experiment item","yes","SternbergTask.osexp","C:\Users\Owner","no","mono","no","18","no","white","no","yes","768","legacy","2","11","C:/Users/Owner/KMPsubject-4.csv","legacy","8 9 5 7 1 6","Lentiform Loewenfeld","3.3.3","4","y","yes","0","left","left","right","left","NA","1586","47750","8394","1586","NA","2","legacy","6","1024","2","48000","-16","experiment","4","even","7","155636","92692","51382","152325","153427","3628","140296","153428","3630","131901","157640","159227","154432","157640","NA","Sternberg Task ","11","19421","15","yes","1024"
"75","75","1301.125","1301.125","black","experiment","legacy","legacy","legacy","0","uniform","1","undefined","1","right","15","15","0","15","15","0","0","15","0","0","15","15","15","15","0","Mon Oct 12 13:34:13 2020","The main experiment item","yes","SternbergTask.osexp","C:\Users\Owner","no","mono","no","18","no","white","no","yes","768","legacy","3","11","C:/Users/Owner/KMPsubject-4.csv","legacy","1 3 2 6 9","Lentiform Loewenfeld","3.3.3","0","n","yes","0","right","left","right","right","NA","1397","47750","8394","1397","NA","2","legacy","5","1024","2","48000","-16","experiment","4","even","5","162543","92692","51382","159230","160334","3628","140296","160336","3630","131901","164547","165945","161340","164547","NA","Sternberg Task ","12","20818","16","yes","1024"
"76.47058823529412","76.47058823529412","1289.5294117647059","1289.5294117647059","black","experiment","legacy","legacy","legacy","0","uniform","1","undefined","1","left","16","16","0","16","16","0","0","16","0","0","16","16","16","16","0","Mon Oct 12 13:34:13 2020","The main experiment item","yes","SternbergTask.osexp","C:\Users\Owner","no","mono","no","18","no","white","no","yes","768","legacy","4","11","C:/Users/Owner/KMPsubject-4.csv","legacy","4","Lentiform Loewenfeld","3.3.3","1","y","yes","0","left","left","right","left","NA","1104","47750","8394","1104","NA","2","legacy","1","1024","2","48000","-16","experiment","4","even","4","169252","92692","51382","165949","167045","3628","140296","167047","3630","131901","171256","172361","168051","171256","NA","Sternberg Task ","13","21922","17","yes","1024"
"77.77777777777777","77.77777777777777","1289.611111111111","1289.611111111111","black","experiment","legacy","legacy","legacy","0","uniform","1","undefined","1","left","17","17","0","17","17","0","0","17","0","0","17","17","17","17","0","Mon Oct 12 13:34:13 2020","The main experiment item","yes","SternbergTask.osexp","C:\Users\Owner","no","mono","no","18","no","white","no","yes","768","legacy","5","11","C:/Users/Owner/KMPsubject-4.csv","legacy","7 8 6 3 1","Lentiform Loewenfeld","3.3.3","5","y","yes","0","left","left","right","left","NA","1291","47750","8394","1291","NA","2","legacy","5","1024","2","48000","-16","experiment","4","even","1","175683","92692","51382","172365","173476","3628","140296","173477","3630","131901","177687","178979","174482","177687","NA","Sternberg Task ","14","23213","18","yes","1024"
"78.94736842105263","78.94736842105263","1287.3157894736842","1287.3157894736842","black","experiment","legacy","legacy","legacy","0","uniform","1","undefined","1","left","18","18","0","18","18","0","0","18","0","0","18","18","18","18","0","Mon Oct 12 13:34:13 2020","The main experiment item","yes","SternbergTask.osexp","C:\Users\Owner","no","mono","no","18","no","white","no","yes","768","legacy","6","11","C:/Users/Owner/KMPsubject-4.csv","legacy","1 4 9 3 2 5","Lentiform Loewenfeld","3.3.3","3","y","yes","0","left","left","right","left","NA","1246","47750","8394","1246","NA","2","legacy","6","1024","2","48000","-16","experiment","4","even","9","182250","92692","51382","178983","180044","3628","140296","180045","3630","131901","184254","185501","181046","184254","NA","Sternberg Task ","15","24459","19","yes","1024"
"80","80","1268.95","1268.95","black","experiment","legacy","legacy","legacy","0","uniform","1","undefined","1","left","19","19","0","19","19","0","0","19","0","0","19","19","19","19","0","Mon Oct 12 13:34:13 2020","The main experiment item","yes","SternbergTask.osexp","C:\Users\Owner","no","mono","no","18","no","white","no","yes","768","legacy","7","11","C:/Users/Owner/KMPsubject-4.csv","legacy","9 1 7 2","Lentiform Loewenfeld","3.3.3","2","y","yes","0","left","left","right","left","NA","920","47750","8394","920","NA","2","legacy","4","1024","2","48000","-16","experiment","4","even","1","188777","92692","51382","185504","186570","3628","140296","186572","3630","131901","190782","191704","187573","190782","NA","Sternberg Task ","16","25379","20","yes","1024"
"80.95238095238095","80.95238095238095","1247.7619047619048","1247.7619047619048","black","experiment","legacy","legacy","legacy","0","uniform","1","undefined","1","left","20","20","0","20","20","0","0","20","0","0","20","20","20","20","0","Mon Oct 12 13:34:13 2020","The main experiment item","yes","SternbergTask.osexp","C:\Users\Owner","no","mono","no","18","no","white","no","yes","768","legacy","8","11","C:/Users/Owner/KMPsubject-4.csv","legacy","9 6 2 4 1","Lentiform Loewenfeld","3.3.3","4","y","yes","0","left","left","right","left","NA","824","47750","8394","824","NA","2","legacy","5","1024","2","48000","-16","experiment","4","even","4","195023","92692","51382","191707","192816","3628","140296","192818","3630","131901","197028","197853","193819","197027","NA","Sternberg Task ","17","26203","21","yes","1024"
"81.81818181818181","81.81818181818181","1232.3636363636363","1232.3636363636363","black","experiment","legacy","legacy","legacy","0","uniform","1","undefined","1","left","21","21","0","21","21","0","0","21","0","0","21","21","21","21","0","Mon Oct 12 13:34:13 2020","The main experiment item","yes","SternbergTask.osexp","C:\Users\Owner","no","mono","no","18","no","white","no","yes","768","legacy","9","11","C:/Users/Owner/KMPsubject-4.csv","legacy","4 7 6 8 2 3","Lentiform Loewenfeld","3.3.3","6","y","yes","0","left","left","right","left","NA","909","47750","8394","909","NA","2","legacy","6","1024","2","48000","-16","experiment","4","even","3","201219","92692","51382","197897","199008","3628","140296","199010","3630","131901","203220","204129","200015","203220","NA","Sternberg Task ","18","27112","22","yes","1024"
"82.6086956521739","82.6086956521739","1229.7391304347825","1229.7391304347825","black","experiment","legacy","legacy","legacy","0","uniform","1","undefined","1","right","22","22","0","22","22","0","0","22","0","0","22","22","22","22","0","Mon Oct 12 13:34:13 2020","The main experiment item","yes","SternbergTask.osexp","C:\Users\Owner","no","mono","no","18","no","white","no","yes","768","legacy","10","11","C:/Users/Owner/KMPsubject-4.csv","legacy","5 3 2 6 9 8","Lentiform Loewenfeld","3.3.3","0","n","yes","0","right","left","right","right","NA","1172","47750","8394","1172","NA","2","legacy","6","1024","2","48000","-16","experiment","4","even","4","207454","92692","51382","204132","205244","3628","140296","205245","3630","131901","209458","210632","206249","209458","NA","Sternberg Task ","19","28284","23","yes","1024"
"83.33333333333333","83.33333333333333","1242.2916666666667","1242.2916666666667","black","experiment","legacy","legacy","legacy","0","uniform","1","undefined","1","right","23","23","0","23","23","0","0","23","0","0","23","23","23","23","0","Mon Oct 12 13:34:13 2020","The main experiment item","yes","SternbergTask.osexp","C:\Users\Owner","no","mono","no","18","no","white","no","yes","768","legacy","11","11","C:/Users/Owner/KMPsubject-4.csv","legacy","2 8 9 4 1","Lentiform Loewenfeld","3.3.3","0","n","yes","0","right","left","right","right","NA","1531","47750","8394","1531","NA","2","legacy","5","1024","2","48000","-16","experiment","4","even","5","213948","92692","51382","210636","211740","3628","140296","211741","3630","131901","215952","217484","212745","215952","NA","Sternberg Task ","20","29815","24","yes","1024"
"84","84","1231.92","1231.92","black","experiment","legacy","legacy","legacy","0","uniform","1","undefined","1","left","24","24","0","24","24","0","0","24","0","0","24","24","24","24","0","Mon Oct 12 13:34:13 2020","The main experiment item","yes","SternbergTask.osexp","C:\Users\Owner","no","mono","no","18","no","white","no","yes","768","legacy","12","11","C:/Users/Owner/KMPsubject-4.csv","legacy","8 5 1 3 9","Lentiform Loewenfeld","3.3.3","4","y","yes","0","left","left","right","left","NA","983","47750","8394","983","NA","2","legacy","5","1024","2","48000","-16","experiment","4","even","3","220839","92692","51382","217488","218630","3628","140296","218631","3630","131901","222843","223828","219635","222843","NA","Sternberg Task ","21","30798","25","yes","1024"
"84.61538461538461","84.61538461538461","1217.7692307692307","1217.7692307692307","black","experiment","legacy","legacy","legacy","0","uniform","1","undefined","1","left","25","25","0","25","25","0","0","25","0","0","25","25","25","25","0","Mon Oct 12 13:34:13 2020","The main experiment item","yes","SternbergTask.osexp","C:\Users\Owner","no","mono","no","18","no","white","no","yes","768","legacy","13","11","C:/Users/Owner/KMPsubject-4.csv","legacy","4 3 2 5 8","Lentiform Loewenfeld","3.3.3","2","y","yes","0","left","left","right","left","NA","864","47750","8394","864","NA","2","legacy","5","1024","2","48000","-16","experiment","4","even","3","227146","92692","51382","223831","224939","3628","140296","224941","3630","131901","229150","230014","225942","229150","NA","Sternberg Task ","22","31662","26","yes","1024"
"85.18518518518519","85.18518518518519","1221.2962962962963","1221.2962962962963","black","experiment","legacy","legacy","legacy","0","uniform","1","undefined","1","right","26","26","0","26","26","0","0","26","0","0","26","26","26","26","0","Mon Oct 12 13:34:13 2020","The main experiment item","yes","SternbergTask.osexp","C:\Users\Owner","no","mono","no","18","no","white","no","yes","768","legacy","14","11","C:/Users/Owner/KMPsubject-4.csv","legacy","3 9 8 1 6 4","Lentiform Loewenfeld","3.3.3","0","n","yes","0","right","left","right","right","NA","1313","47750","8394","1313","NA","2","legacy","6","1024","2","48000","-16","experiment","4","even","7","233323","92692","51382","230018","231116","3628","140296","231118","3630","131901","235327","236641","232122","235327","NA","Sternberg Task ","23","32975","27","yes","1024"
"85.71428571428571","85.71428571428571","1231.857142857143","1231.857142857143","black","experiment","legacy","legacy","legacy","0","uniform","1","undefined","1","right","27","27","0","27","27","0","0","27","0","0","27","27","27","27","0","Mon Oct 12 13:34:13 2020","The main experiment item","yes","SternbergTask.osexp","C:\Users\Owner","no","mono","no","18","no","white","no","yes","768","legacy","15","11","C:/Users/Owner/KMPsubject-4.csv","legacy","1 4 3 6 5","Lentiform Loewenfeld","3.3.3","0","n","yes","0","right","left","right","right","NA","1517","47750","8394","1517","NA","2","legacy","5","1024","2","48000","-16","experiment","4","even","8","239912","92692","51382","236644","237708","3628","140296","237710","3630","131901","241913","243431","238711","241913","NA","Sternberg Task ","24","34492","28","yes","1024"
"86.20689655172414","86.20689655172414","1226.4137931034484","1226.4137931034484","black","experiment","legacy","legacy","legacy","0","uniform","1","undefined","1","right","28","28","0","28","28","0","0","28","0","0","28","28","28","28","0","Mon Oct 12 13:34:13 2020","The main experiment item","yes","SternbergTask.osexp","C:\Users\Owner","no","mono","no","18","no","white","no","yes","768","legacy","16","11","C:/Users/Owner/KMPsubject-4.csv","legacy","2 8 9","Lentiform Loewenfeld","3.3.3","0","n","yes","0","right","left","right","right","NA","1074","47750","8394","1074","NA","2","legacy","3","1024","2","48000","-16","experiment","4","even","6","246741","92692","51382","243435","244533","3628","140296","244534","3630","131901","248746","249821","245538","248746","NA","Sternberg Task ","25","35566","29","yes","1024"
"86.66666666666667","86.66666666666667","1251.4","1251.4","black","experiment","legacy","legacy","legacy","0","uniform","1","undefined","1","right","29","29","0","29","29","0","0","29","0","0","29","29","29","29","0","Mon Oct 12 13:34:13 2020","The main experiment item","yes","SternbergTask.osexp","C:\Users\Owner","no","mono","no","18","no","white","no","yes","768","legacy","17","11","C:/Users/Owner/KMPsubject-4.csv","legacy","6 9 4 5 3 2","Lentiform Loewenfeld","3.3.3","0","n","yes","0","right","left","right","right","NA","1976","47750","8394","1976","NA","2","legacy","6","1024","2","48000","-16","experiment","4","even","8","253140","92692","51382","249824","250931","3628","140296","250932","3630","131901","255144","257121","251936","255144","NA","Sternberg Task ","26","37542","30","yes","1024"
"87.09677419354838","87.09677419354838","1246.8709677419354","1246.8709677419354","black","experiment","legacy","legacy","legacy","0","uniform","1","undefined","1","left","30","30","0","30","30","0","0","30","0","0","30","30","30","30","0","Mon Oct 12 13:34:13 2020","The main experiment item","yes","SternbergTask.osexp","C:\Users\Owner","no","mono","no","18","no","white","no","yes","768","legacy","18","11","C:/Users/Owner/KMPsubject-4.csv","legacy","7 8 4 6 9 5","Lentiform Loewenfeld","3.3.3","4","y","yes","0","left","left","right","left","NA","1111","47750","8394","1111","NA","2","legacy","6","1024","2","48000","-16","experiment","4","even","6","260450","92692","51382","257125","258241","3628","140296","258242","3630","131901","262454","263567","259246","262454","NA","Sternberg Task ","27","38653","31","yes","1024"
"87.5","87.5","1242.8125","1242.8125","black","experiment","legacy","legacy","legacy","0","uniform","1","undefined","1","right","31","31","0","31","31","0","0","31","0","0","31","31","31","31","0","Mon Oct 12 13:34:13 2020","The main experiment item","yes","SternbergTask.osexp","C:\Users\Owner","no","mono","no","18","no","white","no","yes","768","legacy","19","11","C:/Users/Owner/KMPsubject-4.csv","legacy","6 3 1 7 9 8","Lentiform Loewenfeld","3.3.3","0","n","yes","0","right","left","right","right","NA","1117","47750","8394","1117","NA","2","legacy","6","1024","2","48000","-16","experiment","4","even","4","266881","92692","51382","263569","264672","3628","140296","264674","3630","131901","268885","270003","265678","268885","NA","Sternberg Task ","28","39770","32","yes","1024"
"87.87878787878788","87.87878787878788","1243.5757575757575","1243.5757575757575","black","experiment","legacy","legacy","legacy","0","uniform","1","undefined","1","left","32","32","0","32","32","0","0","32","0","0","32","32","32","32","0","Mon Oct 12 13:34:13 2020","The main experiment item","yes","SternbergTask.osexp","C:\Users\Owner","no","mono","no","18","no","white","no","yes","768","legacy","20","11","C:/Users/Owner/KMPsubject-4.csv","legacy","5 2 6","Lentiform Loewenfeld","3.3.3","2","y","yes","0","left","left","right","left","NA","1268","47750","8394","1268","NA","2","legacy","3","1024","2","48000","-16","experiment","4","even","2","273327","92692","51382","270007","271118","3628","140296","271119","3630","131901","275331","276601","272123","275331","NA","Sternberg Task ","29","41038","33","yes","1024"
"88.23529411764706","88.23529411764706","1238.0588235294117","1238.0588235294117","black","experiment","legacy","legacy","legacy","0","uniform","1","undefined","1","right","33","33","0","33","33","0","0","33","0","0","33","33","33","33","0","Mon Oct 12 13:34:13 2020","The main experiment item","yes","SternbergTask.osexp","C:\Users\Owner","no","mono","no","18","no","white","no","yes","768","legacy","21","11","C:/Users/Owner/KMPsubject-4.csv","legacy","1 5 3 2 8","Lentiform Loewenfeld","3.3.3","0","n","yes","0","right","left","right","right","NA","1056","47750","8394","1056","NA","2","legacy","5","1024","2","48000","-16","experiment","4","even","4","279928","92692","51382","276605","277722","3628","140296","277723","3630","131901","281929","282985","278727","281929","NA","Sternberg Task ","30","42094","34","yes","1024"
"88.57142857142857","88.57142857142857","1234.5142857142857","1234.5142857142857","black","experiment","legacy","legacy","legacy","0","uniform","1","undefined","1","right","34","34","0","34","34","0","0","34","0","0","34","34","34","34","0","Mon Oct 12 13:34:13 2020","The main experiment item","yes","SternbergTask.osexp","C:\Users\Owner","no","mono","no","18","no","white","no","yes","768","legacy","22","11","C:/Users/Owner/KMPsubject-4.csv","legacy","1 8 7","Lentiform Loewenfeld","3.3.3","0","n","yes","0","right","left","right","right","NA","1114","47750","8394","1114","NA","2","legacy","3","1024","2","48000","-16","experiment","4","even","4","286312","92692","51382","282989","284103","3628","140296","284104","3630","131901","288317","289432","285108","288317","NA","Sternberg Task ","31","43208","35","yes","1024"
"88.88888888888889","88.88888888888889","1229.138888888889","1229.138888888889","black","experiment","legacy","legacy","legacy","0","uniform","1","undefined","1","right","35","35","0","35","35","0","0","35","0","0","35","35","35","35","0","Mon Oct 12 13:34:13 2020","The main experiment item","yes","SternbergTask.osexp","C:\Users\Owner","no","mono","no","18","no","white","no","yes","768","legacy","23","11","C:/Users/Owner/KMPsubject-4.csv","legacy","8 6 3 4 7","Lentiform Loewenfeld","3.3.3","0","n","yes","0","right","left","right","right","NA","1041","47750","8394","1041","NA","2","legacy","5","1024","2","48000","-16","experiment","4","even","1","292706","92692","51382","289435","290500","3628","140296","290501","3630","131901","294707","295749","291502","294707","NA","Sternberg Task ","32","44249","36","yes","1024"
"89.1891891891892","89.1891891891892","1224.027027027027","1224.027027027027","black","experiment","legacy","legacy","legacy","0","uniform","1","undefined","1","left","36","36","0","36","36","0","0","36","0","0","36","36","36","36","0","Mon Oct 12 13:34:13 2020","The main experiment item","yes","SternbergTask.osexp","C:\Users\Owner","no","mono","no","18","no","white","no","yes","768","legacy","24","11","C:/Users/Owner/KMPsubject-4.csv","legacy","9 1 6 7 8","Lentiform Loewenfeld","3.3.3","1","y","yes","0","left","left","right","left","NA","1040","47750","8394","1040","NA","2","legacy","5","1024","2","48000","-16","experiment","4","even","9","299068","92692","51382","295753","296859","3628","140296","296860","3630","131901","301072","302113","297864","301072","NA","Sternberg Task ","33","45289","37","yes","1024"
"89.47368421052632","89.47368421052632","1206.921052631579","1206.921052631579","black","experiment","legacy","legacy","legacy","0","uniform","1","undefined","1","right","37","37","0","37","37","0","0","37","0","0","37","37","37","37","0","Mon Oct 12 13:34:13 2020","The main experiment item","yes","SternbergTask.osexp","C:\Users\Owner","no","mono","no","18","no","white","no","yes","768","legacy","25","11","C:/Users/Owner/KMPsubject-4.csv","legacy","8 9","Lentiform Loewenfeld","3.3.3","0","n","yes","0","right","left","right","right","NA","574","47750","8394","574","NA","2","legacy","2","1024","2","48000","-16","experiment","4","even","5","305417","92692","51382","302115","303210","3628","140296","303211","3630","131901","307422","307997","304213","307421","NA","Sternberg Task ","34","45863","38","yes","1024"
"89.74358974358974","89.74358974358974","1203.820512820513","1203.820512820513","black","experiment","legacy","legacy","legacy","0","uniform","1","undefined","1","right","38","38","0","38","38","0","0","38","0","0","38","38","38","38","0","Mon Oct 12 13:34:13 2020","The main experiment item","yes","SternbergTask.osexp","C:\Users\Owner","no","mono","no","18","no","white","no","yes","768","legacy","26","11","C:/Users/Owner/KMPsubject-4.csv","legacy","4 2 7 6 1 3","Lentiform Loewenfeld","3.3.3","0","n","yes","0","right","left","right","right","NA","1086","47750","8394","1086","NA","2","legacy","6","1024","2","48000","-16","experiment","4","even","8","311344","92692","51382","308000","309135","3628","140296","309137","3630","131901","313348","314435","310140","313348","NA","Sternberg Task ","35","46949","39","yes","1024"
"90","90","1199.85","1199.85","black","experiment","legacy","legacy","legacy","0","uniform","1","undefined","1","left","39","39","0","39","39","0","0","39","0","0","39","39","39","39","0","Mon Oct 12 13:34:13 2020","The main experiment item","yes","SternbergTask.osexp","C:\Users\Owner","no","mono","no","18","no","white","no","yes","768","legacy","27","11","C:/Users/Owner/KMPsubject-4.csv","legacy","2 8 5 1","Lentiform Loewenfeld","3.3.3","4","y","yes","0","left","left","right","left","NA","1045","47750","8394","1045","NA","2","legacy","4","1024","2","48000","-16","experiment","4","even","1","317753","92692","51382","314438","315544","3628","140296","315545","3630","131901","319757","320803","316549","319757","NA","Sternberg Task ","36","47994","40","yes","1024"
"90.2439024390244","90.2439024390244","1205.4878048780488","1205.4878048780488","black","experiment","legacy","legacy","legacy","0","uniform","1","undefined","1","right","40","40","0","40","40","0","0","40","0","0","40","40","40","40","0","Mon Oct 12 13:34:13 2020","The main experiment item","yes","SternbergTask.osexp","C:\Users\Owner","no","mono","no","18","no","white","no","yes","768","legacy","28","11","C:/Users/Owner/KMPsubject-4.csv","legacy","9 5 3 2 8 6","Lentiform Loewenfeld","3.3.3","0","n","yes","0","right","left","right","right","NA","1431","47750","8394","1431","NA","2","legacy","6","1024","2","48000","-16","experiment","4","even","7","324084","92692","51382","320806","321875","3628","140296","321876","3630","131901","326088","327520","322880","326088","NA","Sternberg Task ","37","49425","41","yes","1024"
"90.47619047619048","90.47619047619048","1209.095238095238","1209.095238095238","black","experiment","legacy","legacy","legacy","0","uniform","1","undefined","1","right","41","41","0","41","41","0","0","41","0","0","41","41","41","41","0","Mon Oct 12 13:34:13 2020","The main experiment item","yes","SternbergTask.osexp","C:\Users\Owner","no","mono","no","18","no","white","no","yes","768","legacy","29","11","C:/Users/Owner/KMPsubject-4.csv","legacy","1 4 9 3","Lentiform Loewenfeld","3.3.3","0","n","yes","0","right","left","right","right","NA","1357","47750","8394","1357","NA","2","legacy","4","1024","2","48000","-16","experiment","4","even","5","330846","92692","51382","327524","328637","3628","140296","328638","3630","131901","332850","334208","329642","332850","NA","Sternberg Task ","38","50782","42","yes","1024"
"90.69767441860465","90.69767441860465","1203.1860465116279","1203.1860465116279","black","experiment","legacy","legacy","legacy","0","uniform","1","undefined","1","right","42","42","0","42","42","0","0","42","0","0","42","42","42","42","0","Mon Oct 12 13:34:13 2020","The main experiment item","yes","SternbergTask.osexp","C:\Users\Owner","no","mono","no","18","no","white","no","yes","768","legacy","30","11","C:/Users/Owner/KMPsubject-4.csv","legacy","7 1 5 6 3","Lentiform Loewenfeld","3.3.3","0","n","yes","0","right","left","right","right","NA","955","47750","8394","955","NA","2","legacy","5","1024","2","48000","-16","experiment","4","even","8","337524","92692","51382","334211","335315","3628","140296","335316","3630","131901","339528","340484","336319","339528","NA","Sternberg Task ","39","51737","43","yes","1024"
"90.9090909090909","90.9090909090909","1199.9318181818182","1199.9318181818182","black","experiment","legacy","legacy","legacy","0","uniform","1","undefined","1","left","43","43","0","43","43","0","0","43","0","0","43","43","43","43","0","Mon Oct 12 13:34:13 2020","The main experiment item","yes","SternbergTask.osexp","C:\Users\Owner","no","mono","no","18","no","white","no","yes","768","legacy","31","11","C:/Users/Owner/KMPsubject-4.csv","legacy","3 4","Lentiform Loewenfeld","3.3.3","1","y","yes","0","left","left","right","left","NA","1060","47750","8394","1060","NA","2","legacy","2","1024","2","48000","-16","experiment","4","even","3","343798","92692","51382","340486","341588","3628","140296","341590","3630","131901","345802","346863","342594","345801","NA","Sternberg Task ","40","52797","44","yes","1024"
"91.11111111111111","91.11111111111111","1200.0444444444445","1200.0444444444445","black","experiment","legacy","legacy","legacy","0","uniform","1","undefined","1","left","44","44","0","44","44","0","0","44","0","0","44","44","44","44","0","Mon Oct 12 13:34:13 2020","The main experiment item","yes","SternbergTask.osexp","C:\Users\Owner","no","mono","no","18","no","white","no","yes","768","legacy","32","11","C:/Users/Owner/KMPsubject-4.csv","legacy","6 8 9 3 4 9","Lentiform Loewenfeld","3.3.3","5","y","yes","0","left","left","right","left","NA","1205","47750","8394","1205","NA","2","legacy","6","1024","2","48000","-16","experiment","4","even","4","350181","92692","51382","346866","347972","3628","140296","347973","3630","131901","352185","353391","348977","352185","NA","Sternberg Task ","41","54002","45","yes","1024"
"91.30434782608695","91.30434782608695","1197.8260869565217","1197.8260869565217","black","experiment","legacy","legacy","legacy","0","uniform","1","undefined","1","left","45","45","0","45","45","0","0","45","0","0","45","45","45","45","0","Mon Oct 12 13:34:13 2020","The main experiment item","yes","SternbergTask.osexp","C:\Users\Owner","no","mono","no","18","no","white","no","yes","768","legacy","33","11","C:/Users/Owner/KMPsubject-4.csv","legacy","4 1 8 7 5","Lentiform Loewenfeld","3.3.3","3","y","yes","0","left","left","right","left","NA","1098","47750","8394","1098","NA","2","legacy","5","1024","2","48000","-16","experiment","4","even","8","356701","92692","51382","353394","354491","3628","140296","354493","3630","131901","358705","359804","355497","358705","NA","Sternberg Task ","42","55100","46","yes","1024"
"91.48936170212765","91.48936170212765","1194.531914893617","1194.531914893617","black","experiment","legacy","legacy","legacy","0","uniform","1","undefined","1","left","46","46","0","46","46","0","0","46","0","0","46","46","46","46","0","Mon Oct 12 13:34:13 2020","The main experiment item","yes","SternbergTask.osexp","C:\Users\Owner","no","mono","no","18","no","white","no","yes","768","legacy","34","11","C:/Users/Owner/KMPsubject-4.csv","legacy","5 2 9 6 1 7","Lentiform Loewenfeld","3.3.3","3","y","yes","0","left","left","right","left","NA","1043","47750","8394","1043","NA","2","legacy","6","1024","2","48000","-16","experiment","4","even","9","363126","92692","51382","359809","360916","3628","140296","360918","3630","131901","365130","366174","361922","365130","NA","Sternberg Task ","43","56143","47","yes","1024"
"91.66666666666667","91.66666666666667","1189.75","1189.75","black","experiment","legacy","legacy","legacy","0","uniform","1","undefined","1","right","47","47","0","47","47","0","0","47","0","0","47","47","47","47","0","Mon Oct 12 13:34:13 2020","The main experiment item","yes","SternbergTask.osexp","C:\Users\Owner","no","mono","no","18","no","white","no","yes","768","legacy","35","11","C:/Users/Owner/KMPsubject-4.csv","legacy","9 7 4 5 8","Lentiform Loewenfeld","3.3.3","0","n","yes","0","right","left","right","right","NA","965","47750","8394","965","NA","2","legacy","5","1024","2","48000","-16","experiment","4","even","6","369499","92692","51382","366178","367290","3628","140296","367291","3630","131901","371504","372470","368295","371504","NA","Sternberg Task ","44","57108","48","yes","1024"
"91.83673469387755","91.83673469387755","1184.6734693877552","1184.6734693877552","black","experiment","legacy","legacy","legacy","0","uniform","1","undefined","1","right","48","48","0","48","48","0","0","48","0","0","48","48","48","48","0","Mon Oct 12 13:34:13 2020","The main experiment item","yes","SternbergTask.osexp","C:\Users\Owner","no","mono","no","18","no","white","no","yes","768","legacy","36","11","C:/Users/Owner/KMPsubject-4.csv","legacy","8 5 7 3 6","Lentiform Loewenfeld","3.3.3","0","n","yes","0","right","left","right","right","NA","941","47750","8394","941","NA","2","legacy","5","1024","2","48000","-16","experiment","4","even","9","375793","92692","51382","372473","373584","3628","140296","373585","3630","131901","377797","378739","374589","377797","NA","Sternberg Task ","45","58049","49","yes","1024"
"92","92","1183.68","1183.68","black","experiment","legacy","legacy","legacy","0","uniform","1","undefined","1","left","49","49","0","49","49","0","0","49","0","0","49","49","49","49","0","Mon Oct 12 13:34:13 2020","The main experiment item","yes","SternbergTask.osexp","C:\Users\Owner","no","mono","no","18","no","white","no","yes","768","legacy","37","11","C:/Users/Owner/KMPsubject-4.csv","legacy","5 7 8 2 3 8","Lentiform Loewenfeld","3.3.3","5","y","yes","0","left","left","right","left","NA","1135","47750","8394","1135","NA","2","legacy","6","1024","2","48000","-16","experiment","4","even","3","382060","92692","51382","378743","379857","3628","140296","379858","3630","131901","384061","385196","380859","384061","NA","Sternberg Task ","46","59184","50","yes","1024"
"92.15686274509804","92.15686274509804","1180.9411764705883","1180.9411764705883","black","experiment","legacy","legacy","legacy","0","uniform","1","undefined","1","left","50","50","0","50","50","0","0","50","0","0","50","50","50","50","0","Mon Oct 12 13:34:13 2020","The main experiment item","yes","SternbergTask.osexp","C:\Users\Owner","no","mono","no","18","no","white","no","yes","768","legacy","38","11","C:/Users/Owner/KMPsubject-4.csv","legacy","6 7 9 3 1 2","Lentiform Loewenfeld","3.3.3","1","y","yes","0","left","left","right","left","NA","1044","47750","8394","1044","NA","2","legacy","6","1024","2","48000","-16","experiment","4","even","6","388500","92692","51382","385200","386290","3628","140296","386292","3630","131901","390501","391546","387296","390501","NA","Sternberg Task ","47","60228","51","yes","1024"
"92.3076923076923","92.3076923076923","1175.4423076923076","1175.4423076923076","black","experiment","legacy","legacy","legacy","0","uniform","1","undefined","1","right","51","51","0","51","51","0","0","51","0","0","51","51","51","51","0","Mon Oct 12 13:34:13 2020","The main experiment item","yes","SternbergTask.osexp","C:\Users\Owner","no","mono","no","18","no","white","no","yes","768","legacy","39","11","C:/Users/Owner/KMPsubject-4.csv","legacy","4 8 1 2","Lentiform Loewenfeld","3.3.3","0","n","yes","0","right","left","right","right","NA","895","47750","8394","895","NA","2","legacy","4","1024","2","48000","-16","experiment","4","even","7","394827","92692","51382","391549","392620","3628","140296","392622","3630","131901","396831","397727","393626","396831","NA","Sternberg Task ","48","61123","52","yes","1024"
"92.45283018867924","92.45283018867924","1171.5283018867924","1171.5283018867924","black","experiment","legacy","legacy","legacy","0","uniform","1","undefined","1","left","52","52","0","52","52","0","0","52","0","0","52","52","52","52","0","Mon Oct 12 13:34:13 2020","The main experiment item","yes","SternbergTask.osexp","C:\Users\Owner","no","mono","no","18","no","white","no","yes","768","legacy","40","11","C:/Users/Owner/KMPsubject-4.csv","legacy","8 5 3 7 4 6","Lentiform Loewenfeld","3.3.3","6","y","yes","0","left","left","right","left","NA","968","47750","8394","968","NA","2","legacy","6","1024","2","48000","-16","experiment","4","even","6","401040","92692","51382","397731","398832","3628","140296","398833","3630","131901","403044","404013","399836","403044","NA","Sternberg Task ","49","62091","53","yes","1024"
"92.5925925925926","92.5925925925926","1174.6666666666667","1174.6666666666667","black","experiment","legacy","legacy","legacy","0","uniform","1","undefined","1","right","53","53","0","53","53","0","0","53","0","0","53","53","53","53","0","Mon Oct 12 13:34:13 2020","The main experiment item","yes","SternbergTask.osexp","C:\Users\Owner","no","mono","no","18","no","white","no","yes","768","legacy","41","11","C:/Users/Owner/KMPsubject-4.csv","legacy","8 4 3 5","Lentiform Loewenfeld","3.3.3","0","n","yes","0","right","left","right","right","NA","1341","47750","8394","1341","NA","2","legacy","4","1024","2","48000","-16","experiment","4","even","6","407334","92692","51382","404017","405127","3628","140296","405129","3630","131901","409338","410680","406130","409338","NA","Sternberg Task ","50","63432","54","yes","1024"
"92.72727272727273","92.72727272727273","1168","1168","black","experiment","legacy","legacy","legacy","0","uniform","1","undefined","1","right","54","54","0","54","54","0","0","54","0","0","54","54","54","54","0","Mon Oct 12 13:34:13 2020","The main experiment item","yes","SternbergTask.osexp","C:\Users\Owner","no","mono","no","18","no","white","no","yes","768","legacy","42","11","C:/Users/Owner/KMPsubject-4.csv","legacy","2 7 5","Lentiform Loewenfeld","3.3.3","0","n","yes","0","right","left","right","right","NA","808","47750","8394","808","NA","2","legacy","3","1024","2","48000","-16","experiment","4","even","8","413987","92692","51382","410683","411778","3628","140296","411779","3630","131901","415991","416800","412783","415991","NA","Sternberg Task ","51","64240","55","yes","1024"
"92.85714285714286","92.85714285714286","1164.0357142857142","1164.0357142857142","black","experiment","legacy","legacy","legacy","0","uniform","1","undefined","1","right","55","55","0","55","55","0","0","55","0","0","55","55","55","55","0","Mon Oct 12 13:34:13 2020","The main experiment item","yes","SternbergTask.osexp","C:\Users\Owner","no","mono","no","18","no","white","no","yes","768","legacy","43","11","C:/Users/Owner/KMPsubject-4.csv","legacy","7 4 2 8 1 9","Lentiform Loewenfeld","3.3.3","0","n","yes","0","right","left","right","right","NA","946","47750","8394","946","NA","2","legacy","6","1024","2","48000","-16","experiment","4","even","5","420073","92692","51382","416802","417868","3628","140296","417869","3630","131901","422078","423026","418870","422078","NA","Sternberg Task ","52","65186","56","yes","1024"
"92.98245614035088","92.98245614035088","1157.3859649122808","1157.3859649122808","black","experiment","legacy","legacy","legacy","0","uniform","1","undefined","1","right","56","56","0","56","56","0","0","56","0","0","56","56","56","56","0","Mon Oct 12 13:34:13 2020","The main experiment item","yes","SternbergTask.osexp","C:\Users\Owner","no","mono","no","18","no","white","no","yes","768","legacy","44","11","C:/Users/Owner/KMPsubject-4.csv","legacy","4 1","Lentiform Loewenfeld","3.3.3","0","n","yes","0","right","left","right","right","NA","785","47750","8394","785","NA","2","legacy","2","1024","2","48000","-16","experiment","4","even","6","426346","92692","51382","423032","424135","3628","140296","424137","3630","131901","428350","429136","425141","428350","NA","Sternberg Task ","53","65971","57","yes","1024"
"93.10344827586206","93.10344827586206","1153.155172413793","1153.155172413793","black","experiment","legacy","legacy","legacy","0","uniform","1","undefined","1","right","57","57","0","57","57","0","0","57","0","0","57","57","57","57","0","Mon Oct 12 13:34:13 2020","The main experiment item","yes","SternbergTask.osexp","C:\Users\Owner","no","mono","no","18","no","white","no","yes","768","legacy","45","11","C:/Users/Owner/KMPsubject-4.csv","legacy","1","Lentiform Loewenfeld","3.3.3","0","n","yes","0","right","left","right","right","NA","912","47750","8394","912","NA","2","legacy","1","1024","2","48000","-16","experiment","4","even","7","432406","92692","51382","429139","430199","3628","140296","430201","3630","131901","434410","435323","431202","434410","NA","Sternberg Task ","54","66883","58","yes","1024"
"93.22033898305085","93.22033898305085","1149.322033898305","1149.322033898305","black","experiment","legacy","legacy","legacy","0","uniform","1","undefined","1","right","58","58","0","58","58","0","0","58","0","0","58","58","58","58","0","Mon Oct 12 13:34:13 2020","The main experiment item","yes","SternbergTask.osexp","C:\Users\Owner","no","mono","no","18","no","white","no","yes","768","legacy","46","11","C:/Users/Owner/KMPsubject-4.csv","legacy","8 4 3 9","Lentiform Loewenfeld","3.3.3","0","n","yes","0","right","left","right","right","NA","927","47750","8394","927","NA","2","legacy","4","1024","2","48000","-16","experiment","4","even","5","438644","92692","51382","435326","436435","3628","140296","436436","3630","131901","440648","441576","437441","440648","NA","Sternberg Task ","55","67810","59","yes","1024"
"93.33333333333333","93.33333333333333","1145.1","1145.1","black","experiment","legacy","legacy","legacy","0","uniform","1","undefined","1","left","59","59","0","59","59","0","0","59","0","0","59","59","59","59","0","Mon Oct 12 13:34:13 2020","The main experiment item","yes","SternbergTask.osexp","C:\Users\Owner","no","mono","no","18","no","white","no","yes","768","legacy","47","11","C:/Users/Owner/KMPsubject-4.csv","legacy","7","Lentiform Loewenfeld","3.3.3","1","y","yes","0","left","left","right","left","NA","896","47750","8394","896","NA","2","legacy","1","1024","2","48000","-16","experiment","4","even","7","444896","92692","51382","441579","442687","3628","140296","442688","3630","131901","446900","447797","443692","446900","NA","Sternberg Task ","56","68706","60","yes","1024"
"93.44262295081967","93.44262295081967","1139.9180327868853","1139.9180327868853","black","experiment","legacy","legacy","legacy","0","uniform","1","undefined","1","right","60","60","0","60","60","0","0","60","0","0","60","60","60","60","0","Mon Oct 12 13:34:13 2020","The main experiment item","yes","SternbergTask.osexp","C:\Users\Owner","no","mono","no","18","no","white","no","yes","768","legacy","48","11","C:/Users/Owner/KMPsubject-4.csv","legacy","3 9 1","Lentiform Loewenfeld","3.3.3","0","n","yes","0","right","left","right","right","NA","829","47750","8394","829","NA","2","legacy","3","1024","2","48000","-16","experiment","4","even","7","451111","92692","51382","447799","448902","3628","140296","448903","3630","131901","453115","453945","449907","453115","NA","Sternberg Task ","57","69535","61","yes","1024"
"93.54838709677419","93.54838709677419","1138.016129032258","1138.016129032258","black","experiment","legacy","legacy","legacy","0","uniform","1","undefined","1","right","61","61","0","61","61","0","0","61","0","0","61","61","61","61","0","Mon Oct 12 13:34:13 2020","The main experiment item","yes","SternbergTask.osexp","C:\Users\Owner","no","mono","no","18","no","white","no","yes","768","legacy","49","11","C:/Users/Owner/KMPsubject-4.csv","legacy","1 4 9 2 5","Lentiform Loewenfeld","3.3.3","0","n","yes","0","right","left","right","right","NA","1022","47750","8394","1022","NA","2","legacy","5","1024","2","48000","-16","experiment","4","even","7","457276","92692","51382","453951","455066","3628","140296","455068","3630","131901","459280","460303","456072","459280","NA","Sternberg Task ","58","70557","62","yes","1024"
"93.65079365079364","93.65079365079364","1133.6984126984128","1133.6984126984128","black","experiment","legacy","legacy","legacy","0","uniform","1","undefined","1","right","62","62","0","62","62","0","0","62","0","0","62","62","62","62","0","Mon Oct 12 13:34:13 2020","The main experiment item","yes","SternbergTask.osexp","C:\Users\Owner","no","mono","no","18","no","white","no","yes","768","legacy","50","11","C:/Users/Owner/KMPsubject-4.csv","legacy","6 9 5","Lentiform Loewenfeld","3.3.3","0","n","yes","0","right","left","right","right","NA","866","47750","8394","866","NA","2","legacy","3","1024","2","48000","-16","experiment","4","even","8","463624","92692","51382","460307","461415","3628","140296","461416","3630","131901","465628","466495","462420","465628","NA","Sternberg Task ","59","71423","63","yes","1024"
"92.1875","92.1875","1147.234375","1147.234375","black","experiment","legacy","legacy","legacy","0","uniform","0","undefined","0","left","63","63","0","63","63","0","0","63","0","0","63","63","63","63","0","Mon Oct 12 13:34:13 2020","The main experiment item","yes","SternbergTask.osexp","C:\Users\Owner","no","mono","no","18","no","white","no","yes","768","legacy","51","11","C:/Users/Owner/KMPsubject-4.csv","legacy","4 1 5","Lentiform Loewenfeld","3.3.3","2","y","yes","0","None","left","right","None","NA","2000","47750","8394","2000","NA","2","legacy","3","1024","2","48000","-16","experiment","4","even","1","469790","92692","51382","466498","467584","3628","140296","467585","3630","131901","471794","473794","468589","471794","NA","Sternberg Task ","59","73423","64","yes","1024"
"92.3076923076923","92.3076923076923","1151.5692307692307","1151.5692307692307","black","experiment","legacy","legacy","legacy","0","uniform","1","undefined","1","left","64","64","0","64","64","0","0","64","0","0","64","64","64","64","0","Mon Oct 12 13:34:13 2020","The main experiment item","yes","SternbergTask.osexp","C:\Users\Owner","no","mono","no","18","no","white","no","yes","768","legacy","52","11","C:/Users/Owner/KMPsubject-4.csv","legacy","2 5 4 8 7","Lentiform Loewenfeld","3.3.3","3","y","yes","0","left","left","right","left","NA","1429","47750","8394","1429","NA","2","legacy","5","1024","2","48000","-16","experiment","4","even","4","477118","473797","51382","466498","474909","3628","140296","474910","3630","131901","479123","480554","475914","479122","NA","Sternberg Task ","60","74852","65","yes","1024"
"92.42424242424242","92.42424242424242","1146.8939393939395","1146.8939393939395","black","experiment","legacy","legacy","legacy","0","uniform","1","undefined","1","right","65","65","0","65","65","0","0","65","0","0","65","65","65","65","0","Mon Oct 12 13:34:13 2020","The main experiment item","yes","SternbergTask.osexp","C:\Users\Owner","no","mono","no","18","no","white","no","yes","768","legacy","53","11","C:/Users/Owner/KMPsubject-4.csv","legacy","7 1","Lentiform Loewenfeld","3.3.3","0","n","yes","0","right","left","right","right","NA","843","47750","8394","843","NA","2","legacy","2","1024","2","48000","-16","experiment","4","even","8","483833","473797","51382","480557","481626","3628","140296","481628","3630","131901","485835","486680","482629","485835","NA","Sternberg Task ","61","75695","66","yes","1024"
"92.53731343283582","92.53731343283582","1142.8208955223881","1142.8208955223881","black","experiment","legacy","legacy","legacy","0","uniform","1","undefined","1","left","66","66","0","66","66","0","0","66","0","0","66","66","66","66","0","Mon Oct 12 13:34:13 2020","The main experiment item","yes","SternbergTask.osexp","C:\Users\Owner","no","mono","no","18","no","white","no","yes","768","legacy","54","11","C:/Users/Owner/KMPsubject-4.csv","legacy","2 4 8 5 1 3","Lentiform Loewenfeld","3.3.3","1","y","yes","0","left","left","right","left","NA","874","47750","8394","874","NA","2","legacy","6","1024","2","48000","-16","experiment","4","even","2","490001","473797","51382","486683","487792","3628","140296","487793","3630","131901","492005","492880","488797","492005","NA","Sternberg Task ","62","76569","67","yes","1024"
"92.6470588235294","92.6470588235294","1142.7794117647059","1142.7794117647059","black","experiment","legacy","legacy","legacy","0","uniform","1","undefined","1","right","67","67","0","67","67","0","0","67","0","0","67","67","67","67","0","Mon Oct 12 13:34:13 2020","The main experiment item","yes","SternbergTask.osexp","C:\Users\Owner","no","mono","no","18","no","white","no","yes","768","legacy","55","11","C:/Users/Owner/KMPsubject-4.csv","legacy","7 3 2 8","Lentiform Loewenfeld","3.3.3","0","n","yes","0","right","left","right","right","NA","1140","47750","8394","1140","NA","2","legacy","4","1024","2","48000","-16","experiment","4","even","4","496205","473797","51382","492884","493996","3628","140296","493997","3630","131901","498209","499350","495001","498209","NA","Sternberg Task ","63","77709","68","yes","1024"
"92.7536231884058","92.7536231884058","1139.2753623188405","1139.2753623188405","black","experiment","legacy","legacy","legacy","0","uniform","1","undefined","1","right","68","68","0","68","68","0","0","68","0","0","68","68","68","68","0","Mon Oct 12 13:34:13 2020","The main experiment item","yes","SternbergTask.osexp","C:\Users\Owner","no","mono","no","18","no","white","no","yes","768","legacy","56","11","C:/Users/Owner/KMPsubject-4.csv","legacy","9 8 2 7 4","Lentiform Loewenfeld","3.3.3","0","n","yes","0","right","left","right","right","NA","901","47750","8394","901","NA","2","legacy","5","1024","2","48000","-16","experiment","4","even","5","502676","473797","51382","499353","500468","3628","140296","500469","3630","131901","504680","505583","501472","504680","NA","Sternberg Task ","64","78610","69","yes","1024"
"92.85714285714286","92.85714285714286","1138.8142857142857","1138.8142857142857","black","experiment","legacy","legacy","legacy","0","uniform","1","undefined","1","left","69","69","0","69","69","0","0","69","0","0","69","69","69","69","0","Mon Oct 12 13:34:13 2020","The main experiment item","yes","SternbergTask.osexp","C:\Users\Owner","no","mono","no","18","no","white","no","yes","768","legacy","57","11","C:/Users/Owner/KMPsubject-4.csv","legacy","6 9 3 1","Lentiform Loewenfeld","3.3.3","4","y","yes","0","left","left","right","left","NA","1107","47750","8394","1107","NA","2","legacy","4","1024","2","48000","-16","experiment","4","even","1","508900","473797","51382","505586","506691","3628","140296","506692","3630","131901","510904","512012","507696","510904","NA","Sternberg Task ","65","79717","70","yes","1024"
"92.95774647887323","92.95774647887323","1135.8309859154929","1135.8309859154929","black","experiment","legacy","legacy","legacy","0","uniform","1","undefined","1","right","70","70","0","70","70","0","0","70","0","0","70","70","70","70","0","Mon Oct 12 13:34:13 2020","The main experiment item","yes","SternbergTask.osexp","C:\Users\Owner","no","mono","no","18","no","white","no","yes","768","legacy","58","11","C:/Users/Owner/KMPsubject-4.csv","legacy","7 1 8 4 9 3","Lentiform Loewenfeld","3.3.3","0","n","yes","0","right","left","right","right","NA","927","47750","8394","927","NA","2","legacy","6","1024","2","48000","-16","experiment","4","even","6","515329","473797","51382","512015","513120","3628","140296","513121","3630","131901","517333","518261","514125","517333","NA","Sternberg Task ","66","80644","71","yes","1024"
"93.05555555555556","93.05555555555556","1135.5833333333333","1135.5833333333333","black","experiment","legacy","legacy","legacy","0","uniform","1","undefined","1","right","71","71","0","71","71","0","0","71","0","0","71","71","71","71","0","Mon Oct 12 13:34:13 2020","The main experiment item","yes","SternbergTask.osexp","C:\Users\Owner","no","mono","no","18","no","white","no","yes","768","legacy","59","11","C:/Users/Owner/KMPsubject-4.csv","legacy","6 8 4","Lentiform Loewenfeld","3.3.3","0","n","yes","0","right","left","right","right","NA","1118","47750","8394","1118","NA","2","legacy","3","1024","2","48000","-16","experiment","4","even","1","521579","473797","51382","518264","519372","3628","140296","519373","3630","131901","523583","524702","520375","523583","NA","Sternberg Task ","67","81762","72","yes","1024"
"93.15068493150685","93.15068493150685","1132.972602739726","1132.972602739726","black","experiment","legacy","legacy","legacy","0","uniform","1","undefined","1","left","72","72","0","72","72","0","0","72","0","0","72","72","72","72","0","Mon Oct 12 13:34:13 2020","The main experiment item","yes","SternbergTask.osexp","C:\Users\Owner","no","mono","no","18","no","white","no","yes","768","legacy","60","11","C:/Users/Owner/KMPsubject-4.csv","legacy","3 4 9 6 2 9","Lentiform Loewenfeld","3.3.3","5","y","yes","0","left","left","right","left","NA","945","47750","8394","945","NA","2","legacy","6","1024","2","48000","-16","experiment","4","even","2","528019","473797","51382","524705","525809","3628","140296","525811","3630","131901","530024","530970","526815","530023","NA","Sternberg Task ","68","82707","73","yes","1024"
"93.24324324324324","93.24324324324324","1143.5675675675675","1143.5675675675675","black","experiment","legacy","legacy","legacy","0","uniform","1","undefined","1","left","73","73","0","73","73","0","0","73","0","0","73","73","73","73","0","Mon Oct 12 13:34:13 2020","The main experiment item","yes","SternbergTask.osexp","C:\Users\Owner","no","mono","no","18","no","white","no","yes","768","legacy","61","11","C:/Users/Owner/KMPsubject-4.csv","legacy","9 3 8 2 1 4","Lentiform Loewenfeld","3.3.3","3","y","yes","0","left","left","right","left","NA","1917","47750","8394","1917","NA","2","legacy","6","1024","2","48000","-16","experiment","4","even","8","534248","473797","51382","530974","532041","3628","140296","532042","3630","131901","536252","538170","533047","536251","NA","Sternberg Task ","69","84624","74","yes","1024"
"93.33333333333333","93.33333333333333","1142.5333333333333","1142.5333333333333","black","experiment","legacy","legacy","legacy","0","uniform","1","undefined","1","left","74","74","0","74","74","0","0","74","0","0","74","74","74","74","0","Mon Oct 12 13:34:13 2020","The main experiment item","yes","SternbergTask.osexp","C:\Users\Owner","no","mono","no","18","no","white","no","yes","768","legacy","62","11","C:/Users/Owner/KMPsubject-4.csv","legacy","3 9 7 6 4","Lentiform Loewenfeld","3.3.3","3","y","yes","0","left","left","right","left","NA","1066","47750","8394","1066","NA","2","legacy","5","1024","2","48000","-16","experiment","4","even","7","541488","473797","51382","538174","539281","3628","140296","539283","3630","131901","543493","544561","540285","543493","NA","Sternberg Task ","70","85690","75","yes","1024"
"93.42105263157895","93.42105263157895","1138.2236842105262","1138.2236842105262","black","experiment","legacy","legacy","legacy","0","uniform","1","undefined","1","left","75","75","0","75","75","0","0","75","0","0","75","75","75","75","0","Mon Oct 12 13:34:13 2020","The main experiment item","yes","SternbergTask.osexp","C:\Users\Owner","no","mono","no","18","no","white","no","yes","768","legacy","63","11","C:/Users/Owner/KMPsubject-4.csv","legacy","9 8 4","Lentiform Loewenfeld","3.3.3","1","y","yes","0","left","left","right","left","NA","815","47750","8394","815","NA","2","legacy","3","1024","2","48000","-16","experiment","4","even","9","547884","473797","51382","544564","545675","3628","140296","545676","3630","131901","549889","550706","546680","549889","NA","Sternberg Task ","71","86505","76","yes","1024"
"93.50649350649351","93.50649350649351","1133.5584415584415","1133.5584415584415","black","experiment","legacy","legacy","legacy","0","uniform","1","undefined","1","left","76","76","0","76","76","0","0","76","0","0","76","76","76","76","0","Mon Oct 12 13:34:13 2020","The main experiment item","yes","SternbergTask.osexp","C:\Users\Owner","no","mono","no","18","no","white","no","yes","768","legacy","64","11","C:/Users/Owner/KMPsubject-4.csv","legacy","3 2 1 4 7","Lentiform Loewenfeld","3.3.3","2","y","yes","0","left","left","right","left","NA","779","47750","8394","779","NA","2","legacy","5","1024","2","48000","-16","experiment","4","even","2","554029","473797","51382","550709","551820","3628","140296","551821","3630","131901","556033","556813","552825","556033","NA","Sternberg Task ","72","87284","77","yes","1024"
"92.3076923076923","92.3076923076923","1134.2435897435898","1134.2435897435898","black","experiment","legacy","legacy","legacy","0","uniform","0","undefined","0","left","77","77","0","77","77","0","0","77","0","0","77","77","77","77","0","Mon Oct 12 13:34:13 2020","The main experiment item","yes","SternbergTask.osexp","C:\Users\Owner","no","mono","no","18","no","white","no","yes","768","legacy","65","11","C:/Users/Owner/KMPsubject-4.csv","legacy","8 7 3","Lentiform Loewenfeld","3.3.3","1","y","yes","0","right","left","right","right","NA","1187","47750","8394","1187","NA","2","legacy","3","1024","2","48000","-16","experiment","4","even","8","560138","473797","51382","556818","557929","3628","140296","557930","3630","131901","562141","563329","558934","562140","NA","Sternberg Task ","72","88471","78","yes","1024"
"92.40506329113924","92.40506329113924","1141.0886075949368","1141.0886075949368","black","experiment","legacy","legacy","legacy","0","uniform","1","undefined","1","right","78","78","0","78","78","0","0","78","0","0","78","78","78","78","0","Mon Oct 12 13:34:13 2020","The main experiment item","yes","SternbergTask.osexp","C:\Users\Owner","no","mono","no","18","no","white","no","yes","768","legacy","66","11","C:/Users/Owner/KMPsubject-4.csv","legacy","4 2 6 9","Lentiform Loewenfeld","3.3.3","0","n","yes","0","right","left","right","right","NA","1675","47750","8394","1675","NA","2","legacy","4","1024","2","48000","-16","experiment","4","even","7","566655","563335","51382","556818","564445","3628","140296","564447","3630","131901","568659","570335","565451","568659","NA","Sternberg Task ","73","90146","79","yes","1024"
"92.5","92.5","1136.4","1136.4","black","experiment","legacy","legacy","legacy","0","uniform","1","undefined","1","right","79","79","0","79","79","0","0","79","0","0","79","79","79","79","0","Mon Oct 12 13:34:13 2020","The main experiment item","yes","SternbergTask.osexp","C:\Users\Owner","no","mono","no","18","no","white","no","yes","768","legacy","67","11","C:/Users/Owner/KMPsubject-4.csv","legacy","5","Lentiform Loewenfeld","3.3.3","0","n","yes","0","right","left","right","right","NA","766","47750","8394","766","NA","2","legacy","1","1024","2","48000","-16","experiment","4","even","8","573615","563335","51382","570339","571409","3628","140296","571410","3630","131901","575619","576386","572411","575619","NA","Sternberg Task ","74","90912","80","yes","1024"
"92.5925925925926","92.5925925925926","1134.8641975308642","1134.8641975308642","black","experiment","legacy","legacy","legacy","0","uniform","1","undefined","1","left","80","80","0","80","80","0","0","80","0","0","80","80","80","80","0","Mon Oct 12 13:34:13 2020","The main experiment item","yes","SternbergTask.osexp","C:\Users\Owner","no","mono","no","18","no","white","no","yes","768","legacy","68","11","C:/Users/Owner/KMPsubject-4.csv","legacy","8","Lentiform Loewenfeld","3.3.3","1","y","yes","0","left","left","right","left","NA","1012","47750","8394","1012","NA","2","legacy","1","1024","2","48000","-16","experiment","4","even","8","579692","563335","51382","576390","577485","3628","140296","577487","3630","131901","581695","582708","578488","581695","NA","Sternberg Task ","75","91924","81","yes","1024"
"92.6829268292683","92.6829268292683","1130.841463414634","1130.841463414634","black","experiment","legacy","legacy","legacy","0","uniform","1","undefined","1","left","81","81","0","81","81","0","0","81","0","0","81","81","81","81","0","Mon Oct 12 13:34:13 2020","The main experiment item","yes","SternbergTask.osexp","C:\Users\Owner","no","mono","no","18","no","white","no","yes","768","legacy","69","11","C:/Users/Owner/KMPsubject-4.csv","legacy","8 3","Lentiform Loewenfeld","3.3.3","2","y","yes","0","left","left","right","left","NA","805","47750","8394","805","NA","2","legacy","2","1024","2","48000","-16","experiment","4","even","3","586017","563335","51382","582712","583807","3628","140296","583808","3630","131901","588022","588829","584812","588021","NA","Sternberg Task ","76","92729","82","yes","1024"
"92.7710843373494","92.7710843373494","1131.0963855421687","1131.0963855421687","black","experiment","legacy","legacy","legacy","0","uniform","1","undefined","1","left","82","82","0","82","82","0","0","82","0","0","82","82","82","82","0","Mon Oct 12 13:34:13 2020","The main experiment item","yes","SternbergTask.osexp","C:\Users\Owner","no","mono","no","18","no","white","no","yes","768","legacy","70","11","C:/Users/Owner/KMPsubject-4.csv","legacy","6 1 2","Lentiform Loewenfeld","3.3.3","3","y","yes","0","left","left","right","left","NA","1152","47750","8394","1152","NA","2","legacy","3","1024","2","48000","-16","experiment","4","even","2","592153","563335","51382","588832","589947","3628","140296","589948","3630","131901","594157","595311","590952","594157","NA","Sternberg Task ","77","93881","83","yes","1024"
"92.85714285714286","92.85714285714286","1125.0595238095239","1125.0595238095239","black","experiment","legacy","legacy","legacy","0","uniform","1","undefined","1","left","83","83","0","83","83","0","0","83","0","0","83","83","83","83","0","Mon Oct 12 13:34:13 2020","The main experiment item","yes","SternbergTask.osexp","C:\Users\Owner","no","mono","no","18","no","white","no","yes","768","legacy","71","11","C:/Users/Owner/KMPsubject-4.csv","legacy","3 9 6 2","Lentiform Loewenfeld","3.3.3","4","y","yes","0","left","left","right","left","NA","624","47750","8394","624","NA","2","legacy","4","1024","2","48000","-16","experiment","4","even","2","598611","563335","51382","595314","596405","3628","140296","596406","3630","131901","600615","601240","597409","600615","NA","Sternberg Task ","78","94505","84","yes","1024"
"92.94117647058823","92.94117647058823","1120.2823529411764","1120.2823529411764","black","experiment","legacy","legacy","legacy","0","uniform","1","undefined","1","left","84","84","0","84","84","0","0","84","0","0","84","84","84","84","0","Mon Oct 12 13:34:13 2020","The main experiment item","yes","SternbergTask.osexp","C:\Users\Owner","no","mono","no","18","no","white","no","yes","768","legacy","72","11","C:/Users/Owner/KMPsubject-4.csv","legacy","2 3 7 4","Lentiform Loewenfeld","3.3.3","1","y","yes","0","left","left","right","left","NA","719","47750","8394","719","NA","2","legacy","4","1024","2","48000","-16","experiment","4","even","2","604557","563335","51382","601245","602347","3628","140296","602349","3630","131901","606561","607281","603353","606561","NA","Sternberg Task ","79","95224","85","yes","1024"
"93.02325581395348","93.02325581395348","1118.9186046511627","1118.9186046511627","black","experiment","legacy","legacy","legacy","0","uniform","1","undefined","1","right","85","85","0","85","85","0","0","85","0","0","85","85","85","85","0","Mon Oct 12 13:34:13 2020","The main experiment item","yes","SternbergTask.osexp","C:\Users\Owner","no","mono","no","18","no","white","no","yes","768","legacy","73","11","C:/Users/Owner/KMPsubject-4.csv","legacy","6 9 7 3 8 2","Lentiform Loewenfeld","3.3.3","0","n","yes","0","right","left","right","right","NA","1003","47750","8394","1003","NA","2","legacy","6","1024","2","48000","-16","experiment","4","even","5","610608","563335","51382","607285","608399","3628","140296","608400","3630","131901","612612","613617","609404","612612","NA","Sternberg Task ","80","96227","86","yes","1024"
"91.95402298850574","91.95402298850574","1114.942528735632","1114.942528735632","black","experiment","legacy","legacy","legacy","0","uniform","0","undefined","0","right","86","86","0","86","86","0","0","86","0","0","86","86","86","86","0","Mon Oct 12 13:34:13 2020","The main experiment item","yes","SternbergTask.osexp","C:\Users\Owner","no","mono","no","18","no","white","no","yes","768","legacy","74","11","C:/Users/Owner/KMPsubject-4.csv","legacy","2 6 4 3 9","Lentiform Loewenfeld","3.3.3","0","n","yes","0","left","left","right","left","NA","773","47750","8394","773","NA","2","legacy","5","1024","2","48000","-16","experiment","4","even","1","616888","563335","51382","613620","614682","3628","140296","614683","3630","131901","618892","619667","615684","618891","NA","Sternberg Task ","80","97000","87","yes","1024"
"92.04545454545455","92.04545454545455","1113.875","1113.875","black","experiment","legacy","legacy","legacy","0","uniform","1","undefined","1","left","87","87","0","87","87","0","0","87","0","0","87","87","87","87","0","Mon Oct 12 13:34:13 2020","The main experiment item","yes","SternbergTask.osexp","C:\Users\Owner","no","mono","no","18","no","white","no","yes","768","legacy","75","11","C:/Users/Owner/KMPsubject-4.csv","legacy","7 1 3","Lentiform Loewenfeld","3.3.3","2","y","yes","0","left","left","right","left","NA","1021","47750","8394","1021","NA","2","legacy","3","1024","2","48000","-16","experiment","4","even","1","622982","619671","51382","613620","620771","3628","140296","620773","3630","131901","624987","626009","621778","624986","NA","Sternberg Task ","81","98021","88","yes","1024"
"91.01123595505618","91.01123595505618","1110.247191011236","1110.247191011236","black","experiment","legacy","legacy","legacy","0","uniform","0","undefined","0","right","88","88","0","88","88","0","0","88","0","0","88","88","88","88","0","Mon Oct 12 13:34:13 2020","The main experiment item","yes","SternbergTask.osexp","C:\Users\Owner","no","mono","no","18","no","white","no","yes","768","legacy","76","11","C:/Users/Owner/KMPsubject-4.csv","legacy","5 7 3","Lentiform Loewenfeld","3.3.3","0","n","yes","0","left","left","right","left","NA","791","47750","8394","791","NA","2","legacy","3","1024","2","48000","-16","experiment","4","even","9","629331","619671","51382","626012","627120","3628","140296","627122","3630","131901","631335","632128","628126","631335","NA","Sternberg Task ","81","98812","89","yes","1024"
"90","90","1112.4","1112.4","black","experiment","legacy","legacy","legacy","0","uniform","0","undefined","0","right","89","89","0","89","89","0","0","89","0","0","89","89","89","89","0","Mon Oct 12 13:34:13 2020","The main experiment item","yes","SternbergTask.osexp","C:\Users\Owner","no","mono","no","18","no","white","no","yes","768","legacy","77","11","C:/Users/Owner/KMPsubject-4.csv","legacy","7 8 6 1","Lentiform Loewenfeld","3.3.3","0","n","yes","0","left","left","right","left","NA","1304","47750","8394","1304","NA","2","legacy","4","1024","2","48000","-16","experiment","4","even","3","635446","632131","51382","626012","633236","3628","140296","633237","3630","131901","637451","638756","634242","637451","NA","Sternberg Task ","81","100116","90","yes","1024"
"90.10989010989012","90.10989010989012","1113.5164835164835","1113.5164835164835","black","experiment","legacy","legacy","legacy","0","uniform","1","undefined","1","left","90","90","0","90","90","0","0","90","0","0","90","90","90","90","0","Mon Oct 12 13:34:13 2020","The main experiment item","yes","SternbergTask.osexp","C:\Users\Owner","no","mono","no","18","no","white","no","yes","768","legacy","78","11","C:/Users/Owner/KMPsubject-4.csv","legacy","7 4 2 6 3 5","Lentiform Loewenfeld","3.3.3","6","y","yes","0","left","left","right","left","NA","1214","47750","8394","1214","NA","2","legacy","6","1024","2","48000","-16","experiment","4","even","5","642072","638759","51382","626012","639863","3628","140296","639864","3630","131901","644078","645294","640868","644078","NA","Sternberg Task ","82","101330","91","yes","1024"
"90.21739130434783","90.21739130434783","1114.2608695652175","1114.2608695652175","black","experiment","legacy","legacy","legacy","0","uniform","1","undefined","1","right","91","91","0","91","91","0","0","91","0","0","91","91","91","91","0","Mon Oct 12 13:34:13 2020","The main experiment item","yes","SternbergTask.osexp","C:\Users\Owner","no","mono","no","18","no","white","no","yes","768","legacy","79","11","C:/Users/Owner/KMPsubject-4.csv","legacy","2 3 8 5 6 7","Lentiform Loewenfeld","3.3.3","0","n","yes","0","right","left","right","right","NA","1182","47750","8394","1182","NA","2","legacy","6","1024","2","48000","-16","experiment","4","even","1","648578","638759","51382","645297","646372","3628","140296","646373","3630","131901","650582","651766","647377","650582","NA","Sternberg Task ","83","102512","92","yes","1024"
"90.3225806451613","90.3225806451613","1121.6881720430108","1121.6881720430108","black","experiment","legacy","legacy","legacy","0","uniform","1","undefined","1","right","92","92","0","92","92","0","0","92","0","0","92","92","92","92","0","Mon Oct 12 13:34:13 2020","The main experiment item","yes","SternbergTask.osexp","C:\Users\Owner","no","mono","no","18","no","white","no","yes","768","legacy","80","11","C:/Users/Owner/KMPsubject-4.csv","legacy","8 2 1 4 5 9","Lentiform Loewenfeld","3.3.3","0","n","yes","0","right","left","right","right","NA","1805","47750","8394","1805","NA","2","legacy","6","1024","2","48000","-16","experiment","4","even","7","655081","638759","51382","651769","652871","3628","140296","652873","3630","131901","657085","658891","653877","657085","NA","Sternberg Task ","84","104317","93","yes","1024"
"90.42553191489361","90.42553191489361","1126.723404255319","1126.723404255319","black","experiment","legacy","legacy","legacy","0","uniform","1","undefined","1","left","93","93","0","93","93","0","0","93","0","0","93","93","93","93","0","Mon Oct 12 13:34:13 2020","The main experiment item","yes","SternbergTask.osexp","C:\Users\Owner","no","mono","no","18","no","white","no","yes","768","legacy","81","11","C:/Users/Owner/KMPsubject-4.csv","legacy","7 2 3","Lentiform Loewenfeld","3.3.3","3","y","yes","0","left","left","right","left","NA","1595","47750","8394","1595","NA","2","legacy","3","1024","2","48000","-16","experiment","4","even","3","662222","638759","51382","658897","660013","3628","140296","660014","3630","131901","664226","665822","661018","664225","NA","Sternberg Task ","85","105912","94","yes","1024"
"90.52631578947368","90.52631578947368","1123.9368421052632","1123.9368421052632","black","experiment","legacy","legacy","legacy","0","uniform","1","undefined","1","right","94","94","0","94","94","0","0","94","0","0","94","94","94","94","0","Mon Oct 12 13:34:13 2020","The main experiment item","yes","SternbergTask.osexp","C:\Users\Owner","no","mono","no","18","no","white","no","yes","768","legacy","82","11","C:/Users/Owner/KMPsubject-4.csv","legacy","2 5 1 4","Lentiform Loewenfeld","3.3.3","0","n","yes","0","right","left","right","right","NA","862","47750","8394","862","NA","2","legacy","4","1024","2","48000","-16","experiment","4","even","6","669147","638759","51382","665825","666938","3628","140296","666939","3630","131901","671151","672015","667943","671151","NA","Sternberg Task ","86","106774","95","yes","1024"
"90.625","90.625","1127.8333333333333","1127.8333333333333","black","experiment","legacy","legacy","legacy","0","uniform","1","undefined","1","left","95","95","0","95","95","0","0","95","0","0","95","95","95","95","0","Mon Oct 12 13:34:13 2020","The main experiment item","yes","SternbergTask.osexp","C:\Users\Owner","no","mono","no","18","no","white","no","yes","768","legacy","83","11","C:/Users/Owner/KMPsubject-4.csv","legacy","6 7 8 5","Lentiform Loewenfeld","3.3.3","3","y","yes","0","left","left","right","left","NA","1498","47750","8394","1498","NA","2","legacy","4","1024","2","48000","-16","experiment","4","even","8","675333","638759","51382","672019","673123","3628","140296","673125","3630","131901","677337","678836","674129","677337","NA","Sternberg Task ","87","108272","96","yes","1024"
"90.72164948453609","90.72164948453609","1129.4020618556701","1129.4020618556701","black","experiment","legacy","legacy","legacy","0","uniform","1","undefined","1","left","96","96","0","96","96","0","0","96","0","0","96","96","96","96","0","Mon Oct 12 13:34:13 2020","The main experiment item","yes","SternbergTask.osexp","C:\Users\Owner","no","mono","no","18","no","white","no","yes","768","legacy","84","11","C:/Users/Owner/KMPsubject-4.csv","legacy","4 9 7 8 5 3","Lentiform Loewenfeld","3.3.3","4","y","yes","0","left","left","right","left","NA","1280","47750","8394","1280","NA","2","legacy","6","1024","2","48000","-16","experiment","4","even","8","682148","638759","51382","678839","679941","3628","140296","679943","3630","131901","684152","685433","680947","684152","NA","Sternberg Task ","88","109552","97","yes","1024"
"90.81632653061224","90.81632653061224","1126.7448979591836","1126.7448979591836","black","experiment","legacy","legacy","legacy","0","uniform","1","undefined","1","left","97","97","0","97","97","0","0","97","0","0","97","97","97","97","0","Mon Oct 12 13:34:13 2020","The main experiment item","yes","SternbergTask.osexp","C:\Users\Owner","no","mono","no","18","no","white","no","yes","768","legacy","85","11","C:/Users/Owner/KMPsubject-4.csv","legacy","9 5 3 8 4","Lentiform Loewenfeld","3.3.3","1","y","yes","0","left","left","right","left","NA","869","47750","8394","869","NA","2","legacy","5","1024","2","48000","-16","experiment","4","even","9","688705","638759","51382","685437","686499","3628","140296","686500","3630","131901","690706","691577","687501","690706","NA","Sternberg Task ","89","110421","98","yes","1024"
"90.9090909090909","90.9090909090909","1126.060606060606","1126.060606060606","black","experiment","legacy","legacy","legacy","0","uniform","1","undefined","1","left","98","98","0","98","98","0","0","98","0","0","98","98","98","98","0","Mon Oct 12 13:34:13 2020","The main experiment item","yes","SternbergTask.osexp","C:\Users\Owner","no","mono","no","18","no","white","no","yes","768","legacy","86","11","C:/Users/Owner/KMPsubject-4.csv","legacy","8 1 6","Lentiform Loewenfeld","3.3.3","3","y","yes","0","left","left","right","left","NA","1059","47750","8394","1059","NA","2","legacy","3","1024","2","48000","-16","experiment","4","even","6","694901","638759","51382","691581","692692","3628","140296","692693","3630","131901","696905","697965","693697","696905","NA","Sternberg Task ","90","111480","99","yes","1024"
"91","91","1124.16","1124.16","black","experiment","legacy","legacy","legacy","0","uniform","1","undefined","1","right","99","99","0","99","99","0","0","99","0","0","99","99","99","99","0","Mon Oct 12 13:34:13 2020","The main experiment item","yes","SternbergTask.osexp","C:\Users\Owner","no","mono","no","18","no","white","no","yes","768","legacy","87","11","C:/Users/Owner/KMPsubject-4.csv","legacy","1 6 4","Lentiform Loewenfeld","3.3.3","0","n","yes","0","right","left","right","right","NA","936","47750","8394","936","NA","2","legacy","3","1024","2","48000","-16","experiment","4","even","7","701315","638759","51382","697969","699106","3628","140296","699107","3630","131901","703319","704256","700111","703319","NA","Sternberg Task ","91","112416","100","yes","1024"
"91.08910891089108","91.08910891089108","1127.851485148515","1127.851485148515","black","experiment","legacy","legacy","legacy","0","uniform","1","undefined","1","right","100","100","0","100","100","0","0","100","0","0","100","100","100","100","0","Mon Oct 12 13:34:13 2020","The main experiment item","yes","SternbergTask.osexp","C:\Users\Owner","no","mono","no","18","no","white","no","yes","768","legacy","88","11","C:/Users/Owner/KMPsubject-4.csv","legacy","1 7 8 3 9","Lentiform Loewenfeld","3.3.3","0","n","yes","0","right","left","right","right","NA","1497","47750","8394","1497","NA","2","legacy","5","1024","2","48000","-16","experiment","4","even","2","707568","638759","51382","704258","705362","3628","140296","705363","3630","131901","709573","711072","706364","709572","NA","Sternberg Task ","92","113913","101","yes","1024"
"91.17647058823529","91.17647058823529","1129.7156862745098","1129.7156862745098","black","experiment","legacy","legacy","legacy","0","uniform","1","undefined","1","right","101","101","0","101","101","0","0","101","0","0","101","101","101","101","0","Mon Oct 12 13:34:13 2020","The main experiment item","yes","SternbergTask.osexp","C:\Users\Owner","no","mono","no","18","no","white","no","yes","768","legacy","89","11","C:/Users/Owner/KMPsubject-4.csv","legacy","5 9 2 3","Lentiform Loewenfeld","3.3.3","0","n","yes","0","right","left","right","right","NA","1318","47750","8394","1318","NA","2","legacy","4","1024","2","48000","-16","experiment","4","even","8","714373","638759","51382","711075","712166","3628","140296","712167","3630","131901","716375","717694","713169","716375","NA","Sternberg Task ","93","115231","102","yes","1024"
"91.2621359223301","91.2621359223301","1126.1650485436894","1126.1650485436894","black","experiment","legacy","legacy","legacy","0","uniform","1","undefined","1","left","102","102","0","102","102","0","0","102","0","0","102","102","102","102","0","Mon Oct 12 13:34:13 2020","The main experiment item","yes","SternbergTask.osexp","C:\Users\Owner","no","mono","no","18","no","white","no","yes","768","legacy","90","11","C:/Users/Owner/KMPsubject-4.csv","legacy","2 3","Lentiform Loewenfeld","3.3.3","1","y","yes","0","left","left","right","left","NA","764","47750","8394","764","NA","2","legacy","2","1024","2","48000","-16","experiment","4","even","2","721017","638759","51382","717698","718808","3628","140296","718809","3630","131901","723021","723786","719813","723021","NA","Sternberg Task ","94","115995","103","yes","1024"
"91.34615384615384","91.34615384615384","1132.9038461538462","1132.9038461538462","black","experiment","legacy","legacy","legacy","0","uniform","1","undefined","1","left","103","103","0","103","103","0","0","103","0","0","103","103","103","103","0","Mon Oct 12 13:34:13 2020","The main experiment item","yes","SternbergTask.osexp","C:\Users\Owner","no","mono","no","18","no","white","no","yes","768","legacy","91","11","C:/Users/Owner/KMPsubject-4.csv","legacy","8 9 6 1","Lentiform Loewenfeld","3.3.3","2","y","yes","0","left","left","right","left","NA","1827","47750","8394","1827","NA","2","legacy","4","1024","2","48000","-16","experiment","4","even","9","727089","638759","51382","723790","724880","3628","140296","724881","3630","131901","729093","730921","725885","729093","NA","Sternberg Task ","95","117822","104","yes","1024"
"91.42857142857143","91.42857142857143","1132.857142857143","1132.857142857143","black","experiment","legacy","legacy","legacy","0","uniform","1","undefined","1","right","104","104","0","104","104","0","0","104","0","0","104","104","104","104","0","Mon Oct 12 13:34:13 2020","The main experiment item","yes","SternbergTask.osexp","C:\Users\Owner","no","mono","no","18","no","white","no","yes","768","legacy","92","11","C:/Users/Owner/KMPsubject-4.csv","legacy","6 2 9 3 8 4","Lentiform Loewenfeld","3.3.3","0","n","yes","0","right","left","right","right","NA","1128","47750","8394","1128","NA","2","legacy","6","1024","2","48000","-16","experiment","4","even","1","734202","638759","51382","730924","731994","3628","140296","731995","3630","131901","736206","737336","732999","736206","NA","Sternberg Task ","96","118950","105","yes","1024"
"90.56603773584905","90.56603773584905","1139.254716981132","1139.254716981132","black","experiment","legacy","legacy","legacy","0","uniform","0","undefined","0","right","105","105","0","105","105","0","0","105","0","0","105","105","105","105","0","Mon Oct 12 13:34:13 2020","The main experiment item","yes","SternbergTask.osexp","C:\Users\Owner","no","mono","no","18","no","white","no","yes","768","legacy","93","11","C:/Users/Owner/KMPsubject-4.csv","legacy","3 4 9 6 7 8","Lentiform Loewenfeld","3.3.3","0","n","yes","0","left","left","right","left","NA","1811","47750","8394","1811","NA","2","legacy","6","1024","2","48000","-16","experiment","4","even","2","740661","638759","51382","737339","738452","3628","140296","738453","3630","131901","742665","744477","739457","742665","NA","Sternberg Task ","96","120761","106","yes","1024"
"90.65420560747664","90.65420560747664","1140.785046728972","1140.785046728972","black","experiment","legacy","legacy","legacy","0","uniform","1","undefined","1","left","106","106","0","106","106","0","0","106","0","0","106","106","106","106","0","Mon Oct 12 13:34:13 2020","The main experiment item","yes","SternbergTask.osexp","C:\Users\Owner","no","mono","no","18","no","white","no","yes","768","legacy","94","11","C:/Users/Owner/KMPsubject-4.csv","legacy","5 7 3 6 2","Lentiform Loewenfeld","3.3.3","5","y","yes","0","left","left","right","left","NA","1303","47750","8394","1303","NA","2","legacy","5","1024","2","48000","-16","experiment","4","even","2","747825","744483","51382","737339","745616","3628","140296","745617","3630","131901","749830","751134","746621","749830","NA","Sternberg Task ","97","122064","107","yes","1024"
"90.74074074074075","90.74074074074075","1140.5185185185185","1140.5185185185185","black","experiment","legacy","legacy","legacy","0","uniform","1","undefined","1","left","107","107","0","107","107","0","0","107","0","0","107","107","107","107","0","Mon Oct 12 13:34:13 2020","The main experiment item","yes","SternbergTask.osexp","C:\Users\Owner","no","mono","no","18","no","white","no","yes","768","legacy","95","11","C:/Users/Owner/KMPsubject-4.csv","legacy","3 5 4 7","Lentiform Loewenfeld","3.3.3","1","y","yes","0","left","left","right","left","NA","1112","47750","8394","1112","NA","2","legacy","4","1024","2","48000","-16","experiment","4","even","3","754450","744483","51382","751138","752241","3628","140296","752242","3630","131901","756454","757567","753245","756454","NA","Sternberg Task ","98","123176","108","yes","1024"
"90.8256880733945","90.8256880733945","1138.9724770642201","1138.9724770642201","black","experiment","legacy","legacy","legacy","0","uniform","1","undefined","1","right","108","108","0","108","108","0","0","108","0","0","108","108","108","108","0","Mon Oct 12 13:34:13 2020","The main experiment item","yes","SternbergTask.osexp","C:\Users\Owner","no","mono","no","18","no","white","no","yes","768","legacy","96","11","C:/Users/Owner/KMPsubject-4.csv","legacy","6 7 5 9","Lentiform Loewenfeld","3.3.3","0","n","yes","0","right","left","right","right","NA","972","47750","8394","972","NA","2","legacy","4","1024","2","48000","-16","experiment","4","even","2","760843","744483","51382","757569","758634","3628","140296","758635","3630","131901","762847","763821","759639","762847","NA","Sternberg Task ","99","124148","109","yes","1024"
"90.9090909090909","90.9090909090909","1137.7363636363636","1137.7363636363636","black","experiment","legacy","legacy","legacy","0","uniform","1","undefined","1","left","109","109","0","109","109","0","0","109","0","0","109","109","109","109","0","Mon Oct 12 13:34:13 2020","The main experiment item","yes","SternbergTask.osexp","C:\Users\Owner","no","mono","no","18","no","white","no","yes","768","legacy","97","11","C:/Users/Owner/KMPsubject-4.csv","legacy","3 5 7 1","Lentiform Loewenfeld","3.3.3","3","y","yes","0","left","left","right","left","NA","1003","47750","8394","1003","NA","2","legacy","4","1024","2","48000","-16","experiment","4","even","7","767146","744483","51382","763824","764936","3628","140296","764937","3630","131901","769150","770154","765941","769150","NA","Sternberg Task ","100","125151","110","yes","1024"
"90.990990990991","90.990990990991","1134.2432432432433","1134.2432432432433","black","experiment","legacy","legacy","legacy","0","uniform","1","undefined","1","left","110","110","0","110","110","0","0","110","0","0","110","110","110","110","0","Mon Oct 12 13:34:13 2020","The main experiment item","yes","SternbergTask.osexp","C:\Users\Owner","no","mono","no","18","no","white","no","yes","768","legacy","98","11","C:/Users/Owner/KMPsubject-4.csv","legacy","6 5","Lentiform Loewenfeld","3.3.3","2","y","yes","0","left","left","right","left","NA","750","47750","8394","750","NA","2","legacy","2","1024","2","48000","-16","experiment","4","even","5","773470","744483","51382","770157","771260","3628","140296","771262","3630","131901","775474","776225","772266","775474","NA","Sternberg Task ","101","125901","111","yes","1024"
"91.07142857142857","91.07142857142857","1133.2767857142858","1133.2767857142858","black","experiment","legacy","legacy","legacy","0","uniform","1","undefined","1","left","111","111","0","111","111","0","0","111","0","0","111","111","111","111","0","Mon Oct 12 13:34:13 2020","The main experiment item","yes","SternbergTask.osexp","C:\Users\Owner","no","mono","no","18","no","white","no","yes","768","legacy","99","11","C:/Users/Owner/KMPsubject-4.csv","legacy","2 6 1 7 4","Lentiform Loewenfeld","3.3.3","2","y","yes","0","left","left","right","left","NA","1026","47750","8394","1026","NA","2","legacy","5","1024","2","48000","-16","experiment","4","even","6","779496","744483","51382","776228","777291","3628","140296","777292","3630","131901","781498","782526","778293","781498","NA","Sternberg Task ","102","126927","112","yes","1024"
"91.15044247787611","91.15044247787611","1136.716814159292","1136.716814159292","black","experiment","legacy","legacy","legacy","0","uniform","1","undefined","1","left","112","112","0","112","112","0","0","112","0","0","112","112","112","112","0","Mon Oct 12 13:34:13 2020","The main experiment item","yes","SternbergTask.osexp","C:\Users\Owner","no","mono","no","18","no","white","no","yes","768","legacy","100","11","C:/Users/Owner/KMPsubject-4.csv","legacy","8 9 5 6 7","Lentiform Loewenfeld","3.3.3","1","y","yes","0","left","left","right","left","NA","1522","47750","8394","1522","NA","2","legacy","5","1024","2","48000","-16","experiment","4","even","8","785854","744483","51382","782529","783647","3628","140296","783649","3630","131901","787859","789382","784650","787858","NA","Sternberg Task ","103","128449","113","yes","1024"
"90.35087719298245","90.35087719298245","1139.0438596491229","1139.0438596491229","black","experiment","legacy","legacy","legacy","0","uniform","0","undefined","0","right","113","113","0","113","113","0","0","113","0","0","113","113","113","113","0","Mon Oct 12 13:34:13 2020","The main experiment item","yes","SternbergTask.osexp","C:\Users\Owner","no","mono","no","18","no","white","no","yes","768","legacy","101","11","C:/Users/Owner/KMPsubject-4.csv","legacy","8 5 4 2 9 6","Lentiform Loewenfeld","3.3.3","0","n","yes","0","left","left","right","left","NA","1402","47750","8394","1402","NA","2","legacy","6","1024","2","48000","-16","experiment","4","even","3","792700","744483","51382","789386","790491","3628","140296","790492","3630","131901","794704","796108","791496","794704","NA","Sternberg Task ","103","129851","114","yes","1024"
"90.43478260869566","90.43478260869566","1138.0434782608695","1138.0434782608695","black","experiment","legacy","legacy","legacy","0","uniform","1","undefined","1","left","114","114","0","114","114","0","0","114","0","0","114","114","114","114","0","Mon Oct 12 13:34:13 2020","The main experiment item","yes","SternbergTask.osexp","C:\Users\Owner","no","mono","no","18","no","white","no","yes","768","legacy","102","11","C:/Users/Owner/KMPsubject-4.csv","legacy","4 6 5 8","Lentiform Loewenfeld","3.3.3","1","y","yes","0","left","left","right","left","NA","1024","47750","8394","1024","NA","2","legacy","4","1024","2","48000","-16","experiment","4","even","4","799428","796111","51382","789386","797217","3628","140296","797219","3630","131901","801432","802458","798223","801432","NA","Sternberg Task ","104","130875","115","yes","1024"
"89.65517241379311","89.65517241379311","1145.4741379310344","1145.4741379310344","black","experiment","legacy","legacy","legacy","0","uniform","0","undefined","0","left","115","115","0","115","115","0","0","115","0","0","115","115","115","115","0","Mon Oct 12 13:34:13 2020","The main experiment item","yes","SternbergTask.osexp","C:\Users\Owner","no","mono","no","18","no","white","no","yes","768","legacy","103","11","C:/Users/Owner/KMPsubject-4.csv","legacy","8 5 4 7 3 1","Lentiform Loewenfeld","3.3.3","2","y","yes","0","None","left","right","None","NA","2000","47750","8394","2000","NA","2","legacy","6","1024","2","48000","-16","experiment","4","even","5","805784","796111","51382","802461","803575","3628","140296","803576","3630","131901","807788","809788","804580","807788","NA","Sternberg Task ","104","132875","116","yes","1024"
"88.88888888888889","88.88888888888889","1149.7606837606838","1149.7606837606838","black","experiment","legacy","legacy","legacy","0","uniform","0","undefined","0","left","116","116","0","116","116","0","0","116","0","0","116","116","116","116","0","Mon Oct 12 13:34:13 2020","The main experiment item","yes","SternbergTask.osexp","C:\Users\Owner","no","mono","no","18","no","white","no","yes","768","legacy","104","11","C:/Users/Owner/KMPsubject-4.csv","legacy","7 1 8 5 6 2","Lentiform Loewenfeld","3.3.3","2","y","yes","0","right","left","right","right","NA","1647","47750","8394","1647","NA","2","legacy","6","1024","2","48000","-16","experiment","4","even","1","813111","809792","51382","802461","810905","3628","140296","810906","3630","131901","815115","816763","811910","815115","NA","Sternberg Task ","104","134522","117","yes","1024"
"88.98305084745763","88.98305084745763","1149.2542372881355","1149.2542372881355","black","experiment","legacy","legacy","legacy","0","uniform","1","undefined","1","right","117","117","0","117","117","0","0","117","0","0","117","117","117","117","0","Mon Oct 12 13:34:13 2020","The main experiment item","yes","SternbergTask.osexp","C:\Users\Owner","no","mono","no","18","no","white","no","yes","768","legacy","105","11","C:/Users/Owner/KMPsubject-4.csv","legacy","1 7 5 2","Lentiform Loewenfeld","3.3.3","0","n","yes","0","right","left","right","right","NA","1090","47750","8394","1090","NA","2","legacy","4","1024","2","48000","-16","experiment","4","even","3","820078","816766","51382","802461","817872","3628","140296","817873","3630","131901","822082","823173","818877","822082","NA","Sternberg Task ","105","135612","118","yes","1024"
"89.07563025210084","89.07563025210084","1151.1344537815125","1151.1344537815125","black","experiment","legacy","legacy","legacy","0","uniform","1","undefined","1","right","118","118","0","118","118","0","0","118","0","0","118","118","118","118","0","Mon Oct 12 13:34:13 2020","The main experiment item","yes","SternbergTask.osexp","C:\Users\Owner","no","mono","no","18","no","white","no","yes","768","legacy","106","11","C:/Users/Owner/KMPsubject-4.csv","legacy","7 6 4 8 1 2","Lentiform Loewenfeld","3.3.3","0","n","yes","0","right","left","right","right","NA","1373","47750","8394","1373","NA","2","legacy","6","1024","2","48000","-16","experiment","4","even","9","826489","816766","51382","823178","824280","3628","140296","824282","3630","131901","828493","829868","825285","828493","NA","Sternberg Task ","106","136985","119","yes","1024"
"89.16666666666667","89.16666666666667","1149.8","1149.8","black","experiment","legacy","legacy","legacy","0","uniform","1","undefined","1","left","119","119","0","119","119","0","0","119","0","0","119","119","119","119","0","Mon Oct 12 13:34:13 2020","The main experiment item","yes","SternbergTask.osexp","C:\Users\Owner","no","mono","no","18","no","white","no","yes","768","legacy","107","11","C:/Users/Owner/KMPsubject-4.csv","legacy","4 6 2 5 1","Lentiform Loewenfeld","3.3.3","5","y","yes","0","left","left","right","left","NA","991","47750","8394","991","NA","2","legacy","5","1024","2","48000","-16","experiment","4","even","1","833193","816766","51382","829870","830984","3628","140296","830985","3630","131901","835197","836189","831989","835197","NA","Sternberg Task ","107","137976","120","yes","1024"
