"acc","accuracy","average_response_time","avg_rt","background","block","canvas_backend","clock_backend","color_backend","compensation","coordinates","correct","correct_instruction1","correct_keyboard_response","correct_response","count_ISI","count_correctFeedback","count_expSequense","count_experiment","count_experimentLoop","count_fixation","count_incorredtFeedback","count_instruction1","count_instructions2","count_keyboard_response","count_logger","count_memorySet","count_practiceLoop","count_probe","count_thankYou","datetime","description","disable_garbage_collection","experiment_file","experiment_path","font_bold","font_family","font_italic","font_size","font_underline","foreground","form_clicks","fullscreen","height","keyboard_backend","live_row","live_row_practiceLoop","logfile","mouse_backend","numberSet","opensesame_codename","opensesame_version","posInSet","present","repeat_cycle","response","response_instruction1","response_instructions2","response_keyboard_response","response_thankYou","response_time","response_time_instruction1","response_time_instructions2","response_time_keyboard_response","response_time_thankYou","round_decimals","sampler_backend","setSize","sound_buf_size","sound_channels","sound_freq","sound_sample_size","start","subject_nr","subject_parity","target","time_ISI","time_correctFeedback","time_expSequense","time_experiment","time_experimentLoop","time_fixation","time_incorredtFeedback","time_instruction1","time_instructions2","time_keyboard_response","time_logger","time_memorySet","time_practiceLoop","time_probe","time_thankYou","title","total_correct","total_response_time","total_responses","uniform_coordinates","width"
"100","100","1044","1044","black","practice","legacy","legacy","legacy","0","uniform","1","undefined","1","left","0","0","0","0","0","0","0","0","0","0","0","0","0","0","0","Sat Oct 17 22:09:52 2020","The main experiment item","yes","SternbergTask.osexp","/Users/suzannejosey/Documents","no","mono","no","18","no","white","no","yes","768","legacy","0","0","/Users/suzannejosey/Documents/subject-1.csv","legacy","4 3 1 7 9 8","Lentiform Loewenfeld","3.3.3","1","y","0","left","right","NA","left","NA","1044","22546","NA","1044","NA","2","legacy","6","1024","2","48000","-16","experiment","1","odd","4","27824","NA","25585","2674","NA","25594","NA","2684","NA","29836","30881","26608","25245","29836","NA","Sternberg Task","1","1044","1","yes","1024"
"100","100","951","951","black","practice","legacy","legacy","legacy","0","uniform","1","undefined","1","left","1","1","1","0","0","1","1","0","0","1","1","1","0","1","0","Sat Oct 17 22:09:52 2020","The main experiment item","yes","SternbergTask.osexp","/Users/suzannejosey/Documents","no","mono","no","18","no","white","no","yes","768","legacy","1","1","/Users/suzannejosey/Documents/subject-1.csv","legacy","6","Lentiform Loewenfeld","3.3.3","1","y","0","left","right","NA","left","NA","858","22546","NA","858","NA","2","legacy","1","1024","2","48000","-16","experiment","1","odd","6","34253","30920","32009","2674","NA","32021","NA","2684","NA","36267","37126","33035","25245","36267","NA","Sternberg Task","2","1902","2","yes","1024"
"100","100","801","801","black","practice","legacy","legacy","legacy","0","uniform","1","undefined","1","right","2","2","2","0","0","2","2","0","0","2","2","2","0","2","0","Sat Oct 17 22:09:52 2020","The main experiment item","yes","SternbergTask.osexp","/Users/suzannejosey/Documents","no","mono","no","18","no","white","no","yes","768","legacy","2","2","/Users/suzannejosey/Documents/subject-1.csv","legacy","5","Lentiform Loewenfeld","3.3.3","0","n","0","right","right","NA","right","NA","501","22546","NA","501","NA","2","legacy","1","1024","2","48000","-16","experiment","1","odd","3","40453","37139","38216","2674","NA","38227","NA","2684","NA","42466","42968","39241","25245","42466","NA","Sternberg Task","3","2403","3","yes","1024"
"100","100","786.25","786.25","black","practice","legacy","legacy","legacy","0","uniform","1","undefined","1","right","3","3","3","0","0","3","3","0","0","3","3","3","0","3","0","Sat Oct 17 22:09:52 2020","The main experiment item","yes","SternbergTask.osexp","/Users/suzannejosey/Documents","no","mono","no","18","no","white","no","yes","768","legacy","3","3","/Users/suzannejosey/Documents/subject-1.csv","legacy","2 1","Lentiform Loewenfeld","3.3.3","0","n","0","right","right","NA","right","NA","742","22546","NA","742","NA","2","legacy","2","1024","2","48000","-16","experiment","1","odd","5","46297","42981","44056","2674","NA","44067","NA","2684","NA","48310","49053","45081","25245","48310","NA","Sternberg Task","4","3145","4","yes","1024"
"100","100","847.6","847.6","black","practice","legacy","legacy","legacy","0","uniform","1","undefined","1","left","4","4","4","0","0","4","4","0","0","4","4","4","0","4","0","Sat Oct 17 22:09:52 2020","The main experiment item","yes","SternbergTask.osexp","/Users/suzannejosey/Documents","no","mono","no","18","no","white","no","yes","768","legacy","4","4","/Users/suzannejosey/Documents/subject-1.csv","legacy","2 9 4","Lentiform Loewenfeld","3.3.3","3","y","0","left","right","NA","left","NA","1093","22546","NA","1093","NA","2","legacy","3","1024","2","48000","-16","experiment","1","odd","4","52379","49064","50137","2674","NA","50148","NA","2684","NA","54391","55485","51162","25245","54391","NA","Sternberg Task","5","4238","5","yes","1024"
"100","100","843.5","843.5","black","practice","legacy","legacy","legacy","0","uniform","1","undefined","1","left","5","5","5","0","0","5","5","0","0","5","5","5","0","5","0","Sat Oct 17 22:09:52 2020","The main experiment item","yes","SternbergTask.osexp","/Users/suzannejosey/Documents","no","mono","no","18","no","white","no","yes","768","legacy","5","5","/Users/suzannejosey/Documents/subject-1.csv","legacy","1 7 9 8 5","Lentiform Loewenfeld","3.3.3","4","y","0","left","right","NA","left","NA","823","22546","NA","823","NA","2","legacy","5","1024","2","48000","-16","experiment","1","odd","8","58815","55497","56573","2674","NA","56585","NA","2684","NA","60827","61651","57599","25245","60827","NA","Sternberg Task","6","5061","6","yes","1024"
"100","100","887.5714285714286","887.5714285714286","black","practice","legacy","legacy","legacy","0","uniform","1","undefined","1","right","6","6","6","0","0","6","6","0","0","6","6","6","0","6","0","Sat Oct 17 22:09:52 2020","The main experiment item","yes","SternbergTask.osexp","/Users/suzannejosey/Documents","no","mono","no","18","no","white","no","yes","768","legacy","6","6","/Users/suzannejosey/Documents/subject-1.csv","legacy","5 7 8 4 1 2","Lentiform Loewenfeld","3.3.3","0","n","0","right","right","NA","right","NA","1152","22546","NA","1152","NA","2","legacy","6","1024","2","48000","-16","experiment","1","odd","6","64978","61662","62737","2674","NA","62748","NA","2684","NA","66991","68143","63762","25245","66991","NA","Sternberg Task","7","6213","7","yes","1024"
"100","100","848.875","848.875","black","practice","legacy","legacy","legacy","0","uniform","1","undefined","1","right","7","7","7","0","0","7","7","0","0","7","7","7","0","7","0","Sat Oct 17 22:09:52 2020","The main experiment item","yes","SternbergTask.osexp","/Users/suzannejosey/Documents","no","mono","no","18","no","white","no","yes","768","legacy","7","7","/Users/suzannejosey/Documents/subject-1.csv","legacy","9 6 7 4 5","Lentiform Loewenfeld","3.3.3","0","n","0","right","right","NA","right","NA","578","22546","NA","578","NA","2","legacy","5","1024","2","48000","-16","experiment","1","odd","3","71471","68155","69229","2674","NA","69240","NA","2684","NA","73484","74062","70255","25245","73484","NA","Sternberg Task","8","6791","8","yes","1024"
"100","100","854.1111111111111","854.1111111111111","black","practice","legacy","legacy","legacy","0","uniform","1","undefined","1","right","8","8","8","0","0","8","8","0","0","8","8","8","0","8","0","Sat Oct 17 22:09:52 2020","The main experiment item","yes","SternbergTask.osexp","/Users/suzannejosey/Documents","no","mono","no","18","no","white","no","yes","768","legacy","8","8","/Users/suzannejosey/Documents/subject-1.csv","legacy","4 1 5","Lentiform Loewenfeld","3.3.3","0","n","0","right","right","NA","right","NA","896","22546","NA","896","NA","2","legacy","3","1024","2","48000","-16","experiment","1","odd","2","77393","74076","75151","2674","NA","75163","NA","2684","NA","79406","80303","76177","25245","79406","NA","Sternberg Task","9","7687","9","yes","1024"
"100","100","905.6","905.6","black","practice","legacy","legacy","legacy","0","uniform","1","undefined","1","left","9","9","9","0","0","9","9","0","0","9","9","9","0","9","0","Sat Oct 17 22:09:52 2020","The main experiment item","yes","SternbergTask.osexp","/Users/suzannejosey/Documents","no","mono","no","18","no","white","no","yes","768","legacy","9","9","/Users/suzannejosey/Documents/subject-1.csv","legacy","1 5 2 9","Lentiform Loewenfeld","3.3.3","2","y","0","left","right","NA","left","NA","1369","22546","NA","1369","NA","2","legacy","4","1024","2","48000","-16","experiment","1","odd","5","83637","80316","81395","2674","NA","81407","NA","2684","NA","85650","87019","82421","25245","85650","NA","Sternberg Task","10","9056","10","yes","1024"
"100","100","917.2727272727273","917.2727272727273","black","practice","legacy","legacy","legacy","0","uniform","1","undefined","1","right","10","10","10","0","0","10","10","0","0","10","10","10","0","10","0","Sat Oct 17 22:09:52 2020","The main experiment item","yes","SternbergTask.osexp","/Users/suzannejosey/Documents","no","mono","no","18","no","white","no","yes","768","legacy","10","10","/Users/suzannejosey/Documents/subject-1.csv","legacy","3 1 9 4","Lentiform Loewenfeld","3.3.3","0","n","0","right","right","NA","right","NA","1034","22546","NA","1034","NA","2","legacy","4","1024","2","48000","-16","experiment","1","odd","6","90349","87032","88106","2674","NA","88118","NA","2684","NA","92361","93396","89132","25245","92361","NA","Sternberg Task","11","10090","11","yes","1024"
"100","100","899.8333333333334","899.8333333333334","black","practice","legacy","legacy","legacy","0","uniform","1","undefined","1","left","11","11","11","0","0","11","11","0","0","11","11","11","0","11","0","Sat Oct 17 22:09:52 2020","The main experiment item","yes","SternbergTask.osexp","/Users/suzannejosey/Documents","no","mono","no","18","no","white","no","yes","768","legacy","11","11","/Users/suzannejosey/Documents/subject-1.csv","legacy","4 8","Lentiform Loewenfeld","3.3.3","1","y","0","left","right","NA","left","NA","708","22546","NA","708","NA","2","legacy","2","1024","2","48000","-16","experiment","1","odd","4","96726","93409","94485","2674","NA","94496","NA","2684","NA","98739","99447","95510","25245","98739","NA","Sternberg Task","12","10798","12","yes","1024"
"100","100","889.6923076923077","889.6923076923077","black","experiment","legacy","legacy","legacy","0","uniform","1","undefined","1","right","12","12","12","0","0","12","12","0","0","12","12","12","0","12","0","Sat Oct 17 22:09:52 2020","The main experiment item","yes","SternbergTask.osexp","/Users/suzannejosey/Documents","no","mono","no","18","no","white","no","yes","768","legacy","0","11","/Users/suzannejosey/Documents/subject-1.csv","legacy","1 8 7","Lentiform Loewenfeld","3.3.3","0","n","0","right","right","left","right","NA","768","22546","146880","768","NA","2","legacy","3","1024","2","48000","-16","experiment","1","odd","4","249687","99461","247448","2674","247387","247458","NA","2684","100506","251699","252468","248471","25245","251699","NA","Sternberg Task","13","11566","13","yes","1024"
"100","100","878.3571428571429","878.3571428571429","black","experiment","legacy","legacy","legacy","0","uniform","1","undefined","1","right","13","13","13","0","0","13","13","0","0","13","13","13","0","13","0","Sat Oct 17 22:09:52 2020","The main experiment item","yes","SternbergTask.osexp","/Users/suzannejosey/Documents","no","mono","no","18","no","white","no","yes","768","legacy","1","11","/Users/suzannejosey/Documents/subject-1.csv","legacy","3 4 2","Lentiform Loewenfeld","3.3.3","0","n","0","right","right","left","right","NA","731","22546","146880","731","NA","2","legacy","3","1024","2","48000","-16","experiment","1","odd","5","255798","252481","253556","2674","247387","253567","NA","2684","100506","257811","258543","254582","25245","257811","NA","Sternberg Task","14","12297","14","yes","1024"
"100","100","891.2666666666667","891.2666666666667","black","experiment","legacy","legacy","legacy","0","uniform","1","undefined","1","left","14","14","14","0","0","14","14","0","0","14","14","14","0","14","0","Sat Oct 17 22:09:52 2020","The main experiment item","yes","SternbergTask.osexp","/Users/suzannejosey/Documents","no","mono","no","18","no","white","no","yes","768","legacy","2","11","/Users/suzannejosey/Documents/subject-1.csv","legacy","5 2 6","Lentiform Loewenfeld","3.3.3","2","y","0","left","right","left","left","NA","1072","22546","146880","1072","NA","2","legacy","3","1024","2","48000","-16","experiment","1","odd","2","261871","258555","259630","2674","247387","259641","NA","2684","100506","263883","264956","260655","25245","263883","NA","Sternberg Task","15","13369","15","yes","1024"
"100","100","889.1875","889.1875","black","experiment","legacy","legacy","legacy","0","uniform","1","undefined","1","right","15","15","15","0","0","15","15","0","0","15","15","15","0","15","0","Sat Oct 17 22:09:52 2020","The main experiment item","yes","SternbergTask.osexp","/Users/suzannejosey/Documents","no","mono","no","18","no","white","no","yes","768","legacy","3","11","/Users/suzannejosey/Documents/subject-1.csv","legacy","7 6 4 8 1 2","Lentiform Loewenfeld","3.3.3","0","n","0","right","right","left","right","NA","858","22546","146880","858","NA","2","legacy","6","1024","2","48000","-16","experiment","1","odd","9","268286","264969","266044","2674","247387","266055","NA","2684","100506","270299","271158","267070","25245","270298","NA","Sternberg Task","16","14227","16","yes","1024"
"100","100","905.5882352941177","905.5882352941177","black","experiment","legacy","legacy","legacy","0","uniform","1","undefined","1","left","16","16","16","0","0","16","16","0","0","16","16","16","0","16","0","Sat Oct 17 22:09:52 2020","The main experiment item","yes","SternbergTask.osexp","/Users/suzannejosey/Documents","no","mono","no","18","no","white","no","yes","768","legacy","4","11","/Users/suzannejosey/Documents/subject-1.csv","legacy","6 2","Lentiform Loewenfeld","3.3.3","1","y","0","left","right","left","left","NA","1168","22546","146880","1168","NA","2","legacy","2","1024","2","48000","-16","experiment","1","odd","6","274490","271172","272247","2674","247387","272259","NA","2684","100506","276502","277670","273273","25245","276502","NA","Sternberg Task","17","15395","17","yes","1024"
"100","100","925.7222222222222","925.7222222222222","black","experiment","legacy","legacy","legacy","0","uniform","1","undefined","1","left","17","17","17","0","0","17","17","0","0","17","17","17","0","17","0","Sat Oct 17 22:09:52 2020","The main experiment item","yes","SternbergTask.osexp","/Users/suzannejosey/Documents","no","mono","no","18","no","white","no","yes","768","legacy","5","11","/Users/suzannejosey/Documents/subject-1.csv","legacy","9 5 3 8 4","Lentiform Loewenfeld","3.3.3","1","y","0","left","right","left","left","NA","1268","22546","146880","1268","NA","2","legacy","5","1024","2","48000","-16","experiment","1","odd","9","281000","277684","278758","2674","247387","278770","NA","2684","100506","283012","284281","279784","25245","283012","NA","Sternberg Task","18","16663","18","yes","1024"
"100","100","915.2631578947369","915.2631578947369","black","experiment","legacy","legacy","legacy","0","uniform","1","undefined","1","right","18","18","18","0","0","18","18","0","0","18","18","18","0","18","0","Sat Oct 17 22:09:52 2020","The main experiment item","yes","SternbergTask.osexp","/Users/suzannejosey/Documents","no","mono","no","18","no","white","no","yes","768","legacy","6","11","/Users/suzannejosey/Documents/subject-1.csv","legacy","8 6 3 4 7","Lentiform Loewenfeld","3.3.3","0","n","0","right","right","left","right","NA","727","22546","146880","727","NA","2","legacy","5","1024","2","48000","-16","experiment","1","odd","1","287610","284292","285368","2674","247387","285379","NA","2684","100506","289621","290349","286394","25245","289621","NA","Sternberg Task","19","17390","19","yes","1024"
"100","100","919.15","919.15","black","experiment","legacy","legacy","legacy","0","uniform","1","undefined","1","left","19","19","19","0","0","19","19","0","0","19","19","19","0","19","0","Sat Oct 17 22:09:52 2020","The main experiment item","yes","SternbergTask.osexp","/Users/suzannejosey/Documents","no","mono","no","18","no","white","no","yes","768","legacy","7","11","/Users/suzannejosey/Documents/subject-1.csv","legacy","7 1 8 5 6 2","Lentiform Loewenfeld","3.3.3","2","y","0","left","right","left","left","NA","993","22546","146880","993","NA","2","legacy","6","1024","2","48000","-16","experiment","1","odd","1","293676","290362","291435","2674","247387","291446","NA","2684","100506","295689","296682","292460","25245","295689","NA","Sternberg Task","20","18383","20","yes","1024"
"100","100","909.6190476190476","909.6190476190476","black","experiment","legacy","legacy","legacy","0","uniform","1","undefined","1","right","20","20","20","0","0","20","20","0","0","20","20","20","0","20","0","Sat Oct 17 22:09:52 2020","The main experiment item","yes","SternbergTask.osexp","/Users/suzannejosey/Documents","no","mono","no","18","no","white","no","yes","768","legacy","8","11","/Users/suzannejosey/Documents/subject-1.csv","legacy","6 3 1 7 9 8","Lentiform Loewenfeld","3.3.3","0","n","0","right","right","left","right","NA","719","22546","146880","719","NA","2","legacy","6","1024","2","48000","-16","experiment","1","odd","4","300012","296696","297770","2674","247387","297782","NA","2684","100506","302024","302744","298796","25245","302024","NA","Sternberg Task","21","19102","21","yes","1024"
"100","100","903.5909090909091","903.5909090909091","black","experiment","legacy","legacy","legacy","0","uniform","1","undefined","1","left","21","21","21","0","0","21","21","0","0","21","21","21","0","21","0","Sat Oct 17 22:09:52 2020","The main experiment item","yes","SternbergTask.osexp","/Users/suzannejosey/Documents","no","mono","no","18","no","white","no","yes","768","legacy","9","11","/Users/suzannejosey/Documents/subject-1.csv","legacy","4 6 5 8","Lentiform Loewenfeld","3.3.3","1","y","0","left","right","left","left","NA","777","22546","146880","777","NA","2","legacy","4","1024","2","48000","-16","experiment","1","odd","4","306072","302756","303830","2674","247387","303842","NA","2684","100506","308085","308862","304856","25245","308084","NA","Sternberg Task","22","19879","22","yes","1024"
"100","100","898.7391304347826","898.7391304347826","black","experiment","legacy","legacy","legacy","0","uniform","1","undefined","1","left","22","22","22","0","0","22","22","0","0","22","22","22","0","22","0","Sat Oct 17 22:09:52 2020","The main experiment item","yes","SternbergTask.osexp","/Users/suzannejosey/Documents","no","mono","no","18","no","white","no","yes","768","legacy","10","11","/Users/suzannejosey/Documents/subject-1.csv","legacy","6 7 9 3 1 2","Lentiform Loewenfeld","3.3.3","1","y","0","left","right","left","left","NA","792","22546","146880","792","NA","2","legacy","6","1024","2","48000","-16","experiment","1","odd","6","312189","308874","309950","2674","247387","309961","NA","2684","100506","314202","314994","310974","25245","314202","NA","Sternberg Task","23","20671","23","yes","1024"
"100","100","890.0416666666666","890.0416666666666","black","experiment","legacy","legacy","legacy","0","uniform","1","undefined","1","right","23","23","23","0","0","23","23","0","0","23","23","23","0","23","0","Sat Oct 17 22:09:52 2020","The main experiment item","yes","SternbergTask.osexp","/Users/suzannejosey/Documents","no","mono","no","18","no","white","no","yes","768","legacy","11","11","/Users/suzannejosey/Documents/subject-1.csv","legacy","1 5 3 2 8","Lentiform Loewenfeld","3.3.3","0","n","0","right","right","left","right","NA","690","22546","146880","690","NA","2","legacy","5","1024","2","48000","-16","experiment","1","odd","4","318325","315006","316082","2674","247387","316093","NA","2684","100506","320337","321028","317108","25245","320337","NA","Sternberg Task","24","21361","24","yes","1024"
"100","100","877.48","877.48","black","experiment","legacy","legacy","legacy","0","uniform","1","undefined","1","right","24","24","24","0","0","24","24","0","0","24","24","24","0","24","0","Sat Oct 17 22:09:52 2020","The main experiment item","yes","SternbergTask.osexp","/Users/suzannejosey/Documents","no","mono","no","18","no","white","no","yes","768","legacy","12","11","/Users/suzannejosey/Documents/subject-1.csv","legacy","3 9 1","Lentiform Loewenfeld","3.3.3","0","n","0","right","right","left","right","NA","576","22546","146880","576","NA","2","legacy","3","1024","2","48000","-16","experiment","1","odd","7","324335","321039","322096","2674","247387","322105","NA","2684","100506","326346","326923","323118","25245","326346","NA","Sternberg Task","25","21937","25","yes","1024"
"100","100","889.2307692307693","889.2307692307693","black","experiment","legacy","legacy","legacy","0","uniform","1","undefined","1","left","25","25","25","0","0","25","25","0","0","25","25","25","0","25","0","Sat Oct 17 22:09:52 2020","The main experiment item","yes","SternbergTask.osexp","/Users/suzannejosey/Documents","no","mono","no","18","no","white","no","yes","768","legacy","13","11","/Users/suzannejosey/Documents/subject-1.csv","legacy","7 8 4 6 9 5","Lentiform Loewenfeld","3.3.3","4","y","0","left","right","left","left","NA","1183","22546","146880","1183","NA","2","legacy","6","1024","2","48000","-16","experiment","1","odd","6","330228","326934","327991","2674","247387","328000","NA","2684","100506","332240","333424","329012","25245","332240","NA","Sternberg Task","26","23120","26","yes","1024"
"100","100","877.4074074074074","877.4074074074074","black","experiment","legacy","legacy","legacy","0","uniform","1","undefined","1","right","26","26","26","0","0","26","26","0","0","26","26","26","0","26","0","Sat Oct 17 22:09:52 2020","The main experiment item","yes","SternbergTask.osexp","/Users/suzannejosey/Documents","no","mono","no","18","no","white","no","yes","768","legacy","14","11","/Users/suzannejosey/Documents/subject-1.csv","legacy","1 7 5 2 9","Lentiform Loewenfeld","3.3.3","0","n","0","right","right","left","right","NA","570","22546","146880","570","NA","2","legacy","5","1024","2","48000","-16","experiment","1","odd","3","336733","333437","334494","2674","247387","334503","NA","2684","100506","338745","339315","335517","25245","338745","NA","Sternberg Task","27","23690","27","yes","1024"
"100","100","873.9642857142857","873.9642857142857","black","experiment","legacy","legacy","legacy","0","uniform","1","undefined","1","left","27","27","27","0","0","27","27","0","0","27","27","27","0","27","0","Sat Oct 17 22:09:52 2020","The main experiment item","yes","SternbergTask.osexp","/Users/suzannejosey/Documents","no","mono","no","18","no","white","no","yes","768","legacy","15","11","/Users/suzannejosey/Documents/subject-1.csv","legacy","4 1 8 7 5","Lentiform Loewenfeld","3.3.3","3","y","0","left","right","left","left","NA","781","22546","146880","781","NA","2","legacy","5","1024","2","48000","-16","experiment","1","odd","8","342645","339328","340404","2674","247387","340416","NA","2684","100506","344658","345440","341429","25245","344657","NA","Sternberg Task","28","24471","28","yes","1024"
"100","100","870.2758620689655","870.2758620689655","black","experiment","legacy","legacy","legacy","0","uniform","1","undefined","1","left","28","28","28","0","0","28","28","0","0","28","28","28","0","28","0","Sat Oct 17 22:09:52 2020","The main experiment item","yes","SternbergTask.osexp","/Users/suzannejosey/Documents","no","mono","no","18","no","white","no","yes","768","legacy","16","11","/Users/suzannejosey/Documents/subject-1.csv","legacy","8 5 1 3 9","Lentiform Loewenfeld","3.3.3","4","y","0","left","right","left","left","NA","767","22546","146880","767","NA","2","legacy","5","1024","2","48000","-16","experiment","1","odd","3","348769","345453","346528","2674","247387","346540","NA","2684","100506","350778","351546","347554","25245","350778","NA","Sternberg Task","29","25238","29","yes","1024"
"100","100","863.6","863.6","black","experiment","legacy","legacy","legacy","0","uniform","1","undefined","1","right","29","29","29","0","0","29","29","0","0","29","29","29","0","29","0","Sat Oct 17 22:09:52 2020","The main experiment item","yes","SternbergTask.osexp","/Users/suzannejosey/Documents","no","mono","no","18","no","white","no","yes","768","legacy","17","11","/Users/suzannejosey/Documents/subject-1.csv","legacy","4 1","Lentiform Loewenfeld","3.3.3","0","n","0","right","right","left","right","NA","670","22546","146880","670","NA","2","legacy","2","1024","2","48000","-16","experiment","1","odd","6","354875","351559","352633","2674","247387","352645","NA","2684","100506","356888","357559","353659","25245","356888","NA","Sternberg Task","30","25908","30","yes","1024"
"100","100","862.1612903225806","862.1612903225806","black","experiment","legacy","legacy","legacy","0","uniform","1","undefined","1","left","30","30","30","0","0","30","30","0","0","30","30","30","0","30","0","Sat Oct 17 22:09:52 2020","The main experiment item","yes","SternbergTask.osexp","/Users/suzannejosey/Documents","no","mono","no","18","no","white","no","yes","768","legacy","18","11","/Users/suzannejosey/Documents/subject-1.csv","legacy","2 5 4 8 7","Lentiform Loewenfeld","3.3.3","3","y","0","left","right","left","left","NA","819","22546","146880","819","NA","2","legacy","5","1024","2","48000","-16","experiment","1","odd","4","360891","357571","358650","2674","247387","358661","NA","2684","100506","362904","363723","359675","25245","362903","NA","Sternberg Task","31","26727","31","yes","1024"
"100","100","857.46875","857.46875","black","experiment","legacy","legacy","legacy","0","uniform","1","undefined","1","right","31","31","31","0","0","31","31","0","0","31","31","31","0","31","0","Sat Oct 17 22:09:52 2020","The main experiment item","yes","SternbergTask.osexp","/Users/suzannejosey/Documents","no","mono","no","18","no","white","no","yes","768","legacy","19","11","/Users/suzannejosey/Documents/subject-1.csv","legacy","1 4 9 2 5","Lentiform Loewenfeld","3.3.3","0","n","0","right","right","left","right","NA","712","22546","146880","712","NA","2","legacy","5","1024","2","48000","-16","experiment","1","odd","7","367053","363736","364812","2674","247387","364824","NA","2684","100506","369066","369779","365838","25245","369066","NA","Sternberg Task","32","27439","32","yes","1024"
"96.96969696969697","96.96969696969697","859.3939393939394","859.3939393939394","black","experiment","legacy","legacy","legacy","0","uniform","0","undefined","0","right","32","32","32","0","0","32","32","0","0","32","32","32","0","32","0","Sat Oct 17 22:09:52 2020","The main experiment item","yes","SternbergTask.osexp","/Users/suzannejosey/Documents","no","mono","no","18","no","white","no","yes","768","legacy","20","11","/Users/suzannejosey/Documents/subject-1.csv","legacy","3 4 9 6 7 8","Lentiform Loewenfeld","3.3.3","0","n","0","left","right","left","left","NA","921","22546","146880","921","NA","2","legacy","6","1024","2","48000","-16","experiment","1","odd","2","373109","369792","370868","2674","247387","370879","NA","2684","100506","375121","376043","371893","25245","375121","NA","Sternberg Task","32","28360","33","yes","1024"
"97.05882352941177","97.05882352941177","853.3529411764706","853.3529411764706","black","experiment","legacy","legacy","legacy","0","uniform","1","undefined","1","right","33","33","33","0","0","33","33","0","0","33","33","33","0","33","0","Sat Oct 17 22:09:52 2020","The main experiment item","yes","SternbergTask.osexp","/Users/suzannejosey/Documents","no","mono","no","18","no","white","no","yes","768","legacy","21","11","/Users/suzannejosey/Documents/subject-1.csv","legacy","1 6 4","Lentiform Loewenfeld","3.3.3","0","n","0","right","right","left","right","NA","654","22546","146880","654","NA","2","legacy","3","1024","2","48000","-16","experiment","1","odd","7","379375","369792","377133","2674","247387","377144","376057","2684","100506","381389","382044","378158","25245","381388","NA","Sternberg Task","33","29014","34","yes","1024"
"97.14285714285714","97.14285714285714","844.3714285714286","844.3714285714286","black","experiment","legacy","legacy","legacy","0","uniform","1","undefined","1","right","34","34","34","0","0","34","34","0","0","34","34","34","0","34","0","Sat Oct 17 22:09:52 2020","The main experiment item","yes","SternbergTask.osexp","/Users/suzannejosey/Documents","no","mono","no","18","no","white","no","yes","768","legacy","22","11","/Users/suzannejosey/Documents/subject-1.csv","legacy","4 2 6 9","Lentiform Loewenfeld","3.3.3","0","n","0","right","right","left","right","NA","539","22546","146880","539","NA","2","legacy","4","1024","2","48000","-16","experiment","1","odd","7","385373","382056","383131","2674","247387","383142","376057","2684","100506","387386","387926","384157","25245","387386","NA","Sternberg Task","34","29553","35","yes","1024"
"97.22222222222223","97.22222222222223","842.8611111111111","842.8611111111111","black","experiment","legacy","legacy","legacy","0","uniform","1","undefined","1","right","35","35","35","0","0","35","35","0","0","35","35","35","0","35","0","Sat Oct 17 22:09:52 2020","The main experiment item","yes","SternbergTask.osexp","/Users/suzannejosey/Documents","no","mono","no","18","no","white","no","yes","768","legacy","23","11","/Users/suzannejosey/Documents/subject-1.csv","legacy","2 8 9 4 1","Lentiform Loewenfeld","3.3.3","0","n","0","right","right","left","right","NA","790","22546","146880","790","NA","2","legacy","5","1024","2","48000","-16","experiment","1","odd","5","391254","387939","389012","2674","247387","389023","376057","2684","100506","393267","394057","390037","25245","393267","NA","Sternberg Task","35","30343","36","yes","1024"
"97.29729729729729","97.29729729729729","844.1621621621622","844.1621621621622","black","experiment","legacy","legacy","legacy","0","uniform","1","undefined","1","left","36","36","36","0","0","36","36","0","0","36","36","36","0","36","0","Sat Oct 17 22:09:52 2020","The main experiment item","yes","SternbergTask.osexp","/Users/suzannejosey/Documents","no","mono","no","18","no","white","no","yes","768","legacy","24","11","/Users/suzannejosey/Documents/subject-1.csv","legacy","3 2 1 4 7","Lentiform Loewenfeld","3.3.3","2","y","0","left","right","left","left","NA","891","22546","146880","891","NA","2","legacy","5","1024","2","48000","-16","experiment","1","odd","2","397387","394070","395146","2674","247387","395157","376057","2684","100506","399399","400291","396171","25245","399399","NA","Sternberg Task","36","31234","37","yes","1024"
"97.36842105263158","97.36842105263158","842.3421052631579","842.3421052631579","black","experiment","legacy","legacy","legacy","0","uniform","1","undefined","1","right","37","37","37","0","0","37","37","0","0","37","37","37","0","37","0","Sat Oct 17 22:09:52 2020","The main experiment item","yes","SternbergTask.osexp","/Users/suzannejosey/Documents","no","mono","no","18","no","white","no","yes","768","legacy","25","11","/Users/suzannejosey/Documents/subject-1.csv","legacy","8 9","Lentiform Loewenfeld","3.3.3","0","n","0","right","right","left","right","NA","775","22546","146880","775","NA","2","legacy","2","1024","2","48000","-16","experiment","1","odd","5","403625","400304","401384","2674","247387","401395","376057","2684","100506","405638","406414","402409","25245","405638","NA","Sternberg Task","37","32009","38","yes","1024"
"97.43589743589743","97.43589743589743","841.1794871794872","841.1794871794872","black","experiment","legacy","legacy","legacy","0","uniform","1","undefined","1","right","38","38","38","0","0","38","38","0","0","38","38","38","0","38","0","Sat Oct 17 22:09:52 2020","The main experiment item","yes","SternbergTask.osexp","/Users/suzannejosey/Documents","no","mono","no","18","no","white","no","yes","768","legacy","26","11","/Users/suzannejosey/Documents/subject-1.csv","legacy","7 9 1 6","Lentiform Loewenfeld","3.3.3","0","n","0","right","right","left","right","NA","797","22546","146880","797","NA","2","legacy","4","1024","2","48000","-16","experiment","1","odd","4","409735","406426","407500","2674","247387","407512","376057","2684","100506","411747","412545","408523","25245","411747","NA","Sternberg Task","38","32806","39","yes","1024"
"97.5","97.5","845.05","845.05","black","experiment","legacy","legacy","legacy","0","uniform","1","undefined","1","right","39","39","39","0","0","39","39","0","0","39","39","39","0","39","0","Sat Oct 17 22:09:52 2020","The main experiment item","yes","SternbergTask.osexp","/Users/suzannejosey/Documents","no","mono","no","18","no","white","no","yes","768","legacy","27","11","/Users/suzannejosey/Documents/subject-1.csv","legacy","7 3 2 8","Lentiform Loewenfeld","3.3.3","0","n","0","right","right","left","right","NA","996","22546","146880","996","NA","2","legacy","4","1024","2","48000","-16","experiment","1","odd","4","415877","412558","413635","2674","247387","413646","376057","2684","100506","417890","418887","414660","25245","417890","NA","Sternberg Task","39","33802","40","yes","1024"
"97.5609756097561","97.5609756097561","839.439024390244","839.439024390244","black","experiment","legacy","legacy","legacy","0","uniform","1","undefined","1","right","40","40","40","0","0","40","40","0","0","40","40","40","0","40","0","Sat Oct 17 22:09:52 2020","The main experiment item","yes","SternbergTask.osexp","/Users/suzannejosey/Documents","no","mono","no","18","no","white","no","yes","768","legacy","28","11","/Users/suzannejosey/Documents/subject-1.csv","legacy","7 8 6 1","Lentiform Loewenfeld","3.3.3","0","n","0","right","right","left","right","NA","615","22546","146880","615","NA","2","legacy","4","1024","2","48000","-16","experiment","1","odd","3","422216","418900","419975","2674","247387","419987","376057","2684","100506","424229","424845","421000","25245","424228","NA","Sternberg Task","40","34417","41","yes","1024"
"97.61904761904762","97.61904761904762","839.4047619047619","839.4047619047619","black","experiment","legacy","legacy","legacy","0","uniform","1","undefined","1","left","41","41","41","0","0","41","41","0","0","41","41","41","0","41","0","Sat Oct 17 22:09:52 2020","The main experiment item","yes","SternbergTask.osexp","/Users/suzannejosey/Documents","no","mono","no","18","no","white","no","yes","768","legacy","29","11","/Users/suzannejosey/Documents/subject-1.csv","legacy","7 2 3","Lentiform Loewenfeld","3.3.3","3","y","0","left","right","left","left","NA","838","22546","146880","838","NA","2","legacy","3","1024","2","48000","-16","experiment","1","odd","3","428175","424857","425934","2674","247387","425945","376057","2684","100506","430188","431027","426959","25245","430188","NA","Sternberg Task","41","35255","42","yes","1024"
"97.67441860465117","97.67441860465117","839.3255813953489","839.3255813953489","black","experiment","legacy","legacy","legacy","0","uniform","1","undefined","1","left","42","42","42","0","0","42","42","0","0","42","42","42","0","42","0","Sat Oct 17 22:09:52 2020","The main experiment item","yes","SternbergTask.osexp","/Users/suzannejosey/Documents","no","mono","no","18","no","white","no","yes","768","legacy","30","11","/Users/suzannejosey/Documents/subject-1.csv","legacy","5 7 8 2 3 8","Lentiform Loewenfeld","3.3.3","5","y","0","left","right","left","left","NA","836","22546","146880","836","NA","2","legacy","6","1024","2","48000","-16","experiment","1","odd","3","434354","431038","432112","2674","247387","432123","376057","2684","100506","436366","437203","433137","25245","436366","NA","Sternberg Task","42","36091","43","yes","1024"
"97.72727272727273","97.72727272727273","837.3636363636364","837.3636363636364","black","experiment","legacy","legacy","legacy","0","uniform","1","undefined","1","right","43","43","43","0","0","43","43","0","0","43","43","43","0","43","0","Sat Oct 17 22:09:52 2020","The main experiment item","yes","SternbergTask.osexp","/Users/suzannejosey/Documents","no","mono","no","18","no","white","no","yes","768","legacy","31","11","/Users/suzannejosey/Documents/subject-1.csv","legacy","6 9 4 5 3 2","Lentiform Loewenfeld","3.3.3","0","n","0","right","right","left","right","NA","753","22546","146880","753","NA","2","legacy","6","1024","2","48000","-16","experiment","1","odd","8","440534","437215","438291","2674","247387","438302","376057","2684","100506","442547","443301","439316","25245","442547","NA","Sternberg Task","43","36844","44","yes","1024"
"97.77777777777777","97.77777777777777","837.0444444444445","837.0444444444445","black","experiment","legacy","legacy","legacy","0","uniform","1","undefined","1","left","44","44","44","0","0","44","44","0","0","44","44","44","0","44","0","Sat Oct 17 22:09:52 2020","The main experiment item","yes","SternbergTask.osexp","/Users/suzannejosey/Documents","no","mono","no","18","no","white","no","yes","768","legacy","32","11","/Users/suzannejosey/Documents/subject-1.csv","legacy","7 4 2 6 3 5","Lentiform Loewenfeld","3.3.3","6","y","0","left","right","left","left","NA","823","22546","146880","823","NA","2","legacy","6","1024","2","48000","-16","experiment","1","odd","5","446630","443314","444389","2674","247387","444400","376057","2684","100506","448642","449466","445414","25245","448642","NA","Sternberg Task","44","37667","45","yes","1024"
"95.65217391304348","95.65217391304348","836.2608695652174","836.2608695652174","black","experiment","legacy","legacy","legacy","0","uniform","0","undefined","0","left","45","45","45","0","0","45","45","0","0","45","45","45","0","45","0","Sat Oct 17 22:09:52 2020","The main experiment item","yes","SternbergTask.osexp","/Users/suzannejosey/Documents","no","mono","no","18","no","white","no","yes","768","legacy","33","11","/Users/suzannejosey/Documents/subject-1.csv","legacy","5 2 9 6 1 7","Lentiform Loewenfeld","3.3.3","3","y","0","right","right","left","right","NA","801","22546","146880","801","NA","2","legacy","6","1024","2","48000","-16","experiment","1","odd","9","452798","449480","450557","2674","247387","450568","376057","2684","100506","454811","455613","451582","25245","454811","NA","Sternberg Task","44","38468","46","yes","1024"
"95.74468085106383","95.74468085106383","836.6595744680851","836.6595744680851","black","experiment","legacy","legacy","legacy","0","uniform","1","undefined","1","left","46","46","46","0","0","46","46","0","0","46","46","46","0","46","0","Sat Oct 17 22:09:52 2020","The main experiment item","yes","SternbergTask.osexp","/Users/suzannejosey/Documents","no","mono","no","18","no","white","no","yes","768","legacy","34","11","/Users/suzannejosey/Documents/subject-1.csv","legacy","3 9 6 2","Lentiform Loewenfeld","3.3.3","4","y","0","left","right","left","left","NA","855","22546","146880","855","NA","2","legacy","4","1024","2","48000","-16","experiment","1","odd","2","458942","449480","456700","2674","247387","456712","455624","2684","100506","460954","461810","457726","25245","460954","NA","Sternberg Task","45","39323","47","yes","1024"
"95.83333333333333","95.83333333333333","841.8333333333334","841.8333333333334","black","experiment","legacy","legacy","legacy","0","uniform","1","undefined","1","right","47","47","47","0","0","47","47","0","0","47","47","47","0","47","0","Sat Oct 17 22:09:52 2020","The main experiment item","yes","SternbergTask.osexp","/Users/suzannejosey/Documents","no","mono","no","18","no","white","no","yes","768","legacy","35","11","/Users/suzannejosey/Documents/subject-1.csv","legacy","2 6 4 3 9","Lentiform Loewenfeld","3.3.3","0","n","0","right","right","left","right","NA","1085","22546","146880","1085","NA","2","legacy","5","1024","2","48000","-16","experiment","1","odd","1","465140","461823","462899","2674","247387","462910","455624","2684","100506","467154","468240","463924","25245","467153","NA","Sternberg Task","46","40408","48","yes","1024"
"95.91836734693878","95.91836734693878","843.1224489795918","843.1224489795918","black","experiment","legacy","legacy","legacy","0","uniform","1","undefined","1","left","48","48","48","0","0","48","48","0","0","48","48","48","0","48","0","Sat Oct 17 22:09:52 2020","The main experiment item","yes","SternbergTask.osexp","/Users/suzannejosey/Documents","no","mono","no","18","no","white","no","yes","768","legacy","36","11","/Users/suzannejosey/Documents/subject-1.csv","legacy","2 4 6 9","Lentiform Loewenfeld","3.3.3","3","y","0","left","right","left","left","NA","905","22546","146880","905","NA","2","legacy","4","1024","2","48000","-16","experiment","1","odd","6","471563","468251","469323","2674","247387","469334","455624","2684","100506","473575","474481","470346","25245","473575","NA","Sternberg Task","47","41313","49","yes","1024"
"96","96","838.82","838.82","black","experiment","legacy","legacy","legacy","0","uniform","1","undefined","1","right","49","49","49","0","0","49","49","0","0","49","49","49","0","49","0","Sat Oct 17 22:09:52 2020","The main experiment item","yes","SternbergTask.osexp","/Users/suzannejosey/Documents","no","mono","no","18","no","white","no","yes","768","legacy","37","11","/Users/suzannejosey/Documents/subject-1.csv","legacy","7 1","Lentiform Loewenfeld","3.3.3","0","n","0","right","right","left","right","NA","628","22546","146880","628","NA","2","legacy","2","1024","2","48000","-16","experiment","1","odd","8","477810","474493","475569","2674","247387","475580","455624","2684","100506","479823","480452","476594","25245","479823","NA","Sternberg Task","48","41941","50","yes","1024"
"96.07843137254902","96.07843137254902","835.4705882352941","835.4705882352941","black","experiment","legacy","legacy","legacy","0","uniform","1","undefined","1","right","50","50","50","0","0","50","50","0","0","50","50","50","0","50","0","Sat Oct 17 22:09:52 2020","The main experiment item","yes","SternbergTask.osexp","/Users/suzannejosey/Documents","no","mono","no","18","no","white","no","yes","768","legacy","38","11","/Users/suzannejosey/Documents/subject-1.csv","legacy","6 9 7 3 8 2","Lentiform Loewenfeld","3.3.3","0","n","0","right","right","left","right","NA","668","22546","146880","668","NA","2","legacy","6","1024","2","48000","-16","experiment","1","odd","5","483782","480465","481541","2674","247387","481552","455624","2684","100506","485794","486463","482566","25245","485794","NA","Sternberg Task","49","42609","51","yes","1024"
"96.15384615384616","96.15384615384616","836.8461538461538","836.8461538461538","black","experiment","legacy","legacy","legacy","0","uniform","1","undefined","1","right","51","51","51","0","0","51","51","0","0","51","51","51","0","51","0","Sat Oct 17 22:09:52 2020","The main experiment item","yes","SternbergTask.osexp","/Users/suzannejosey/Documents","no","mono","no","18","no","white","no","yes","768","legacy","39","11","/Users/suzannejosey/Documents/subject-1.csv","legacy","5 7 3","Lentiform Loewenfeld","3.3.3","0","n","0","right","right","left","right","NA","907","22546","146880","907","NA","2","legacy","3","1024","2","48000","-16","experiment","1","odd","9","489793","486476","487551","2674","247387","487563","455624","2684","100506","491806","492714","488577","25245","491806","NA","Sternberg Task","50","43516","52","yes","1024"
"96.22641509433963","96.22641509433963","833.188679245283","833.188679245283","black","experiment","legacy","legacy","legacy","0","uniform","1","undefined","1","right","52","52","52","0","0","52","52","0","0","52","52","52","0","52","0","Sat Oct 17 22:09:52 2020","The main experiment item","yes","SternbergTask.osexp","/Users/suzannejosey/Documents","no","mono","no","18","no","white","no","yes","768","legacy","40","11","/Users/suzannejosey/Documents/subject-1.csv","legacy","6 2 9 3 8 4","Lentiform Loewenfeld","3.3.3","0","n","0","right","right","left","right","NA","643","22546","146880","643","NA","2","legacy","6","1024","2","48000","-16","experiment","1","odd","1","496045","492728","493804","2674","247387","493816","455624","2684","100506","498057","498701","494830","25245","498057","NA","Sternberg Task","51","44159","53","yes","1024"
"96.29629629629629","96.29629629629629","832.574074074074","832.574074074074","black","experiment","legacy","legacy","legacy","0","uniform","1","undefined","1","left","53","53","53","0","0","53","53","0","0","53","53","53","0","53","0","Sat Oct 17 22:09:52 2020","The main experiment item","yes","SternbergTask.osexp","/Users/suzannejosey/Documents","no","mono","no","18","no","white","no","yes","768","legacy","41","11","/Users/suzannejosey/Documents/subject-1.csv","legacy","9 6 2 4 1","Lentiform Loewenfeld","3.3.3","4","y","0","left","right","left","left","NA","800","22546","146880","800","NA","2","legacy","5","1024","2","48000","-16","experiment","1","odd","4","502028","498713","499787","2674","247387","499799","455624","2684","100506","504041","504842","500813","25245","504041","NA","Sternberg Task","52","44959","54","yes","1024"
"96.36363636363636","96.36363636363636","828.3636363636364","828.3636363636364","black","experiment","legacy","legacy","legacy","0","uniform","1","undefined","1","right","54","54","54","0","0","54","54","0","0","54","54","54","0","54","0","Sat Oct 17 22:09:52 2020","The main experiment item","yes","SternbergTask.osexp","/Users/suzannejosey/Documents","no","mono","no","18","no","white","no","yes","768","legacy","42","11","/Users/suzannejosey/Documents/subject-1.csv","legacy","1 3 2 6 9","Lentiform Loewenfeld","3.3.3","0","n","0","right","right","left","right","NA","601","22546","146880","601","NA","2","legacy","5","1024","2","48000","-16","experiment","1","odd","5","508170","504855","505929","2674","247387","505941","455624","2684","100506","510183","510785","506955","25245","510182","NA","Sternberg Task","53","45560","55","yes","1024"
"96.42857142857143","96.42857142857143","825.3928571428571","825.3928571428571","black","experiment","legacy","legacy","legacy","0","uniform","1","undefined","1","left","55","55","55","0","0","55","55","0","0","55","55","55","0","55","0","Sat Oct 17 22:09:52 2020","The main experiment item","yes","SternbergTask.osexp","/Users/suzannejosey/Documents","no","mono","no","18","no","white","no","yes","768","legacy","43","11","/Users/suzannejosey/Documents/subject-1.csv","legacy","9 5 8 1","Lentiform Loewenfeld","3.3.3","2","y","0","left","right","left","left","NA","662","22546","146880","662","NA","2","legacy","4","1024","2","48000","-16","experiment","1","odd","5","514117","510798","511875","2674","247387","511887","455624","2684","100506","516129","516792","512901","25245","516129","NA","Sternberg Task","54","46222","56","yes","1024"
"96.49122807017544","96.49122807017544","826.0175438596491","826.0175438596491","black","experiment","legacy","legacy","legacy","0","uniform","1","undefined","1","left","56","56","56","0","0","56","56","0","0","56","56","56","0","56","0","Sat Oct 17 22:09:52 2020","The main experiment item","yes","SternbergTask.osexp","/Users/suzannejosey/Documents","no","mono","no","18","no","white","no","yes","768","legacy","44","11","/Users/suzannejosey/Documents/subject-1.csv","legacy","6 5","Lentiform Loewenfeld","3.3.3","2","y","0","left","right","left","left","NA","861","22546","146880","861","NA","2","legacy","2","1024","2","48000","-16","experiment","1","odd","5","520122","516806","517881","2674","247387","517893","455624","2684","100506","522134","522997","518907","25245","522134","NA","Sternberg Task","55","47083","57","yes","1024"
"94.82758620689656","94.82758620689656","828.8793103448276","828.8793103448276","black","experiment","legacy","legacy","legacy","0","uniform","0","undefined","0","right","57","57","57","0","0","57","57","0","0","57","57","57","0","57","0","Sat Oct 17 22:09:52 2020","The main experiment item","yes","SternbergTask.osexp","/Users/suzannejosey/Documents","no","mono","no","18","no","white","no","yes","768","legacy","45","11","/Users/suzannejosey/Documents/subject-1.csv","legacy","5 2","Lentiform Loewenfeld","3.3.3","0","n","0","left","right","left","left","NA","992","22546","146880","992","NA","2","legacy","2","1024","2","48000","-16","experiment","1","odd","7","526325","523009","524082","2674","247387","524094","455624","2684","100506","528338","529331","525108","25245","528338","NA","Sternberg Task","55","48075","58","yes","1024"
"94.91525423728814","94.91525423728814","827.8305084745763","827.8305084745763","black","experiment","legacy","legacy","legacy","0","uniform","1","undefined","1","right","58","58","58","0","0","58","58","0","0","58","58","58","0","58","0","Sat Oct 17 22:09:52 2020","The main experiment item","yes","SternbergTask.osexp","/Users/suzannejosey/Documents","no","mono","no","18","no","white","no","yes","768","legacy","46","11","/Users/suzannejosey/Documents/subject-1.csv","legacy","5 3 2 6 9 8","Lentiform Loewenfeld","3.3.3","0","n","0","right","right","left","right","NA","767","22546","146880","767","NA","2","legacy","6","1024","2","48000","-16","experiment","1","odd","4","532657","523009","530417","2674","247387","530428","529344","2684","100506","534670","535437","531441","25245","534669","NA","Sternberg Task","56","48842","59","yes","1024"
"95","95","825.7166666666667","825.7166666666667","black","experiment","legacy","legacy","legacy","0","uniform","1","undefined","1","right","59","59","59","0","0","59","59","0","0","59","59","59","0","59","0","Sat Oct 17 22:09:52 2020","The main experiment item","yes","SternbergTask.osexp","/Users/suzannejosey/Documents","no","mono","no","18","no","white","no","yes","768","legacy","47","11","/Users/suzannejosey/Documents/subject-1.csv","legacy","8 4 3 5","Lentiform Loewenfeld","3.3.3","0","n","0","right","right","left","right","NA","701","22546","146880","701","NA","2","legacy","4","1024","2","48000","-16","experiment","1","odd","6","538767","535451","536525","2674","247387","536537","529344","2684","100506","540780","541482","537551","25245","540780","NA","Sternberg Task","57","49543","60","yes","1024"
"95.08196721311475","95.08196721311475","823.311475409836","823.311475409836","black","experiment","legacy","legacy","legacy","0","uniform","1","undefined","1","right","60","60","60","0","0","60","60","0","0","60","60","60","0","60","0","Sat Oct 17 22:09:52 2020","The main experiment item","yes","SternbergTask.osexp","/Users/suzannejosey/Documents","no","mono","no","18","no","white","no","yes","768","legacy","48","11","/Users/suzannejosey/Documents/subject-1.csv","legacy","6 8","Lentiform Loewenfeld","3.3.3","0","n","0","right","right","left","right","NA","679","22546","146880","679","NA","2","legacy","2","1024","2","48000","-16","experiment","1","odd","9","544811","541495","542570","2674","247387","542581","529344","2684","100506","546823","547503","543595","25245","546823","NA","Sternberg Task","58","50222","61","yes","1024"
"95.16129032258064","95.16129032258064","827.8387096774194","827.8387096774194","black","experiment","legacy","legacy","legacy","0","uniform","1","undefined","1","left","61","61","61","0","0","61","61","0","0","61","61","61","0","61","0","Sat Oct 17 22:09:52 2020","The main experiment item","yes","SternbergTask.osexp","/Users/suzannejosey/Documents","no","mono","no","18","no","white","no","yes","768","legacy","49","11","/Users/suzannejosey/Documents/subject-1.csv","legacy","7 1 3","Lentiform Loewenfeld","3.3.3","2","y","0","left","right","left","left","NA","1104","22546","146880","1104","NA","2","legacy","3","1024","2","48000","-16","experiment","1","odd","1","550833","547516","548592","2674","247387","548603","529344","2684","100506","552846","553951","549617","25245","552846","NA","Sternberg Task","59","51326","62","yes","1024"
"95.23809523809524","95.23809523809524","827.047619047619","827.047619047619","black","experiment","legacy","legacy","legacy","0","uniform","1","undefined","1","left","62","62","62","0","0","62","62","0","0","62","62","62","0","62","0","Sat Oct 17 22:09:52 2020","The main experiment item","yes","SternbergTask.osexp","/Users/suzannejosey/Documents","no","mono","no","18","no","white","no","yes","768","legacy","50","11","/Users/suzannejosey/Documents/subject-1.csv","legacy","8 7 3","Lentiform Loewenfeld","3.3.3","1","y","0","left","right","left","left","NA","778","22546","146880","778","NA","2","legacy","3","1024","2","48000","-16","experiment","1","odd","8","557281","553963","555039","2674","247387","555051","529344","2684","100506","559293","560073","556065","25245","559293","NA","Sternberg Task","60","52104","63","yes","1024"
"95.3125","95.3125","825.0625","825.0625","black","experiment","legacy","legacy","legacy","0","uniform","1","undefined","1","left","63","63","63","0","0","63","63","0","0","63","63","63","0","63","0","Sat Oct 17 22:09:52 2020","The main experiment item","yes","SternbergTask.osexp","/Users/suzannejosey/Documents","no","mono","no","18","no","white","no","yes","768","legacy","51","11","/Users/suzannejosey/Documents/subject-1.csv","legacy","8 3","Lentiform Loewenfeld","3.3.3","2","y","0","left","right","left","left","NA","700","22546","146880","700","NA","2","legacy","2","1024","2","48000","-16","experiment","1","odd","3","563401","560086","561160","2674","247387","561171","529344","2684","100506","565415","566116","562185","25245","565414","NA","Sternberg Task","61","52804","64","yes","1024"
"95.38461538461539","95.38461538461539","827.0307692307692","827.0307692307692","black","experiment","legacy","legacy","legacy","0","uniform","1","undefined","1","right","64","64","64","0","0","64","64","0","0","64","64","64","0","64","0","Sat Oct 17 22:09:52 2020","The main experiment item","yes","SternbergTask.osexp","/Users/suzannejosey/Documents","no","mono","no","18","no","white","no","yes","768","legacy","52","11","/Users/suzannejosey/Documents/subject-1.csv","legacy","2 3 8 5 6 7","Lentiform Loewenfeld","3.3.3","0","n","0","right","right","left","right","NA","953","22546","146880","953","NA","2","legacy","6","1024","2","48000","-16","experiment","1","odd","1","569445","566129","567203","2674","247387","567215","529344","2684","100506","571457","572411","568229","25245","571457","NA","Sternberg Task","62","53757","65","yes","1024"
"95.45454545454545","95.45454545454545","831.2272727272727","831.2272727272727","black","experiment","legacy","legacy","legacy","0","uniform","1","undefined","1","left","65","65","65","0","0","65","65","0","0","65","65","65","0","65","0","Sat Oct 17 22:09:52 2020","The main experiment item","yes","SternbergTask.osexp","/Users/suzannejosey/Documents","no","mono","no","18","no","white","no","yes","768","legacy","53","11","/Users/suzannejosey/Documents/subject-1.csv","legacy","8 5 4 7 3 1","Lentiform Loewenfeld","3.3.3","2","y","0","left","right","left","left","NA","1104","22546","146880","1104","NA","2","legacy","6","1024","2","48000","-16","experiment","1","odd","5","575741","572424","573499","2674","247387","573511","529344","2684","100506","577754","578859","574525","25245","577754","NA","Sternberg Task","63","54861","66","yes","1024"
"95.5223880597015","95.5223880597015","831.6268656716418","831.6268656716418","black","experiment","legacy","legacy","legacy","0","uniform","1","undefined","1","left","66","66","66","0","0","66","66","0","0","66","66","66","0","66","0","Sat Oct 17 22:09:52 2020","The main experiment item","yes","SternbergTask.osexp","/Users/suzannejosey/Documents","no","mono","no","18","no","white","no","yes","768","legacy","54","11","/Users/suzannejosey/Documents/subject-1.csv","legacy","6 9 3 1","Lentiform Loewenfeld","3.3.3","4","y","0","left","right","left","left","NA","858","22546","146880","858","NA","2","legacy","4","1024","2","48000","-16","experiment","1","odd","1","582191","578872","579950","2674","247387","579961","529344","2684","100506","584203","585061","580975","25245","584203","NA","Sternberg Task","64","55719","67","yes","1024"
"95.58823529411765","95.58823529411765","827.6911764705883","827.6911764705883","black","experiment","legacy","legacy","legacy","0","uniform","1","undefined","1","left","67","67","67","0","0","67","67","0","0","67","67","67","0","67","0","Sat Oct 17 22:09:52 2020","The main experiment item","yes","SternbergTask.osexp","/Users/suzannejosey/Documents","no","mono","no","18","no","white","no","yes","768","legacy","55","11","/Users/suzannejosey/Documents/subject-1.csv","legacy","8","Lentiform Loewenfeld","3.3.3","1","y","0","left","right","left","left","NA","564","22546","146880","564","NA","2","legacy","1","1024","2","48000","-16","experiment","1","odd","8","588394","585075","586152","2674","247387","586163","529344","2684","100506","590407","590972","587177","25245","590406","NA","Sternberg Task","65","56283","68","yes","1024"
"95.65217391304348","95.65217391304348","830.304347826087","830.304347826087","black","experiment","legacy","legacy","legacy","0","uniform","1","undefined","1","right","68","68","68","0","0","68","68","0","0","68","68","68","0","68","0","Sat Oct 17 22:09:52 2020","The main experiment item","yes","SternbergTask.osexp","/Users/suzannejosey/Documents","no","mono","no","18","no","white","no","yes","768","legacy","56","11","/Users/suzannejosey/Documents/subject-1.csv","legacy","8 5 4 2 9 6","Lentiform Loewenfeld","3.3.3","0","n","0","right","right","left","right","NA","1008","22546","146880","1008","NA","2","legacy","6","1024","2","48000","-16","experiment","1","odd","3","594297","590985","592055","2674","247387","592066","529344","2684","100506","596309","597318","593080","25245","596309","NA","Sternberg Task","66","57291","69","yes","1024"
"95.71428571428571","95.71428571428571","830.9857142857143","830.9857142857143","black","experiment","legacy","legacy","legacy","0","uniform","1","undefined","1","left","69","69","69","0","0","69","69","0","0","69","69","69","0","69","0","Sat Oct 17 22:09:52 2020","The main experiment item","yes","SternbergTask.osexp","/Users/suzannejosey/Documents","no","mono","no","18","no","white","no","yes","768","legacy","57","11","/Users/suzannejosey/Documents/subject-1.csv","legacy","3 4 9 6 2 9","Lentiform Loewenfeld","3.3.3","5","y","0","left","right","left","left","NA","878","22546","146880","878","NA","2","legacy","6","1024","2","48000","-16","experiment","1","odd","2","600647","597331","598406","2674","247387","598417","529344","2684","100506","602660","603539","599432","25245","602660","NA","Sternberg Task","67","58169","70","yes","1024"
"95.77464788732394","95.77464788732394","830.169014084507","830.169014084507","black","experiment","legacy","legacy","legacy","0","uniform","1","undefined","1","left","70","70","70","0","0","70","70","0","0","70","70","70","0","70","0","Sat Oct 17 22:09:52 2020","The main experiment item","yes","SternbergTask.osexp","/Users/suzannejosey/Documents","no","mono","no","18","no","white","no","yes","768","legacy","58","11","/Users/suzannejosey/Documents/subject-1.csv","legacy","8 9 6 1","Lentiform Loewenfeld","3.3.3","2","y","0","left","right","left","left","NA","773","22546","146880","773","NA","2","legacy","4","1024","2","48000","-16","experiment","1","odd","9","606871","603553","604629","2674","247387","604640","529344","2684","100506","608883","609657","605655","25245","608883","NA","Sternberg Task","68","58942","71","yes","1024"
"95.83333333333333","95.83333333333333","827.6388888888889","827.6388888888889","black","experiment","legacy","legacy","legacy","0","uniform","1","undefined","1","left","71","71","71","0","0","71","71","0","0","71","71","71","0","71","0","Sat Oct 17 22:09:52 2020","The main experiment item","yes","SternbergTask.osexp","/Users/suzannejosey/Documents","no","mono","no","18","no","white","no","yes","768","legacy","59","11","/Users/suzannejosey/Documents/subject-1.csv","legacy","2 6 1 7 4","Lentiform Loewenfeld","3.3.3","2","y","0","left","right","left","left","NA","648","22546","146880","648","NA","2","legacy","5","1024","2","48000","-16","experiment","1","odd","6","612989","609670","610747","2674","247387","610758","529344","2684","100506","615001","615651","611772","25245","615001","NA","Sternberg Task","69","59590","72","yes","1024"
"95.89041095890411","95.89041095890411","827.0958904109589","827.0958904109589","black","experiment","legacy","legacy","legacy","0","uniform","1","undefined","1","left","72","72","72","0","0","72","72","0","0","72","72","72","0","72","0","Sat Oct 17 22:09:52 2020","The main experiment item","yes","SternbergTask.osexp","/Users/suzannejosey/Documents","no","mono","no","18","no","white","no","yes","768","legacy","60","11","/Users/suzannejosey/Documents/subject-1.csv","legacy","4 6 2 5 1","Lentiform Loewenfeld","3.3.3","5","y","0","left","right","left","left","NA","788","22546","146880","788","NA","2","legacy","5","1024","2","48000","-16","experiment","1","odd","1","618979","615662","616737","2674","247387","616749","529344","2684","100506","620992","621781","617762","25245","620991","NA","Sternberg Task","70","60378","73","yes","1024"
"95.94594594594595","95.94594594594595","825.8243243243244","825.8243243243244","black","experiment","legacy","legacy","legacy","0","uniform","1","undefined","1","right","73","73","73","0","0","73","73","0","0","73","73","73","0","73","0","Sat Oct 17 22:09:52 2020","The main experiment item","yes","SternbergTask.osexp","/Users/suzannejosey/Documents","no","mono","no","18","no","white","no","yes","768","legacy","61","11","/Users/suzannejosey/Documents/subject-1.csv","legacy","9 8 2 7 4","Lentiform Loewenfeld","3.3.3","0","n","0","right","right","left","right","NA","733","22546","146880","733","NA","2","legacy","5","1024","2","48000","-16","experiment","1","odd","5","625113","621794","622872","2674","247387","622883","529344","2684","100506","627125","627860","623897","25245","627125","NA","Sternberg Task","71","61111","74","yes","1024"
"96","96","824.9466666666667","824.9466666666667","black","experiment","legacy","legacy","legacy","0","uniform","1","undefined","1","left","74","74","74","0","0","74","74","0","0","74","74","74","0","74","0","Sat Oct 17 22:09:52 2020","The main experiment item","yes","SternbergTask.osexp","/Users/suzannejosey/Documents","no","mono","no","18","no","white","no","yes","768","legacy","62","11","/Users/suzannejosey/Documents/subject-1.csv","legacy","6 8 9 3 4 9","Lentiform Loewenfeld","3.3.3","5","y","0","left","right","left","left","NA","760","22546","146880","760","NA","2","legacy","6","1024","2","48000","-16","experiment","1","odd","4","631187","627871","628946","2674","247387","628957","529344","2684","100506","633200","633961","629971","25245","633200","NA","Sternberg Task","72","61871","75","yes","1024"
"96.05263157894737","96.05263157894737","820.7105263157895","820.7105263157895","black","experiment","legacy","legacy","legacy","0","uniform","1","undefined","1","left","75","75","75","0","0","75","75","0","0","75","75","75","0","75","0","Sat Oct 17 22:09:52 2020","The main experiment item","yes","SternbergTask.osexp","/Users/suzannejosey/Documents","no","mono","no","18","no","white","no","yes","768","legacy","63","11","/Users/suzannejosey/Documents/subject-1.csv","legacy","4 9 7 8 5 3","Lentiform Loewenfeld","3.3.3","4","y","0","left","right","left","left","NA","503","22546","146880","503","NA","2","legacy","6","1024","2","48000","-16","experiment","1","odd","8","637292","633972","635050","2674","247387","635061","529344","2684","100506","639305","639809","636076","25245","639304","NA","Sternberg Task","73","62374","76","yes","1024"
"96.1038961038961","96.1038961038961","818.7922077922078","818.7922077922078","black","experiment","legacy","legacy","legacy","0","uniform","1","undefined","1","left","76","76","76","0","0","76","76","0","0","76","76","76","0","76","0","Sat Oct 17 22:09:52 2020","The main experiment item","yes","SternbergTask.osexp","/Users/suzannejosey/Documents","no","mono","no","18","no","white","no","yes","768","legacy","64","11","/Users/suzannejosey/Documents/subject-1.csv","legacy","2 4 8 5 1 3","Lentiform Loewenfeld","3.3.3","1","y","0","left","right","left","left","NA","673","22546","146880","673","NA","2","legacy","6","1024","2","48000","-16","experiment","1","odd","2","643138","639824","640898","2674","247387","640909","529344","2684","100506","645151","645825","641923","25245","645150","NA","Sternberg Task","74","63047","77","yes","1024"
"96.15384615384616","96.15384615384616","814.2948717948718","814.2948717948718","black","experiment","legacy","legacy","legacy","0","uniform","1","undefined","1","left","77","77","77","0","0","77","77","0","0","77","77","77","0","77","0","Sat Oct 17 22:09:52 2020","The main experiment item","yes","SternbergTask.osexp","/Users/suzannejosey/Documents","no","mono","no","18","no","white","no","yes","768","legacy","65","11","/Users/suzannejosey/Documents/subject-1.csv","legacy","7","Lentiform Loewenfeld","3.3.3","1","y","0","left","right","left","left","NA","468","22546","146880","468","NA","2","legacy","1","1024","2","48000","-16","experiment","1","odd","7","649154","645838","646912","2674","247387","646924","529344","2684","100506","651167","651636","647937","25245","651167","NA","Sternberg Task","75","63515","78","yes","1024"
"96.20253164556962","96.20253164556962","814.8987341772151","814.8987341772151","black","experiment","legacy","legacy","legacy","0","uniform","1","undefined","1","right","78","78","78","0","0","78","78","0","0","78","78","78","0","78","0","Sat Oct 17 22:09:52 2020","The main experiment item","yes","SternbergTask.osexp","/Users/suzannejosey/Documents","no","mono","no","18","no","white","no","yes","768","legacy","66","11","/Users/suzannejosey/Documents/subject-1.csv","legacy","1 7 8 3 9","Lentiform Loewenfeld","3.3.3","0","n","0","right","right","left","right","NA","862","22546","146880","862","NA","2","legacy","5","1024","2","48000","-16","experiment","1","odd","2","654966","651649","652724","2674","247387","652735","529344","2684","100506","656978","657841","653750","25245","656978","NA","Sternberg Task","76","64377","79","yes","1024"
"96.25","96.25","813.2","813.2","black","experiment","legacy","legacy","legacy","0","uniform","1","undefined","1","right","79","79","79","0","0","79","79","0","0","79","79","79","0","79","0","Sat Oct 17 22:09:52 2020","The main experiment item","yes","SternbergTask.osexp","/Users/suzannejosey/Documents","no","mono","no","18","no","white","no","yes","768","legacy","67","11","/Users/suzannejosey/Documents/subject-1.csv","legacy","7 9","Lentiform Loewenfeld","3.3.3","0","n","0","right","right","left","right","NA","679","22546","146880","679","NA","2","legacy","2","1024","2","48000","-16","experiment","1","odd","1","661170","657853","658929","2674","247387","658941","529344","2684","100506","663183","663863","659955","25245","663183","NA","Sternberg Task","77","65056","80","yes","1024"
"95.06172839506173","95.06172839506173","820.3086419753087","820.3086419753087","black","experiment","legacy","legacy","legacy","0","uniform","0","undefined","0","left","80","80","80","0","0","80","80","0","0","80","80","80","0","80","0","Sat Oct 17 22:09:52 2020","The main experiment item","yes","SternbergTask.osexp","/Users/suzannejosey/Documents","no","mono","no","18","no","white","no","yes","768","legacy","68","11","/Users/suzannejosey/Documents/subject-1.csv","legacy","6 7 8 5","Lentiform Loewenfeld","3.3.3","3","y","0","right","right","left","right","NA","1389","22546","146880","1389","NA","2","legacy","4","1024","2","48000","-16","experiment","1","odd","8","667191","663874","664951","2674","247387","664963","529344","2684","100506","669204","670595","665976","25245","669204","NA","Sternberg Task","77","66445","81","yes","1024"
"95.1219512195122","95.1219512195122","817.9878048780488","817.9878048780488","black","experiment","legacy","legacy","legacy","0","uniform","1","undefined","1","left","81","81","81","0","0","81","81","0","0","81","81","81","0","81","0","Sat Oct 17 22:09:52 2020","The main experiment item","yes","SternbergTask.osexp","/Users/suzannejosey/Documents","no","mono","no","18","no","white","no","yes","768","legacy","69","11","/Users/suzannejosey/Documents/subject-1.csv","legacy","8 9 5 6 7","Lentiform Loewenfeld","3.3.3","1","y","0","left","right","left","left","NA","630","22546","146880","630","NA","2","legacy","5","1024","2","48000","-16","experiment","1","odd","8","673924","663874","671682","2674","247387","671694","670606","2684","100506","675937","676568","672708","25245","675937","NA","Sternberg Task","78","67075","82","yes","1024"
"95.18072289156626","95.18072289156626","816.2289156626506","816.2289156626506","black","experiment","legacy","legacy","legacy","0","uniform","1","undefined","1","right","82","82","82","0","0","82","82","0","0","82","82","82","0","82","0","Sat Oct 17 22:09:52 2020","The main experiment item","yes","SternbergTask.osexp","/Users/suzannejosey/Documents","no","mono","no","18","no","white","no","yes","768","legacy","70","11","/Users/suzannejosey/Documents/subject-1.csv","legacy","4 2 7 6 1 3","Lentiform Loewenfeld","3.3.3","0","n","0","right","right","left","right","NA","672","22546","146880","672","NA","2","legacy","6","1024","2","48000","-16","experiment","1","odd","8","679897","676580","677655","2674","247387","677667","670606","2684","100506","681909","682583","678681","25245","681909","NA","Sternberg Task","79","67747","83","yes","1024"
"95.23809523809524","95.23809523809524","818.9285714285714","818.9285714285714","black","experiment","legacy","legacy","legacy","0","uniform","1","undefined","1","left","83","83","83","0","0","83","83","0","0","83","83","83","0","83","0","Sat Oct 17 22:09:52 2020","The main experiment item","yes","SternbergTask.osexp","/Users/suzannejosey/Documents","no","mono","no","18","no","white","no","yes","768","legacy","71","11","/Users/suzannejosey/Documents/subject-1.csv","legacy","4 3 2 5 8","Lentiform Loewenfeld","3.3.3","2","y","0","left","right","left","left","NA","1043","22546","146880","1043","NA","2","legacy","5","1024","2","48000","-16","experiment","1","odd","3","685916","682596","683674","2674","247387","683686","670606","2684","100506","687929","688974","684700","25245","687929","NA","Sternberg Task","80","68790","84","yes","1024"
"95.29411764705883","95.29411764705883","816.964705882353","816.964705882353","black","experiment","legacy","legacy","legacy","0","uniform","1","undefined","1","left","84","84","84","0","0","84","84","0","0","84","84","84","0","84","0","Sat Oct 17 22:09:52 2020","The main experiment item","yes","SternbergTask.osexp","/Users/suzannejosey/Documents","no","mono","no","18","no","white","no","yes","768","legacy","72","11","/Users/suzannejosey/Documents/subject-1.csv","legacy","8 1 6","Lentiform Loewenfeld","3.3.3","3","y","0","left","right","left","left","NA","652","22546","146880","652","NA","2","legacy","3","1024","2","48000","-16","experiment","1","odd","6","692302","688985","690060","2674","247387","690072","670606","2684","100506","694314","694967","691086","25245","694314","NA","Sternberg Task","81","69442","85","yes","1024"
"95.34883720930233","95.34883720930233","814.546511627907","814.546511627907","black","experiment","legacy","legacy","legacy","0","uniform","1","undefined","1","left","85","85","85","0","0","85","85","0","0","85","85","85","0","85","0","Sat Oct 17 22:09:52 2020","The main experiment item","yes","SternbergTask.osexp","/Users/suzannejosey/Documents","no","mono","no","18","no","white","no","yes","768","legacy","73","11","/Users/suzannejosey/Documents/subject-1.csv","legacy","3 5 9 6 2 4","Lentiform Loewenfeld","3.3.3","1","y","0","left","right","left","left","NA","609","22546","146880","609","NA","2","legacy","6","1024","2","48000","-16","experiment","1","odd","3","698298","694980","696056","2674","247387","696067","670606","2684","100506","700311","700921","697081","25245","700310","NA","Sternberg Task","82","70051","86","yes","1024"
"95.40229885057471","95.40229885057471","813.6896551724138","813.6896551724138","black","experiment","legacy","legacy","legacy","0","uniform","1","undefined","1","left","86","86","86","0","0","86","86","0","0","86","86","86","0","86","0","Sat Oct 17 22:09:52 2020","The main experiment item","yes","SternbergTask.osexp","/Users/suzannejosey/Documents","no","mono","no","18","no","white","no","yes","768","legacy","74","11","/Users/suzannejosey/Documents/subject-1.csv","legacy","2 3 7 4","Lentiform Loewenfeld","3.3.3","1","y","0","left","right","left","left","NA","740","22546","146880","740","NA","2","legacy","4","1024","2","48000","-16","experiment","1","odd","2","704250","700934","702008","2674","247387","702020","670606","2684","100506","706262","707003","703034","25245","706262","NA","Sternberg Task","83","70791","87","yes","1024"
"95.45454545454545","95.45454545454545","809.5568181818181","809.5568181818181","black","experiment","legacy","legacy","legacy","0","uniform","1","undefined","1","left","87","87","87","0","0","87","87","0","0","87","87","87","0","87","0","Sat Oct 17 22:09:52 2020","The main experiment item","yes","SternbergTask.osexp","/Users/suzannejosey/Documents","no","mono","no","18","no","white","no","yes","768","legacy","75","11","/Users/suzannejosey/Documents/subject-1.csv","legacy","3 5 4 7","Lentiform Loewenfeld","3.3.3","1","y","0","left","right","left","left","NA","450","22546","146880","450","NA","2","legacy","4","1024","2","48000","-16","experiment","1","odd","3","710333","707015","708091","2674","247387","708102","670606","2684","100506","712345","712796","709116","25245","712345","NA","Sternberg Task","84","71241","88","yes","1024"
"95.50561797752809","95.50561797752809","809.4157303370787","809.4157303370787","black","experiment","legacy","legacy","legacy","0","uniform","1","undefined","1","right","88","88","88","0","0","88","88","0","0","88","88","88","0","88","0","Sat Oct 17 22:09:52 2020","The main experiment item","yes","SternbergTask.osexp","/Users/suzannejosey/Documents","no","mono","no","18","no","white","no","yes","768","legacy","76","11","/Users/suzannejosey/Documents/subject-1.csv","legacy","7 1 5 6 3","Lentiform Loewenfeld","3.3.3","0","n","0","right","right","left","right","NA","797","22546","146880","797","NA","2","legacy","5","1024","2","48000","-16","experiment","1","odd","8","716124","712810","713883","2674","247387","713895","670606","2684","100506","718136","718934","714909","25245","718136","NA","Sternberg Task","85","72038","89","yes","1024"
"95.55555555555556","95.55555555555556","808.7444444444444","808.7444444444444","black","experiment","legacy","legacy","legacy","0","uniform","1","undefined","1","left","89","89","89","0","0","89","89","0","0","89","89","89","0","89","0","Sat Oct 17 22:09:52 2020","The main experiment item","yes","SternbergTask.osexp","/Users/suzannejosey/Documents","no","mono","no","18","no","white","no","yes","768","legacy","77","11","/Users/suzannejosey/Documents/subject-1.csv","legacy","2 3","Lentiform Loewenfeld","3.3.3","1","y","0","left","right","left","left","NA","749","22546","146880","749","NA","2","legacy","2","1024","2","48000","-16","experiment","1","odd","2","722261","718946","720020","2674","247387","720031","670606","2684","100506","724274","725024","721045","25245","724274","NA","Sternberg Task","86","72787","90","yes","1024"
"95.6043956043956","95.6043956043956","805.7252747252747","805.7252747252747","black","experiment","legacy","legacy","legacy","0","uniform","1","undefined","1","left","90","90","90","0","0","90","90","0","0","90","90","90","0","90","0","Sat Oct 17 22:09:52 2020","The main experiment item","yes","SternbergTask.osexp","/Users/suzannejosey/Documents","no","mono","no","18","no","white","no","yes","768","legacy","78","11","/Users/suzannejosey/Documents/subject-1.csv","legacy","4 1 5","Lentiform Loewenfeld","3.3.3","2","y","0","left","right","left","left","NA","534","22546","146880","534","NA","2","legacy","3","1024","2","48000","-16","experiment","1","odd","1","728353","725036","726111","2674","247387","726123","670606","2684","100506","730365","730900","727136","25245","730365","NA","Sternberg Task","87","73321","91","yes","1024"
"95.65217391304348","95.65217391304348","804.0978260869565","804.0978260869565","black","experiment","legacy","legacy","legacy","0","uniform","1","undefined","1","right","91","91","91","0","0","91","91","0","0","91","91","91","0","91","0","Sat Oct 17 22:09:52 2020","The main experiment item","yes","SternbergTask.osexp","/Users/suzannejosey/Documents","no","mono","no","18","no","white","no","yes","768","legacy","79","11","/Users/suzannejosey/Documents/subject-1.csv","legacy","5 9 2 3","Lentiform Loewenfeld","3.3.3","0","n","0","right","right","left","right","NA","656","22546","146880","656","NA","2","legacy","4","1024","2","48000","-16","experiment","1","odd","8","734228","730913","731987","2674","247387","731999","670606","2684","100506","736241","736898","733012","25245","736241","NA","Sternberg Task","88","73977","92","yes","1024"
"95.6989247311828","95.6989247311828","802","802","black","experiment","legacy","legacy","legacy","0","uniform","1","undefined","1","left","92","92","92","0","0","92","92","0","0","92","92","92","0","92","0","Sat Oct 17 22:09:52 2020","The main experiment item","yes","SternbergTask.osexp","/Users/suzannejosey/Documents","no","mono","no","18","no","white","no","yes","768","legacy","80","11","/Users/suzannejosey/Documents/subject-1.csv","legacy","3 9 7 6 4","Lentiform Loewenfeld","3.3.3","3","y","0","left","right","left","left","NA","609","22546","146880","609","NA","2","legacy","5","1024","2","48000","-16","experiment","1","odd","7","740227","736911","737987","2674","247387","737998","670606","2684","100506","742240","742850","739011","25245","742239","NA","Sternberg Task","89","74586","93","yes","1024"
"95.74468085106383","95.74468085106383","801.3510638297872","801.3510638297872","black","experiment","legacy","legacy","legacy","0","uniform","1","undefined","1","right","93","93","93","0","0","93","93","0","0","93","93","93","0","93","0","Sat Oct 17 22:09:52 2020","The main experiment item","yes","SternbergTask.osexp","/Users/suzannejosey/Documents","no","mono","no","18","no","white","no","yes","768","legacy","81","11","/Users/suzannejosey/Documents/subject-1.csv","legacy","7 4 2 8 1 9","Lentiform Loewenfeld","3.3.3","0","n","0","right","right","left","right","NA","741","22546","146880","741","NA","2","legacy","6","1024","2","48000","-16","experiment","1","odd","5","746183","742864","743941","2674","247387","743953","670606","2684","100506","748196","748938","744968","25245","748195","NA","Sternberg Task","90","75327","94","yes","1024"
"95.78947368421052","95.78947368421052","799.4631578947368","799.4631578947368","black","experiment","legacy","legacy","legacy","0","uniform","1","undefined","1","right","94","94","94","0","0","94","94","0","0","94","94","94","0","94","0","Sat Oct 17 22:09:52 2020","The main experiment item","yes","SternbergTask.osexp","/Users/suzannejosey/Documents","no","mono","no","18","no","white","no","yes","768","legacy","82","11","/Users/suzannejosey/Documents/subject-1.csv","legacy","2 8 6 3 1","Lentiform Loewenfeld","3.3.3","0","n","0","right","right","left","right","NA","622","22546","146880","622","NA","2","legacy","5","1024","2","48000","-16","experiment","1","odd","7","752263","748949","750022","2674","247387","750033","670606","2684","100506","754276","754899","751047","25245","754276","NA","Sternberg Task","91","75949","95","yes","1024"
"95.83333333333333","95.83333333333333","800.5","800.5","black","experiment","legacy","legacy","legacy","0","uniform","1","undefined","1","right","95","95","95","0","0","95","95","0","0","95","95","95","0","95","0","Sat Oct 17 22:09:52 2020","The main experiment item","yes","SternbergTask.osexp","/Users/suzannejosey/Documents","no","mono","no","18","no","white","no","yes","768","legacy","83","11","/Users/suzannejosey/Documents/subject-1.csv","legacy","1","Lentiform Loewenfeld","3.3.3","0","n","0","right","right","left","right","NA","899","22546","146880","899","NA","2","legacy","1","1024","2","48000","-16","experiment","1","odd","7","758227","754912","755986","2674","247387","755997","670606","2684","100506","760240","761140","757010","25245","760240","NA","Sternberg Task","92","76848","96","yes","1024"
"95.87628865979381","95.87628865979381","799.5257731958762","799.5257731958762","black","experiment","legacy","legacy","legacy","0","uniform","1","undefined","1","left","96","96","96","0","0","96","96","0","0","96","96","96","0","96","0","Sat Oct 17 22:09:52 2020","The main experiment item","yes","SternbergTask.osexp","/Users/suzannejosey/Documents","no","mono","no","18","no","white","no","yes","768","legacy","84","11","/Users/suzannejosey/Documents/subject-1.csv","legacy","9 3 1 2 5","Lentiform Loewenfeld","3.3.3","4","y","0","left","right","left","left","NA","706","22546","146880","706","NA","2","legacy","5","1024","2","48000","-16","experiment","1","odd","2","764468","761150","762225","2674","247387","762237","670606","2684","100506","766480","767187","763251","25245","766480","NA","Sternberg Task","93","77554","97","yes","1024"
"95.91836734693878","95.91836734693878","796.9591836734694","796.9591836734694","black","experiment","legacy","legacy","legacy","0","uniform","1","undefined","1","left","97","97","97","0","0","97","97","0","0","97","97","97","0","97","0","Sat Oct 17 22:09:52 2020","The main experiment item","yes","SternbergTask.osexp","/Users/suzannejosey/Documents","no","mono","no","18","no","white","no","yes","768","legacy","85","11","/Users/suzannejosey/Documents/subject-1.csv","legacy","9 4 2","Lentiform Loewenfeld","3.3.3","1","y","0","left","right","left","left","NA","548","22546","146880","548","NA","2","legacy","3","1024","2","48000","-16","experiment","1","odd","9","770516","767200","768278","2674","247387","768289","670606","2684","100506","772529","773078","769304","25245","772529","NA","Sternberg Task","94","78102","98","yes","1024"
"95.95959595959596","95.95959595959596","795.7676767676768","795.7676767676768","black","experiment","legacy","legacy","legacy","0","uniform","1","undefined","1","right","98","98","98","0","0","98","98","0","0","98","98","98","0","98","0","Sat Oct 17 22:09:52 2020","The main experiment item","yes","SternbergTask.osexp","/Users/suzannejosey/Documents","no","mono","no","18","no","white","no","yes","768","legacy","86","11","/Users/suzannejosey/Documents/subject-1.csv","legacy","2 5 1 4","Lentiform Loewenfeld","3.3.3","0","n","0","right","right","left","right","NA","679","22546","146880","679","NA","2","legacy","4","1024","2","48000","-16","experiment","1","odd","6","776409","773091","774166","2674","247387","774178","670606","2684","100506","778422","779102","775191","25245","778422","NA","Sternberg Task","95","78781","99","yes","1024"
"96","96","795.04","795.04","black","experiment","legacy","legacy","legacy","0","uniform","1","undefined","1","right","99","99","99","0","0","99","99","0","0","99","99","99","0","99","0","Sat Oct 17 22:09:52 2020","The main experiment item","yes","SternbergTask.osexp","/Users/suzannejosey/Documents","no","mono","no","18","no","white","no","yes","768","legacy","87","11","/Users/suzannejosey/Documents/subject-1.csv","legacy","6 9 4 5 2","Lentiform Loewenfeld","3.3.3","0","n","0","right","right","left","right","NA","723","22546","146880","723","NA","2","legacy","5","1024","2","48000","-16","experiment","1","odd","1","782429","779115","780187","2674","247387","780198","670606","2684","100506","784442","785166","781212","25245","784442","NA","Sternberg Task","96","79504","100","yes","1024"
"96.03960396039604","96.03960396039604","793.4950495049505","793.4950495049505","black","experiment","legacy","legacy","legacy","0","uniform","1","undefined","1","right","100","100","100","0","0","100","100","0","0","100","100","100","0","100","0","Sat Oct 17 22:09:52 2020","The main experiment item","yes","SternbergTask.osexp","/Users/suzannejosey/Documents","no","mono","no","18","no","white","no","yes","768","legacy","88","11","/Users/suzannejosey/Documents/subject-1.csv","legacy","8 4 3 9","Lentiform Loewenfeld","3.3.3","0","n","0","right","right","left","right","NA","639","22546","146880","639","NA","2","legacy","4","1024","2","48000","-16","experiment","1","odd","5","788501","785179","786256","2674","247387","786270","670606","2684","100506","790513","791154","787284","25245","790513","NA","Sternberg Task","97","80143","101","yes","1024"
"96.07843137254902","96.07843137254902","790.843137254902","790.843137254902","black","experiment","legacy","legacy","legacy","0","uniform","1","undefined","1","left","101","101","101","0","0","101","101","0","0","101","101","101","0","101","0","Sat Oct 17 22:09:52 2020","The main experiment item","yes","SternbergTask.osexp","/Users/suzannejosey/Documents","no","mono","no","18","no","white","no","yes","768","legacy","89","11","/Users/suzannejosey/Documents/subject-1.csv","legacy","4","Lentiform Loewenfeld","3.3.3","1","y","0","left","right","left","left","NA","523","22546","146880","523","NA","2","legacy","1","1024","2","48000","-16","experiment","1","odd","4","794487","791167","792244","2674","247387","792256","670606","2684","100506","796500","797024","793270","25245","796500","NA","Sternberg Task","98","80666","102","yes","1024"
"96.11650485436893","96.11650485436893","788.9708737864078","788.9708737864078","black","experiment","legacy","legacy","legacy","0","uniform","1","undefined","1","right","102","102","102","0","0","102","102","0","0","102","102","102","0","102","0","Sat Oct 17 22:09:52 2020","The main experiment item","yes","SternbergTask.osexp","/Users/suzannejosey/Documents","no","mono","no","18","no","white","no","yes","768","legacy","90","11","/Users/suzannejosey/Documents/subject-1.csv","legacy","3 9 8 1 6 4","Lentiform Loewenfeld","3.3.3","0","n","0","right","right","left","right","NA","598","22546","146880","598","NA","2","legacy","6","1024","2","48000","-16","experiment","1","odd","7","800352","797037","798110","2674","247387","798121","670606","2684","100506","802364","802963","799135","25245","802364","NA","Sternberg Task","99","81264","103","yes","1024"
"96.15384615384616","96.15384615384616","790.375","790.375","black","experiment","legacy","legacy","legacy","0","uniform","1","undefined","1","right","103","103","103","0","0","103","103","0","0","103","103","103","0","103","0","Sat Oct 17 22:09:52 2020","The main experiment item","yes","SternbergTask.osexp","/Users/suzannejosey/Documents","no","mono","no","18","no","white","no","yes","768","legacy","91","11","/Users/suzannejosey/Documents/subject-1.csv","legacy","4 8 1 2","Lentiform Loewenfeld","3.3.3","0","n","0","right","right","left","right","NA","935","22546","146880","935","NA","2","legacy","4","1024","2","48000","-16","experiment","1","odd","7","806293","802975","804052","2674","247387","804064","670606","2684","100506","808306","809242","805077","25245","808306","NA","Sternberg Task","100","82199","104","yes","1024"
"96.19047619047619","96.19047619047619","790.1619047619048","790.1619047619048","black","experiment","legacy","legacy","legacy","0","uniform","1","undefined","1","left","104","104","104","0","0","104","104","0","0","104","104","104","0","104","0","Sat Oct 17 22:09:52 2020","The main experiment item","yes","SternbergTask.osexp","/Users/suzannejosey/Documents","no","mono","no","18","no","white","no","yes","768","legacy","92","11","/Users/suzannejosey/Documents/subject-1.csv","legacy","6 9 7 4 5 1","Lentiform Loewenfeld","3.3.3","2","y","0","left","right","left","left","NA","768","22546","146880","768","NA","2","legacy","6","1024","2","48000","-16","experiment","1","odd","9","812572","809255","810331","2674","247387","810342","670606","2684","100506","814585","815354","811356","25245","814584","NA","Sternberg Task","101","82967","105","yes","1024"
"96.22641509433963","96.22641509433963","787.7547169811321","787.7547169811321","black","experiment","legacy","legacy","legacy","0","uniform","1","undefined","1","right","105","105","105","0","0","105","105","0","0","105","105","105","0","105","0","Sat Oct 17 22:09:52 2020","The main experiment item","yes","SternbergTask.osexp","/Users/suzannejosey/Documents","no","mono","no","18","no","white","no","yes","768","legacy","93","11","/Users/suzannejosey/Documents/subject-1.csv","legacy","9 5 3 2 8 6","Lentiform Loewenfeld","3.3.3","0","n","0","right","right","left","right","NA","535","22546","146880","535","NA","2","legacy","6","1024","2","48000","-16","experiment","1","odd","7","818682","815367","816441","2674","247387","816453","670606","2684","100506","820696","821232","817466","25245","820696","NA","Sternberg Task","102","83502","106","yes","1024"
"96.26168224299066","96.26168224299066","787.2429906542056","787.2429906542056","black","experiment","legacy","legacy","legacy","0","uniform","1","undefined","1","right","106","106","106","0","0","106","106","0","0","106","106","106","0","106","0","Sat Oct 17 22:09:52 2020","The main experiment item","yes","SternbergTask.osexp","/Users/suzannejosey/Documents","no","mono","no","18","no","white","no","yes","768","legacy","94","11","/Users/suzannejosey/Documents/subject-1.csv","legacy","1 4 9 3","Lentiform Loewenfeld","3.3.3","0","n","0","right","right","left","right","NA","733","22546","146880","733","NA","2","legacy","4","1024","2","48000","-16","experiment","1","odd","5","824564","821245","822322","2674","247387","822334","670606","2684","100506","826576","827310","823348","25245","826576","NA","Sternberg Task","103","84235","107","yes","1024"
"96.29629629629629","96.29629629629629","785.4351851851852","785.4351851851852","black","experiment","legacy","legacy","legacy","0","uniform","1","undefined","1","right","107","107","107","0","0","107","107","0","0","107","107","107","0","107","0","Sat Oct 17 22:09:52 2020","The main experiment item","yes","SternbergTask.osexp","/Users/suzannejosey/Documents","no","mono","no","18","no","white","no","yes","768","legacy","95","11","/Users/suzannejosey/Documents/subject-1.csv","legacy","5 3 8 7 2 4","Lentiform Loewenfeld","3.3.3","0","n","0","right","right","left","right","NA","592","22546","146880","592","NA","2","legacy","6","1024","2","48000","-16","experiment","1","odd","9","830641","827325","828399","2674","247387","828411","670606","2684","100506","832655","833249","829425","25245","832654","NA","Sternberg Task","104","84827","108","yes","1024"
"96.3302752293578","96.3302752293578","785.8256880733945","785.8256880733945","black","experiment","legacy","legacy","legacy","0","uniform","1","undefined","1","left","108","108","108","0","0","108","108","0","0","108","108","108","0","108","0","Sat Oct 17 22:09:52 2020","The main experiment item","yes","SternbergTask.osexp","/Users/suzannejosey/Documents","no","mono","no","18","no","white","no","yes","768","legacy","96","11","/Users/suzannejosey/Documents/subject-1.csv","legacy","9 1 6 7 8","Lentiform Loewenfeld","3.3.3","1","y","0","left","right","left","left","NA","828","22546","146880","828","NA","2","legacy","5","1024","2","48000","-16","experiment","1","odd","9","836578","833260","834336","2674","247387","834348","670606","2684","100506","838590","839419","835362","25245","838589","NA","Sternberg Task","105","85655","109","yes","1024"
"96.36363636363636","96.36363636363636","785.709090909091","785.709090909091","black","experiment","legacy","legacy","legacy","0","uniform","1","undefined","1","right","109","109","109","0","0","109","109","0","0","109","109","109","0","109","0","Sat Oct 17 22:09:52 2020","The main experiment item","yes","SternbergTask.osexp","/Users/suzannejosey/Documents","no","mono","no","18","no","white","no","yes","768","legacy","97","11","/Users/suzannejosey/Documents/subject-1.csv","legacy","2 8 9","Lentiform Loewenfeld","3.3.3","0","n","0","right","right","left","right","NA","773","22546","146880","773","NA","2","legacy","3","1024","2","48000","-16","experiment","1","odd","6","842745","839430","840504","2674","247387","840515","670606","2684","100506","844758","845532","841529","25245","844757","NA","Sternberg Task","106","86428","110","yes","1024"
"96.3963963963964","96.3963963963964","783.936936936937","783.936936936937","black","experiment","legacy","legacy","legacy","0","uniform","1","undefined","1","right","110","110","110","0","0","110","110","0","0","110","110","110","0","110","0","Sat Oct 17 22:09:52 2020","The main experiment item","yes","SternbergTask.osexp","/Users/suzannejosey/Documents","no","mono","no","18","no","white","no","yes","768","legacy","98","11","/Users/suzannejosey/Documents/subject-1.csv","legacy","9 7 4 5 8","Lentiform Loewenfeld","3.3.3","0","n","0","right","right","left","right","NA","589","22546","146880","589","NA","2","legacy","5","1024","2","48000","-16","experiment","1","odd","6","848862","845545","846620","2674","247387","846631","670606","2684","100506","850874","851464","847646","25245","850874","NA","Sternberg Task","107","87017","111","yes","1024"
"96.42857142857143","96.42857142857143","782.7767857142857","782.7767857142857","black","experiment","legacy","legacy","legacy","0","uniform","1","undefined","1","right","111","111","111","0","0","111","111","0","0","111","111","111","0","111","0","Sat Oct 17 22:09:52 2020","The main experiment item","yes","SternbergTask.osexp","/Users/suzannejosey/Documents","no","mono","no","18","no","white","no","yes","768","legacy","99","11","/Users/suzannejosey/Documents/subject-1.csv","legacy","8 2 1 4 5 9","Lentiform Loewenfeld","3.3.3","0","n","0","right","right","left","right","NA","654","22546","146880","654","NA","2","legacy","6","1024","2","48000","-16","experiment","1","odd","7","854794","851478","852552","2674","247387","852564","670606","2684","100506","856807","857462","853578","25245","856807","NA","Sternberg Task","108","87671","112","yes","1024"
"96.46017699115045","96.46017699115045","782.0353982300885","782.0353982300885","black","experiment","legacy","legacy","legacy","0","uniform","1","undefined","1","left","112","112","112","0","0","112","112","0","0","112","112","112","0","112","0","Sat Oct 17 22:09:52 2020","The main experiment item","yes","SternbergTask.osexp","/Users/suzannejosey/Documents","no","mono","no","18","no","white","no","yes","768","legacy","100","11","/Users/suzannejosey/Documents/subject-1.csv","legacy","5 7 3 6 2","Lentiform Loewenfeld","3.3.3","5","y","0","left","right","left","left","NA","699","22546","146880","699","NA","2","legacy","5","1024","2","48000","-16","experiment","1","odd","2","860792","857476","858550","2674","247387","858561","670606","2684","100506","862804","863505","859576","25245","862804","NA","Sternberg Task","109","88370","113","yes","1024"
"96.49122807017544","96.49122807017544","781.1228070175439","781.1228070175439","black","experiment","legacy","legacy","legacy","0","uniform","1","undefined","1","right","113","113","113","0","0","113","113","0","0","113","113","113","0","113","0","Sat Oct 17 22:09:52 2020","The main experiment item","yes","SternbergTask.osexp","/Users/suzannejosey/Documents","no","mono","no","18","no","white","no","yes","768","legacy","101","11","/Users/suzannejosey/Documents/subject-1.csv","legacy","1 6 4 3 9 7","Lentiform Loewenfeld","3.3.3","0","n","0","right","right","left","right","NA","678","22546","146880","678","NA","2","legacy","6","1024","2","48000","-16","experiment","1","odd","8","866838","863518","864596","2674","247387","864608","670606","2684","100506","868851","869531","865622","25245","868851","NA","Sternberg Task","110","89048","114","yes","1024"
"96.52173913043478","96.52173913043478","780.0956521739131","780.0956521739131","black","experiment","legacy","legacy","legacy","0","uniform","1","undefined","1","left","114","114","114","0","0","114","114","0","0","114","114","114","0","114","0","Sat Oct 17 22:09:52 2020","The main experiment item","yes","SternbergTask.osexp","/Users/suzannejosey/Documents","no","mono","no","18","no","white","no","yes","768","legacy","102","11","/Users/suzannejosey/Documents/subject-1.csv","legacy","8 9 5 7 1 6","Lentiform Loewenfeld","3.3.3","4","y","0","left","right","left","left","NA","663","22546","146880","663","NA","2","legacy","6","1024","2","48000","-16","experiment","1","odd","7","872864","869544","870623","2674","247387","870635","670606","2684","100506","874876","875541","871649","25245","874876","NA","Sternberg Task","111","89711","115","yes","1024"
"96.55172413793103","96.55172413793103","779.198275862069","779.198275862069","black","experiment","legacy","legacy","legacy","0","uniform","1","undefined","1","right","115","115","115","0","0","115","115","0","0","115","115","115","0","115","0","Sat Oct 17 22:09:52 2020","The main experiment item","yes","SternbergTask.osexp","/Users/suzannejosey/Documents","no","mono","no","18","no","white","no","yes","768","legacy","103","11","/Users/suzannejosey/Documents/subject-1.csv","legacy","6 9 5","Lentiform Loewenfeld","3.3.3","0","n","0","right","right","left","right","NA","676","22546","146880","676","NA","2","legacy","3","1024","2","48000","-16","experiment","1","odd","8","878871","875554","876629","2674","247387","876641","670606","2684","100506","880884","881561","877655","25245","880884","NA","Sternberg Task","112","90387","116","yes","1024"
"95.72649572649573","95.72649572649573","778.1452991452992","778.1452991452992","black","experiment","legacy","legacy","legacy","0","uniform","0","undefined","0","left","116","116","116","0","0","116","116","0","0","116","116","116","0","116","0","Sat Oct 17 22:09:52 2020","The main experiment item","yes","SternbergTask.osexp","/Users/suzannejosey/Documents","no","mono","no","18","no","white","no","yes","768","legacy","104","11","/Users/suzannejosey/Documents/subject-1.csv","legacy","7 6","Lentiform Loewenfeld","3.3.3","2","y","0","right","right","left","right","NA","656","22546","146880","656","NA","2","legacy","2","1024","2","48000","-16","experiment","1","odd","6","884889","881572","882647","2674","247387","882659","670606","2684","100506","886901","887558","883673","25245","886901","NA","Sternberg Task","112","91043","117","yes","1024"
"95.76271186440678","95.76271186440678","784.3983050847457","784.3983050847457","black","experiment","legacy","legacy","legacy","0","uniform","1","undefined","1","right","117","117","117","0","0","117","117","0","0","117","117","117","0","117","0","Sat Oct 17 22:09:52 2020","The main experiment item","yes","SternbergTask.osexp","/Users/suzannejosey/Documents","no","mono","no","18","no","white","no","yes","768","legacy","105","11","/Users/suzannejosey/Documents/subject-1.csv","legacy","7 1 8 4 9 3","Lentiform Loewenfeld","3.3.3","0","n","0","right","right","left","right","NA","1516","22546","146880","1516","NA","2","legacy","6","1024","2","48000","-16","experiment","1","odd","6","890884","881572","888646","2674","247387","888657","887571","2684","100506","892896","894413","889671","25245","892896","NA","Sternberg Task","113","92559","118","yes","1024"
