acc,accuracy,average_response_time,avg_rt,background,block,canvas_backend,clock_backend,color_backend,compensation,coordinates,correct,correct_Instructions1,correct_KeyboardResponse,correct_response,count_CorrectFeedback,count_ExpSequence,count_ExperimentLoop,count_Fixation,count_ISI,count_IncorrectFeedback,count_Instructions1,count_Instructions2,count_KeyboardResponse,count_Logger,count_MemorySet,count_PracticeLoop,count_Probe,count_ThankYou,count_experiment,datetime,description,disable_garbage_collection,experiment_file,experiment_path,font_bold,font_family,font_italic,font_size,font_underline,foreground,form_clicks,fullscreen,height,keyboard_backend,live_row,live_row_PracticeLoop,logfile,mouse_backend,numberSet,opensesame_codename,opensesame_version,posInSet,present,repeat_cycle,response,response_Instructions1,response_Instructions2,response_KeyboardResponse,response_ThankYou,response_time,response_time_Instructions1,response_time_Instructions2,response_time_KeyboardResponse,response_time_ThankYou,round_decimals,sampler_backend,setSize,sound_buf_size,sound_channels,sound_freq,sound_sample_size,start,subject_nr,subject_parity,target,time_CorrectFeedback,time_ExpSequence,time_ExperimentLoop,time_Fixation,time_ISI,time_IncorrectFeedback,time_Instructions1,time_Instructions2,time_KeyboardResponse,time_Logger,time_MemorySet,time_PracticeLoop,time_Probe,time_ThankYou,time_experiment,title,total_correct,total_response_time,total_responses,uniform_coordinates,width
100,100,1121,1121,black,practice,legacy,legacy,legacy,0,uniform,1,undefined,1,right,0,0,0,0,0,0,0,0,0,0,0,0,0,0,0,Sat Oct 24 23:10:51 2020,The main experiment item,yes,SternbergTask.osexp,C:\Users\katri\OneDrive\Documents\Fall 2020\Sternberg Memory Task,no,mono,no,18,no,white,no,yes,768,legacy,0,0,C:/Users/katri/OneDrive/Documents/Fall 2020/Sternberg Memory Task/subject-2.csv,legacy,5 7 8 4 1 2,Lentiform Loewenfeld,3.3.3,0,n,0,right,right,NA,right,NA,1121,44112,NA,1121,NA,2,legacy,6,1024,2,48000,-16,experiment,2,even,6,NA,47870,NA,47872,50078,NA,3246,NA,52081,53202,48874,47359,52081,NA,3238,Sternberg Task,1,1121,1,yes,1024
100,100,1235.5,1235.5,black,practice,legacy,legacy,legacy,0,uniform,1,undefined,1,right,1,1,0,1,1,1,0,0,1,1,1,0,1,0,0,Sat Oct 24 23:10:51 2020,The main experiment item,yes,SternbergTask.osexp,C:\Users\katri\OneDrive\Documents\Fall 2020\Sternberg Memory Task,no,mono,no,18,no,white,no,yes,768,legacy,1,1,C:/Users/katri/OneDrive/Documents/Fall 2020/Sternberg Memory Task/subject-2.csv,legacy,4 1 5,Lentiform Loewenfeld,3.3.3,0,n,0,right,right,NA,right,NA,1350,44112,NA,1350,NA,2,legacy,3,1024,2,48000,-16,experiment,2,even,2,53257,54353,NA,54354,56561,NA,3246,NA,58566,59916,55356,47359,58565,NA,3238,Sternberg Task,2,2471,2,yes,1024
100,100,1415.666667,1415.666667,black,practice,legacy,legacy,legacy,0,uniform,1,undefined,1,left,2,2,0,2,2,2,0,0,2,2,2,0,2,0,0,Sat Oct 24 23:10:51 2020,The main experiment item,yes,SternbergTask.osexp,C:\Users\katri\OneDrive\Documents\Fall 2020\Sternberg Memory Task,no,mono,no,18,no,white,no,yes,768,legacy,2,2,C:/Users/katri/OneDrive/Documents/Fall 2020/Sternberg Memory Task/subject-2.csv,legacy,1 7 9 8 5,Lentiform Loewenfeld,3.3.3,4,y,0,left,right,NA,left,NA,1776,44112,NA,1776,NA,2,legacy,5,1024,2,48000,-16,experiment,2,even,8,59925,61034,NA,61036,63245,NA,3246,NA,65247,67023,62040,47359,65247,NA,3238,Sternberg Task,3,4247,3,yes,1024
100,100,1268.75,1268.75,black,practice,legacy,legacy,legacy,0,uniform,1,undefined,1,right,3,3,0,3,3,3,0,0,3,3,3,0,3,0,0,Sat Oct 24 23:10:51 2020,The main experiment item,yes,SternbergTask.osexp,C:\Users\katri\OneDrive\Documents\Fall 2020\Sternberg Memory Task,no,mono,no,18,no,white,no,yes,768,legacy,3,3,C:/Users/katri/OneDrive/Documents/Fall 2020/Sternberg Memory Task/subject-2.csv,legacy,2 1,Lentiform Loewenfeld,3.3.3,0,n,0,right,right,NA,right,NA,828,44112,NA,828,NA,2,legacy,2,1024,2,48000,-16,experiment,2,even,5,67050,68144,NA,68146,70351,NA,3246,NA,72355,73183,69148,47359,72355,NA,3238,Sternberg Task,4,5075,4,yes,1024
100,100,1365.8,1365.8,black,practice,legacy,legacy,legacy,0,uniform,1,undefined,1,left,4,4,0,4,4,4,0,0,4,4,4,0,4,0,0,Sat Oct 24 23:10:51 2020,The main experiment item,yes,SternbergTask.osexp,C:\Users\katri\OneDrive\Documents\Fall 2020\Sternberg Memory Task,no,mono,no,18,no,white,no,yes,768,legacy,4,4,C:/Users/katri/OneDrive/Documents/Fall 2020/Sternberg Memory Task/subject-2.csv,legacy,1 5 2 9,Lentiform Loewenfeld,3.3.3,2,y,0,left,right,NA,left,NA,1754,44112,NA,1754,NA,2,legacy,4,1024,2,48000,-16,experiment,2,even,5,73192,74298,NA,74300,76508,NA,3246,NA,78511,80265,75304,47359,78511,NA,3238,Sternberg Task,5,6829,5,yes,1024
100,100,1281.5,1281.5,black,practice,legacy,legacy,legacy,0,uniform,1,undefined,1,left,5,5,0,5,5,5,0,0,5,5,5,0,5,0,0,Sat Oct 24 23:10:51 2020,The main experiment item,yes,SternbergTask.osexp,C:\Users\katri\OneDrive\Documents\Fall 2020\Sternberg Memory Task,no,mono,no,18,no,white,no,yes,768,legacy,5,5,C:/Users/katri/OneDrive/Documents/Fall 2020/Sternberg Memory Task/subject-2.csv,legacy,4 8,Lentiform Loewenfeld,3.3.3,1,y,0,left,right,NA,left,NA,860,44112,NA,860,NA,2,legacy,2,1024,2,48000,-16,experiment,2,even,4,80273,81350,NA,81352,83558,NA,3246,NA,85561,86421,82354,47359,85561,NA,3238,Sternberg Task,6,7689,6,yes,1024
100,100,1261.428571,1261.428571,black,practice,legacy,legacy,legacy,0,uniform,1,undefined,1,left,6,6,0,6,6,6,0,0,6,6,6,0,6,0,0,Sat Oct 24 23:10:51 2020,The main experiment item,yes,SternbergTask.osexp,C:\Users\katri\OneDrive\Documents\Fall 2020\Sternberg Memory Task,no,mono,no,18,no,white,no,yes,768,legacy,6,6,C:/Users/katri/OneDrive/Documents/Fall 2020/Sternberg Memory Task/subject-2.csv,legacy,4 3 1 7 9 8,Lentiform Loewenfeld,3.3.3,1,y,0,left,right,NA,left,NA,1141,44112,NA,1141,NA,2,legacy,6,1024,2,48000,-16,experiment,2,even,4,86449,87542,NA,87544,89752,NA,3246,NA,91754,92896,88548,47359,91754,NA,3238,Sternberg Task,7,8830,7,yes,1024
100,100,1202.25,1202.25,black,practice,legacy,legacy,legacy,0,uniform,1,undefined,1,right,7,7,0,7,7,7,0,0,7,7,7,0,7,0,0,Sat Oct 24 23:10:51 2020,The main experiment item,yes,SternbergTask.osexp,C:\Users\katri\OneDrive\Documents\Fall 2020\Sternberg Memory Task,no,mono,no,18,no,white,no,yes,768,legacy,7,7,C:/Users/katri/OneDrive/Documents/Fall 2020/Sternberg Memory Task/subject-2.csv,legacy,9 6 7 4 5,Lentiform Loewenfeld,3.3.3,0,n,0,right,right,NA,right,NA,788,44112,NA,788,NA,2,legacy,5,1024,2,48000,-16,experiment,2,even,3,92923,94012,NA,94013,96222,NA,3246,NA,98224,99012,95017,47359,98224,NA,3238,Sternberg Task,8,9618,8,yes,1024
100,100,1156.333333,1156.333333,black,practice,legacy,legacy,legacy,0,uniform,1,undefined,1,right,8,8,0,8,8,8,0,0,8,8,8,0,8,0,0,Sat Oct 24 23:10:51 2020,The main experiment item,yes,SternbergTask.osexp,C:\Users\katri\OneDrive\Documents\Fall 2020\Sternberg Memory Task,no,mono,no,18,no,white,no,yes,768,legacy,8,8,C:/Users/katri/OneDrive/Documents/Fall 2020/Sternberg Memory Task/subject-2.csv,legacy,5,Lentiform Loewenfeld,3.3.3,0,n,0,right,right,NA,right,NA,789,44112,NA,789,NA,2,legacy,1,1024,2,48000,-16,experiment,2,even,3,99020,100128,NA,100129,102333,NA,3246,NA,104336,105125,101130,47359,104336,NA,3238,Sternberg Task,9,10407,9,yes,1024
100,100,1150.8,1150.8,black,practice,legacy,legacy,legacy,0,uniform,1,undefined,1,right,9,9,0,9,9,9,0,0,9,9,9,0,9,0,0,Sat Oct 24 23:10:51 2020,The main experiment item,yes,SternbergTask.osexp,C:\Users\katri\OneDrive\Documents\Fall 2020\Sternberg Memory Task,no,mono,no,18,no,white,no,yes,768,legacy,9,9,C:/Users/katri/OneDrive/Documents/Fall 2020/Sternberg Memory Task/subject-2.csv,legacy,3 1 9 4,Lentiform Loewenfeld,3.3.3,0,n,0,right,right,NA,right,NA,1101,44112,NA,1101,NA,2,legacy,4,1024,2,48000,-16,experiment,2,even,6,105151,106262,NA,106264,108470,NA,3246,NA,110475,111576,107266,47359,110474,NA,3238,Sternberg Task,10,11508,10,yes,1024
100,100,1121.909091,1121.909091,black,practice,legacy,legacy,legacy,0,uniform,1,undefined,1,left,10,10,0,10,10,10,0,0,10,10,10,0,10,0,0,Sat Oct 24 23:10:51 2020,The main experiment item,yes,SternbergTask.osexp,C:\Users\katri\OneDrive\Documents\Fall 2020\Sternberg Memory Task,no,mono,no,18,no,white,no,yes,768,legacy,10,10,C:/Users/katri/OneDrive/Documents/Fall 2020/Sternberg Memory Task/subject-2.csv,legacy,2 9 4,Lentiform Loewenfeld,3.3.3,3,y,0,left,right,NA,left,NA,833,44112,NA,833,NA,2,legacy,3,1024,2,48000,-16,experiment,2,even,4,111602,112716,NA,112718,114925,NA,3246,NA,116930,117764,113720,47359,116929,NA,3238,Sternberg Task,11,12341,11,yes,1024
100,100,1117.083333,1117.083333,black,practice,legacy,legacy,legacy,0,uniform,1,undefined,1,left,11,11,0,11,11,11,0,0,11,11,11,0,11,0,0,Sat Oct 24 23:10:51 2020,The main experiment item,yes,SternbergTask.osexp,C:\Users\katri\OneDrive\Documents\Fall 2020\Sternberg Memory Task,no,mono,no,18,no,white,no,yes,768,legacy,11,11,C:/Users/katri/OneDrive/Documents/Fall 2020/Sternberg Memory Task/subject-2.csv,legacy,6,Lentiform Loewenfeld,3.3.3,1,y,0,left,right,NA,left,NA,1064,44112,NA,1064,NA,2,legacy,1,1024,2,48000,-16,experiment,2,even,6,117769,118875,NA,118877,121084,NA,3246,NA,123088,124152,119879,47359,123088,NA,3238,Sternberg Task,12,13405,12,yes,1024
100,100,1103.538462,1103.538462,black,experiment,legacy,legacy,legacy,0,uniform,1,undefined,1,right,12,12,0,12,12,12,0,0,12,12,12,0,12,0,0,Sat Oct 24 23:10:51 2020,The main experiment item,yes,SternbergTask.osexp,C:\Users\katri\OneDrive\Documents\Fall 2020\Sternberg Memory Task,no,mono,no,18,no,white,no,yes,768,legacy,0,11,C:/Users/katri/OneDrive/Documents/Fall 2020/Sternberg Memory Task/subject-2.csv,legacy,4 2 6 9,Lentiform Loewenfeld,3.3.3,0,n,0,right,right,right,right,NA,941,44112,18901,941,NA,2,legacy,4,1024,2,48000,-16,experiment,2,even,7,124179,144179,144108,144181,146385,NA,3246,125207,148391,149332,145182,47359,148390,NA,3238,Sternberg Task,13,14346,13,yes,1024
100,100,1087.357143,1087.357143,black,experiment,legacy,legacy,legacy,0,uniform,1,undefined,1,left,13,13,0,13,13,13,0,0,13,13,13,0,13,0,0,Sat Oct 24 23:10:51 2020,The main experiment item,yes,SternbergTask.osexp,C:\Users\katri\OneDrive\Documents\Fall 2020\Sternberg Memory Task,no,mono,no,18,no,white,no,yes,768,legacy,1,11,C:/Users/katri/OneDrive/Documents/Fall 2020/Sternberg Memory Task/subject-2.csv,legacy,7 6,Lentiform Loewenfeld,3.3.3,2,y,0,left,right,right,left,NA,877,44112,18901,877,NA,2,legacy,2,1024,2,48000,-16,experiment,2,even,6,149340,150451,144108,150453,152663,NA,3246,125207,154668,155546,151457,47359,154668,NA,3238,Sternberg Task,14,15223,14,yes,1024
100,100,1063.466667,1063.466667,black,experiment,legacy,legacy,legacy,0,uniform,1,undefined,1,right,14,14,0,14,14,14,0,0,14,14,14,0,14,0,0,Sat Oct 24 23:10:51 2020,The main experiment item,yes,SternbergTask.osexp,C:\Users\katri\OneDrive\Documents\Fall 2020\Sternberg Memory Task,no,mono,no,18,no,white,no,yes,768,legacy,2,11,C:/Users/katri/OneDrive/Documents/Fall 2020/Sternberg Memory Task/subject-2.csv,legacy,7 9,Lentiform Loewenfeld,3.3.3,0,n,0,right,right,right,right,NA,729,44112,18901,729,NA,2,legacy,2,1024,2,48000,-16,experiment,2,even,1,155557,156647,144108,156649,158858,NA,3246,125207,160861,161590,157654,47359,160861,NA,3238,Sternberg Task,15,15952,15,yes,1024
100,100,1048.0625,1048.0625,black,experiment,legacy,legacy,legacy,0,uniform,1,undefined,1,right,15,15,0,15,15,15,0,0,15,15,15,0,15,0,0,Sat Oct 24 23:10:51 2020,The main experiment item,yes,SternbergTask.osexp,C:\Users\katri\OneDrive\Documents\Fall 2020\Sternberg Memory Task,no,mono,no,18,no,white,no,yes,768,legacy,3,11,C:/Users/katri/OneDrive/Documents/Fall 2020/Sternberg Memory Task/subject-2.csv,legacy,7 3 2 8,Lentiform Loewenfeld,3.3.3,0,n,0,right,right,right,right,NA,817,44112,18901,817,NA,2,legacy,4,1024,2,48000,-16,experiment,2,even,4,161617,162730,144108,162731,164937,NA,3246,125207,166941,167759,163733,47359,166940,NA,3238,Sternberg Task,16,16769,16,yes,1024
94.11764706,94.11764706,1047.529412,1047.529412,black,experiment,legacy,legacy,legacy,0,uniform,0,undefined,0,left,16,16,0,16,16,16,0,0,16,16,16,0,16,0,0,Sat Oct 24 23:10:51 2020,The main experiment item,yes,SternbergTask.osexp,C:\Users\katri\OneDrive\Documents\Fall 2020\Sternberg Memory Task,no,mono,no,18,no,white,no,yes,768,legacy,4,11,C:/Users/katri/OneDrive/Documents/Fall 2020/Sternberg Memory Task/subject-2.csv,legacy,8 5 1 3 9,Lentiform Loewenfeld,3.3.3,4,y,0,right,right,right,right,NA,1039,44112,18901,1039,NA,2,legacy,5,1024,2,48000,-16,experiment,2,even,3,167770,168882,144108,168883,171092,NA,3246,125207,173098,174137,169888,47359,173097,NA,3238,Sternberg Task,16,17808,17,yes,1024
88.88888889,88.88888889,1100.444444,1100.444444,black,experiment,legacy,legacy,legacy,0,uniform,0,undefined,0,right,17,17,0,17,17,17,0,0,17,17,17,0,17,0,0,Sat Oct 24 23:10:51 2020,The main experiment item,yes,SternbergTask.osexp,C:\Users\katri\OneDrive\Documents\Fall 2020\Sternberg Memory Task,no,mono,no,18,no,white,no,yes,768,legacy,5,11,C:/Users/katri/OneDrive/Documents/Fall 2020/Sternberg Memory Task/subject-2.csv,legacy,4 2 7 6 1 3,Lentiform Loewenfeld,3.3.3,0,n,0,None,right,right,None,NA,2000,44112,18901,2000,NA,2,legacy,6,1024,2,48000,-16,experiment,2,even,8,167770,175268,144108,175269,177476,174163,3246,125207,179481,181481,176271,47359,179480,NA,3238,Sternberg Task,16,19808,18,yes,1024
89.47368421,89.47368421,1089.315789,1089.315789,black,experiment,legacy,legacy,legacy,0,uniform,1,undefined,1,right,18,18,0,18,18,18,0,0,18,18,18,0,18,0,0,Sat Oct 24 23:10:51 2020,The main experiment item,yes,SternbergTask.osexp,C:\Users\katri\OneDrive\Documents\Fall 2020\Sternberg Memory Task,no,mono,no,18,no,white,no,yes,768,legacy,6,11,C:/Users/katri/OneDrive/Documents/Fall 2020/Sternberg Memory Task/subject-2.csv,legacy,6 9 7 3 8 2,Lentiform Loewenfeld,3.3.3,0,n,0,right,right,right,right,NA,889,44112,18901,889,NA,2,legacy,6,1024,2,48000,-16,experiment,2,even,5,167770,182619,144108,182621,184830,181508,3246,125207,186832,187722,183625,47359,186832,NA,3238,Sternberg Task,17,20697,19,yes,1024
90,90,1089.1,1089.1,black,experiment,legacy,legacy,legacy,0,uniform,1,undefined,1,left,19,19,0,19,19,19,0,0,19,19,19,0,19,0,0,Sat Oct 24 23:10:51 2020,The main experiment item,yes,SternbergTask.osexp,C:\Users\katri\OneDrive\Documents\Fall 2020\Sternberg Memory Task,no,mono,no,18,no,white,no,yes,768,legacy,7,11,C:/Users/katri/OneDrive/Documents/Fall 2020/Sternberg Memory Task/subject-2.csv,legacy,8 9 6 1,Lentiform Loewenfeld,3.3.3,2,y,0,left,right,right,left,NA,1085,44112,18901,1085,NA,2,legacy,4,1024,2,48000,-16,experiment,2,even,9,187731,188838,144108,188840,191048,181508,3246,125207,193053,194139,189844,47359,193052,NA,3238,Sternberg Task,18,21782,20,yes,1024
90.47619048,90.47619048,1095.761905,1095.761905,black,experiment,legacy,legacy,legacy,0,uniform,1,undefined,1,left,20,20,0,20,20,20,0,0,20,20,20,0,20,0,0,Sat Oct 24 23:10:51 2020,The main experiment item,yes,SternbergTask.osexp,C:\Users\katri\OneDrive\Documents\Fall 2020\Sternberg Memory Task,no,mono,no,18,no,white,no,yes,768,legacy,8,11,C:/Users/katri/OneDrive/Documents/Fall 2020/Sternberg Memory Task/subject-2.csv,legacy,2 6 1 7 4,Lentiform Loewenfeld,3.3.3,2,y,0,left,right,right,left,NA,1229,44112,18901,1229,NA,2,legacy,5,1024,2,48000,-16,experiment,2,even,6,194165,195274,144108,195276,197485,181508,3246,125207,199487,200716,196280,47359,199487,NA,3238,Sternberg Task,19,23011,21,yes,1024
90.90909091,90.90909091,1092.636364,1092.636364,black,experiment,legacy,legacy,legacy,0,uniform,1,undefined,1,left,21,21,0,21,21,21,0,0,21,21,21,0,21,0,0,Sat Oct 24 23:10:51 2020,The main experiment item,yes,SternbergTask.osexp,C:\Users\katri\OneDrive\Documents\Fall 2020\Sternberg Memory Task,no,mono,no,18,no,white,no,yes,768,legacy,9,11,C:/Users/katri/OneDrive/Documents/Fall 2020/Sternberg Memory Task/subject-2.csv,legacy,6 9 3 1,Lentiform Loewenfeld,3.3.3,4,y,0,left,right,right,left,NA,1027,44112,18901,1027,NA,2,legacy,4,1024,2,48000,-16,experiment,2,even,1,200741,201835,144108,201838,204045,181508,3246,125207,206047,207075,202840,47359,206047,NA,3238,Sternberg Task,20,24038,22,yes,1024
91.30434783,91.30434783,1083.391304,1083.391304,black,experiment,legacy,legacy,legacy,0,uniform,1,undefined,1,left,22,22,0,22,22,22,0,0,22,22,22,0,22,0,0,Sat Oct 24 23:10:51 2020,The main experiment item,yes,SternbergTask.osexp,C:\Users\katri\OneDrive\Documents\Fall 2020\Sternberg Memory Task,no,mono,no,18,no,white,no,yes,768,legacy,10,11,C:/Users/katri/OneDrive/Documents/Fall 2020/Sternberg Memory Task/subject-2.csv,legacy,1 4 9 3 2 5,Lentiform Loewenfeld,3.3.3,3,y,0,left,right,right,left,NA,880,44112,18901,880,NA,2,legacy,6,1024,2,48000,-16,experiment,2,even,9,207101,208192,144108,208194,210400,181508,3246,125207,212402,213282,209195,47359,212402,NA,3238,Sternberg Task,21,24918,23,yes,1024
91.66666667,91.66666667,1067.666667,1067.666667,black,experiment,legacy,legacy,legacy,0,uniform,1,undefined,1,right,23,23,0,23,23,23,0,0,23,23,23,0,23,0,0,Sat Oct 24 23:10:51 2020,The main experiment item,yes,SternbergTask.osexp,C:\Users\katri\OneDrive\Documents\Fall 2020\Sternberg Memory Task,no,mono,no,18,no,white,no,yes,768,legacy,11,11,C:/Users/katri/OneDrive/Documents/Fall 2020/Sternberg Memory Task/subject-2.csv,legacy,6 9 4 5 3 2,Lentiform Loewenfeld,3.3.3,0,n,0,right,right,right,right,NA,706,44112,18901,706,NA,2,legacy,6,1024,2,48000,-16,experiment,2,even,8,213308,214412,144108,214414,216621,181508,3246,125207,218623,219329,215416,47359,218623,NA,3238,Sternberg Task,22,25624,24,yes,1024
92,92,1048.16,1048.16,black,experiment,legacy,legacy,legacy,0,uniform,1,undefined,1,right,24,24,0,24,24,24,0,0,24,24,24,0,24,0,0,Sat Oct 24 23:10:51 2020,The main experiment item,yes,SternbergTask.osexp,C:\Users\katri\OneDrive\Documents\Fall 2020\Sternberg Memory Task,no,mono,no,18,no,white,no,yes,768,legacy,12,11,C:/Users/katri/OneDrive/Documents/Fall 2020/Sternberg Memory Task/subject-2.csv,legacy,7 1,Lentiform Loewenfeld,3.3.3,0,n,0,right,right,right,right,NA,580,44112,18901,580,NA,2,legacy,2,1024,2,48000,-16,experiment,2,even,8,219356,220465,144108,220467,222671,181508,3246,125207,224673,225253,221469,47359,224673,NA,3238,Sternberg Task,23,26204,25,yes,1024
92.30769231,92.30769231,1049.538462,1049.538462,black,experiment,legacy,legacy,legacy,0,uniform,1,undefined,1,left,25,25,0,25,25,25,0,0,25,25,25,0,25,0,0,Sat Oct 24 23:10:51 2020,The main experiment item,yes,SternbergTask.osexp,C:\Users\katri\OneDrive\Documents\Fall 2020\Sternberg Memory Task,no,mono,no,18,no,white,no,yes,768,legacy,13,11,C:/Users/katri/OneDrive/Documents/Fall 2020/Sternberg Memory Task/subject-2.csv,legacy,7 8 4 6 9 5,Lentiform Loewenfeld,3.3.3,4,y,0,left,right,right,left,NA,1084,44112,18901,1084,NA,2,legacy,6,1024,2,48000,-16,experiment,2,even,6,225262,226367,144108,226368,228577,181508,3246,125207,230579,231663,227372,47359,230579,NA,3238,Sternberg Task,24,27288,26,yes,1024
92.59259259,92.59259259,1038.555556,1038.555556,black,experiment,legacy,legacy,legacy,0,uniform,1,undefined,1,right,26,26,0,26,26,26,0,0,26,26,26,0,26,0,0,Sat Oct 24 23:10:51 2020,The main experiment item,yes,SternbergTask.osexp,C:\Users\katri\OneDrive\Documents\Fall 2020\Sternberg Memory Task,no,mono,no,18,no,white,no,yes,768,legacy,14,11,C:/Users/katri/OneDrive/Documents/Fall 2020/Sternberg Memory Task/subject-2.csv,legacy,4 1,Lentiform Loewenfeld,3.3.3,0,n,0,right,right,right,right,NA,753,44112,18901,753,NA,2,legacy,2,1024,2,48000,-16,experiment,2,even,6,231670,232765,144108,232767,234976,181508,3246,125207,236978,237731,233771,47359,236978,NA,3238,Sternberg Task,25,28041,27,yes,1024
92.85714286,92.85714286,1024.857143,1024.857143,black,experiment,legacy,legacy,legacy,0,uniform,1,undefined,1,right,27,27,0,27,27,27,0,0,27,27,27,0,27,0,0,Sat Oct 24 23:10:51 2020,The main experiment item,yes,SternbergTask.osexp,C:\Users\katri\OneDrive\Documents\Fall 2020\Sternberg Memory Task,no,mono,no,18,no,white,no,yes,768,legacy,15,11,C:/Users/katri/OneDrive/Documents/Fall 2020/Sternberg Memory Task/subject-2.csv,legacy,2 7 5,Lentiform Loewenfeld,3.3.3,0,n,0,right,right,right,right,NA,655,44112,18901,655,NA,2,legacy,3,1024,2,48000,-16,experiment,2,even,8,237756,238867,144108,238869,241078,181508,3246,125207,243080,243735,239874,47359,243080,NA,3238,Sternberg Task,26,28696,28,yes,1024
93.10344828,93.10344828,1020.137931,1020.137931,black,experiment,legacy,legacy,legacy,0,uniform,1,undefined,1,left,28,28,0,28,28,28,0,0,28,28,28,0,28,0,0,Sat Oct 24 23:10:51 2020,The main experiment item,yes,SternbergTask.osexp,C:\Users\katri\OneDrive\Documents\Fall 2020\Sternberg Memory Task,no,mono,no,18,no,white,no,yes,768,legacy,16,11,C:/Users/katri/OneDrive/Documents/Fall 2020/Sternberg Memory Task/subject-2.csv,legacy,7 1 3,Lentiform Loewenfeld,3.3.3,2,y,0,left,right,right,left,NA,888,44112,18901,888,NA,2,legacy,3,1024,2,48000,-16,experiment,2,even,1,243761,244867,144108,244869,247075,181508,3246,125207,249077,249966,245871,47359,249077,NA,3238,Sternberg Task,27,29584,29,yes,1024
93.33333333,93.33333333,1024.933333,1024.933333,black,experiment,legacy,legacy,legacy,0,uniform,1,undefined,1,left,29,29,0,29,29,29,0,0,29,29,29,0,29,0,0,Sat Oct 24 23:10:51 2020,The main experiment item,yes,SternbergTask.osexp,C:\Users\katri\OneDrive\Documents\Fall 2020\Sternberg Memory Task,no,mono,no,18,no,white,no,yes,768,legacy,17,11,C:/Users/katri/OneDrive/Documents/Fall 2020/Sternberg Memory Task/subject-2.csv,legacy,4 7 6 8 2 3,Lentiform Loewenfeld,3.3.3,6,y,0,left,right,right,left,NA,1164,44112,18901,1164,NA,2,legacy,6,1024,2,48000,-16,experiment,2,even,3,249972,251066,144108,251068,253277,181508,3246,125207,255282,256447,252072,47359,255282,NA,3238,Sternberg Task,28,30748,30,yes,1024
93.5483871,93.5483871,1014.677419,1014.677419,black,experiment,legacy,legacy,legacy,0,uniform,1,undefined,1,right,30,30,0,30,30,30,0,0,30,30,30,0,30,0,0,Sat Oct 24 23:10:51 2020,The main experiment item,yes,SternbergTask.osexp,C:\Users\katri\OneDrive\Documents\Fall 2020\Sternberg Memory Task,no,mono,no,18,no,white,no,yes,768,legacy,18,11,C:/Users/katri/OneDrive/Documents/Fall 2020/Sternberg Memory Task/subject-2.csv,legacy,2 8 9 4 1,Lentiform Loewenfeld,3.3.3,0,n,0,right,right,right,right,NA,707,44112,18901,707,NA,2,legacy,5,1024,2,48000,-16,experiment,2,even,5,256473,257580,144108,257581,259792,181508,3246,125207,261793,262501,258587,47359,261793,NA,3238,Sternberg Task,29,31455,31,yes,1024
93.75,93.75,1008.1875,1008.1875,black,experiment,legacy,legacy,legacy,0,uniform,1,undefined,1,left,31,31,0,31,31,31,0,0,31,31,31,0,31,0,0,Sat Oct 24 23:10:51 2020,The main experiment item,yes,SternbergTask.osexp,C:\Users\katri\OneDrive\Documents\Fall 2020\Sternberg Memory Task,no,mono,no,18,no,white,no,yes,768,legacy,19,11,C:/Users/katri/OneDrive/Documents/Fall 2020/Sternberg Memory Task/subject-2.csv,legacy,3 5 9 6 2 4,Lentiform Loewenfeld,3.3.3,1,y,0,left,right,right,left,NA,807,44112,18901,807,NA,2,legacy,6,1024,2,48000,-16,experiment,2,even,3,262504,263611,144108,263613,265821,181508,3246,125207,267823,268630,264617,47359,267823,NA,3238,Sternberg Task,30,32262,32,yes,1024
93.93939394,93.93939394,1004.787879,1004.787879,black,experiment,legacy,legacy,legacy,0,uniform,1,undefined,1,right,32,32,0,32,32,32,0,0,32,32,32,0,32,0,0,Sat Oct 24 23:10:51 2020,The main experiment item,yes,SternbergTask.osexp,C:\Users\katri\OneDrive\Documents\Fall 2020\Sternberg Memory Task,no,mono,no,18,no,white,no,yes,768,legacy,20,11,C:/Users/katri/OneDrive/Documents/Fall 2020/Sternberg Memory Task/subject-2.csv,legacy,1 7 5 2 9,Lentiform Loewenfeld,3.3.3,0,n,0,right,right,right,right,NA,896,44112,18901,896,NA,2,legacy,5,1024,2,48000,-16,experiment,2,even,3,268640,269718,144108,269720,271927,181508,3246,125207,273929,274826,270722,47359,273929,NA,3238,Sternberg Task,31,33158,33,yes,1024
94.11764706,94.11764706,995.3235294,995.3235294,black,experiment,legacy,legacy,legacy,0,uniform,1,undefined,1,right,33,33,0,33,33,33,0,0,33,33,33,0,33,0,0,Sat Oct 24 23:10:51 2020,The main experiment item,yes,SternbergTask.osexp,C:\Users\katri\OneDrive\Documents\Fall 2020\Sternberg Memory Task,no,mono,no,18,no,white,no,yes,768,legacy,21,11,C:/Users/katri/OneDrive/Documents/Fall 2020/Sternberg Memory Task/subject-2.csv,legacy,2 8 6 3 1,Lentiform Loewenfeld,3.3.3,0,n,0,right,right,right,right,NA,683,44112,18901,683,NA,2,legacy,5,1024,2,48000,-16,experiment,2,even,7,274829,275921,144108,275924,278130,181508,3246,125207,280132,280816,276926,47359,280132,NA,3238,Sternberg Task,32,33841,34,yes,1024
94.28571429,94.28571429,987.2571429,987.2571429,black,experiment,legacy,legacy,legacy,0,uniform,1,undefined,1,left,34,34,0,34,34,34,0,0,34,34,34,0,34,0,0,Sat Oct 24 23:10:51 2020,The main experiment item,yes,SternbergTask.osexp,C:\Users\katri\OneDrive\Documents\Fall 2020\Sternberg Memory Task,no,mono,no,18,no,white,no,yes,768,legacy,22,11,C:/Users/katri/OneDrive/Documents/Fall 2020/Sternberg Memory Task/subject-2.csv,legacy,4 3 2 5 8,Lentiform Loewenfeld,3.3.3,2,y,0,left,right,right,left,NA,713,44112,18901,713,NA,2,legacy,5,1024,2,48000,-16,experiment,2,even,3,280820,281932,144108,281934,284140,181508,3246,125207,286144,286857,282935,47359,286144,NA,3238,Sternberg Task,33,34554,35,yes,1024
91.66666667,91.66666667,978.8611111,978.8611111,black,experiment,legacy,legacy,legacy,0,uniform,0,undefined,0,right,35,35,0,35,35,35,0,0,35,35,35,0,35,0,0,Sat Oct 24 23:10:51 2020,The main experiment item,yes,SternbergTask.osexp,C:\Users\katri\OneDrive\Documents\Fall 2020\Sternberg Memory Task,no,mono,no,18,no,white,no,yes,768,legacy,23,11,C:/Users/katri/OneDrive/Documents/Fall 2020/Sternberg Memory Task/subject-2.csv,legacy,6 3 1 7 9 8,Lentiform Loewenfeld,3.3.3,0,n,0,left,right,right,left,NA,685,44112,18901,685,NA,2,legacy,6,1024,2,48000,-16,experiment,2,even,4,286885,287980,144108,287982,290188,181508,3246,125207,292191,292877,288984,47359,292191,NA,3238,Sternberg Task,33,35239,36,yes,1024
91.89189189,91.89189189,976.027027,976.027027,black,experiment,legacy,legacy,legacy,0,uniform,1,undefined,1,left,36,36,0,36,36,36,0,0,36,36,36,0,36,0,0,Sat Oct 24 23:10:51 2020,The main experiment item,yes,SternbergTask.osexp,C:\Users\katri\OneDrive\Documents\Fall 2020\Sternberg Memory Task,no,mono,no,18,no,white,no,yes,768,legacy,24,11,C:/Users/katri/OneDrive/Documents/Fall 2020/Sternberg Memory Task/subject-2.csv,legacy,6 7 9 3 1 2,Lentiform Loewenfeld,3.3.3,1,y,0,left,right,right,left,NA,874,44112,18901,874,NA,2,legacy,6,1024,2,48000,-16,experiment,2,even,6,286885,294010,144108,294012,296218,292901,3246,125207,298223,299097,295014,47359,298222,NA,3238,Sternberg Task,34,36113,37,yes,1024
92.10526316,92.10526316,970.0526316,970.0526316,black,experiment,legacy,legacy,legacy,0,uniform,1,undefined,1,left,37,37,0,37,37,37,0,0,37,37,37,0,37,0,0,Sat Oct 24 23:10:51 2020,The main experiment item,yes,SternbergTask.osexp,C:\Users\katri\OneDrive\Documents\Fall 2020\Sternberg Memory Task,no,mono,no,18,no,white,no,yes,768,legacy,25,11,C:/Users/katri/OneDrive/Documents/Fall 2020/Sternberg Memory Task/subject-2.csv,legacy,6 2,Lentiform Loewenfeld,3.3.3,1,y,0,left,right,right,left,NA,749,44112,18901,749,NA,2,legacy,2,1024,2,48000,-16,experiment,2,even,6,299123,300227,144108,300228,302434,292901,3246,125207,304440,305190,301230,47359,304439,NA,3238,Sternberg Task,35,36862,38,yes,1024
89.74358974,89.74358974,971.8717949,971.8717949,black,experiment,legacy,legacy,legacy,0,uniform,0,undefined,0,left,38,38,0,38,38,38,0,0,38,38,38,0,38,0,0,Sat Oct 24 23:10:51 2020,The main experiment item,yes,SternbergTask.osexp,C:\Users\katri\OneDrive\Documents\Fall 2020\Sternberg Memory Task,no,mono,no,18,no,white,no,yes,768,legacy,26,11,C:/Users/katri/OneDrive/Documents/Fall 2020/Sternberg Memory Task/subject-2.csv,legacy,9 3 1 2 5,Lentiform Loewenfeld,3.3.3,4,y,0,right,right,right,right,NA,1041,44112,18901,1041,NA,2,legacy,5,1024,2,48000,-16,experiment,2,even,2,305196,306286,144108,306288,308492,292901,3246,125207,310495,311537,307289,47359,310495,NA,3238,Sternberg Task,35,37903,39,yes,1024
90,90,986.125,986.125,black,experiment,legacy,legacy,legacy,0,uniform,1,undefined,1,left,39,39,0,39,39,39,0,0,39,39,39,0,39,0,0,Sat Oct 24 23:10:51 2020,The main experiment item,yes,SternbergTask.osexp,C:\Users\katri\OneDrive\Documents\Fall 2020\Sternberg Memory Task,no,mono,no,18,no,white,no,yes,768,legacy,27,11,C:/Users/katri/OneDrive/Documents/Fall 2020/Sternberg Memory Task/subject-2.csv,legacy,8 9 5 6 7,Lentiform Loewenfeld,3.3.3,1,y,0,left,right,right,left,NA,1542,44112,18901,1542,NA,2,legacy,5,1024,2,48000,-16,experiment,2,even,8,305196,312629,144108,312630,314836,311540,3246,125207,316839,318381,313633,47359,316839,NA,3238,Sternberg Task,36,39445,40,yes,1024
90.24390244,90.24390244,995.3902439,995.3902439,black,experiment,legacy,legacy,legacy,0,uniform,1,undefined,1,left,40,40,0,40,40,40,0,0,40,40,40,0,40,0,0,Sat Oct 24 23:10:51 2020,The main experiment item,yes,SternbergTask.osexp,C:\Users\katri\OneDrive\Documents\Fall 2020\Sternberg Memory Task,no,mono,no,18,no,white,no,yes,768,legacy,28,11,C:/Users/katri/OneDrive/Documents/Fall 2020/Sternberg Memory Task/subject-2.csv,legacy,8 1 6,Lentiform Loewenfeld,3.3.3,3,y,0,left,right,right,left,NA,1366,44112,18901,1366,NA,2,legacy,3,1024,2,48000,-16,experiment,2,even,6,318388,319493,144108,319495,321703,311540,3246,125207,323707,325073,320499,47359,323707,NA,3238,Sternberg Task,37,40811,41,yes,1024
90.47619048,90.47619048,991.2380952,991.2380952,black,experiment,legacy,legacy,legacy,0,uniform,1,undefined,1,left,41,41,0,41,41,41,0,0,41,41,41,0,41,0,0,Sat Oct 24 23:10:51 2020,The main experiment item,yes,SternbergTask.osexp,C:\Users\katri\OneDrive\Documents\Fall 2020\Sternberg Memory Task,no,mono,no,18,no,white,no,yes,768,legacy,29,11,C:/Users/katri/OneDrive/Documents/Fall 2020/Sternberg Memory Task/subject-2.csv,legacy,3 9 6 2,Lentiform Loewenfeld,3.3.3,4,y,0,left,right,right,left,NA,821,44112,18901,821,NA,2,legacy,4,1024,2,48000,-16,experiment,2,even,2,325080,326161,144108,326162,328366,311540,3246,125207,330371,331192,327164,47359,330370,NA,3238,Sternberg Task,38,41632,42,yes,1024
90.69767442,90.69767442,985.5581395,985.5581395,black,experiment,legacy,legacy,legacy,0,uniform,1,undefined,1,left,42,42,0,42,42,42,0,0,42,42,42,0,42,0,0,Sat Oct 24 23:10:51 2020,The main experiment item,yes,SternbergTask.osexp,C:\Users\katri\OneDrive\Documents\Fall 2020\Sternberg Memory Task,no,mono,no,18,no,white,no,yes,768,legacy,30,11,C:/Users/katri/OneDrive/Documents/Fall 2020/Sternberg Memory Task/subject-2.csv,legacy,2 3,Lentiform Loewenfeld,3.3.3,1,y,0,left,right,right,left,NA,747,44112,18901,747,NA,2,legacy,2,1024,2,48000,-16,experiment,2,even,2,331200,332306,144108,332307,334516,311540,3246,125207,336518,337266,333311,47359,336518,NA,3238,Sternberg Task,39,42379,43,yes,1024
90.90909091,90.90909091,982.7727273,982.7727273,black,experiment,legacy,legacy,legacy,0,uniform,1,undefined,1,right,43,43,0,43,43,43,0,0,43,43,43,0,43,0,0,Sat Oct 24 23:10:51 2020,The main experiment item,yes,SternbergTask.osexp,C:\Users\katri\OneDrive\Documents\Fall 2020\Sternberg Memory Task,no,mono,no,18,no,white,no,yes,768,legacy,31,11,C:/Users/katri/OneDrive/Documents/Fall 2020/Sternberg Memory Task/subject-2.csv,legacy,7 4 2 8 1 9,Lentiform Loewenfeld,3.3.3,0,n,0,right,right,right,right,NA,863,44112,18901,863,NA,2,legacy,6,1024,2,48000,-16,experiment,2,even,5,337292,338387,144108,338388,340593,311540,3246,125207,342596,343459,339391,47359,342596,NA,3238,Sternberg Task,40,43242,44,yes,1024
91.11111111,91.11111111,983.8,983.8,black,experiment,legacy,legacy,legacy,0,uniform,1,undefined,1,left,44,44,0,44,44,44,0,0,44,44,44,0,44,0,0,Sat Oct 24 23:10:51 2020,The main experiment item,yes,SternbergTask.osexp,C:\Users\katri\OneDrive\Documents\Fall 2020\Sternberg Memory Task,no,mono,no,18,no,white,no,yes,768,legacy,32,11,C:/Users/katri/OneDrive/Documents/Fall 2020/Sternberg Memory Task/subject-2.csv,legacy,9 1 6 7 8,Lentiform Loewenfeld,3.3.3,1,y,0,left,right,right,left,NA,1029,44112,18901,1029,NA,2,legacy,5,1024,2,48000,-16,experiment,2,even,9,343485,344576,144108,344577,346783,311540,3246,125207,348785,349815,345580,47359,348785,NA,3238,Sternberg Task,41,44271,45,yes,1024
91.30434783,91.30434783,979.6521739,979.6521739,black,experiment,legacy,legacy,legacy,0,uniform,1,undefined,1,left,45,45,0,45,45,45,0,0,45,45,45,0,45,0,0,Sat Oct 24 23:10:51 2020,The main experiment item,yes,SternbergTask.osexp,C:\Users\katri\OneDrive\Documents\Fall 2020\Sternberg Memory Task,no,mono,no,18,no,white,no,yes,768,legacy,33,11,C:/Users/katri/OneDrive/Documents/Fall 2020/Sternberg Memory Task/subject-2.csv,legacy,6 5,Lentiform Loewenfeld,3.3.3,2,y,0,left,right,right,left,NA,793,44112,18901,793,NA,2,legacy,2,1024,2,48000,-16,experiment,2,even,5,349842,350948,144108,350950,353155,311540,3246,125207,355160,355953,351952,47359,355160,NA,3238,Sternberg Task,42,45064,46,yes,1024
89.36170213,89.36170213,975.9574468,975.9574468,black,experiment,legacy,legacy,legacy,0,uniform,0,undefined,0,left,46,46,0,46,46,46,0,0,46,46,46,0,46,0,0,Sat Oct 24 23:10:51 2020,The main experiment item,yes,SternbergTask.osexp,C:\Users\katri\OneDrive\Documents\Fall 2020\Sternberg Memory Task,no,mono,no,18,no,white,no,yes,768,legacy,34,11,C:/Users/katri/OneDrive/Documents/Fall 2020/Sternberg Memory Task/subject-2.csv,legacy,6 9 7 4 5 1,Lentiform Loewenfeld,3.3.3,2,y,0,right,right,right,right,NA,806,44112,18901,806,NA,2,legacy,6,1024,2,48000,-16,experiment,2,even,9,355961,357044,144108,357046,359254,311540,3246,125207,361258,362065,358050,47359,361257,NA,3238,Sternberg Task,42,45870,47,yes,1024
89.58333333,89.58333333,976.6666667,976.6666667,black,experiment,legacy,legacy,legacy,0,uniform,1,undefined,1,left,47,47,0,47,47,47,0,0,47,47,47,0,47,0,0,Sat Oct 24 23:10:51 2020,The main experiment item,yes,SternbergTask.osexp,C:\Users\katri\OneDrive\Documents\Fall 2020\Sternberg Memory Task,no,mono,no,18,no,white,no,yes,768,legacy,35,11,C:/Users/katri/OneDrive/Documents/Fall 2020/Sternberg Memory Task/subject-2.csv,legacy,3 5 7 1,Lentiform Loewenfeld,3.3.3,3,y,0,left,right,right,left,NA,1010,44112,18901,1010,NA,2,legacy,4,1024,2,48000,-16,experiment,2,even,7,355961,363174,144108,363175,365380,362090,3246,125207,367382,368393,364176,47359,367382,NA,3238,Sternberg Task,43,46880,48,yes,1024
89.79591837,89.79591837,975.9387755,975.9387755,black,experiment,legacy,legacy,legacy,0,uniform,1,undefined,1,right,48,48,0,48,48,48,0,0,48,48,48,0,48,0,0,Sat Oct 24 23:10:51 2020,The main experiment item,yes,SternbergTask.osexp,C:\Users\katri\OneDrive\Documents\Fall 2020\Sternberg Memory Task,no,mono,no,18,no,white,no,yes,768,legacy,36,11,C:/Users/katri/OneDrive/Documents/Fall 2020/Sternberg Memory Task/subject-2.csv,legacy,2 3 8 5 6 7,Lentiform Loewenfeld,3.3.3,0,n,0,right,right,right,right,NA,941,44112,18901,941,NA,2,legacy,6,1024,2,48000,-16,experiment,2,even,1,368419,369497,144108,369499,371705,362090,3246,125207,373709,374650,370502,47359,373709,NA,3238,Sternberg Task,44,47821,49,yes,1024
90,90,971.08,971.08,black,experiment,legacy,legacy,legacy,0,uniform,1,undefined,1,right,49,49,0,49,49,49,0,0,49,49,49,0,49,0,0,Sat Oct 24 23:10:51 2020,The main experiment item,yes,SternbergTask.osexp,C:\Users\katri\OneDrive\Documents\Fall 2020\Sternberg Memory Task,no,mono,no,18,no,white,no,yes,768,legacy,37,11,C:/Users/katri/OneDrive/Documents/Fall 2020/Sternberg Memory Task/subject-2.csv,legacy,1,Lentiform Loewenfeld,3.3.3,0,n,0,right,right,right,right,NA,733,44112,18901,733,NA,2,legacy,1,1024,2,48000,-16,experiment,2,even,7,374659,375755,144108,375757,377962,362090,3246,125207,379964,380697,376759,47359,379964,NA,3238,Sternberg Task,45,48554,50,yes,1024
90.19607843,90.19607843,970.6862745,970.6862745,black,experiment,legacy,legacy,legacy,0,uniform,1,undefined,1,right,50,50,0,50,50,50,0,0,50,50,50,0,50,0,0,Sat Oct 24 23:10:51 2020,The main experiment item,yes,SternbergTask.osexp,C:\Users\katri\OneDrive\Documents\Fall 2020\Sternberg Memory Task,no,mono,no,18,no,white,no,yes,768,legacy,38,11,C:/Users/katri/OneDrive/Documents/Fall 2020/Sternberg Memory Task/subject-2.csv,legacy,1 5 3 2 8,Lentiform Loewenfeld,3.3.3,0,n,0,right,right,right,right,NA,951,44112,18901,951,NA,2,legacy,5,1024,2,48000,-16,experiment,2,even,4,380699,381775,144108,381777,383981,362090,3246,125207,385985,386937,382779,47359,385985,NA,3238,Sternberg Task,46,49505,51,yes,1024
88.46153846,88.46153846,974.9615385,974.9615385,black,experiment,legacy,legacy,legacy,0,uniform,0,undefined,0,left,51,51,0,51,51,51,0,0,51,51,51,0,51,0,0,Sat Oct 24 23:10:51 2020,The main experiment item,yes,SternbergTask.osexp,C:\Users\katri\OneDrive\Documents\Fall 2020\Sternberg Memory Task,no,mono,no,18,no,white,no,yes,768,legacy,39,11,C:/Users/katri/OneDrive/Documents/Fall 2020/Sternberg Memory Task/subject-2.csv,legacy,6 1 2,Lentiform Loewenfeld,3.3.3,3,y,0,right,right,right,right,NA,1193,44112,18901,1193,NA,2,legacy,3,1024,2,48000,-16,experiment,2,even,2,386946,388035,144108,388036,390241,362090,3246,125207,392244,393437,389038,47359,392244,NA,3238,Sternberg Task,46,50698,52,yes,1024
86.79245283,86.79245283,977.1320755,977.1320755,black,experiment,legacy,legacy,legacy,0,uniform,0,undefined,0,left,52,52,0,52,52,52,0,0,52,52,52,0,52,0,0,Sat Oct 24 23:10:51 2020,The main experiment item,yes,SternbergTask.osexp,C:\Users\katri\OneDrive\Documents\Fall 2020\Sternberg Memory Task,no,mono,no,18,no,white,no,yes,768,legacy,40,11,C:/Users/katri/OneDrive/Documents/Fall 2020/Sternberg Memory Task/subject-2.csv,legacy,5 7 8 2 3 8,Lentiform Loewenfeld,3.3.3,5,y,0,right,right,right,right,NA,1090,44112,18901,1090,NA,2,legacy,6,1024,2,48000,-16,experiment,2,even,3,386946,394540,144108,394540,396745,393447,3246,125207,398750,399840,395544,47359,398749,NA,3238,Sternberg Task,46,51788,53,yes,1024
87.03703704,87.03703704,973.3888889,973.3888889,black,experiment,legacy,legacy,legacy,0,uniform,1,undefined,1,right,53,53,0,53,53,53,0,0,53,53,53,0,53,0,0,Sat Oct 24 23:10:51 2020,The main experiment item,yes,SternbergTask.osexp,C:\Users\katri\OneDrive\Documents\Fall 2020\Sternberg Memory Task,no,mono,no,18,no,white,no,yes,768,legacy,41,11,C:/Users/katri/OneDrive/Documents/Fall 2020/Sternberg Memory Task/subject-2.csv,legacy,1 3 2 6 9,Lentiform Loewenfeld,3.3.3,0,n,0,right,right,right,right,NA,775,44112,18901,775,NA,2,legacy,5,1024,2,48000,-16,experiment,2,even,5,386946,400954,144108,400956,403161,399844,3246,125207,405166,405941,401958,47359,405166,NA,3238,Sternberg Task,47,52563,54,yes,1024
87.27272727,87.27272727,971.7636364,971.7636364,black,experiment,legacy,legacy,legacy,0,uniform,1,undefined,1,right,54,54,0,54,54,54,0,0,54,54,54,0,54,0,0,Sat Oct 24 23:10:51 2020,The main experiment item,yes,SternbergTask.osexp,C:\Users\katri\OneDrive\Documents\Fall 2020\Sternberg Memory Task,no,mono,no,18,no,white,no,yes,768,legacy,42,11,C:/Users/katri/OneDrive/Documents/Fall 2020/Sternberg Memory Task/subject-2.csv,legacy,8 9,Lentiform Loewenfeld,3.3.3,0,n,0,right,right,right,right,NA,884,44112,18901,884,NA,2,legacy,2,1024,2,48000,-16,experiment,2,even,5,405950,407038,144108,407039,409245,399844,3246,125207,411249,412133,408041,47359,411249,NA,3238,Sternberg Task,48,53447,55,yes,1024
87.5,87.5,966.875,966.875,black,experiment,legacy,legacy,legacy,0,uniform,1,undefined,1,right,55,55,0,55,55,55,0,0,55,55,55,0,55,0,0,Sat Oct 24 23:10:51 2020,The main experiment item,yes,SternbergTask.osexp,C:\Users\katri\OneDrive\Documents\Fall 2020\Sternberg Memory Task,no,mono,no,18,no,white,no,yes,768,legacy,43,11,C:/Users/katri/OneDrive/Documents/Fall 2020/Sternberg Memory Task/subject-2.csv,legacy,7 1 8 4 9 3,Lentiform Loewenfeld,3.3.3,0,n,0,right,right,right,right,NA,698,44112,18901,698,NA,2,legacy,6,1024,2,48000,-16,experiment,2,even,6,412136,413227,144108,413229,415435,399844,3246,125207,417438,418136,414230,47359,417438,NA,3238,Sternberg Task,49,54145,56,yes,1024
87.71929825,87.71929825,963.0350877,963.0350877,black,experiment,legacy,legacy,legacy,0,uniform,1,undefined,1,right,56,56,0,56,56,56,0,0,56,56,56,0,56,0,0,Sat Oct 24 23:10:51 2020,The main experiment item,yes,SternbergTask.osexp,C:\Users\katri\OneDrive\Documents\Fall 2020\Sternberg Memory Task,no,mono,no,18,no,white,no,yes,768,legacy,44,11,C:/Users/katri/OneDrive/Documents/Fall 2020/Sternberg Memory Task/subject-2.csv,legacy,8 5 4 2 9 6,Lentiform Loewenfeld,3.3.3,0,n,0,right,right,right,right,NA,748,44112,18901,748,NA,2,legacy,6,1024,2,48000,-16,experiment,2,even,3,418144,419224,144108,419226,421431,399844,3246,125207,423436,424185,420227,47359,423436,NA,3238,Sternberg Task,50,54893,57,yes,1024
87.93103448,87.93103448,958.6551724,958.6551724,black,experiment,legacy,legacy,legacy,0,uniform,1,undefined,1,right,57,57,0,57,57,57,0,0,57,57,57,0,57,0,0,Sat Oct 24 23:10:51 2020,The main experiment item,yes,SternbergTask.osexp,C:\Users\katri\OneDrive\Documents\Fall 2020\Sternberg Memory Task,no,mono,no,18,no,white,no,yes,768,legacy,45,11,C:/Users/katri/OneDrive/Documents/Fall 2020/Sternberg Memory Task/subject-2.csv,legacy,8 2 1 4 5 9,Lentiform Loewenfeld,3.3.3,0,n,0,right,right,right,right,NA,709,44112,18901,709,NA,2,legacy,6,1024,2,48000,-16,experiment,2,even,7,424213,425318,144108,425320,427527,399844,3246,125207,429529,430238,426325,47359,429529,NA,3238,Sternberg Task,51,55602,58,yes,1024
88.13559322,88.13559322,956.9830508,956.9830508,black,experiment,legacy,legacy,legacy,0,uniform,1,undefined,1,right,58,58,0,58,58,58,0,0,58,58,58,0,58,0,0,Sat Oct 24 23:10:51 2020,The main experiment item,yes,SternbergTask.osexp,C:\Users\katri\OneDrive\Documents\Fall 2020\Sternberg Memory Task,no,mono,no,18,no,white,no,yes,768,legacy,46,11,C:/Users/katri/OneDrive/Documents/Fall 2020/Sternberg Memory Task/subject-2.csv,legacy,3 9 1,Lentiform Loewenfeld,3.3.3,0,n,0,right,right,right,right,NA,860,44112,18901,860,NA,2,legacy,3,1024,2,48000,-16,experiment,2,even,7,430263,431370,144108,431373,433581,399844,3246,125207,435583,436443,432377,47359,435583,NA,3238,Sternberg Task,52,56462,59,yes,1024
88.33333333,88.33333333,951.7166667,951.7166667,black,experiment,legacy,legacy,legacy,0,uniform,1,undefined,1,right,59,59,0,59,59,59,0,0,59,59,59,0,59,0,0,Sat Oct 24 23:10:51 2020,The main experiment item,yes,SternbergTask.osexp,C:\Users\katri\OneDrive\Documents\Fall 2020\Sternberg Memory Task,no,mono,no,18,no,white,no,yes,768,legacy,47,11,C:/Users/katri/OneDrive/Documents/Fall 2020/Sternberg Memory Task/subject-2.csv,legacy,5 3 8 7 2 4,Lentiform Loewenfeld,3.3.3,0,n,0,right,right,right,right,NA,641,44112,18901,641,NA,2,legacy,6,1024,2,48000,-16,experiment,2,even,9,436450,437560,144108,437562,439771,399844,3246,125207,441774,442415,438566,47359,441774,NA,3238,Sternberg Task,53,57103,60,yes,1024
86.8852459,86.8852459,948.0983607,948.0983607,black,experiment,legacy,legacy,legacy,0,uniform,0,undefined,0,right,60,60,0,60,60,60,0,0,60,60,60,0,60,0,0,Sat Oct 24 23:10:51 2020,The main experiment item,yes,SternbergTask.osexp,C:\Users\katri\OneDrive\Documents\Fall 2020\Sternberg Memory Task,no,mono,no,18,no,white,no,yes,768,legacy,48,11,C:/Users/katri/OneDrive/Documents/Fall 2020/Sternberg Memory Task/subject-2.csv,legacy,9,Lentiform Loewenfeld,3.3.3,0,n,0,left,right,right,left,NA,731,44112,18901,731,NA,2,legacy,1,1024,2,48000,-16,experiment,2,even,6,442425,443510,144108,443512,445719,399844,3246,125207,447722,448453,444514,47359,447722,NA,3238,Sternberg Task,53,57834,61,yes,1024
85.48387097,85.48387097,948.7258065,948.7258065,black,experiment,legacy,legacy,legacy,0,uniform,0,undefined,0,left,61,61,0,61,61,61,0,0,61,61,61,0,61,0,0,Sat Oct 24 23:10:51 2020,The main experiment item,yes,SternbergTask.osexp,C:\Users\katri\OneDrive\Documents\Fall 2020\Sternberg Memory Task,no,mono,no,18,no,white,no,yes,768,legacy,49,11,C:/Users/katri/OneDrive/Documents/Fall 2020/Sternberg Memory Task/subject-2.csv,legacy,6 8 9 3 4 9,Lentiform Loewenfeld,3.3.3,5,y,0,right,right,right,right,NA,987,44112,18901,987,NA,2,legacy,6,1024,2,48000,-16,experiment,2,even,4,442425,449555,144108,449557,451764,448463,3246,125207,453768,454756,450559,47359,453768,NA,3238,Sternberg Task,53,58821,62,yes,1024
84.12698413,84.12698413,961.5079365,961.5079365,black,experiment,legacy,legacy,legacy,0,uniform,0,undefined,0,right,62,62,0,62,62,62,0,0,62,62,62,0,62,0,0,Sat Oct 24 23:10:51 2020,The main experiment item,yes,SternbergTask.osexp,C:\Users\katri\OneDrive\Documents\Fall 2020\Sternberg Memory Task,no,mono,no,18,no,white,no,yes,768,legacy,50,11,C:/Users/katri/OneDrive/Documents/Fall 2020/Sternberg Memory Task/subject-2.csv,legacy,8 5 7 3 6,Lentiform Loewenfeld,3.3.3,0,n,0,left,right,right,left,NA,1754,44112,18901,1754,NA,2,legacy,5,1024,2,48000,-16,experiment,2,even,9,442425,455871,144108,455872,458078,454781,3246,125207,460080,461835,456874,47359,460080,NA,3238,Sternberg Task,53,60575,63,yes,1024
84.375,84.375,966.59375,966.59375,black,experiment,legacy,legacy,legacy,0,uniform,1,undefined,1,right,63,63,0,63,63,63,0,0,63,63,63,0,63,0,0,Sat Oct 24 23:10:51 2020,The main experiment item,yes,SternbergTask.osexp,C:\Users\katri\OneDrive\Documents\Fall 2020\Sternberg Memory Task,no,mono,no,18,no,white,no,yes,768,legacy,51,11,C:/Users/katri/OneDrive/Documents/Fall 2020/Sternberg Memory Task/subject-2.csv,legacy,2 8 9,Lentiform Loewenfeld,3.3.3,0,n,0,right,right,right,right,NA,1287,44112,18901,1287,NA,2,legacy,3,1024,2,48000,-16,experiment,2,even,6,442425,462953,144108,462955,465163,461844,3246,125207,467167,468454,463958,47359,467167,NA,3238,Sternberg Task,54,61862,64,yes,1024
84.61538462,84.61538462,963.4615385,963.4615385,black,experiment,legacy,legacy,legacy,0,uniform,1,undefined,1,right,64,64,0,64,64,64,0,0,64,64,64,0,64,0,0,Sat Oct 24 23:10:51 2020,The main experiment item,yes,SternbergTask.osexp,C:\Users\katri\OneDrive\Documents\Fall 2020\Sternberg Memory Task,no,mono,no,18,no,white,no,yes,768,legacy,52,11,C:/Users/katri/OneDrive/Documents/Fall 2020/Sternberg Memory Task/subject-2.csv,legacy,1 6 4,Lentiform Loewenfeld,3.3.3,0,n,0,right,right,right,right,NA,763,44112,18901,763,NA,2,legacy,3,1024,2,48000,-16,experiment,2,even,7,468480,469585,144108,469587,471792,461844,3246,125207,473797,474561,470589,47359,473797,NA,3238,Sternberg Task,55,62625,65,yes,1024
84.84848485,84.84848485,960.2272727,960.2272727,black,experiment,legacy,legacy,legacy,0,uniform,1,undefined,1,right,65,65,0,65,65,65,0,0,65,65,65,0,65,0,0,Sat Oct 24 23:10:51 2020,The main experiment item,yes,SternbergTask.osexp,C:\Users\katri\OneDrive\Documents\Fall 2020\Sternberg Memory Task,no,mono,no,18,no,white,no,yes,768,legacy,53,11,C:/Users/katri/OneDrive/Documents/Fall 2020/Sternberg Memory Task/subject-2.csv,legacy,1 8 7,Lentiform Loewenfeld,3.3.3,0,n,0,right,right,right,right,NA,750,44112,18901,750,NA,2,legacy,3,1024,2,48000,-16,experiment,2,even,4,474586,475695,144108,475696,477905,461844,3246,125207,479911,480662,476701,47359,479910,NA,3238,Sternberg Task,56,63375,66,yes,1024
85.07462687,85.07462687,958.5373134,958.5373134,black,experiment,legacy,legacy,legacy,0,uniform,1,undefined,1,right,66,66,0,66,66,66,0,0,66,66,66,0,66,0,0,Sat Oct 24 23:10:51 2020,The main experiment item,yes,SternbergTask.osexp,C:\Users\katri\OneDrive\Documents\Fall 2020\Sternberg Memory Task,no,mono,no,18,no,white,no,yes,768,legacy,54,11,C:/Users/katri/OneDrive/Documents/Fall 2020/Sternberg Memory Task/subject-2.csv,legacy,3 4 9 6 7 8,Lentiform Loewenfeld,3.3.3,0,n,0,right,right,right,right,NA,847,44112,18901,847,NA,2,legacy,6,1024,2,48000,-16,experiment,2,even,2,480671,481784,144108,481785,483992,461844,3246,125207,485994,486842,482788,47359,485994,NA,3238,Sternberg Task,57,64222,67,yes,1024
85.29411765,85.29411765,966.6911765,966.6911765,black,experiment,legacy,legacy,legacy,0,uniform,1,undefined,1,left,67,67,0,67,67,67,0,0,67,67,67,0,67,0,0,Sat Oct 24 23:10:51 2020,The main experiment item,yes,SternbergTask.osexp,C:\Users\katri\OneDrive\Documents\Fall 2020\Sternberg Memory Task,no,mono,no,18,no,white,no,yes,768,legacy,55,11,C:/Users/katri/OneDrive/Documents/Fall 2020/Sternberg Memory Task/subject-2.csv,legacy,7 8 6 3 1,Lentiform Loewenfeld,3.3.3,5,y,0,left,right,right,left,NA,1513,44112,18901,1513,NA,2,legacy,5,1024,2,48000,-16,experiment,2,even,1,486850,487962,144108,487963,490169,461844,3246,125207,492175,493688,488966,47359,492175,NA,3238,Sternberg Task,58,65735,68,yes,1024
85.50724638,85.50724638,964.4782609,964.4782609,black,experiment,legacy,legacy,legacy,0,uniform,1,undefined,1,left,68,68,0,68,68,68,0,0,68,68,68,0,68,0,0,Sat Oct 24 23:10:51 2020,The main experiment item,yes,SternbergTask.osexp,C:\Users\katri\OneDrive\Documents\Fall 2020\Sternberg Memory Task,no,mono,no,18,no,white,no,yes,768,legacy,56,11,C:/Users/katri/OneDrive/Documents/Fall 2020/Sternberg Memory Task/subject-2.csv,legacy,9 4 2,Lentiform Loewenfeld,3.3.3,1,y,0,left,right,right,left,NA,814,44112,18901,814,NA,2,legacy,3,1024,2,48000,-16,experiment,2,even,9,493713,494824,144108,494825,497031,461844,3246,125207,499035,499849,495827,47359,499035,NA,3238,Sternberg Task,59,66549,69,yes,1024
85.71428571,85.71428571,962.8571429,962.8571429,black,experiment,legacy,legacy,legacy,0,uniform,1,undefined,1,left,69,69,0,69,69,69,0,0,69,69,69,0,69,0,0,Sat Oct 24 23:10:51 2020,The main experiment item,yes,SternbergTask.osexp,C:\Users\katri\OneDrive\Documents\Fall 2020\Sternberg Memory Task,no,mono,no,18,no,white,no,yes,768,legacy,57,11,C:/Users/katri/OneDrive/Documents/Fall 2020/Sternberg Memory Task/subject-2.csv,legacy,5 2 9 6 1 7,Lentiform Loewenfeld,3.3.3,3,y,0,left,right,right,left,NA,851,44112,18901,851,NA,2,legacy,6,1024,2,48000,-16,experiment,2,even,9,499856,500968,144108,500970,503178,461844,3246,125207,505180,506031,501974,47359,505180,NA,3238,Sternberg Task,60,67400,70,yes,1024
85.91549296,85.91549296,965.8450704,965.8450704,black,experiment,legacy,legacy,legacy,0,uniform,1,undefined,1,right,70,70,0,70,70,70,0,0,70,70,70,0,70,0,0,Sat Oct 24 23:10:51 2020,The main experiment item,yes,SternbergTask.osexp,C:\Users\katri\OneDrive\Documents\Fall 2020\Sternberg Memory Task,no,mono,no,18,no,white,no,yes,768,legacy,58,11,C:/Users/katri/OneDrive/Documents/Fall 2020/Sternberg Memory Task/subject-2.csv,legacy,1 7 8 3 9,Lentiform Loewenfeld,3.3.3,0,n,0,right,right,right,right,NA,1175,44112,18901,1175,NA,2,legacy,5,1024,2,48000,-16,experiment,2,even,2,506035,507142,144108,507144,509349,461844,3246,125207,511351,512526,508146,47359,511351,NA,3238,Sternberg Task,61,68575,71,yes,1024
86.11111111,86.11111111,964.875,964.875,black,experiment,legacy,legacy,legacy,0,uniform,1,undefined,1,left,71,71,0,71,71,71,0,0,71,71,71,0,71,0,0,Sat Oct 24 23:10:51 2020,The main experiment item,yes,SternbergTask.osexp,C:\Users\katri\OneDrive\Documents\Fall 2020\Sternberg Memory Task,no,mono,no,18,no,white,no,yes,768,legacy,59,11,C:/Users/katri/OneDrive/Documents/Fall 2020/Sternberg Memory Task/subject-2.csv,legacy,3 5 4 7,Lentiform Loewenfeld,3.3.3,1,y,0,left,right,right,left,NA,896,44112,18901,896,NA,2,legacy,4,1024,2,48000,-16,experiment,2,even,3,512551,513648,144108,513650,515856,461844,3246,125207,517859,518757,514652,47359,517859,NA,3238,Sternberg Task,62,69471,72,yes,1024
86.30136986,86.30136986,963.3972603,963.3972603,black,experiment,legacy,legacy,legacy,0,uniform,1,undefined,1,right,72,72,0,72,72,72,0,0,72,72,72,0,72,0,0,Sat Oct 24 23:10:51 2020,The main experiment item,yes,SternbergTask.osexp,C:\Users\katri\OneDrive\Documents\Fall 2020\Sternberg Memory Task,no,mono,no,18,no,white,no,yes,768,legacy,60,11,C:/Users/katri/OneDrive/Documents/Fall 2020/Sternberg Memory Task/subject-2.csv,legacy,9 8 2 7 4,Lentiform Loewenfeld,3.3.3,0,n,0,right,right,right,right,NA,857,44112,18901,857,NA,2,legacy,5,1024,2,48000,-16,experiment,2,even,5,518785,519864,144108,519866,522070,461844,3246,125207,524074,524931,520867,47359,524074,NA,3238,Sternberg Task,63,70328,73,yes,1024
86.48648649,86.48648649,965.2162162,965.2162162,black,experiment,legacy,legacy,legacy,0,uniform,1,undefined,1,left,73,73,0,73,73,73,0,0,73,73,73,0,73,0,0,Sat Oct 24 23:10:51 2020,The main experiment item,yes,SternbergTask.osexp,C:\Users\katri\OneDrive\Documents\Fall 2020\Sternberg Memory Task,no,mono,no,18,no,white,no,yes,768,legacy,61,11,C:/Users/katri/OneDrive/Documents/Fall 2020/Sternberg Memory Task/subject-2.csv,legacy,4 1 8 7 5,Lentiform Loewenfeld,3.3.3,3,y,0,left,right,right,left,NA,1098,44112,18901,1098,NA,2,legacy,5,1024,2,48000,-16,experiment,2,even,8,524937,526043,144108,526045,528252,461844,3246,125207,530256,531354,527049,47359,530256,NA,3238,Sternberg Task,64,71426,74,yes,1024
86.66666667,86.66666667,967,967,black,experiment,legacy,legacy,legacy,0,uniform,1,undefined,1,right,74,74,0,74,74,74,0,0,74,74,74,0,74,0,0,Sat Oct 24 23:10:51 2020,The main experiment item,yes,SternbergTask.osexp,C:\Users\katri\OneDrive\Documents\Fall 2020\Sternberg Memory Task,no,mono,no,18,no,white,no,yes,768,legacy,62,11,C:/Users/katri/OneDrive/Documents/Fall 2020/Sternberg Memory Task/subject-2.csv,legacy,1 4 9 2 5,Lentiform Loewenfeld,3.3.3,0,n,0,right,right,right,right,NA,1099,44112,18901,1099,NA,2,legacy,5,1024,2,48000,-16,experiment,2,even,7,531363,532444,144108,532446,534656,461844,3246,125207,536659,537759,533450,47359,536659,NA,3238,Sternberg Task,65,72525,75,yes,1024
86.84210526,86.84210526,968.4210526,968.4210526,black,experiment,legacy,legacy,legacy,0,uniform,1,undefined,1,left,75,75,0,75,75,75,0,0,75,75,75,0,75,0,0,Sat Oct 24 23:10:51 2020,The main experiment item,yes,SternbergTask.osexp,C:\Users\katri\OneDrive\Documents\Fall 2020\Sternberg Memory Task,no,mono,no,18,no,white,no,yes,768,legacy,63,11,C:/Users/katri/OneDrive/Documents/Fall 2020/Sternberg Memory Task/subject-2.csv,legacy,3 4,Lentiform Loewenfeld,3.3.3,1,y,0,left,right,right,left,NA,1075,44112,18901,1075,NA,2,legacy,2,1024,2,48000,-16,experiment,2,even,3,537785,538862,144108,538863,541070,461844,3246,125207,543074,544150,539865,47359,543074,NA,3238,Sternberg Task,66,73600,76,yes,1024
87.01298701,87.01298701,976.2857143,976.2857143,black,experiment,legacy,legacy,legacy,0,uniform,1,undefined,1,right,76,76,0,76,76,76,0,0,76,76,76,0,76,0,0,Sat Oct 24 23:10:51 2020,The main experiment item,yes,SternbergTask.osexp,C:\Users\katri\OneDrive\Documents\Fall 2020\Sternberg Memory Task,no,mono,no,18,no,white,no,yes,768,legacy,64,11,C:/Users/katri/OneDrive/Documents/Fall 2020/Sternberg Memory Task/subject-2.csv,legacy,2 6 4 3 9,Lentiform Loewenfeld,3.3.3,0,n,0,right,right,right,right,NA,1574,44112,18901,1574,NA,2,legacy,5,1024,2,48000,-16,experiment,2,even,1,544160,545264,144108,545266,547476,461844,3246,125207,549481,551056,546270,47359,549480,NA,3238,Sternberg Task,67,75174,77,yes,1024
87.17948718,87.17948718,978.0641026,978.0641026,black,experiment,legacy,legacy,legacy,0,uniform,1,undefined,1,left,77,77,0,77,77,77,0,0,77,77,77,0,77,0,0,Sat Oct 24 23:10:51 2020,The main experiment item,yes,SternbergTask.osexp,C:\Users\katri\OneDrive\Documents\Fall 2020\Sternberg Memory Task,no,mono,no,18,no,white,no,yes,768,legacy,65,11,C:/Users/katri/OneDrive/Documents/Fall 2020/Sternberg Memory Task/subject-2.csv,legacy,3 2 1 4 7,Lentiform Loewenfeld,3.3.3,2,y,0,left,right,right,left,NA,1115,44112,18901,1115,NA,2,legacy,5,1024,2,48000,-16,experiment,2,even,2,551066,552159,144108,552161,554369,461844,3246,125207,556371,557486,553165,47359,556371,NA,3238,Sternberg Task,68,76289,78,yes,1024
87.34177215,87.34177215,982.2025316,982.2025316,black,experiment,legacy,legacy,legacy,0,uniform,1,undefined,1,right,78,78,0,78,78,78,0,0,78,78,78,0,78,0,0,Sat Oct 24 23:10:51 2020,The main experiment item,yes,SternbergTask.osexp,C:\Users\katri\OneDrive\Documents\Fall 2020\Sternberg Memory Task,no,mono,no,18,no,white,no,yes,768,legacy,66,11,C:/Users/katri/OneDrive/Documents/Fall 2020/Sternberg Memory Task/subject-2.csv,legacy,6 7 5 9,Lentiform Loewenfeld,3.3.3,0,n,0,right,right,right,right,NA,1305,44112,18901,1305,NA,2,legacy,4,1024,2,48000,-16,experiment,2,even,2,557512,558604,144108,558605,560811,461844,3246,125207,562813,564119,559607,47359,562813,NA,3238,Sternberg Task,69,77594,79,yes,1024
87.5,87.5,984.4875,984.4875,black,experiment,legacy,legacy,legacy,0,uniform,1,undefined,1,left,79,79,0,79,79,79,0,0,79,79,79,0,79,0,0,Sat Oct 24 23:10:51 2020,The main experiment item,yes,SternbergTask.osexp,C:\Users\katri\OneDrive\Documents\Fall 2020\Sternberg Memory Task,no,mono,no,18,no,white,no,yes,768,legacy,67,11,C:/Users/katri/OneDrive/Documents/Fall 2020/Sternberg Memory Task/subject-2.csv,legacy,9 6 2 4 1,Lentiform Loewenfeld,3.3.3,4,y,0,left,right,right,left,NA,1165,44112,18901,1165,NA,2,legacy,5,1024,2,48000,-16,experiment,2,even,4,564128,565221,144108,565223,567431,461844,3246,125207,569433,570599,566227,47359,569433,NA,3238,Sternberg Task,70,78759,80,yes,1024
87.65432099,87.65432099,983.2592593,983.2592593,black,experiment,legacy,legacy,legacy,0,uniform,1,undefined,1,right,80,80,0,80,80,80,0,0,80,80,80,0,80,0,0,Sat Oct 24 23:10:51 2020,The main experiment item,yes,SternbergTask.osexp,C:\Users\katri\OneDrive\Documents\Fall 2020\Sternberg Memory Task,no,mono,no,18,no,white,no,yes,768,legacy,68,11,C:/Users/katri/OneDrive/Documents/Fall 2020/Sternberg Memory Task/subject-2.csv,legacy,9 5 3 2 8 6,Lentiform Loewenfeld,3.3.3,0,n,0,right,right,right,right,NA,885,44112,18901,885,NA,2,legacy,6,1024,2,48000,-16,experiment,2,even,7,570651,571743,144108,571744,573952,461844,3246,125207,575957,576843,572748,47359,575957,NA,3238,Sternberg Task,71,79644,81,yes,1024
87.80487805,87.80487805,981.3658537,981.3658537,black,experiment,legacy,legacy,legacy,0,uniform,1,undefined,1,right,81,81,0,81,81,81,0,0,81,81,81,0,81,0,0,Sat Oct 24 23:10:51 2020,The main experiment item,yes,SternbergTask.osexp,C:\Users\katri\OneDrive\Documents\Fall 2020\Sternberg Memory Task,no,mono,no,18,no,white,no,yes,768,legacy,69,11,C:/Users/katri/OneDrive/Documents/Fall 2020/Sternberg Memory Task/subject-2.csv,legacy,3 4 2,Lentiform Loewenfeld,3.3.3,0,n,0,right,right,right,right,NA,828,44112,18901,828,NA,2,legacy,3,1024,2,48000,-16,experiment,2,even,5,576848,577958,144108,577960,580169,461844,3246,125207,582171,583000,578965,47359,582171,NA,3238,Sternberg Task,72,80472,82,yes,1024
87.95180723,87.95180723,978.9879518,978.9879518,black,experiment,legacy,legacy,legacy,0,uniform,1,undefined,1,left,82,82,0,82,82,82,0,0,82,82,82,0,82,0,0,Sat Oct 24 23:10:51 2020,The main experiment item,yes,SternbergTask.osexp,C:\Users\katri\OneDrive\Documents\Fall 2020\Sternberg Memory Task,no,mono,no,18,no,white,no,yes,768,legacy,70,11,C:/Users/katri/OneDrive/Documents/Fall 2020/Sternberg Memory Task/subject-2.csv,legacy,4,Lentiform Loewenfeld,3.3.3,1,y,0,left,right,right,left,NA,784,44112,18901,784,NA,2,legacy,1,1024,2,48000,-16,experiment,2,even,4,583026,584137,144108,584139,586347,461844,3246,125207,588349,589134,585144,47359,588349,NA,3238,Sternberg Task,73,81256,83,yes,1024
88.0952381,88.0952381,979.4285714,979.4285714,black,experiment,legacy,legacy,legacy,0,uniform,1,undefined,1,left,83,83,0,83,83,83,0,0,83,83,83,0,83,0,0,Sat Oct 24 23:10:51 2020,The main experiment item,yes,SternbergTask.osexp,C:\Users\katri\OneDrive\Documents\Fall 2020\Sternberg Memory Task,no,mono,no,18,no,white,no,yes,768,legacy,71,11,C:/Users/katri/OneDrive/Documents/Fall 2020/Sternberg Memory Task/subject-2.csv,legacy,3 9 7 6 4,Lentiform Loewenfeld,3.3.3,3,y,0,left,right,right,left,NA,1016,44112,18901,1016,NA,2,legacy,5,1024,2,48000,-16,experiment,2,even,7,589159,590251,144108,590253,592460,461844,3246,125207,594462,595478,591255,47359,594462,NA,3238,Sternberg Task,74,82272,84,yes,1024
88.23529412,88.23529412,977.8,977.8,black,experiment,legacy,legacy,legacy,0,uniform,1,undefined,1,left,84,84,0,84,84,84,0,0,84,84,84,0,84,0,0,Sat Oct 24 23:10:51 2020,The main experiment item,yes,SternbergTask.osexp,C:\Users\katri\OneDrive\Documents\Fall 2020\Sternberg Memory Task,no,mono,no,18,no,white,no,yes,768,legacy,72,11,C:/Users/katri/OneDrive/Documents/Fall 2020/Sternberg Memory Task/subject-2.csv,legacy,9 3 8 2 1 4,Lentiform Loewenfeld,3.3.3,3,y,0,left,right,right,left,NA,841,44112,18901,841,NA,2,legacy,6,1024,2,48000,-16,experiment,2,even,8,595490,596600,144108,596602,598808,461844,3246,125207,600813,601655,597604,47359,600812,NA,3238,Sternberg Task,75,83113,85,yes,1024
88.37209302,88.37209302,977.4418605,977.4418605,black,experiment,legacy,legacy,legacy,0,uniform,1,undefined,1,left,85,85,0,85,85,85,0,0,85,85,85,0,85,0,0,Sat Oct 24 23:10:51 2020,The main experiment item,yes,SternbergTask.osexp,C:\Users\katri\OneDrive\Documents\Fall 2020\Sternberg Memory Task,no,mono,no,18,no,white,no,yes,768,legacy,73,11,C:/Users/katri/OneDrive/Documents/Fall 2020/Sternberg Memory Task/subject-2.csv,legacy,8 9 5 7 1 6,Lentiform Loewenfeld,3.3.3,4,y,0,left,right,right,left,NA,947,44112,18901,947,NA,2,legacy,6,1024,2,48000,-16,experiment,2,even,7,601679,602775,144108,602777,604986,461844,3246,125207,606988,607935,603781,47359,606988,NA,3238,Sternberg Task,76,84060,86,yes,1024
88.50574713,88.50574713,977.045977,977.045977,black,experiment,legacy,legacy,legacy,0,uniform,1,undefined,1,right,86,86,0,86,86,86,0,0,86,86,86,0,86,0,0,Sat Oct 24 23:10:51 2020,The main experiment item,yes,SternbergTask.osexp,C:\Users\katri\OneDrive\Documents\Fall 2020\Sternberg Memory Task,no,mono,no,18,no,white,no,yes,768,legacy,74,11,C:/Users/katri/OneDrive/Documents/Fall 2020/Sternberg Memory Task/subject-2.csv,legacy,6 8 4,Lentiform Loewenfeld,3.3.3,0,n,0,right,right,right,right,NA,943,44112,18901,943,NA,2,legacy,3,1024,2,48000,-16,experiment,2,even,1,607944,609049,144108,609050,611256,461844,3246,125207,613258,614201,610052,47359,613258,NA,3238,Sternberg Task,77,85003,87,yes,1024
88.63636364,88.63636364,974.0340909,974.0340909,black,experiment,legacy,legacy,legacy,0,uniform,1,undefined,1,right,87,87,0,87,87,87,0,0,87,87,87,0,87,0,0,Sat Oct 24 23:10:51 2020,The main experiment item,yes,SternbergTask.osexp,C:\Users\katri\OneDrive\Documents\Fall 2020\Sternberg Memory Task,no,mono,no,18,no,white,no,yes,768,legacy,75,11,C:/Users/katri/OneDrive/Documents/Fall 2020/Sternberg Memory Task/subject-2.csv,legacy,5 7 3,Lentiform Loewenfeld,3.3.3,0,n,0,right,right,right,right,NA,712,44112,18901,712,NA,2,legacy,3,1024,2,48000,-16,experiment,2,even,9,614225,615336,144108,615337,617548,461844,3246,125207,619550,620263,616342,47359,619550,NA,3238,Sternberg Task,78,85715,88,yes,1024
88.76404494,88.76404494,975.505618,975.505618,black,experiment,legacy,legacy,legacy,0,uniform,1,undefined,1,right,88,88,0,88,88,88,0,0,88,88,88,0,88,0,0,Sat Oct 24 23:10:51 2020,The main experiment item,yes,SternbergTask.osexp,C:\Users\katri\OneDrive\Documents\Fall 2020\Sternberg Memory Task,no,mono,no,18,no,white,no,yes,768,legacy,76,11,C:/Users/katri/OneDrive/Documents/Fall 2020/Sternberg Memory Task/subject-2.csv,legacy,2 8 7 9 5 3,Lentiform Loewenfeld,3.3.3,0,n,0,right,right,right,right,NA,1105,44112,18901,1105,NA,2,legacy,6,1024,2,48000,-16,experiment,2,even,6,620287,621399,144108,621401,623607,461844,3246,125207,625612,626718,622403,47359,625611,NA,3238,Sternberg Task,79,86820,89,yes,1024
88.88888889,88.88888889,981.3777778,981.3777778,black,experiment,legacy,legacy,legacy,0,uniform,1,undefined,1,right,89,89,0,89,89,89,0,0,89,89,89,0,89,0,0,Sat Oct 24 23:10:51 2020,The main experiment item,yes,SternbergTask.osexp,C:\Users\katri\OneDrive\Documents\Fall 2020\Sternberg Memory Task,no,mono,no,18,no,white,no,yes,768,legacy,77,11,C:/Users/katri/OneDrive/Documents/Fall 2020/Sternberg Memory Task/subject-2.csv,legacy,1 4 3 6 5,Lentiform Loewenfeld,3.3.3,0,n,0,right,right,right,right,NA,1504,44112,18901,1504,NA,2,legacy,5,1024,2,48000,-16,experiment,2,even,8,626743,627837,144108,627839,630045,461844,3246,125207,632047,633551,628841,47359,632047,NA,3238,Sternberg Task,80,88324,90,yes,1024
87.91208791,87.91208791,982.3626374,982.3626374,black,experiment,legacy,legacy,legacy,0,uniform,0,undefined,0,right,90,90,0,90,90,90,0,0,90,90,90,0,90,0,0,Sat Oct 24 23:10:51 2020,The main experiment item,yes,SternbergTask.osexp,C:\Users\katri\OneDrive\Documents\Fall 2020\Sternberg Memory Task,no,mono,no,18,no,white,no,yes,768,legacy,78,11,C:/Users/katri/OneDrive/Documents/Fall 2020/Sternberg Memory Task/subject-2.csv,legacy,5 3 2 6 9 8,Lentiform Loewenfeld,3.3.3,0,n,0,left,right,right,left,NA,1071,44112,18901,1071,NA,2,legacy,6,1024,2,48000,-16,experiment,2,even,4,633577,634665,144108,634667,636876,461844,3246,125207,638881,639953,635671,47359,638880,NA,3238,Sternberg Task,80,89395,91,yes,1024
88.04347826,88.04347826,982.4130435,982.4130435,black,experiment,legacy,legacy,legacy,0,uniform,1,undefined,1,right,91,91,0,91,91,91,0,0,91,91,91,0,91,0,0,Sat Oct 24 23:10:51 2020,The main experiment item,yes,SternbergTask.osexp,C:\Users\katri\OneDrive\Documents\Fall 2020\Sternberg Memory Task,no,mono,no,18,no,white,no,yes,768,legacy,79,11,C:/Users/katri/OneDrive/Documents/Fall 2020/Sternberg Memory Task/subject-2.csv,legacy,3 9 8 1 6 4,Lentiform Loewenfeld,3.3.3,0,n,0,right,right,right,right,NA,987,44112,18901,987,NA,2,legacy,6,1024,2,48000,-16,experiment,2,even,7,633577,641064,144108,641066,643274,639978,3246,125207,645276,646263,642070,47359,645276,NA,3238,Sternberg Task,81,90382,92,yes,1024
88.17204301,88.17204301,982.8602151,982.8602151,black,experiment,legacy,legacy,legacy,0,uniform,1,undefined,1,right,92,92,0,92,92,92,0,0,92,92,92,0,92,0,0,Sat Oct 24 23:10:51 2020,The main experiment item,yes,SternbergTask.osexp,C:\Users\katri\OneDrive\Documents\Fall 2020\Sternberg Memory Task,no,mono,no,18,no,white,no,yes,768,legacy,80,11,C:/Users/katri/OneDrive/Documents/Fall 2020/Sternberg Memory Task/subject-2.csv,legacy,6 9 5,Lentiform Loewenfeld,3.3.3,0,n,0,right,right,right,right,NA,1024,44112,18901,1024,NA,2,legacy,3,1024,2,48000,-16,experiment,2,even,8,646315,647423,144108,647425,649633,639978,3246,125207,651635,652660,648429,47359,651635,NA,3238,Sternberg Task,82,91406,93,yes,1024
88.29787234,88.29787234,980.606383,980.606383,black,experiment,legacy,legacy,legacy,0,uniform,1,undefined,1,right,93,93,0,93,93,93,0,0,93,93,93,0,93,0,0,Sat Oct 24 23:10:51 2020,The main experiment item,yes,SternbergTask.osexp,C:\Users\katri\OneDrive\Documents\Fall 2020\Sternberg Memory Task,no,mono,no,18,no,white,no,yes,768,legacy,81,11,C:/Users/katri/OneDrive/Documents/Fall 2020/Sternberg Memory Task/subject-2.csv,legacy,8 4 3 9,Lentiform Loewenfeld,3.3.3,0,n,0,right,right,right,right,NA,771,44112,18901,771,NA,2,legacy,4,1024,2,48000,-16,experiment,2,even,5,652672,653780,144108,653782,655991,639978,3246,125207,657995,658766,654786,47359,657995,NA,3238,Sternberg Task,83,92177,94,yes,1024
88.42105263,88.42105263,979.3157895,979.3157895,black,experiment,legacy,legacy,legacy,0,uniform,1,undefined,1,right,94,94,0,94,94,94,0,0,94,94,94,0,94,0,0,Sat Oct 24 23:10:51 2020,The main experiment item,yes,SternbergTask.osexp,C:\Users\katri\OneDrive\Documents\Fall 2020\Sternberg Memory Task,no,mono,no,18,no,white,no,yes,768,legacy,82,11,C:/Users/katri/OneDrive/Documents/Fall 2020/Sternberg Memory Task/subject-2.csv,legacy,1 4 9 3,Lentiform Loewenfeld,3.3.3,0,n,0,right,right,right,right,NA,858,44112,18901,858,NA,2,legacy,4,1024,2,48000,-16,experiment,2,even,5,658793,659912,144108,659914,662123,639978,3246,125207,664125,664984,660918,47359,664125,NA,3238,Sternberg Task,84,93035,95,yes,1024
88.54166667,88.54166667,978.65625,978.65625,black,experiment,legacy,legacy,legacy,0,uniform,1,undefined,1,right,95,95,0,95,95,95,0,0,95,95,95,0,95,0,0,Sat Oct 24 23:10:51 2020,The main experiment item,yes,SternbergTask.osexp,C:\Users\katri\OneDrive\Documents\Fall 2020\Sternberg Memory Task,no,mono,no,18,no,white,no,yes,768,legacy,83,11,C:/Users/katri/OneDrive/Documents/Fall 2020/Sternberg Memory Task/subject-2.csv,legacy,2 5 1 4,Lentiform Loewenfeld,3.3.3,0,n,0,right,right,right,right,NA,916,44112,18901,916,NA,2,legacy,4,1024,2,48000,-16,experiment,2,even,6,665009,666118,144108,666119,668327,639978,3246,125207,670332,671249,667123,47359,670331,NA,3238,Sternberg Task,85,93951,96,yes,1024
88.65979381,88.65979381,979.0618557,979.0618557,black,experiment,legacy,legacy,legacy,0,uniform,1,undefined,1,right,96,96,0,96,96,96,0,0,96,96,96,0,96,0,0,Sat Oct 24 23:10:51 2020,The main experiment item,yes,SternbergTask.osexp,C:\Users\katri\OneDrive\Documents\Fall 2020\Sternberg Memory Task,no,mono,no,18,no,white,no,yes,768,legacy,84,11,C:/Users/katri/OneDrive/Documents/Fall 2020/Sternberg Memory Task/subject-2.csv,legacy,5 2,Lentiform Loewenfeld,3.3.3,0,n,0,right,right,right,right,NA,1018,44112,18901,1018,NA,2,legacy,2,1024,2,48000,-16,experiment,2,even,7,671261,672355,144108,672357,674564,639978,3246,125207,676566,677585,673361,47359,676566,NA,3238,Sternberg Task,86,94969,97,yes,1024
88.7755102,88.7755102,976.4081633,976.4081633,black,experiment,legacy,legacy,legacy,0,uniform,1,undefined,1,right,97,97,0,97,97,97,0,0,97,97,97,0,97,0,0,Sat Oct 24 23:10:51 2020,The main experiment item,yes,SternbergTask.osexp,C:\Users\katri\OneDrive\Documents\Fall 2020\Sternberg Memory Task,no,mono,no,18,no,white,no,yes,768,legacy,85,11,C:/Users/katri/OneDrive/Documents/Fall 2020/Sternberg Memory Task/subject-2.csv,legacy,7 6 4 8 1 2,Lentiform Loewenfeld,3.3.3,0,n,0,right,right,right,right,NA,719,44112,18901,719,NA,2,legacy,6,1024,2,48000,-16,experiment,2,even,9,677594,678701,144108,678702,680911,639978,3246,125207,682913,683634,679707,47359,682913,NA,3238,Sternberg Task,87,95688,98,yes,1024
88.88888889,88.88888889,978.4646465,978.4646465,black,experiment,legacy,legacy,legacy,0,uniform,1,undefined,1,left,98,98,0,98,98,98,0,0,98,98,98,0,98,0,0,Sat Oct 24 23:10:51 2020,The main experiment item,yes,SternbergTask.osexp,C:\Users\katri\OneDrive\Documents\Fall 2020\Sternberg Memory Task,no,mono,no,18,no,white,no,yes,768,legacy,86,11,C:/Users/katri/OneDrive/Documents/Fall 2020/Sternberg Memory Task/subject-2.csv,legacy,5 7 3 6 2,Lentiform Loewenfeld,3.3.3,5,y,0,left,right,right,left,NA,1180,44112,18901,1180,NA,2,legacy,5,1024,2,48000,-16,experiment,2,even,2,683660,684771,144108,684773,686981,639978,3246,125207,688983,690164,685777,47359,688983,NA,3238,Sternberg Task,88,96868,99,yes,1024
88,88,978.69,978.69,black,experiment,legacy,legacy,legacy,0,uniform,0,undefined,0,left,99,99,0,99,99,99,0,0,99,99,99,0,99,0,0,Sat Oct 24 23:10:51 2020,The main experiment item,yes,SternbergTask.osexp,C:\Users\katri\OneDrive\Documents\Fall 2020\Sternberg Memory Task,no,mono,no,18,no,white,no,yes,768,legacy,87,11,C:/Users/katri/OneDrive/Documents/Fall 2020/Sternberg Memory Task/subject-2.csv,legacy,2 4 6 9,Lentiform Loewenfeld,3.3.3,3,y,0,right,right,right,right,NA,1001,44112,18901,1001,NA,2,legacy,4,1024,2,48000,-16,experiment,2,even,6,690173,691278,144108,691279,693488,639978,3246,125207,695493,696494,692283,47359,695492,NA,3238,Sternberg Task,88,97869,100,yes,1024
88.11881188,88.11881188,978.7821782,978.7821782,black,experiment,legacy,legacy,legacy,0,uniform,1,undefined,1,right,100,100,0,100,100,100,0,0,100,100,100,0,100,0,0,Sat Oct 24 23:10:51 2020,The main experiment item,yes,SternbergTask.osexp,C:\Users\katri\OneDrive\Documents\Fall 2020\Sternberg Memory Task,no,mono,no,18,no,white,no,yes,768,legacy,88,11,C:/Users/katri/OneDrive/Documents/Fall 2020/Sternberg Memory Task/subject-2.csv,legacy,7 9 1 6,Lentiform Loewenfeld,3.3.3,0,n,0,right,right,right,right,NA,988,44112,18901,988,NA,2,legacy,4,1024,2,48000,-16,experiment,2,even,4,690173,697637,144108,697639,699847,696546,3246,125207,701852,702841,698643,47359,701851,NA,3238,Sternberg Task,89,98857,101,yes,1024
88.23529412,88.23529412,980.6078431,980.6078431,black,experiment,legacy,legacy,legacy,0,uniform,1,undefined,1,left,101,101,0,101,101,101,0,0,101,101,101,0,101,0,0,Sat Oct 24 23:10:51 2020,The main experiment item,yes,SternbergTask.osexp,C:\Users\katri\OneDrive\Documents\Fall 2020\Sternberg Memory Task,no,mono,no,18,no,white,no,yes,768,legacy,89,11,C:/Users/katri/OneDrive/Documents/Fall 2020/Sternberg Memory Task/subject-2.csv,legacy,8 5 4 7 3 1,Lentiform Loewenfeld,3.3.3,2,y,0,left,right,right,left,NA,1165,44112,18901,1165,NA,2,legacy,6,1024,2,48000,-16,experiment,2,even,5,702893,704001,144108,704002,706212,696546,3246,125207,708214,709379,705007,47359,708214,NA,3238,Sternberg Task,90,100022,102,yes,1024
88.34951456,88.34951456,981.2038835,981.2038835,black,experiment,legacy,legacy,legacy,0,uniform,1,undefined,1,left,102,102,0,102,102,102,0,0,102,102,102,0,102,0,0,Sat Oct 24 23:10:51 2020,The main experiment item,yes,SternbergTask.osexp,C:\Users\katri\OneDrive\Documents\Fall 2020\Sternberg Memory Task,no,mono,no,18,no,white,no,yes,768,legacy,90,11,C:/Users/katri/OneDrive/Documents/Fall 2020/Sternberg Memory Task/subject-2.csv,legacy,4 6 2 5 1,Lentiform Loewenfeld,3.3.3,5,y,0,left,right,right,left,NA,1042,44112,18901,1042,NA,2,legacy,5,1024,2,48000,-16,experiment,2,even,1,709405,710498,144108,710499,712708,696546,3246,125207,714711,715754,711503,47359,714711,NA,3238,Sternberg Task,91,101064,103,yes,1024
88.46153846,88.46153846,984.3942308,984.3942308,black,experiment,legacy,legacy,legacy,0,uniform,1,undefined,1,left,103,103,0,103,103,103,0,0,103,103,103,0,103,0,0,Sat Oct 24 23:10:51 2020,The main experiment item,yes,SternbergTask.osexp,C:\Users\katri\OneDrive\Documents\Fall 2020\Sternberg Memory Task,no,mono,no,18,no,white,no,yes,768,legacy,91,11,C:/Users/katri/OneDrive/Documents/Fall 2020/Sternberg Memory Task/subject-2.csv,legacy,9 1 7 2,Lentiform Loewenfeld,3.3.3,2,y,0,left,right,right,left,NA,1313,44112,18901,1313,NA,2,legacy,4,1024,2,48000,-16,experiment,2,even,1,715778,716873,144108,716874,719080,696546,3246,125207,721082,722396,717877,47359,721082,NA,3238,Sternberg Task,92,102377,104,yes,1024
88.57142857,88.57142857,986.1333333,986.1333333,black,experiment,legacy,legacy,legacy,0,uniform,1,undefined,1,left,104,104,0,104,104,104,0,0,104,104,104,0,104,0,0,Sat Oct 24 23:10:51 2020,The main experiment item,yes,SternbergTask.osexp,C:\Users\katri\OneDrive\Documents\Fall 2020\Sternberg Memory Task,no,mono,no,18,no,white,no,yes,768,legacy,92,11,C:/Users/katri/OneDrive/Documents/Fall 2020/Sternberg Memory Task/subject-2.csv,legacy,7 4 2 6 3 5,Lentiform Loewenfeld,3.3.3,6,y,0,left,right,right,left,NA,1167,44112,18901,1167,NA,2,legacy,6,1024,2,48000,-16,experiment,2,even,5,722406,723509,144108,723510,725716,696546,3246,125207,727720,728888,724512,47359,727720,NA,3238,Sternberg Task,93,103544,105,yes,1024
88.67924528,88.67924528,983.8113208,983.8113208,black,experiment,legacy,legacy,legacy,0,uniform,1,undefined,1,right,105,105,0,105,105,105,0,0,105,105,105,0,105,0,0,Sat Oct 24 23:10:51 2020,The main experiment item,yes,SternbergTask.osexp,C:\Users\katri\OneDrive\Documents\Fall 2020\Sternberg Memory Task,no,mono,no,18,no,white,no,yes,768,legacy,93,11,C:/Users/katri/OneDrive/Documents/Fall 2020/Sternberg Memory Task/subject-2.csv,legacy,1 7 5 2,Lentiform Loewenfeld,3.3.3,0,n,0,right,right,right,right,NA,740,44112,18901,740,NA,2,legacy,4,1024,2,48000,-16,experiment,2,even,3,728939,730050,144108,730052,732258,696546,3246,125207,734263,735004,731054,47359,734263,NA,3238,Sternberg Task,94,104284,106,yes,1024
88.78504673,88.78504673,984.5233645,984.5233645,black,experiment,legacy,legacy,legacy,0,uniform,1,undefined,1,right,106,106,0,106,106,106,0,0,106,106,106,0,106,0,0,Sat Oct 24 23:10:51 2020,The main experiment item,yes,SternbergTask.osexp,C:\Users\katri\OneDrive\Documents\Fall 2020\Sternberg Memory Task,no,mono,no,18,no,white,no,yes,768,legacy,94,11,C:/Users/katri/OneDrive/Documents/Fall 2020/Sternberg Memory Task/subject-2.csv,legacy,6 8,Lentiform Loewenfeld,3.3.3,0,n,0,right,right,right,right,NA,1060,44112,18901,1060,NA,2,legacy,2,1024,2,48000,-16,experiment,2,even,9,735060,736165,144108,736167,738373,696546,3246,125207,740378,741438,737169,47359,740378,NA,3238,Sternberg Task,95,105344,107,yes,1024
88.88888889,88.88888889,986.1018519,986.1018519,black,experiment,legacy,legacy,legacy,0,uniform,1,undefined,1,right,107,107,0,107,107,107,0,0,107,107,107,0,107,0,0,Sat Oct 24 23:10:51 2020,The main experiment item,yes,SternbergTask.osexp,C:\Users\katri\OneDrive\Documents\Fall 2020\Sternberg Memory Task,no,mono,no,18,no,white,no,yes,768,legacy,95,11,C:/Users/katri/OneDrive/Documents/Fall 2020/Sternberg Memory Task/subject-2.csv,legacy,7 8 6 1,Lentiform Loewenfeld,3.3.3,0,n,0,right,right,right,right,NA,1155,44112,18901,1155,NA,2,legacy,4,1024,2,48000,-16,experiment,2,even,3,741463,742569,144108,742571,744777,696546,3246,125207,746780,747936,743572,47359,746780,NA,3238,Sternberg Task,96,106499,108,yes,1024
88.0733945,88.0733945,995.4036697,995.4036697,black,experiment,legacy,legacy,legacy,0,uniform,0,undefined,0,right,108,108,0,108,108,108,0,0,108,108,108,0,108,0,0,Sat Oct 24 23:10:51 2020,The main experiment item,yes,SternbergTask.osexp,C:\Users\katri\OneDrive\Documents\Fall 2020\Sternberg Memory Task,no,mono,no,18,no,white,no,yes,768,legacy,96,11,C:/Users/katri/OneDrive/Documents/Fall 2020/Sternberg Memory Task/subject-2.csv,legacy,4 8 1 2,Lentiform Loewenfeld,3.3.3,0,n,0,None,right,right,None,NA,2000,44112,18901,2000,NA,2,legacy,4,1024,2,48000,-16,experiment,2,even,7,747946,749036,144108,749038,751246,696546,3246,125207,753251,755251,750040,47359,753250,NA,3238,Sternberg Task,96,108499,109,yes,1024
87.27272727,87.27272727,992.7909091,992.7909091,black,experiment,legacy,legacy,legacy,0,uniform,0,undefined,0,left,109,109,0,109,109,109,0,0,109,109,109,0,109,0,0,Sat Oct 24 23:10:51 2020,The main experiment item,yes,SternbergTask.osexp,C:\Users\katri\OneDrive\Documents\Fall 2020\Sternberg Memory Task,no,mono,no,18,no,white,no,yes,768,legacy,97,11,C:/Users/katri/OneDrive/Documents/Fall 2020/Sternberg Memory Task/subject-2.csv,legacy,7,Lentiform Loewenfeld,3.3.3,1,y,0,right,right,right,right,NA,708,44112,18901,708,NA,2,legacy,1,1024,2,48000,-16,experiment,2,even,7,747946,756370,144108,756371,758581,755258,3246,125207,760586,761295,757375,47359,760585,NA,3238,Sternberg Task,96,109207,110,yes,1024
87.38738739,87.38738739,997.6846847,997.6846847,black,experiment,legacy,legacy,legacy,0,uniform,1,undefined,1,left,110,110,0,110,110,110,0,0,110,110,110,0,110,0,0,Sat Oct 24 23:10:51 2020,The main experiment item,yes,SternbergTask.osexp,C:\Users\katri\OneDrive\Documents\Fall 2020\Sternberg Memory Task,no,mono,no,18,no,white,no,yes,768,legacy,98,11,C:/Users/katri/OneDrive/Documents/Fall 2020/Sternberg Memory Task/subject-2.csv,legacy,7 1 8 5 6 2,Lentiform Loewenfeld,3.3.3,2,y,0,left,right,right,left,NA,1536,44112,18901,1536,NA,2,legacy,6,1024,2,48000,-16,experiment,2,even,1,747946,762429,144108,762431,764640,761321,3246,125207,766641,768178,763435,47359,766641,NA,3238,Sternberg Task,97,110743,111,yes,1024
87.5,87.5,997.3928571,997.3928571,black,experiment,legacy,legacy,legacy,0,uniform,1,undefined,1,left,111,111,0,111,111,111,0,0,111,111,111,0,111,0,0,Sat Oct 24 23:10:51 2020,The main experiment item,yes,SternbergTask.osexp,C:\Users\katri\OneDrive\Documents\Fall 2020\Sternberg Memory Task,no,mono,no,18,no,white,no,yes,768,legacy,99,11,C:/Users/katri/OneDrive/Documents/Fall 2020/Sternberg Memory Task/subject-2.csv,legacy,2 5 4 8 7,Lentiform Loewenfeld,3.3.3,3,y,0,left,right,right,left,NA,965,44112,18901,965,NA,2,legacy,5,1024,2,48000,-16,experiment,2,even,4,768187,769298,144108,769302,771511,761321,3246,125207,773515,774481,770307,47359,773515,NA,3238,Sternberg Task,98,111708,112,yes,1024
87.61061947,87.61061947,995.8938053,995.8938053,black,experiment,legacy,legacy,legacy,0,uniform,1,undefined,1,right,112,112,0,112,112,112,0,0,112,112,112,0,112,0,0,Sat Oct 24 23:10:51 2020,The main experiment item,yes,SternbergTask.osexp,C:\Users\katri\OneDrive\Documents\Fall 2020\Sternberg Memory Task,no,mono,no,18,no,white,no,yes,768,legacy,100,11,C:/Users/katri/OneDrive/Documents/Fall 2020/Sternberg Memory Task/subject-2.csv,legacy,6 9 4 5 2,Lentiform Loewenfeld,3.3.3,0,n,0,right,right,right,right,NA,828,44112,18901,828,NA,2,legacy,5,1024,2,48000,-16,experiment,2,even,1,774507,775614,144108,775616,777823,761321,3246,125207,779825,780655,776618,47359,779825,NA,3238,Sternberg Task,99,112536,113,yes,1024
87.71929825,87.71929825,994.745614,994.745614,black,experiment,legacy,legacy,legacy,0,uniform,1,undefined,1,right,113,113,0,113,113,113,0,0,113,113,113,0,113,0,0,Sat Oct 24 23:10:51 2020,The main experiment item,yes,SternbergTask.osexp,C:\Users\katri\OneDrive\Documents\Fall 2020\Sternberg Memory Task,no,mono,no,18,no,white,no,yes,768,legacy,101,11,C:/Users/katri/OneDrive/Documents/Fall 2020/Sternberg Memory Task/subject-2.csv,legacy,5,Lentiform Loewenfeld,3.3.3,0,n,0,right,right,right,right,NA,865,44112,18901,865,NA,2,legacy,1,1024,2,48000,-16,experiment,2,even,8,780667,781756,144108,781757,783966,761321,3246,125207,785968,786834,782761,47359,785968,NA,3238,Sternberg Task,100,113401,114,yes,1024
87.82608696,87.82608696,994.1304348,994.1304348,black,experiment,legacy,legacy,legacy,0,uniform,1,undefined,1,right,114,114,0,114,114,114,0,0,114,114,114,0,114,0,0,Sat Oct 24 23:10:51 2020,The main experiment item,yes,SternbergTask.osexp,C:\Users\katri\OneDrive\Documents\Fall 2020\Sternberg Memory Task,no,mono,no,18,no,white,no,yes,768,legacy,102,11,C:/Users/katri/OneDrive/Documents/Fall 2020/Sternberg Memory Task/subject-2.csv,legacy,1 6 4 3 9 7,Lentiform Loewenfeld,3.3.3,0,n,0,right,right,right,right,NA,924,44112,18901,924,NA,2,legacy,6,1024,2,48000,-16,experiment,2,even,8,786860,787970,144108,787971,790180,761321,3246,125207,792182,793107,788975,47359,792182,NA,3238,Sternberg Task,101,114325,115,yes,1024
87.93103448,87.93103448,995.637931,995.637931,black,experiment,legacy,legacy,legacy,0,uniform,1,undefined,1,left,115,115,0,115,115,115,0,0,115,115,115,0,115,0,0,Sat Oct 24 23:10:51 2020,The main experiment item,yes,SternbergTask.osexp,C:\Users\katri\OneDrive\Documents\Fall 2020\Sternberg Memory Task,no,mono,no,18,no,white,no,yes,768,legacy,103,11,C:/Users/katri/OneDrive/Documents/Fall 2020/Sternberg Memory Task/subject-2.csv,legacy,8 5 3 7 4 6,Lentiform Loewenfeld,3.3.3,6,y,0,left,right,right,left,NA,1169,44112,18901,1169,NA,2,legacy,6,1024,2,48000,-16,experiment,2,even,6,793116,794226,144108,794228,796437,761321,3246,125207,798440,799610,795233,47359,798440,NA,3238,Sternberg Task,102,115494,116,yes,1024
88.03418803,88.03418803,994.7008547,994.7008547,black,experiment,legacy,legacy,legacy,0,uniform,1,undefined,1,left,116,116,0,116,116,116,0,0,116,116,116,0,116,0,0,Sat Oct 24 23:10:51 2020,The main experiment item,yes,SternbergTask.osexp,C:\Users\katri\OneDrive\Documents\Fall 2020\Sternberg Memory Task,no,mono,no,18,no,white,no,yes,768,legacy,104,11,C:/Users/katri/OneDrive/Documents/Fall 2020/Sternberg Memory Task/subject-2.csv,legacy,8 3,Lentiform Loewenfeld,3.3.3,2,y,0,left,right,right,left,NA,886,44112,18901,886,NA,2,legacy,2,1024,2,48000,-16,experiment,2,even,3,799634,800737,144108,800739,802943,761321,3246,125207,804946,805832,801741,47359,804946,NA,3238,Sternberg Task,103,116380,117,yes,1024
88.13559322,88.13559322,993.4067797,993.4067797,black,experiment,legacy,legacy,legacy,0,uniform,1,undefined,1,left,117,117,0,117,117,117,0,0,117,117,117,0,117,0,0,Sat Oct 24 23:10:51 2020,The main experiment item,yes,SternbergTask.osexp,C:\Users\katri\OneDrive\Documents\Fall 2020\Sternberg Memory Task,no,mono,no,18,no,white,no,yes,768,legacy,105,11,C:/Users/katri/OneDrive/Documents/Fall 2020/Sternberg Memory Task/subject-2.csv,legacy,9 8 4,Lentiform Loewenfeld,3.3.3,1,y,0,left,right,right,left,NA,842,44112,18901,842,NA,2,legacy,3,1024,2,48000,-16,experiment,2,even,9,805844,806951,144108,806952,809161,761321,3246,125207,811166,812009,807956,47359,811165,NA,3238,Sternberg Task,104,117222,118,yes,1024
88.23529412,88.23529412,993.2857143,993.2857143,black,experiment,legacy,legacy,legacy,0,uniform,1,undefined,1,right,118,118,0,118,118,118,0,0,118,118,118,0,118,0,0,Sat Oct 24 23:10:51 2020,The main experiment item,yes,SternbergTask.osexp,C:\Users\katri\OneDrive\Documents\Fall 2020\Sternberg Memory Task,no,mono,no,18,no,white,no,yes,768,legacy,106,11,C:/Users/katri/OneDrive/Documents/Fall 2020/Sternberg Memory Task/subject-2.csv,legacy,5 9 2 3,Lentiform Loewenfeld,3.3.3,0,n,0,right,right,right,right,NA,979,44112,18901,979,NA,2,legacy,4,1024,2,48000,-16,experiment,2,even,8,812060,813151,144108,813153,815359,761321,3246,125207,817364,818344,814155,47359,817363,NA,3238,Sternberg Task,105,118201,119,yes,1024
88.33333333,88.33333333,992.55,992.55,black,experiment,legacy,legacy,legacy,0,uniform,1,undefined,1,left,119,119,0,119,119,119,0,0,119,119,119,0,119,0,0,Sat Oct 24 23:10:51 2020,The main experiment item,yes,SternbergTask.osexp,C:\Users\katri\OneDrive\Documents\Fall 2020\Sternberg Memory Task,no,mono,no,18,no,white,no,yes,768,legacy,107,11,C:/Users/katri/OneDrive/Documents/Fall 2020/Sternberg Memory Task/subject-2.csv,legacy,2 4 8 5 1 3,Lentiform Loewenfeld,3.3.3,1,y,0,left,right,right,left,NA,905,44112,18901,905,NA,2,legacy,6,1024,2,48000,-16,experiment,2,even,2,818351,819459,144108,819461,821667,761321,3246,125207,823669,824575,820463,47359,823669,NA,3238,Sternberg Task,106,119106,120,yes,1024
88.42975207,88.42975207,990.6280992,990.6280992,black,experiment,legacy,legacy,legacy,0,uniform,1,undefined,1,left,120,120,0,120,120,120,0,0,120,120,120,0,120,0,0,Sat Oct 24 23:10:51 2020,The main experiment item,yes,SternbergTask.osexp,C:\Users\katri\OneDrive\Documents\Fall 2020\Sternberg Memory Task,no,mono,no,18,no,white,no,yes,768,legacy,108,11,C:/Users/katri/OneDrive/Documents/Fall 2020/Sternberg Memory Task/subject-2.csv,legacy,2 3 7 4,Lentiform Loewenfeld,3.3.3,1,y,0,left,right,right,left,NA,760,44112,18901,760,NA,2,legacy,4,1024,2,48000,-16,experiment,2,even,2,824627,825733,144108,825734,827940,761321,3246,125207,829943,830703,826736,47359,829943,NA,3238,Sternberg Task,107,119866,121,yes,1024
87.70491803,87.70491803,992.9016393,992.9016393,black,experiment,legacy,legacy,legacy,0,uniform,0,undefined,0,left,121,121,0,121,121,121,0,0,121,121,121,0,121,0,0,Sat Oct 24 23:10:51 2020,The main experiment item,yes,SternbergTask.osexp,C:\Users\katri\OneDrive\Documents\Fall 2020\Sternberg Memory Task,no,mono,no,18,no,white,no,yes,768,legacy,109,11,C:/Users/katri/OneDrive/Documents/Fall 2020/Sternberg Memory Task/subject-2.csv,legacy,3 4 9 6 2 9,Lentiform Loewenfeld,3.3.3,5,y,0,right,right,right,right,NA,1268,44112,18901,1268,NA,2,legacy,6,1024,2,48000,-16,experiment,2,even,2,830714,831820,144108,831822,834031,761321,3246,125207,836033,837301,832826,47359,836033,NA,3238,Sternberg Task,107,121134,122,yes,1024
87.80487805,87.80487805,994.5772358,994.5772358,black,experiment,legacy,legacy,legacy,0,uniform,1,undefined,1,right,122,122,0,122,122,122,0,0,122,122,122,0,122,0,0,Sat Oct 24 23:10:51 2020,The main experiment item,yes,SternbergTask.osexp,C:\Users\katri\OneDrive\Documents\Fall 2020\Sternberg Memory Task,no,mono,no,18,no,white,no,yes,768,legacy,110,11,C:/Users/katri/OneDrive/Documents/Fall 2020/Sternberg Memory Task/subject-2.csv,legacy,6 2 9 3 8 4,Lentiform Loewenfeld,3.3.3,0,n,0,right,right,right,right,NA,1199,44112,18901,1199,NA,2,legacy,6,1024,2,48000,-16,experiment,2,even,1,830714,838420,144108,838422,840629,837327,3246,125207,842631,843831,839424,47359,842631,NA,3238,Sternberg Task,108,122333,123,yes,1024
87.90322581,87.90322581,992.5725806,992.5725806,black,experiment,legacy,legacy,legacy,0,uniform,1,undefined,1,right,123,123,0,123,123,123,0,0,123,123,123,0,123,0,0,Sat Oct 24 23:10:51 2020,The main experiment item,yes,SternbergTask.osexp,C:\Users\katri\OneDrive\Documents\Fall 2020\Sternberg Memory Task,no,mono,no,18,no,white,no,yes,768,legacy,111,11,C:/Users/katri/OneDrive/Documents/Fall 2020/Sternberg Memory Task/subject-2.csv,legacy,7 1 5 6 3,Lentiform Loewenfeld,3.3.3,0,n,0,right,right,right,right,NA,746,44112,18901,746,NA,2,legacy,5,1024,2,48000,-16,experiment,2,even,8,843855,844943,144108,844945,847154,837327,3246,125207,849159,849906,845948,47359,849158,NA,3238,Sternberg Task,109,123079,124,yes,1024
88,88,991.648,991.648,black,experiment,legacy,legacy,legacy,0,uniform,1,undefined,1,right,124,124,0,124,124,124,0,0,124,124,124,0,124,0,0,Sat Oct 24 23:10:51 2020,The main experiment item,yes,SternbergTask.osexp,C:\Users\katri\OneDrive\Documents\Fall 2020\Sternberg Memory Task,no,mono,no,18,no,white,no,yes,768,legacy,112,11,C:/Users/katri/OneDrive/Documents/Fall 2020/Sternberg Memory Task/subject-2.csv,legacy,8 4 3 5,Lentiform Loewenfeld,3.3.3,0,n,0,right,right,right,right,NA,877,44112,18901,877,NA,2,legacy,4,1024,2,48000,-16,experiment,2,even,6,849930,851041,144108,851043,853247,837327,3246,125207,855249,856127,852045,47359,855249,NA,3238,Sternberg Task,110,123956,125,yes,1024
88.0952381,88.0952381,991.2619048,991.2619048,black,experiment,legacy,legacy,legacy,0,uniform,1,undefined,1,left,125,125,0,125,125,125,0,0,125,125,125,0,125,0,0,Sat Oct 24 23:10:51 2020,The main experiment item,yes,SternbergTask.osexp,C:\Users\katri\OneDrive\Documents\Fall 2020\Sternberg Memory Task,no,mono,no,18,no,white,no,yes,768,legacy,113,11,C:/Users/katri/OneDrive/Documents/Fall 2020/Sternberg Memory Task/subject-2.csv,legacy,7 2 3,Lentiform Loewenfeld,3.3.3,3,y,0,left,right,right,left,NA,943,44112,18901,943,NA,2,legacy,3,1024,2,48000,-16,experiment,2,even,3,856152,857264,144108,857265,859471,837327,3246,125207,861472,862416,858267,47359,861472,NA,3238,Sternberg Task,111,124899,126,yes,1024
88.18897638,88.18897638,990.6456693,990.6456693,black,experiment,legacy,legacy,legacy,0,uniform,1,undefined,1,right,126,126,0,126,126,126,0,0,126,126,126,0,126,0,0,Sat Oct 24 23:10:51 2020,The main experiment item,yes,SternbergTask.osexp,C:\Users\katri\OneDrive\Documents\Fall 2020\Sternberg Memory Task,no,mono,no,18,no,white,no,yes,768,legacy,114,11,C:/Users/katri/OneDrive/Documents/Fall 2020/Sternberg Memory Task/subject-2.csv,legacy,8 6 3 4 7,Lentiform Loewenfeld,3.3.3,0,n,0,right,right,right,right,NA,913,44112,18901,913,NA,2,legacy,5,1024,2,48000,-16,experiment,2,even,1,862441,863546,144108,863548,865754,837327,3246,125207,867757,868670,864550,47359,867756,NA,3238,Sternberg Task,112,125812,127,yes,1024
88.28125,88.28125,989.7734375,989.7734375,black,experiment,legacy,legacy,legacy,0,uniform,1,undefined,1,left,127,127,0,127,127,127,0,0,127,127,127,0,127,0,0,Sat Oct 24 23:10:51 2020,The main experiment item,yes,SternbergTask.osexp,C:\Users\katri\OneDrive\Documents\Fall 2020\Sternberg Memory Task,no,mono,no,18,no,white,no,yes,768,legacy,115,11,C:/Users/katri/OneDrive/Documents/Fall 2020/Sternberg Memory Task/subject-2.csv,legacy,4 1 5,Lentiform Loewenfeld,3.3.3,2,y,0,left,right,right,left,NA,879,44112,18901,879,NA,2,legacy,3,1024,2,48000,-16,experiment,2,even,1,868695,869782,144108,869784,871992,837327,3246,125207,873993,874873,870788,47359,873993,NA,3238,Sternberg Task,113,126691,128,yes,1024
88.37209302,88.37209302,987.8682171,987.8682171,black,experiment,legacy,legacy,legacy,0,uniform,1,undefined,1,left,128,128,0,128,128,128,0,0,128,128,128,0,128,0,0,Sat Oct 24 23:10:51 2020,The main experiment item,yes,SternbergTask.osexp,C:\Users\katri\OneDrive\Documents\Fall 2020\Sternberg Memory Task,no,mono,no,18,no,white,no,yes,768,legacy,116,11,C:/Users/katri/OneDrive/Documents/Fall 2020/Sternberg Memory Task/subject-2.csv,legacy,8 7 3,Lentiform Loewenfeld,3.3.3,1,y,0,left,right,right,left,NA,744,44112,18901,744,NA,2,legacy,3,1024,2,48000,-16,experiment,2,even,8,874897,876011,144108,876013,878222,837327,3246,125207,880225,880969,877017,47359,880225,NA,3238,Sternberg Task,114,127435,129,yes,1024
88.46153846,88.46153846,988.5307692,988.5307692,black,experiment,legacy,legacy,legacy,0,uniform,1,undefined,1,left,129,129,0,129,129,129,0,0,129,129,129,0,129,0,0,Sat Oct 24 23:10:51 2020,The main experiment item,yes,SternbergTask.osexp,C:\Users\katri\OneDrive\Documents\Fall 2020\Sternberg Memory Task,no,mono,no,18,no,white,no,yes,768,legacy,117,11,C:/Users/katri/OneDrive/Documents/Fall 2020/Sternberg Memory Task/subject-2.csv,legacy,9 5 8 1,Lentiform Loewenfeld,3.3.3,2,y,0,left,right,right,left,NA,1074,44112,18901,1074,NA,2,legacy,4,1024,2,48000,-16,experiment,2,even,5,880979,882070,144108,882072,884278,837327,3246,125207,886281,887356,883074,47359,886281,NA,3238,Sternberg Task,115,128509,130,yes,1024
88.54961832,88.54961832,988.6335878,988.6335878,black,experiment,legacy,legacy,legacy,0,uniform,1,undefined,1,left,130,130,0,130,130,130,0,0,130,130,130,0,130,0,0,Sat Oct 24 23:10:51 2020,The main experiment item,yes,SternbergTask.osexp,C:\Users\katri\OneDrive\Documents\Fall 2020\Sternberg Memory Task,no,mono,no,18,no,white,no,yes,768,legacy,118,11,C:/Users/katri/OneDrive/Documents/Fall 2020/Sternberg Memory Task/subject-2.csv,legacy,5 2 6,Lentiform Loewenfeld,3.3.3,2,y,0,left,right,right,left,NA,1002,44112,18901,1002,NA,2,legacy,3,1024,2,48000,-16,experiment,2,even,2,887382,888492,144108,888493,890700,837327,3246,125207,892702,893705,889498,47359,892702,NA,3238,Sternberg Task,116,129511,131,yes,1024
88.63636364,88.63636364,987.8257576,987.8257576,black,experiment,legacy,legacy,legacy,0,uniform,1,undefined,1,left,131,131,0,131,131,131,0,0,131,131,131,0,131,0,0,Sat Oct 24 23:10:51 2020,The main experiment item,yes,SternbergTask.osexp,C:\Users\katri\OneDrive\Documents\Fall 2020\Sternberg Memory Task,no,mono,no,18,no,white,no,yes,768,legacy,119,11,C:/Users/katri/OneDrive/Documents/Fall 2020/Sternberg Memory Task/subject-2.csv,legacy,4 6 5 8,Lentiform Loewenfeld,3.3.3,1,y,0,left,right,right,left,NA,882,44112,18901,882,NA,2,legacy,4,1024,2,48000,-16,experiment,2,even,4,893714,894809,144108,894811,897019,837327,3246,125207,899021,899904,895816,47359,899021,NA,3238,Sternberg Task,117,130393,132,yes,1024
88.72180451,88.72180451,985.7969925,985.7969925,black,experiment,legacy,legacy,legacy,0,uniform,1,undefined,1,left,132,132,0,132,132,132,0,0,132,132,132,0,132,0,0,Sat Oct 24 23:10:51 2020,The main experiment item,yes,SternbergTask.osexp,C:\Users\katri\OneDrive\Documents\Fall 2020\Sternberg Memory Task,no,mono,no,18,no,white,no,yes,768,legacy,120,11,C:/Users/katri/OneDrive/Documents/Fall 2020/Sternberg Memory Task/subject-2.csv,legacy,6 7 8 5,Lentiform Loewenfeld,3.3.3,3,y,0,left,right,right,left,NA,718,44112,18901,718,NA,2,legacy,4,1024,2,48000,-16,experiment,2,even,8,899955,901064,144108,901066,903271,837327,3246,125207,905276,905995,902068,47359,905275,NA,3238,Sternberg Task,118,131111,133,yes,1024
88.80597015,88.80597015,983.261194,983.261194,black,experiment,legacy,legacy,legacy,0,uniform,1,undefined,1,left,133,133,0,133,133,133,0,0,133,133,133,0,133,0,0,Sat Oct 24 23:10:51 2020,The main experiment item,yes,SternbergTask.osexp,C:\Users\katri\OneDrive\Documents\Fall 2020\Sternberg Memory Task,no,mono,no,18,no,white,no,yes,768,legacy,121,11,C:/Users/katri/OneDrive/Documents/Fall 2020/Sternberg Memory Task/subject-2.csv,legacy,4 9 7 8 5 3,Lentiform Loewenfeld,3.3.3,4,y,0,left,right,right,left,NA,646,44112,18901,646,NA,2,legacy,6,1024,2,48000,-16,experiment,2,even,8,906021,907129,144108,907130,909338,837327,3246,125207,911341,911988,908134,47359,911341,NA,3238,Sternberg Task,119,131757,134,yes,1024
88.88888889,88.88888889,982.7407407,982.7407407,black,experiment,legacy,legacy,legacy,0,uniform,1,undefined,1,left,134,134,0,134,134,134,0,0,134,134,134,0,134,0,0,Sat Oct 24 23:10:51 2020,The main experiment item,yes,SternbergTask.osexp,C:\Users\katri\OneDrive\Documents\Fall 2020\Sternberg Memory Task,no,mono,no,18,no,white,no,yes,768,legacy,122,11,C:/Users/katri/OneDrive/Documents/Fall 2020/Sternberg Memory Task/subject-2.csv,legacy,2 8 5 1,Lentiform Loewenfeld,3.3.3,4,y,0,left,right,right,left,NA,913,44112,18901,913,NA,2,legacy,4,1024,2,48000,-16,experiment,2,even,1,911996,913086,144108,913088,915296,837327,3246,125207,917301,918215,914092,47359,917300,NA,3238,Sternberg Task,120,132670,135,yes,1024
88.97058824,88.97058824,980.6617647,980.6617647,black,experiment,legacy,legacy,legacy,0,uniform,1,undefined,1,left,135,135,0,135,135,135,0,0,135,135,135,0,135,0,0,Sat Oct 24 23:10:51 2020,The main experiment item,yes,SternbergTask.osexp,C:\Users\katri\OneDrive\Documents\Fall 2020\Sternberg Memory Task,no,mono,no,18,no,white,no,yes,768,legacy,123,11,C:/Users/katri/OneDrive/Documents/Fall 2020/Sternberg Memory Task/subject-2.csv,legacy,8,Lentiform Loewenfeld,3.3.3,1,y,0,left,right,right,left,NA,700,44112,18901,700,NA,2,legacy,1,1024,2,48000,-16,experiment,2,even,8,918225,919336,144108,919338,921544,837327,3246,125207,923546,924247,920340,47359,923546,NA,3238,Sternberg Task,121,133370,136,yes,1024
88.32116788,88.32116788,988.1021898,988.1021898,black,experiment,legacy,legacy,legacy,0,uniform,0,undefined,0,right,136,136,0,136,136,136,0,0,136,136,136,0,136,0,0,Sat Oct 24 23:10:51 2020,The main experiment item,yes,SternbergTask.osexp,C:\Users\katri\OneDrive\Documents\Fall 2020\Sternberg Memory Task,no,mono,no,18,no,white,no,yes,768,legacy,124,11,C:/Users/katri/OneDrive/Documents/Fall 2020/Sternberg Memory Task/subject-2.csv,legacy,9 7 4 5 8,Lentiform Loewenfeld,3.3.3,0,n,0,None,right,right,None,NA,2000,44112,18901,2000,NA,2,legacy,5,1024,2,48000,-16,experiment,2,even,6,924273,925381,144108,925382,927590,837327,3246,125207,929592,931592,926386,47359,929592,NA,3238,Sternberg Task,121,135370,137,yes,1024
88.4057971,88.4057971,988.8405797,988.8405797,black,experiment,legacy,legacy,legacy,0,uniform,1,undefined,1,left,137,137,0,137,137,137,0,0,137,137,137,0,137,0,0,Sat Oct 24 23:10:51 2020,The main experiment item,yes,SternbergTask.osexp,C:\Users\katri\OneDrive\Documents\Fall 2020\Sternberg Memory Task,no,mono,no,18,no,white,no,yes,768,legacy,125,11,C:/Users/katri/OneDrive/Documents/Fall 2020/Sternberg Memory Task/subject-2.csv,legacy,9 5 3 8 4,Lentiform Loewenfeld,3.3.3,1,y,0,left,right,right,left,NA,1090,44112,18901,1090,NA,2,legacy,5,1024,2,48000,-16,experiment,2,even,9,924273,932749,144108,932750,934959,931644,3246,125207,936961,938051,933754,47359,936961,NA,3238,Sternberg Task,122,136460,138,yes,1024
