"acc","accuracy","average_response_time","avg_rt","background","block","canvas_backend","clock_backend","color_backend","compensation","coordinates","correct","correct_instuction1","correct_keyboard_response","correct_response","count_ISI","count_correctFeedback","count_expSequence","count_experiment","count_experimentLoop","count_fixation","count_getting_started","count_incorrectFeedback","count_instruction2","count_instuction1","count_keyboard_response","count_logger","count_memorySet","count_practiceLoop","count_prode","count_thankYou","count_welcome","datetime","description","disable_garbage_collection","experiment_file","experiment_path","font_bold","font_family","font_italic","font_size","font_underline","foreground","form_clicks","fullscreen","height","keyboard_backend","live_row","live_row_practiceLoop","logfile","mouse_backend","numberSet","opensesame_codename","opensesame_version","posInSet","present","repeat_cycle","response","response_instruction2","response_instuction1","response_keyboard_response","response_thankYou","response_time","response_time_instruction2","response_time_instuction1","response_time_keyboard_response","response_time_thankYou","response_time_welcome","response_welcome","round_decimals","sampler_backend","setSize","sound_buf_size","sound_channels","sound_freq","sound_sample_size","start","subject_nr","subject_parity","target","time_ISI","time_correctFeedback","time_expSequence","time_experiment","time_experimentLoop","time_fixation","time_getting_started","time_incorrectFeedback","time_instruction2","time_instuction1","time_keyboard_response","time_logger","time_memorySet","time_practiceLoop","time_prode","time_thankYou","time_welcome","title","total_correct","total_response_time","total_responses","uniform_coordinates","width"
"0","0","2000","2000","black","practice","legacy","legacy","legacy","0","uniform","0","undefined","0","left","0","0","0","0","0","0","NA","0","0","0","0","0","0","0","0","0","NA","Sun Oct 25 14:02:30 2020","The main experiment item","yes","SternbergTask.osexp","/Users/Arianna/Desktop","no","mono","no","18","no","white","no","yes","768","legacy","0","0","/Users/Arianna/Downloads/AG-subject-4.csv","legacy","2 9 4","Lentiform Loewenfeld","3.3.3","3","y","0","None","NA","left","None","NA","2000","NA","26421","2000","NA","NA","NA","2","legacy","3","1024","2","48000","-16","experiment","4","even","4","32540","NA","30295","3483","NA","30310","NA","NA","NA","3505","34554","36554","31326","29939","34554","NA","NA","Sternberg Task","0","2000","1","yes","1024"
"50","50","1162","1162","black","practice","legacy","legacy","legacy","0","uniform","1","undefined","1","left","1","1","1","0","0","1","NA","1","0","0","1","1","1","0","1","0","NA","Sun Oct 25 14:02:30 2020","The main experiment item","yes","SternbergTask.osexp","/Users/Arianna/Desktop","no","mono","no","18","no","white","no","yes","768","legacy","1","1","/Users/Arianna/Downloads/AG-subject-4.csv","legacy","1 7 9 8 5","Lentiform Loewenfeld","3.3.3","4","y","0","left","NA","left","left","NA","324","NA","26421","324","NA","NA","NA","2","legacy","5","1024","2","48000","-16","experiment","4","even","8","39980","NA","37733","3483","NA","37748","NA","36623","NA","3505","41998","42323","38763","29939","41997","NA","NA","Sternberg Task","1","2324","2","yes","1024"
"66.66666666666667","66.66666666666667","930","930","black","practice","legacy","legacy","legacy","0","uniform","1","undefined","1","right","2","2","2","0","0","2","NA","2","0","0","2","2","2","0","2","0","NA","Sun Oct 25 14:02:30 2020","The main experiment item","yes","SternbergTask.osexp","/Users/Arianna/Desktop","no","mono","no","18","no","white","no","yes","768","legacy","2","2","/Users/Arianna/Downloads/AG-subject-4.csv","legacy","2 1","Lentiform Loewenfeld","3.3.3","0","n","0","right","NA","left","right","NA","466","NA","26421","466","NA","NA","NA","2","legacy","2","1024","2","48000","-16","experiment","4","even","5","45680","42351","43436","3483","NA","43448","NA","36623","NA","3505","47694","48161","44463","29939","47694","NA","NA","Sternberg Task","2","2790","3","yes","1024"
"75","75","898.5","898.5","black","practice","legacy","legacy","legacy","0","uniform","1","undefined","1","right","3","3","3","0","0","3","NA","3","0","0","3","3","3","0","3","0","NA","Sun Oct 25 14:02:30 2020","The main experiment item","yes","SternbergTask.osexp","/Users/Arianna/Desktop","no","mono","no","18","no","white","no","yes","768","legacy","3","3","/Users/Arianna/Downloads/AG-subject-4.csv","legacy","3 1 9 4","Lentiform Loewenfeld","3.3.3","0","n","0","right","NA","left","right","NA","804","NA","26421","804","NA","NA","NA","2","legacy","4","1024","2","48000","-16","experiment","4","even","6","51508","48178","49263","3483","NA","49276","NA","36623","NA","3505","53522","54327","50291","29939","53522","NA","NA","Sternberg Task","3","3594","4","yes","1024"
"80","80","843","843","black","practice","legacy","legacy","legacy","0","uniform","1","undefined","1","right","4","4","4","0","0","4","NA","4","0","0","4","4","4","0","4","0","NA","Sun Oct 25 14:02:30 2020","The main experiment item","yes","SternbergTask.osexp","/Users/Arianna/Desktop","no","mono","no","18","no","white","no","yes","768","legacy","4","4","/Users/Arianna/Downloads/AG-subject-4.csv","legacy","4 1 5","Lentiform Loewenfeld","3.3.3","0","n","0","right","NA","left","right","NA","621","NA","26421","621","NA","NA","NA","2","legacy","3","1024","2","48000","-16","experiment","4","even","2","57693","54353","55440","3483","NA","55458","NA","36623","NA","3505","59707","60329","56475","29939","59706","NA","NA","Sternberg Task","4","4215","5","yes","1024"
"83.33333333333333","83.33333333333333","795.6666666666666","795.6666666666666","black","practice","legacy","legacy","legacy","0","uniform","1","undefined","1","left","5","5","5","0","0","5","NA","5","0","0","5","5","5","0","5","0","NA","Sun Oct 25 14:02:30 2020","The main experiment item","yes","SternbergTask.osexp","/Users/Arianna/Desktop","no","mono","no","18","no","white","no","yes","768","legacy","5","5","/Users/Arianna/Downloads/AG-subject-4.csv","legacy","4 8","Lentiform Loewenfeld","3.3.3","1","y","0","left","NA","left","left","NA","559","NA","26421","559","NA","NA","NA","2","legacy","2","1024","2","48000","-16","experiment","4","even","4","63685","60354","61439","3483","NA","61452","NA","36623","NA","3505","65700","66260","62468","29939","65700","NA","NA","Sternberg Task","5","4774","6","yes","1024"
"85.71428571428571","85.71428571428571","779.8571428571429","779.8571428571429","black","practice","legacy","legacy","legacy","0","uniform","1","undefined","1","left","6","6","6","0","0","6","NA","6","0","0","6","6","6","0","6","0","NA","Sun Oct 25 14:02:30 2020","The main experiment item","yes","SternbergTask.osexp","/Users/Arianna/Desktop","no","mono","no","18","no","white","no","yes","768","legacy","6","6","/Users/Arianna/Downloads/AG-subject-4.csv","legacy","1 5 2 9","Lentiform Loewenfeld","3.3.3","2","y","0","left","NA","left","left","NA","685","NA","26421","685","NA","NA","NA","2","legacy","4","1024","2","48000","-16","experiment","4","even","5","69626","66290","67380","3483","NA","67392","NA","36623","NA","3505","71640","72327","68408","29939","71640","NA","NA","Sternberg Task","6","5459","7","yes","1024"
"87.5","87.5","756.25","756.25","black","practice","legacy","legacy","legacy","0","uniform","1","undefined","1","right","7","7","7","0","0","7","NA","7","0","0","7","7","7","0","7","0","NA","Sun Oct 25 14:02:30 2020","The main experiment item","yes","SternbergTask.osexp","/Users/Arianna/Desktop","no","mono","no","18","no","white","no","yes","768","legacy","7","7","/Users/Arianna/Downloads/AG-subject-4.csv","legacy","9 6 7 4 5","Lentiform Loewenfeld","3.3.3","0","n","0","right","NA","left","right","NA","591","NA","26421","591","NA","NA","NA","2","legacy","5","1024","2","48000","-16","experiment","4","even","3","75686","72353","73440","3483","NA","73453","NA","36623","NA","3505","77701","78293","74469","29939","77701","NA","NA","Sternberg Task","7","6050","8","yes","1024"
"77.77777777777777","77.77777777777777","746.8888888888889","746.8888888888889","black","practice","legacy","legacy","legacy","0","uniform","0","undefined","0","right","8","8","8","0","0","8","NA","8","0","0","8","8","8","0","8","0","NA","Sun Oct 25 14:02:30 2020","The main experiment item","yes","SternbergTask.osexp","/Users/Arianna/Desktop","no","mono","no","18","no","white","no","yes","768","legacy","8","8","/Users/Arianna/Downloads/AG-subject-4.csv","legacy","5","Lentiform Loewenfeld","3.3.3","0","n","0","left","NA","left","left","NA","672","NA","26421","672","NA","NA","NA","2","legacy","1","1024","2","48000","-16","experiment","4","even","3","81654","78320","79407","3483","NA","79421","NA","36623","NA","3505","83668","84341","80436","29939","83668","NA","NA","Sternberg Task","7","6722","9","yes","1024"
"80","80","749","749","black","practice","legacy","legacy","legacy","0","uniform","1","undefined","1","left","9","9","9","0","0","9","NA","9","0","0","9","9","9","0","9","0","NA","Sun Oct 25 14:02:30 2020","The main experiment item","yes","SternbergTask.osexp","/Users/Arianna/Desktop","no","mono","no","18","no","white","no","yes","768","legacy","9","9","/Users/Arianna/Downloads/AG-subject-4.csv","legacy","6","Lentiform Loewenfeld","3.3.3","1","y","0","left","NA","left","left","NA","768","NA","26421","768","NA","NA","NA","2","legacy","1","1024","2","48000","-16","experiment","4","even","6","87694","78320","85448","3483","NA","85462","NA","84364","NA","3505","89706","90475","86477","29939","89706","NA","NA","Sternberg Task","8","7490","10","yes","1024"
"81.81818181818181","81.81818181818181","740.4545454545455","740.4545454545455","black","practice","legacy","legacy","legacy","0","uniform","1","undefined","1","left","10","10","10","0","0","10","NA","10","0","0","10","10","10","0","10","0","NA","Sun Oct 25 14:02:30 2020","The main experiment item","yes","SternbergTask.osexp","/Users/Arianna/Desktop","no","mono","no","18","no","white","no","yes","768","legacy","10","10","/Users/Arianna/Downloads/AG-subject-4.csv","legacy","4 3 1 7 9 8","Lentiform Loewenfeld","3.3.3","1","y","0","left","NA","left","left","NA","655","NA","26421","655","NA","NA","NA","2","legacy","6","1024","2","48000","-16","experiment","4","even","4","93829","90498","91583","3483","NA","91596","NA","84364","NA","3505","95844","96500","92612","29939","95844","NA","NA","Sternberg Task","9","8145","11","yes","1024"
"83.33333333333333","83.33333333333333","738.75","738.75","black","practice","legacy","legacy","legacy","0","uniform","1","undefined","1","right","11","11","11","0","0","11","NA","11","0","0","11","11","11","0","11","0","NA","Sun Oct 25 14:02:30 2020","The main experiment item","yes","SternbergTask.osexp","/Users/Arianna/Desktop","no","mono","no","18","no","white","no","yes","768","legacy","11","11","/Users/Arianna/Downloads/AG-subject-4.csv","legacy","5 7 8 4 1 2","Lentiform Loewenfeld","3.3.3","0","n","0","right","NA","left","right","NA","720","NA","26421","720","NA","NA","NA","2","legacy","6","1024","2","48000","-16","experiment","4","even","6","99857","96524","97610","3483","NA","97623","NA","84364","NA","3505","101871","102592","98640","29939","101871","NA","NA","Sternberg Task","10","8865","12","yes","1024"
"84.61538461538461","84.61538461538461","756.2307692307693","756.2307692307693","black","experiment","legacy","legacy","legacy","0","uniform","1","undefined","1","left","12","12","12","0","0","12","NA","12","0","0","12","12","12","0","12","0","NA","Sun Oct 25 14:02:30 2020","The main experiment item","yes","SternbergTask.osexp","/Users/Arianna/Desktop","no","mono","no","18","no","white","no","yes","768","legacy","0","11","/Users/Arianna/Downloads/AG-subject-4.csv","legacy","6 2","Lentiform Loewenfeld","3.3.3","1","y","0","left","left","left","left","NA","966","24775","26421","966","NA","NA","NA","2","legacy","2","1024","2","48000","-16","experiment","4","even","6","130773","102615","128528","3483","128447","128541","NA","84364","103671","3505","132787","133755","129556","29939","132787","NA","NA","Sternberg Task","11","9831","13","yes","1024"
"85.71428571428571","85.71428571428571","766","766","black","experiment","legacy","legacy","legacy","0","uniform","1","undefined","1","right","13","13","13","0","0","13","NA","13","0","0","13","13","13","0","13","0","NA","Sun Oct 25 14:02:30 2020","The main experiment item","yes","SternbergTask.osexp","/Users/Arianna/Desktop","no","mono","no","18","no","white","no","yes","768","legacy","1","11","/Users/Arianna/Downloads/AG-subject-4.csv","legacy","2 5 1 4","Lentiform Loewenfeld","3.3.3","0","n","0","right","left","left","right","NA","893","24775","26421","893","NA","NA","NA","2","legacy","4","1024","2","48000","-16","experiment","4","even","6","137112","133781","134867","3483","128447","134880","NA","84364","103671","3505","139126","140020","135895","29939","139126","NA","NA","Sternberg Task","12","10724","14","yes","1024"
"86.66666666666667","86.66666666666667","748.8","748.8","black","experiment","legacy","legacy","legacy","0","uniform","1","undefined","1","right","14","14","14","0","0","14","NA","14","0","0","14","14","14","0","14","0","NA","Sun Oct 25 14:02:30 2020","The main experiment item","yes","SternbergTask.osexp","/Users/Arianna/Desktop","no","mono","no","18","no","white","no","yes","768","legacy","2","11","/Users/Arianna/Downloads/AG-subject-4.csv","legacy","5","Lentiform Loewenfeld","3.3.3","0","n","0","right","left","left","right","NA","508","24775","26421","508","NA","NA","NA","2","legacy","1","1024","2","48000","-16","experiment","4","even","8","143382","140048","141134","3483","128447","141147","NA","84364","103671","3505","145396","145906","142163","29939","145396","NA","NA","Sternberg Task","13","11232","15","yes","1024"
"87.5","87.5","762.875","762.875","black","experiment","legacy","legacy","legacy","0","uniform","1","undefined","1","right","15","15","15","0","0","15","NA","15","0","0","15","15","15","0","15","0","NA","Sun Oct 25 14:02:30 2020","The main experiment item","yes","SternbergTask.osexp","/Users/Arianna/Desktop","no","mono","no","18","no","white","no","yes","768","legacy","3","11","/Users/Arianna/Downloads/AG-subject-4.csv","legacy","9","Lentiform Loewenfeld","3.3.3","0","n","0","right","left","left","right","NA","974","24775","26421","974","NA","NA","NA","2","legacy","1","1024","2","48000","-16","experiment","4","even","6","149262","145932","147017","3483","128447","147029","NA","84364","103671","3505","151277","152253","148045","29939","151277","NA","NA","Sternberg Task","14","12206","16","yes","1024"
"88.23529411764706","88.23529411764706","776.9411764705883","776.9411764705883","black","experiment","legacy","legacy","legacy","0","uniform","1","undefined","1","left","16","16","16","0","0","16","NA","16","0","0","16","16","16","0","16","0","NA","Sun Oct 25 14:02:30 2020","The main experiment item","yes","SternbergTask.osexp","/Users/Arianna/Desktop","no","mono","no","18","no","white","no","yes","768","legacy","4","11","/Users/Arianna/Downloads/AG-subject-4.csv","legacy","5 2 9 6 1 7","Lentiform Loewenfeld","3.3.3","3","y","0","left","left","left","left","NA","1002","24775","26421","1002","NA","NA","NA","2","legacy","6","1024","2","48000","-16","experiment","4","even","9","155611","152280","153366","3483","128447","153379","NA","84364","103671","3505","157626","158631","154394","29939","157626","NA","NA","Sternberg Task","15","13208","17","yes","1024"
"88.88888888888889","88.88888888888889","766.3888888888889","766.3888888888889","black","experiment","legacy","legacy","legacy","0","uniform","1","undefined","1","right","17","17","17","0","0","17","NA","17","0","0","17","17","17","0","17","0","NA","Sun Oct 25 14:02:30 2020","The main experiment item","yes","SternbergTask.osexp","/Users/Arianna/Desktop","no","mono","no","18","no","white","no","yes","768","legacy","5","11","/Users/Arianna/Downloads/AG-subject-4.csv","legacy","1 4 3 6 5","Lentiform Loewenfeld","3.3.3","0","n","0","right","left","left","right","NA","587","24775","26421","587","NA","NA","NA","2","legacy","5","1024","2","48000","-16","experiment","4","even","8","162015","158667","159770","3483","128447","159784","NA","84364","103671","3505","164029","164617","160799","29939","164029","NA","NA","Sternberg Task","16","13795","18","yes","1024"
"89.47368421052632","89.47368421052632","772.1052631578947","772.1052631578947","black","experiment","legacy","legacy","legacy","0","uniform","1","undefined","1","left","18","18","18","0","0","18","NA","18","0","0","18","18","18","0","18","0","NA","Sun Oct 25 14:02:30 2020","The main experiment item","yes","SternbergTask.osexp","/Users/Arianna/Desktop","no","mono","no","18","no","white","no","yes","768","legacy","6","11","/Users/Arianna/Downloads/AG-subject-4.csv","legacy","8","Lentiform Loewenfeld","3.3.3","1","y","0","left","left","left","left","NA","875","24775","26421","875","NA","NA","NA","2","legacy","1","1024","2","48000","-16","experiment","4","even","8","167984","164645","165737","3483","128447","165750","NA","84364","103671","3505","169998","170874","166767","29939","169998","NA","NA","Sternberg Task","17","14670","19","yes","1024"
"90","90","772.3","772.3","black","experiment","legacy","legacy","legacy","0","uniform","1","undefined","1","right","19","19","19","0","0","19","NA","19","0","0","19","19","19","0","19","0","NA","Sun Oct 25 14:02:30 2020","The main experiment item","yes","SternbergTask.osexp","/Users/Arianna/Desktop","no","mono","no","18","no","white","no","yes","768","legacy","7","11","/Users/Arianna/Downloads/AG-subject-4.csv","legacy","6 9 4 5 3 2","Lentiform Loewenfeld","3.3.3","0","n","0","right","left","left","right","NA","776","24775","26421","776","NA","NA","NA","2","legacy","6","1024","2","48000","-16","experiment","4","even","8","174240","170901","171993","3483","128447","172007","NA","84364","103671","3505","176255","177032","173024","29939","176255","NA","NA","Sternberg Task","18","15446","20","yes","1024"
"90.47619047619048","90.47619047619048","771.6190476190476","771.6190476190476","black","experiment","legacy","legacy","legacy","0","uniform","1","undefined","1","left","20","20","20","0","0","20","NA","20","0","0","20","20","20","0","20","0","NA","Sun Oct 25 14:02:30 2020","The main experiment item","yes","SternbergTask.osexp","/Users/Arianna/Desktop","no","mono","no","18","no","white","no","yes","768","legacy","8","11","/Users/Arianna/Downloads/AG-subject-4.csv","legacy","4 9 7 8 5 3","Lentiform Loewenfeld","3.3.3","4","y","0","left","left","left","left","NA","758","24775","26421","758","NA","NA","NA","2","legacy","6","1024","2","48000","-16","experiment","4","even","8","180393","177058","178144","3483","128447","178157","NA","84364","103671","3505","182407","183167","179172","29939","182407","NA","NA","Sternberg Task","19","16204","21","yes","1024"
"90.9090909090909","90.9090909090909","778.1363636363636","778.1363636363636","black","experiment","legacy","legacy","legacy","0","uniform","1","undefined","1","left","21","21","21","0","0","21","NA","21","0","0","21","21","21","0","21","0","NA","Sun Oct 25 14:02:30 2020","The main experiment item","yes","SternbergTask.osexp","/Users/Arianna/Desktop","no","mono","no","18","no","white","no","yes","768","legacy","9","11","/Users/Arianna/Downloads/AG-subject-4.csv","legacy","8 9 6 1","Lentiform Loewenfeld","3.3.3","2","y","0","left","left","left","left","NA","915","24775","26421","915","NA","NA","NA","2","legacy","4","1024","2","48000","-16","experiment","4","even","9","186537","183193","184283","3483","128447","184296","NA","84364","103671","3505","188552","189468","185313","29939","188552","NA","NA","Sternberg Task","20","17119","22","yes","1024"
"91.30434782608695","91.30434782608695","772.0434782608696","772.0434782608696","black","experiment","legacy","legacy","legacy","0","uniform","1","undefined","1","right","22","22","22","0","0","22","NA","22","0","0","22","22","22","0","22","0","NA","Sun Oct 25 14:02:30 2020","The main experiment item","yes","SternbergTask.osexp","/Users/Arianna/Desktop","no","mono","no","18","no","white","no","yes","768","legacy","10","11","/Users/Arianna/Downloads/AG-subject-4.csv","legacy","2 8 9","Lentiform Loewenfeld","3.3.3","0","n","0","right","left","left","right","NA","638","24775","26421","638","NA","NA","NA","2","legacy","3","1024","2","48000","-16","experiment","4","even","6","192823","189491","190577","3483","128447","190591","NA","84364","103671","3505","194838","195477","191606","29939","194837","NA","NA","Sternberg Task","21","17757","23","yes","1024"
"87.5","87.5","765.2083333333334","765.2083333333334","black","experiment","legacy","legacy","legacy","0","uniform","0","undefined","0","left","23","23","23","0","0","23","NA","23","0","0","23","23","23","0","23","0","NA","Sun Oct 25 14:02:30 2020","The main experiment item","yes","SternbergTask.osexp","/Users/Arianna/Desktop","no","mono","no","18","no","white","no","yes","768","legacy","11","11","/Users/Arianna/Downloads/AG-subject-4.csv","legacy","7 4 2 6 3 5","Lentiform Loewenfeld","3.3.3","6","y","0","right","left","left","right","NA","608","24775","26421","608","NA","NA","NA","2","legacy","6","1024","2","48000","-16","experiment","4","even","5","198834","195502","196588","3483","128447","196602","NA","84364","103671","3505","200848","201457","197617","29939","200848","NA","NA","Sternberg Task","21","18365","24","yes","1024"
"88","88","759.84","759.84","black","experiment","legacy","legacy","legacy","0","uniform","1","undefined","1","right","24","24","24","0","0","24","NA","24","0","0","24","24","24","0","24","0","NA","Sun Oct 25 14:02:30 2020","The main experiment item","yes","SternbergTask.osexp","/Users/Arianna/Desktop","no","mono","no","18","no","white","no","yes","768","legacy","12","11","/Users/Arianna/Downloads/AG-subject-4.csv","legacy","2 6 4 3 9","Lentiform Loewenfeld","3.3.3","0","n","0","right","left","left","right","NA","631","24775","26421","631","NA","NA","NA","2","legacy","5","1024","2","48000","-16","experiment","4","even","1","204810","195502","202565","3483","128447","202578","NA","201480","103671","3505","206824","207456","203593","29939","206824","NA","NA","Sternberg Task","22","18996","25","yes","1024"
"88.46153846153847","88.46153846153847","760.3846153846154","760.3846153846154","black","experiment","legacy","legacy","legacy","0","uniform","1","undefined","1","left","25","25","25","0","0","25","NA","25","0","0","25","25","25","0","25","0","NA","Sun Oct 25 14:02:30 2020","The main experiment item","yes","SternbergTask.osexp","/Users/Arianna/Desktop","no","mono","no","18","no","white","no","yes","768","legacy","13","11","/Users/Arianna/Downloads/AG-subject-4.csv","legacy","9 3 8 2 1 4","Lentiform Loewenfeld","3.3.3","3","y","0","left","left","left","left","NA","774","24775","26421","774","NA","NA","NA","2","legacy","6","1024","2","48000","-16","experiment","4","even","8","210811","207479","208565","3483","128447","208578","NA","201480","103671","3505","212825","213600","209593","29939","212825","NA","NA","Sternberg Task","23","19770","26","yes","1024"
"88.88888888888889","88.88888888888889","751.8148148148148","751.8148148148148","black","experiment","legacy","legacy","legacy","0","uniform","1","undefined","1","right","26","26","26","0","0","26","NA","26","0","0","26","26","26","0","26","0","NA","Sun Oct 25 14:02:30 2020","The main experiment item","yes","SternbergTask.osexp","/Users/Arianna/Desktop","no","mono","no","18","no","white","no","yes","768","legacy","14","11","/Users/Arianna/Downloads/AG-subject-4.csv","legacy","5 3 8 7 2 4","Lentiform Loewenfeld","3.3.3","0","n","0","right","left","left","right","NA","529","24775","26421","529","NA","NA","NA","2","legacy","6","1024","2","48000","-16","experiment","4","even","9","216956","213623","214711","3483","128447","214725","NA","201480","103671","3505","218971","219501","215740","29939","218971","NA","NA","Sternberg Task","24","20299","27","yes","1024"
"89.28571428571429","89.28571428571429","752.25","752.25","black","experiment","legacy","legacy","legacy","0","uniform","1","undefined","1","left","27","27","27","0","0","27","NA","27","0","0","27","27","27","0","27","0","NA","Sun Oct 25 14:02:30 2020","The main experiment item","yes","SternbergTask.osexp","/Users/Arianna/Desktop","no","mono","no","18","no","white","no","yes","768","legacy","15","11","/Users/Arianna/Downloads/AG-subject-4.csv","legacy","6 8 9 3 4 9","Lentiform Loewenfeld","3.3.3","5","y","0","left","left","left","left","NA","764","24775","26421","764","NA","NA","NA","2","legacy","6","1024","2","48000","-16","experiment","4","even","4","222854","219526","220611","3483","128447","220624","NA","201480","103671","3505","224868","225633","221637","29939","224868","NA","NA","Sternberg Task","25","21063","28","yes","1024"
"89.65517241379311","89.65517241379311","746.2413793103449","746.2413793103449","black","experiment","legacy","legacy","legacy","0","uniform","1","undefined","1","left","28","28","28","0","0","28","NA","28","0","0","28","28","28","0","28","0","NA","Sun Oct 25 14:02:30 2020","The main experiment item","yes","SternbergTask.osexp","/Users/Arianna/Desktop","no","mono","no","18","no","white","no","yes","768","legacy","16","11","/Users/Arianna/Downloads/AG-subject-4.csv","legacy","9 5 3 8 4","Lentiform Loewenfeld","3.3.3","1","y","0","left","left","left","left","NA","578","24775","26421","578","NA","NA","NA","2","legacy","5","1024","2","48000","-16","experiment","4","even","9","228991","225656","226745","3483","128447","226758","NA","201480","103671","3505","231004","231583","227774","29939","231004","NA","NA","Sternberg Task","26","21641","29","yes","1024"
"90","90","742.0666666666667","742.0666666666667","black","experiment","legacy","legacy","legacy","0","uniform","1","undefined","1","right","29","29","29","0","0","29","NA","29","0","0","29","29","29","0","29","0","NA","Sun Oct 25 14:02:30 2020","The main experiment item","yes","SternbergTask.osexp","/Users/Arianna/Desktop","no","mono","no","18","no","white","no","yes","768","legacy","17","11","/Users/Arianna/Downloads/AG-subject-4.csv","legacy","7 1 8 4 9 3","Lentiform Loewenfeld","3.3.3","0","n","0","right","left","left","right","NA","621","24775","26421","621","NA","NA","NA","2","legacy","6","1024","2","48000","-16","experiment","4","even","6","234941","231607","232695","3483","128447","232709","NA","201480","103671","3505","236955","237580","233724","29939","236955","NA","NA","Sternberg Task","27","22262","30","yes","1024"
"90.3225806451613","90.3225806451613","746.0645161290323","746.0645161290323","black","experiment","legacy","legacy","legacy","0","uniform","1","undefined","1","right","30","30","30","0","0","30","NA","30","0","0","30","30","30","0","30","0","NA","Sun Oct 25 14:02:30 2020","The main experiment item","yes","SternbergTask.osexp","/Users/Arianna/Desktop","no","mono","no","18","no","white","no","yes","768","legacy","18","11","/Users/Arianna/Downloads/AG-subject-4.csv","legacy","8 5 7 3 6","Lentiform Loewenfeld","3.3.3","0","n","0","right","left","left","right","NA","866","24775","26421","866","NA","NA","NA","2","legacy","5","1024","2","48000","-16","experiment","4","even","9","240960","237627","238718","3483","128447","238731","NA","201480","103671","3505","242974","243841","239746","29939","242973","NA","NA","Sternberg Task","28","23128","31","yes","1024"
"90.625","90.625","739.15625","739.15625","black","experiment","legacy","legacy","legacy","0","uniform","1","undefined","1","left","31","31","31","0","0","31","NA","31","0","0","31","31","31","0","31","0","NA","Sun Oct 25 14:02:30 2020","The main experiment item","yes","SternbergTask.osexp","/Users/Arianna/Desktop","no","mono","no","18","no","white","no","yes","768","legacy","19","11","/Users/Arianna/Downloads/AG-subject-4.csv","legacy","9 1 7 2","Lentiform Loewenfeld","3.3.3","2","y","0","left","left","left","left","NA","525","24775","26421","525","NA","NA","NA","2","legacy","4","1024","2","48000","-16","experiment","4","even","1","247198","243867","244953","3483","128447","244966","NA","201480","103671","3505","249212","249738","245981","29939","249212","NA","NA","Sternberg Task","29","23653","32","yes","1024"
"90.9090909090909","90.9090909090909","731.4242424242424","731.4242424242424","black","experiment","legacy","legacy","legacy","0","uniform","1","undefined","1","right","32","32","32","0","0","32","NA","32","0","0","32","32","32","0","32","0","NA","Sun Oct 25 14:02:30 2020","The main experiment item","yes","SternbergTask.osexp","/Users/Arianna/Desktop","no","mono","no","18","no","white","no","yes","768","legacy","20","11","/Users/Arianna/Downloads/AG-subject-4.csv","legacy","1 7 8 3 9","Lentiform Loewenfeld","3.3.3","0","n","0","right","left","left","right","NA","484","24775","26421","484","NA","NA","NA","2","legacy","5","1024","2","48000","-16","experiment","4","even","2","253096","249765","250850","3483","128447","250863","NA","201480","103671","3505","255110","255595","251879","29939","255109","NA","NA","Sternberg Task","30","24137","33","yes","1024"
"91.17647058823529","91.17647058823529","727.8823529411765","727.8823529411765","black","experiment","legacy","legacy","legacy","0","uniform","1","undefined","1","left","33","33","33","0","0","33","NA","33","0","0","33","33","33","0","33","0","NA","Sun Oct 25 14:02:30 2020","The main experiment item","yes","SternbergTask.osexp","/Users/Arianna/Desktop","no","mono","no","18","no","white","no","yes","768","legacy","21","11","/Users/Arianna/Downloads/AG-subject-4.csv","legacy","6 5","Lentiform Loewenfeld","3.3.3","2","y","0","left","left","left","left","NA","611","24775","26421","611","NA","NA","NA","2","legacy","2","1024","2","48000","-16","experiment","4","even","5","258953","255620","256706","3483","128447","256721","NA","201480","103671","3505","260967","261579","257736","29939","260967","NA","NA","Sternberg Task","31","24748","34","yes","1024"
"91.42857142857143","91.42857142857143","724.0571428571428","724.0571428571428","black","experiment","legacy","legacy","legacy","0","uniform","1","undefined","1","left","34","34","34","0","0","34","NA","34","0","0","34","34","34","0","34","0","NA","Sun Oct 25 14:02:30 2020","The main experiment item","yes","SternbergTask.osexp","/Users/Arianna/Desktop","no","mono","no","18","no","white","no","yes","768","legacy","22","11","/Users/Arianna/Downloads/AG-subject-4.csv","legacy","8 3","Lentiform Loewenfeld","3.3.3","2","y","0","left","left","left","left","NA","594","24775","26421","594","NA","NA","NA","2","legacy","2","1024","2","48000","-16","experiment","4","even","3","264931","261602","262687","3483","128447","262699","NA","201480","103671","3505","266945","267540","263714","29939","266945","NA","NA","Sternberg Task","32","25342","35","yes","1024"
"91.66666666666667","91.66666666666667","720.4444444444445","720.4444444444445","black","experiment","legacy","legacy","legacy","0","uniform","1","undefined","1","left","35","35","35","0","0","35","NA","35","0","0","35","35","35","0","35","0","NA","Sun Oct 25 14:02:30 2020","The main experiment item","yes","SternbergTask.osexp","/Users/Arianna/Desktop","no","mono","no","18","no","white","no","yes","768","legacy","23","11","/Users/Arianna/Downloads/AG-subject-4.csv","legacy","4 1 5","Lentiform Loewenfeld","3.3.3","2","y","0","left","left","left","left","NA","594","24775","26421","594","NA","NA","NA","2","legacy","3","1024","2","48000","-16","experiment","4","even","1","270895","267563","268650","3483","128447","268663","NA","201480","103671","3505","272909","273504","269678","29939","272909","NA","NA","Sternberg Task","33","25936","36","yes","1024"
"91.89189189189189","91.89189189189189","719.3513513513514","719.3513513513514","black","experiment","legacy","legacy","legacy","0","uniform","1","undefined","1","left","36","36","36","0","0","36","NA","36","0","0","36","36","36","0","36","0","NA","Sun Oct 25 14:02:30 2020","The main experiment item","yes","SternbergTask.osexp","/Users/Arianna/Desktop","no","mono","no","18","no","white","no","yes","768","legacy","24","11","/Users/Arianna/Downloads/AG-subject-4.csv","legacy","3 2 1 4 7","Lentiform Loewenfeld","3.3.3","2","y","0","left","left","left","left","NA","680","24775","26421","680","NA","NA","NA","2","legacy","5","1024","2","48000","-16","experiment","4","even","2","276860","273528","274613","3483","128447","274626","NA","201480","103671","3505","278874","279555","275642","29939","278874","NA","NA","Sternberg Task","34","26616","37","yes","1024"
"92.10526315789474","92.10526315789474","715.7631578947369","715.7631578947369","black","experiment","legacy","legacy","legacy","0","uniform","1","undefined","1","right","37","37","37","0","0","37","NA","37","0","0","37","37","37","0","37","0","NA","Sun Oct 25 14:02:30 2020","The main experiment item","yes","SternbergTask.osexp","/Users/Arianna/Desktop","no","mono","no","18","no","white","no","yes","768","legacy","25","11","/Users/Arianna/Downloads/AG-subject-4.csv","legacy","1 5 3 2 8","Lentiform Loewenfeld","3.3.3","0","n","0","right","left","left","right","NA","583","24775","26421","583","NA","NA","NA","2","legacy","5","1024","2","48000","-16","experiment","4","even","4","282913","279578","280666","3483","128447","280679","NA","201480","103671","3505","284926","285510","281696","29939","284926","NA","NA","Sternberg Task","35","27199","38","yes","1024"
"92.3076923076923","92.3076923076923","713.7692307692307","713.7692307692307","black","experiment","legacy","legacy","legacy","0","uniform","1","undefined","1","right","38","38","38","0","0","38","NA","38","0","0","38","38","38","0","38","0","NA","Sun Oct 25 14:02:30 2020","The main experiment item","yes","SternbergTask.osexp","/Users/Arianna/Desktop","no","mono","no","18","no","white","no","yes","768","legacy","26","11","/Users/Arianna/Downloads/AG-subject-4.csv","legacy","1 8 7","Lentiform Loewenfeld","3.3.3","0","n","0","right","left","left","right","NA","638","24775","26421","638","NA","NA","NA","2","legacy","3","1024","2","48000","-16","experiment","4","even","4","288853","285526","286611","3483","128447","286624","NA","201480","103671","3505","290867","291507","287640","29939","290867","NA","NA","Sternberg Task","36","27837","39","yes","1024"
"92.5","92.5","710","710","black","experiment","legacy","legacy","legacy","0","uniform","1","undefined","1","left","39","39","39","0","0","39","NA","39","0","0","39","39","39","0","39","0","NA","Sun Oct 25 14:02:30 2020","The main experiment item","yes","SternbergTask.osexp","/Users/Arianna/Desktop","no","mono","no","18","no","white","no","yes","768","legacy","27","11","/Users/Arianna/Downloads/AG-subject-4.csv","legacy","8 5 1 3 9","Lentiform Loewenfeld","3.3.3","4","y","0","left","left","left","left","NA","563","24775","26421","563","NA","NA","NA","2","legacy","5","1024","2","48000","-16","experiment","4","even","3","294887","291524","292639","3483","128447","292655","NA","201480","103671","3505","296909","297473","293670","29939","296908","NA","NA","Sternberg Task","37","28400","40","yes","1024"
"92.6829268292683","92.6829268292683","707.829268292683","707.829268292683","black","experiment","legacy","legacy","legacy","0","uniform","1","undefined","1","left","40","40","40","0","0","40","NA","40","0","0","40","40","40","0","40","0","NA","Sun Oct 25 14:02:30 2020","The main experiment item","yes","SternbergTask.osexp","/Users/Arianna/Desktop","no","mono","no","18","no","white","no","yes","768","legacy","28","11","/Users/Arianna/Downloads/AG-subject-4.csv","legacy","7 2 3","Lentiform Loewenfeld","3.3.3","3","y","0","left","left","left","left","NA","621","24775","26421","621","NA","NA","NA","2","legacy","3","1024","2","48000","-16","experiment","4","even","3","300831","297499","298585","3483","128447","298600","NA","201480","103671","3505","302845","303467","299613","29939","302845","NA","NA","Sternberg Task","38","29021","41","yes","1024"
"92.85714285714286","92.85714285714286","703.1904761904761","703.1904761904761","black","experiment","legacy","legacy","legacy","0","uniform","1","undefined","1","right","41","41","41","0","0","41","NA","41","0","0","41","41","41","0","41","0","NA","Sun Oct 25 14:02:30 2020","The main experiment item","yes","SternbergTask.osexp","/Users/Arianna/Desktop","no","mono","no","18","no","white","no","yes","768","legacy","29","11","/Users/Arianna/Downloads/AG-subject-4.csv","legacy","7 1 5 6 3","Lentiform Loewenfeld","3.3.3","0","n","0","right","left","left","right","NA","513","24775","26421","513","NA","NA","NA","2","legacy","5","1024","2","48000","-16","experiment","4","even","8","306813","303482","304568","3483","128447","304580","NA","201480","103671","3505","308827","309341","305596","29939","308827","NA","NA","Sternberg Task","39","29534","42","yes","1024"
"93.02325581395348","93.02325581395348","699.3720930232558","699.3720930232558","black","experiment","legacy","legacy","legacy","0","uniform","1","undefined","1","left","42","42","42","0","0","42","NA","42","0","0","42","42","42","0","42","0","NA","Sun Oct 25 14:02:30 2020","The main experiment item","yes","SternbergTask.osexp","/Users/Arianna/Desktop","no","mono","no","18","no","white","no","yes","768","legacy","30","11","/Users/Arianna/Downloads/AG-subject-4.csv","legacy","2 3","Lentiform Loewenfeld","3.3.3","1","y","0","left","left","left","left","NA","539","24775","26421","539","NA","NA","NA","2","legacy","2","1024","2","48000","-16","experiment","4","even","2","312694","309364","310448","3483","128447","310461","NA","201480","103671","3505","314708","315248","311476","29939","314708","NA","NA","Sternberg Task","40","30073","43","yes","1024"
"93.18181818181819","93.18181818181819","701.5","701.5","black","experiment","legacy","legacy","legacy","0","uniform","1","undefined","1","left","43","43","43","0","0","43","NA","43","0","0","43","43","43","0","43","0","NA","Sun Oct 25 14:02:30 2020","The main experiment item","yes","SternbergTask.osexp","/Users/Arianna/Desktop","no","mono","no","18","no","white","no","yes","768","legacy","31","11","/Users/Arianna/Downloads/AG-subject-4.csv","legacy","7 8 4 6 9 5","Lentiform Loewenfeld","3.3.3","4","y","0","left","left","left","left","NA","793","24775","26421","793","NA","NA","NA","2","legacy","6","1024","2","48000","-16","experiment","4","even","6","318607","315274","316362","3483","128447","316375","NA","201480","103671","3505","320621","321415","317390","29939","320621","NA","NA","Sternberg Task","41","30866","44","yes","1024"
"93.33333333333333","93.33333333333333","696.9777777777778","696.9777777777778","black","experiment","legacy","legacy","legacy","0","uniform","1","undefined","1","left","44","44","44","0","0","44","NA","44","0","0","44","44","44","0","44","0","NA","Sun Oct 25 14:02:30 2020","The main experiment item","yes","SternbergTask.osexp","/Users/Arianna/Desktop","no","mono","no","18","no","white","no","yes","768","legacy","32","11","/Users/Arianna/Downloads/AG-subject-4.csv","legacy","6 7 9 3 1 2","Lentiform Loewenfeld","3.3.3","1","y","0","left","left","left","left","NA","498","24775","26421","498","NA","NA","NA","2","legacy","6","1024","2","48000","-16","experiment","4","even","6","324772","321438","322526","3483","128447","322539","NA","201480","103671","3505","326787","327286","323555","29939","326786","NA","NA","Sternberg Task","42","31364","45","yes","1024"
"93.47826086956522","93.47826086956522","699.1086956521739","699.1086956521739","black","experiment","legacy","legacy","legacy","0","uniform","1","undefined","1","left","45","45","45","0","0","45","NA","45","0","0","45","45","45","0","45","0","NA","Sun Oct 25 14:02:30 2020","The main experiment item","yes","SternbergTask.osexp","/Users/Arianna/Desktop","no","mono","no","18","no","white","no","yes","768","legacy","33","11","/Users/Arianna/Downloads/AG-subject-4.csv","legacy","8 5 3 7 4 6","Lentiform Loewenfeld","3.3.3","6","y","0","left","left","left","left","NA","795","24775","26421","795","NA","NA","NA","2","legacy","6","1024","2","48000","-16","experiment","4","even","6","330646","327314","328399","3483","128447","328413","NA","201480","103671","3505","332660","333457","329429","29939","332660","NA","NA","Sternberg Task","43","32159","46","yes","1024"
"93.61702127659575","93.61702127659575","697.6595744680851","697.6595744680851","black","experiment","legacy","legacy","legacy","0","uniform","1","undefined","1","left","46","46","46","0","0","46","NA","46","0","0","46","46","46","0","46","0","NA","Sun Oct 25 14:02:30 2020","The main experiment item","yes","SternbergTask.osexp","/Users/Arianna/Desktop","no","mono","no","18","no","white","no","yes","768","legacy","34","11","/Users/Arianna/Downloads/AG-subject-4.csv","legacy","7 6","Lentiform Loewenfeld","3.3.3","2","y","0","left","left","left","left","NA","631","24775","26421","631","NA","NA","NA","2","legacy","2","1024","2","48000","-16","experiment","4","even","6","336814","333479","334570","3483","128447","334583","NA","201480","103671","3505","338828","339460","335598","29939","338828","NA","NA","Sternberg Task","44","32790","47","yes","1024"
"93.75","93.75","695.0208333333334","695.0208333333334","black","experiment","legacy","legacy","legacy","0","uniform","1","undefined","1","right","47","47","47","0","0","47","NA","47","0","0","47","47","47","0","47","0","NA","Sun Oct 25 14:02:30 2020","The main experiment item","yes","SternbergTask.osexp","/Users/Arianna/Desktop","no","mono","no","18","no","white","no","yes","768","legacy","35","11","/Users/Arianna/Downloads/AG-subject-4.csv","legacy","8 5 4 2 9 6","Lentiform Loewenfeld","3.3.3","0","n","0","right","left","left","right","NA","571","24775","26421","571","NA","NA","NA","2","legacy","6","1024","2","48000","-16","experiment","4","even","3","342813","339483","340568","3483","128447","340581","NA","201480","103671","3505","344827","345399","341596","29939","344827","NA","NA","Sternberg Task","45","33361","48","yes","1024"
"93.87755102040816","93.87755102040816","693.5918367346939","693.5918367346939","black","experiment","legacy","legacy","legacy","0","uniform","1","undefined","1","left","48","48","48","0","0","48","NA","48","0","0","48","48","48","0","48","0","NA","Sun Oct 25 14:02:30 2020","The main experiment item","yes","SternbergTask.osexp","/Users/Arianna/Desktop","no","mono","no","18","no","white","no","yes","768","legacy","36","11","/Users/Arianna/Downloads/AG-subject-4.csv","legacy","3 5 9 6 2 4","Lentiform Loewenfeld","3.3.3","1","y","0","left","left","left","left","NA","625","24775","26421","625","NA","NA","NA","2","legacy","6","1024","2","48000","-16","experiment","4","even","3","348753","345422","346508","3483","128447","346521","NA","201480","103671","3505","350768","351394","347536","29939","350767","NA","NA","Sternberg Task","46","33986","49","yes","1024"
"94","94","691.2","691.2","black","experiment","legacy","legacy","legacy","0","uniform","1","undefined","1","right","49","49","49","0","0","49","NA","49","0","0","49","49","49","0","49","0","NA","Sun Oct 25 14:02:30 2020","The main experiment item","yes","SternbergTask.osexp","/Users/Arianna/Desktop","no","mono","no","18","no","white","no","yes","768","legacy","37","11","/Users/Arianna/Downloads/AG-subject-4.csv","legacy","1 4 9 3","Lentiform Loewenfeld","3.3.3","0","n","0","right","left","left","right","NA","574","24775","26421","574","NA","NA","NA","2","legacy","4","1024","2","48000","-16","experiment","4","even","5","354746","351417","352502","3483","128447","352515","NA","201480","103671","3505","356761","357336","353530","29939","356761","NA","NA","Sternberg Task","47","34560","50","yes","1024"
"94.11764705882354","94.11764705882354","692.4705882352941","692.4705882352941","black","experiment","legacy","legacy","legacy","0","uniform","1","undefined","1","left","50","50","50","0","0","50","NA","50","0","0","50","50","50","0","50","0","NA","Sun Oct 25 14:02:30 2020","The main experiment item","yes","SternbergTask.osexp","/Users/Arianna/Desktop","no","mono","no","18","no","white","no","yes","768","legacy","38","11","/Users/Arianna/Downloads/AG-subject-4.csv","legacy","7 1 3","Lentiform Loewenfeld","3.3.3","2","y","0","left","left","left","left","NA","756","24775","26421","756","NA","NA","NA","2","legacy","3","1024","2","48000","-16","experiment","4","even","1","360696","357364","358451","3483","128447","358464","NA","201480","103671","3505","362711","363468","359479","29939","362711","NA","NA","Sternberg Task","48","35316","51","yes","1024"
"94.23076923076923","94.23076923076923","691.75","691.75","black","experiment","legacy","legacy","legacy","0","uniform","1","undefined","1","right","51","51","51","0","0","51","NA","51","0","0","51","51","51","0","51","0","NA","Sun Oct 25 14:02:30 2020","The main experiment item","yes","SternbergTask.osexp","/Users/Arianna/Desktop","no","mono","no","18","no","white","no","yes","768","legacy","39","11","/Users/Arianna/Downloads/AG-subject-4.csv","legacy","7 4 2 8 1 9","Lentiform Loewenfeld","3.3.3","0","n","0","right","left","left","right","NA","655","24775","26421","655","NA","NA","NA","2","legacy","6","1024","2","48000","-16","experiment","4","even","5","366823","363491","364577","3483","128447","364590","NA","201480","103671","3505","368837","369494","365606","29939","368837","NA","NA","Sternberg Task","49","35971","52","yes","1024"
"94.33962264150944","94.33962264150944","688.6415094339623","688.6415094339623","black","experiment","legacy","legacy","legacy","0","uniform","1","undefined","1","left","52","52","52","0","0","52","NA","52","0","0","52","52","52","0","52","0","NA","Sun Oct 25 14:02:30 2020","The main experiment item","yes","SternbergTask.osexp","/Users/Arianna/Desktop","no","mono","no","18","no","white","no","yes","768","legacy","40","11","/Users/Arianna/Downloads/AG-subject-4.csv","legacy","2 5 4 8 7","Lentiform Loewenfeld","3.3.3","3","y","0","left","left","left","left","NA","527","24775","26421","527","NA","NA","NA","2","legacy","5","1024","2","48000","-16","experiment","4","even","4","372849","369517","370603","3483","128447","370616","NA","201480","103671","3505","374863","375391","371632","29939","374863","NA","NA","Sternberg Task","50","36498","53","yes","1024"
"94.44444444444444","94.44444444444444","686.8333333333334","686.8333333333334","black","experiment","legacy","legacy","legacy","0","uniform","1","undefined","1","left","53","53","53","0","0","53","NA","53","0","0","53","53","53","0","53","0","NA","Sun Oct 25 14:02:30 2020","The main experiment item","yes","SternbergTask.osexp","/Users/Arianna/Desktop","no","mono","no","18","no","white","no","yes","768","legacy","41","11","/Users/Arianna/Downloads/AG-subject-4.csv","legacy","9 6 2 4 1","Lentiform Loewenfeld","3.3.3","4","y","0","left","left","left","left","NA","591","24775","26421","591","NA","NA","NA","2","legacy","5","1024","2","48000","-16","experiment","4","even","4","378743","375414","376499","3483","128447","376512","NA","201480","103671","3505","380757","381349","377527","29939","380757","NA","NA","Sternberg Task","51","37089","54","yes","1024"
"94.54545454545455","94.54545454545455","683.6727272727272","683.6727272727272","black","experiment","legacy","legacy","legacy","0","uniform","1","undefined","1","left","54","54","54","0","0","54","NA","54","0","0","54","54","54","0","54","0","NA","Sun Oct 25 14:02:30 2020","The main experiment item","yes","SternbergTask.osexp","/Users/Arianna/Desktop","no","mono","no","18","no","white","no","yes","768","legacy","42","11","/Users/Arianna/Downloads/AG-subject-4.csv","legacy","5 7 8 2 3 8","Lentiform Loewenfeld","3.3.3","5","y","0","left","left","left","left","NA","513","24775","26421","513","NA","NA","NA","2","legacy","6","1024","2","48000","-16","experiment","4","even","3","384702","381372","382456","3483","128447","382469","NA","201480","103671","3505","386715","387230","383484","29939","386715","NA","NA","Sternberg Task","52","37602","55","yes","1024"
"94.64285714285714","94.64285714285714","682.6428571428571","682.6428571428571","black","experiment","legacy","legacy","legacy","0","uniform","1","undefined","1","right","55","55","55","0","0","55","NA","55","0","0","55","55","55","0","55","0","NA","Sun Oct 25 14:02:30 2020","The main experiment item","yes","SternbergTask.osexp","/Users/Arianna/Desktop","no","mono","no","18","no","white","no","yes","768","legacy","43","11","/Users/Arianna/Downloads/AG-subject-4.csv","legacy","7 9","Lentiform Loewenfeld","3.3.3","0","n","0","right","left","left","right","NA","626","24775","26421","626","NA","NA","NA","2","legacy","2","1024","2","48000","-16","experiment","4","even","1","390588","387256","388342","3483","128447","388355","NA","201480","103671","3505","392602","393229","389370","29939","392602","NA","NA","Sternberg Task","53","38228","56","yes","1024"
"94.73684210526316","94.73684210526316","679","679","black","experiment","legacy","legacy","legacy","0","uniform","1","undefined","1","right","56","56","56","0","0","56","NA","56","0","0","56","56","56","0","56","0","NA","Sun Oct 25 14:02:30 2020","The main experiment item","yes","SternbergTask.osexp","/Users/Arianna/Desktop","no","mono","no","18","no","white","no","yes","768","legacy","44","11","/Users/Arianna/Downloads/AG-subject-4.csv","legacy","6 8","Lentiform Loewenfeld","3.3.3","0","n","0","right","left","left","right","NA","475","24775","26421","475","NA","NA","NA","2","legacy","2","1024","2","48000","-16","experiment","4","even","9","396588","393256","394343","3483","128447","394356","NA","201480","103671","3505","398602","399079","395371","29939","398601","NA","NA","Sternberg Task","54","38703","57","yes","1024"
"94.82758620689656","94.82758620689656","678.8448275862069","678.8448275862069","black","experiment","legacy","legacy","legacy","0","uniform","1","undefined","1","left","57","57","57","0","0","57","NA","57","0","0","57","57","57","0","57","0","NA","Sun Oct 25 14:02:30 2020","The main experiment item","yes","SternbergTask.osexp","/Users/Arianna/Desktop","no","mono","no","18","no","white","no","yes","768","legacy","45","11","/Users/Arianna/Downloads/AG-subject-4.csv","legacy","5 7 3 6 2","Lentiform Loewenfeld","3.3.3","5","y","0","left","left","left","left","NA","670","24775","26421","670","NA","NA","NA","2","legacy","5","1024","2","48000","-16","experiment","4","even","2","402443","399106","400197","3483","128447","400210","NA","201480","103671","3505","404457","405128","401225","29939","404457","NA","NA","Sternberg Task","55","39373","58","yes","1024"
"94.91525423728814","94.91525423728814","677.3220338983051","677.3220338983051","black","experiment","legacy","legacy","legacy","0","uniform","1","undefined","1","left","58","58","58","0","0","58","NA","58","0","0","58","58","58","0","58","0","NA","Sun Oct 25 14:02:30 2020","The main experiment item","yes","SternbergTask.osexp","/Users/Arianna/Desktop","no","mono","no","18","no","white","no","yes","768","legacy","46","11","/Users/Arianna/Downloads/AG-subject-4.csv","legacy","9 3 1 2 5","Lentiform Loewenfeld","3.3.3","4","y","0","left","left","left","left","NA","589","24775","26421","589","NA","NA","NA","2","legacy","5","1024","2","48000","-16","experiment","4","even","2","408484","405154","406238","3483","128447","406251","NA","201480","103671","3505","410498","411088","407267","29939","410498","NA","NA","Sternberg Task","56","39962","59","yes","1024"
"95","95","679.3","679.3","black","experiment","legacy","legacy","legacy","0","uniform","1","undefined","1","left","59","59","59","0","0","59","NA","59","0","0","59","59","59","0","59","0","NA","Sun Oct 25 14:02:30 2020","The main experiment item","yes","SternbergTask.osexp","/Users/Arianna/Desktop","no","mono","no","18","no","white","no","yes","768","legacy","47","11","/Users/Arianna/Downloads/AG-subject-4.csv","legacy","4 6 2 5 1","Lentiform Loewenfeld","3.3.3","5","y","0","left","left","left","left","NA","796","24775","26421","796","NA","NA","NA","2","legacy","5","1024","2","48000","-16","experiment","4","even","1","414452","411115","412206","3483","128447","412218","NA","201480","103671","3505","416466","417263","413234","29939","416466","NA","NA","Sternberg Task","57","40758","60","yes","1024"
"93.44262295081967","93.44262295081967","678.4918032786885","678.4918032786885","black","experiment","legacy","legacy","legacy","0","uniform","0","undefined","0","right","60","60","60","0","0","60","NA","60","0","0","60","60","60","0","60","0","NA","Sun Oct 25 14:02:30 2020","The main experiment item","yes","SternbergTask.osexp","/Users/Arianna/Desktop","no","mono","no","18","no","white","no","yes","768","legacy","48","11","/Users/Arianna/Downloads/AG-subject-4.csv","legacy","6 3 1 7 9 8","Lentiform Loewenfeld","3.3.3","0","n","0","left","left","left","left","NA","630","24775","26421","630","NA","NA","NA","2","legacy","6","1024","2","48000","-16","experiment","4","even","4","420614","417286","418372","3483","128447","418385","NA","201480","103671","3505","422628","423260","419401","29939","422627","NA","NA","Sternberg Task","57","41388","61","yes","1024"
"93.54838709677419","93.54838709677419","676.8870967741935","676.8870967741935","black","experiment","legacy","legacy","legacy","0","uniform","1","undefined","1","right","61","61","61","0","0","61","NA","61","0","0","61","61","61","0","61","0","NA","Sun Oct 25 14:02:30 2020","The main experiment item","yes","SternbergTask.osexp","/Users/Arianna/Desktop","no","mono","no","18","no","white","no","yes","768","legacy","49","11","/Users/Arianna/Downloads/AG-subject-4.csv","legacy","8 4 3 5","Lentiform Loewenfeld","3.3.3","0","n","0","right","left","left","right","NA","579","24775","26421","579","NA","NA","NA","2","legacy","4","1024","2","48000","-16","experiment","4","even","6","426619","417286","424373","3483","128447","424386","NA","423287","103671","3505","428633","429214","425402","29939","428633","NA","NA","Sternberg Task","58","41967","62","yes","1024"
"93.65079365079364","93.65079365079364","675.2380952380952","675.2380952380952","black","experiment","legacy","legacy","legacy","0","uniform","1","undefined","1","left","62","62","62","0","0","62","NA","62","0","0","62","62","62","0","62","0","NA","Sun Oct 25 14:02:30 2020","The main experiment item","yes","SternbergTask.osexp","/Users/Arianna/Desktop","no","mono","no","18","no","white","no","yes","768","legacy","50","11","/Users/Arianna/Downloads/AG-subject-4.csv","legacy","8 5 4 7 3 1","Lentiform Loewenfeld","3.3.3","2","y","0","left","left","left","left","NA","573","24775","26421","573","NA","NA","NA","2","legacy","6","1024","2","48000","-16","experiment","4","even","5","432572","429240","430327","3483","128447","430340","NA","423287","103671","3505","434586","435161","431355","29939","434586","NA","NA","Sternberg Task","59","42540","63","yes","1024"
"93.75","93.75","672.34375","672.34375","black","experiment","legacy","legacy","legacy","0","uniform","1","undefined","1","left","63","63","63","0","0","63","NA","63","0","0","63","63","63","0","63","0","NA","Sun Oct 25 14:02:30 2020","The main experiment item","yes","SternbergTask.osexp","/Users/Arianna/Desktop","no","mono","no","18","no","white","no","yes","768","legacy","51","11","/Users/Arianna/Downloads/AG-subject-4.csv","legacy","3 5 7 1","Lentiform Loewenfeld","3.3.3","3","y","0","left","left","left","left","NA","490","24775","26421","490","NA","NA","NA","2","legacy","4","1024","2","48000","-16","experiment","4","even","7","438522","435188","436275","3483","128447","436288","NA","423287","103671","3505","440536","441027","437304","29939","440536","NA","NA","Sternberg Task","60","43030","64","yes","1024"
"93.84615384615384","93.84615384615384","673.7384615384616","673.7384615384616","black","experiment","legacy","legacy","legacy","0","uniform","1","undefined","1","right","64","64","64","0","0","64","NA","64","0","0","64","64","64","0","64","0","NA","Sun Oct 25 14:02:30 2020","The main experiment item","yes","SternbergTask.osexp","/Users/Arianna/Desktop","no","mono","no","18","no","white","no","yes","768","legacy","52","11","/Users/Arianna/Downloads/AG-subject-4.csv","legacy","6 9 5","Lentiform Loewenfeld","3.3.3","0","n","0","right","left","left","right","NA","763","24775","26421","763","NA","NA","NA","2","legacy","3","1024","2","48000","-16","experiment","4","even","8","444388","441054","442141","3483","128447","442154","NA","423287","103671","3505","446402","447167","443169","29939","446401","NA","NA","Sternberg Task","61","43793","65","yes","1024"
"93.93939393939394","93.93939393939394","678.469696969697","678.469696969697","black","experiment","legacy","legacy","legacy","0","uniform","1","undefined","1","left","65","65","65","0","0","65","NA","65","0","0","65","65","65","0","65","0","NA","Sun Oct 25 14:02:30 2020","The main experiment item","yes","SternbergTask.osexp","/Users/Arianna/Desktop","no","mono","no","18","no","white","no","yes","768","legacy","53","11","/Users/Arianna/Downloads/AG-subject-4.csv","legacy","2 8 5 1","Lentiform Loewenfeld","3.3.3","4","y","0","left","left","left","left","NA","986","24775","26421","986","NA","NA","NA","2","legacy","4","1024","2","48000","-16","experiment","4","even","1","450511","447181","448265","3483","128447","448278","NA","423287","103671","3505","452526","453513","449293","29939","452525","NA","NA","Sternberg Task","62","44779","66","yes","1024"
"94.02985074626865","94.02985074626865","675.5373134328358","675.5373134328358","black","experiment","legacy","legacy","legacy","0","uniform","1","undefined","1","left","66","66","66","0","0","66","NA","66","0","0","66","66","66","0","66","0","NA","Sun Oct 25 14:02:30 2020","The main experiment item","yes","SternbergTask.osexp","/Users/Arianna/Desktop","no","mono","no","18","no","white","no","yes","768","legacy","54","11","/Users/Arianna/Downloads/AG-subject-4.csv","legacy","3 9 7 6 4","Lentiform Loewenfeld","3.3.3","3","y","0","left","left","left","left","NA","482","24775","26421","482","NA","NA","NA","2","legacy","5","1024","2","48000","-16","experiment","4","even","7","456868","453536","454621","3483","128447","454634","NA","423287","103671","3505","458885","459369","455651","29939","458885","NA","NA","Sternberg Task","63","45261","67","yes","1024"
"94.11764705882354","94.11764705882354","677.7352941176471","677.7352941176471","black","experiment","legacy","legacy","legacy","0","uniform","1","undefined","1","right","67","67","67","0","0","67","NA","67","0","0","67","67","67","0","67","0","NA","Sun Oct 25 14:02:30 2020","The main experiment item","yes","SternbergTask.osexp","/Users/Arianna/Desktop","no","mono","no","18","no","white","no","yes","768","legacy","55","11","/Users/Arianna/Downloads/AG-subject-4.csv","legacy","3 9 8 1 6 4","Lentiform Loewenfeld","3.3.3","0","n","0","right","left","left","right","NA","825","24775","26421","825","NA","NA","NA","2","legacy","6","1024","2","48000","-16","experiment","4","even","7","462729","459392","460481","3483","128447","460495","NA","423287","103671","3505","464743","465569","461510","29939","464743","NA","NA","Sternberg Task","64","46086","68","yes","1024"
"94.20289855072464","94.20289855072464","676.1159420289855","676.1159420289855","black","experiment","legacy","legacy","legacy","0","uniform","1","undefined","1","right","68","68","68","0","0","68","NA","68","0","0","68","68","68","0","68","0","NA","Sun Oct 25 14:02:30 2020","The main experiment item","yes","SternbergTask.osexp","/Users/Arianna/Desktop","no","mono","no","18","no","white","no","yes","768","legacy","56","11","/Users/Arianna/Downloads/AG-subject-4.csv","legacy","9 8 2 7 4","Lentiform Loewenfeld","3.3.3","0","n","0","right","left","left","right","NA","566","24775","26421","566","NA","NA","NA","2","legacy","5","1024","2","48000","-16","experiment","4","even","5","468924","465592","466679","3483","128447","466692","NA","423287","103671","3505","470938","471505","467707","29939","470938","NA","NA","Sternberg Task","65","46652","69","yes","1024"
"94.28571428571429","94.28571428571429","675.1285714285714","675.1285714285714","black","experiment","legacy","legacy","legacy","0","uniform","1","undefined","1","right","69","69","69","0","0","69","NA","69","0","0","69","69","69","0","69","0","NA","Sun Oct 25 14:02:30 2020","The main experiment item","yes","SternbergTask.osexp","/Users/Arianna/Desktop","no","mono","no","18","no","white","no","yes","768","legacy","57","11","/Users/Arianna/Downloads/AG-subject-4.csv","legacy","6 9 4 5 2","Lentiform Loewenfeld","3.3.3","0","n","0","right","left","left","right","NA","607","24775","26421","607","NA","NA","NA","2","legacy","5","1024","2","48000","-16","experiment","4","even","1","474863","471530","472616","3483","128447","472629","NA","423287","103671","3505","476877","477485","473645","29939","476877","NA","NA","Sternberg Task","66","47259","70","yes","1024"
"94.36619718309859","94.36619718309859","674.5633802816901","674.5633802816901","black","experiment","legacy","legacy","legacy","0","uniform","1","undefined","1","left","70","70","70","0","0","70","NA","70","0","0","70","70","70","0","70","0","NA","Sun Oct 25 14:02:30 2020","The main experiment item","yes","SternbergTask.osexp","/Users/Arianna/Desktop","no","mono","no","18","no","white","no","yes","768","legacy","58","11","/Users/Arianna/Downloads/AG-subject-4.csv","legacy","9 8 4","Lentiform Loewenfeld","3.3.3","1","y","0","left","left","left","left","NA","635","24775","26421","635","NA","NA","NA","2","legacy","3","1024","2","48000","-16","experiment","4","even","9","480831","477501","478586","3483","128447","478599","NA","423287","103671","3505","482845","483482","479615","29939","482845","NA","NA","Sternberg Task","67","47894","71","yes","1024"
"94.44444444444444","94.44444444444444","674.4722222222222","674.4722222222222","black","experiment","legacy","legacy","legacy","0","uniform","1","undefined","1","right","71","71","71","0","0","71","NA","71","0","0","71","71","71","0","71","0","NA","Sun Oct 25 14:02:30 2020","The main experiment item","yes","SternbergTask.osexp","/Users/Arianna/Desktop","no","mono","no","18","no","white","no","yes","768","legacy","59","11","/Users/Arianna/Downloads/AG-subject-4.csv","legacy","7 9 1 6","Lentiform Loewenfeld","3.3.3","0","n","0","right","left","left","right","NA","668","24775","26421","668","NA","NA","NA","2","legacy","4","1024","2","48000","-16","experiment","4","even","4","486832","483499","484587","3483","128447","484600","NA","423287","103671","3505","488846","489515","485615","29939","488845","NA","NA","Sternberg Task","68","48562","72","yes","1024"
"94.52054794520548","94.52054794520548","673.1506849315068","673.1506849315068","black","experiment","legacy","legacy","legacy","0","uniform","1","undefined","1","right","72","72","72","0","0","72","NA","72","0","0","72","72","72","0","72","0","NA","Sun Oct 25 14:02:30 2020","The main experiment item","yes","SternbergTask.osexp","/Users/Arianna/Desktop","no","mono","no","18","no","white","no","yes","768","legacy","60","11","/Users/Arianna/Downloads/AG-subject-4.csv","legacy","8 6 3 4 7","Lentiform Loewenfeld","3.3.3","0","n","0","right","left","left","right","NA","578","24775","26421","578","NA","NA","NA","2","legacy","5","1024","2","48000","-16","experiment","4","even","1","492873","489538","490626","3483","128447","490639","NA","423287","103671","3505","494887","495467","491656","29939","494887","NA","NA","Sternberg Task","69","49140","73","yes","1024"
"94.5945945945946","94.5945945945946","672.581081081081","672.581081081081","black","experiment","legacy","legacy","legacy","0","uniform","1","undefined","1","left","73","73","73","0","0","73","NA","73","0","0","73","73","73","0","73","0","NA","Sun Oct 25 14:02:30 2020","The main experiment item","yes","SternbergTask.osexp","/Users/Arianna/Desktop","no","mono","no","18","no","white","no","yes","768","legacy","61","11","/Users/Arianna/Downloads/AG-subject-4.csv","legacy","4 1 8 7 5","Lentiform Loewenfeld","3.3.3","3","y","0","left","left","left","left","NA","631","24775","26421","631","NA","NA","NA","2","legacy","5","1024","2","48000","-16","experiment","4","even","8","498818","495489","496574","3483","128447","496587","NA","423287","103671","3505","500832","501464","497601","29939","500832","NA","NA","Sternberg Task","70","49771","74","yes","1024"
"93.33333333333333","93.33333333333333","672.64","672.64","black","experiment","legacy","legacy","legacy","0","uniform","0","undefined","0","right","74","74","74","0","0","74","NA","74","0","0","74","74","74","0","74","0","NA","Sun Oct 25 14:02:30 2020","The main experiment item","yes","SternbergTask.osexp","/Users/Arianna/Desktop","no","mono","no","18","no","white","no","yes","768","legacy","62","11","/Users/Arianna/Downloads/AG-subject-4.csv","legacy","4 2 7 6 1 3","Lentiform Loewenfeld","3.3.3","0","n","0","left","left","left","left","NA","677","24775","26421","677","NA","NA","NA","2","legacy","6","1024","2","48000","-16","experiment","4","even","8","504817","501486","502571","3483","128447","502584","NA","423287","103671","3505","506831","507509","503600","29939","506831","NA","NA","Sternberg Task","70","50448","75","yes","1024"
"93.42105263157895","93.42105263157895","672.9078947368421","672.9078947368421","black","experiment","legacy","legacy","legacy","0","uniform","1","undefined","1","left","75","75","75","0","0","75","NA","75","0","0","75","75","75","0","75","0","NA","Sun Oct 25 14:02:30 2020","The main experiment item","yes","SternbergTask.osexp","/Users/Arianna/Desktop","no","mono","no","18","no","white","no","yes","768","legacy","63","11","/Users/Arianna/Downloads/AG-subject-4.csv","legacy","3 4","Lentiform Loewenfeld","3.3.3","1","y","0","left","left","left","left","NA","693","24775","26421","693","NA","NA","NA","2","legacy","2","1024","2","48000","-16","experiment","4","even","3","510865","501486","508620","3483","128447","508633","NA","507535","103671","3505","512879","513573","509648","29939","512879","NA","NA","Sternberg Task","71","51141","76","yes","1024"
"93.50649350649351","93.50649350649351","671.1818181818181","671.1818181818181","black","experiment","legacy","legacy","legacy","0","uniform","1","undefined","1","right","76","76","76","0","0","76","NA","76","0","0","76","76","76","0","76","0","NA","Sun Oct 25 14:02:30 2020","The main experiment item","yes","SternbergTask.osexp","/Users/Arianna/Desktop","no","mono","no","18","no","white","no","yes","768","legacy","64","11","/Users/Arianna/Downloads/AG-subject-4.csv","legacy","3 9 1","Lentiform Loewenfeld","3.3.3","0","n","0","right","left","left","right","NA","540","24775","26421","540","NA","NA","NA","2","legacy","3","1024","2","48000","-16","experiment","4","even","7","516922","513589","514677","3483","128447","514691","NA","507535","103671","3505","518936","519478","515705","29939","518936","NA","NA","Sternberg Task","72","51681","77","yes","1024"
"93.58974358974359","93.58974358974359","671.4102564102565","671.4102564102565","black","experiment","legacy","legacy","legacy","0","uniform","1","undefined","1","right","77","77","77","0","0","77","NA","77","0","0","77","77","77","0","77","0","NA","Sun Oct 25 14:02:30 2020","The main experiment item","yes","SternbergTask.osexp","/Users/Arianna/Desktop","no","mono","no","18","no","white","no","yes","768","legacy","65","11","/Users/Arianna/Downloads/AG-subject-4.csv","legacy","2 7 5","Lentiform Loewenfeld","3.3.3","0","n","0","right","left","left","right","NA","689","24775","26421","689","NA","NA","NA","2","legacy","3","1024","2","48000","-16","experiment","4","even","8","522832","519501","520585","3483","128447","520598","NA","507535","103671","3505","524846","525536","521615","29939","524846","NA","NA","Sternberg Task","73","52370","78","yes","1024"
"93.67088607594937","93.67088607594937","670.0506329113924","670.0506329113924","black","experiment","legacy","legacy","legacy","0","uniform","1","undefined","1","right","78","78","78","0","0","78","NA","78","0","0","78","78","78","0","78","0","NA","Sun Oct 25 14:02:30 2020","The main experiment item","yes","SternbergTask.osexp","/Users/Arianna/Desktop","no","mono","no","18","no","white","no","yes","768","legacy","66","11","/Users/Arianna/Downloads/AG-subject-4.csv","legacy","7 3 2 8","Lentiform Loewenfeld","3.3.3","0","n","0","right","left","left","right","NA","564","24775","26421","564","NA","NA","NA","2","legacy","4","1024","2","48000","-16","experiment","4","even","4","528893","525560","526650","3483","128447","526663","NA","507535","103671","3505","530908","531474","527677","29939","530907","NA","NA","Sternberg Task","74","52934","79","yes","1024"
"93.75","93.75","669.075","669.075","black","experiment","legacy","legacy","legacy","0","uniform","1","undefined","1","right","79","79","79","0","0","79","NA","79","0","0","79","79","79","0","79","0","NA","Sun Oct 25 14:02:30 2020","The main experiment item","yes","SternbergTask.osexp","/Users/Arianna/Desktop","no","mono","no","18","no","white","no","yes","768","legacy","67","11","/Users/Arianna/Downloads/AG-subject-4.csv","legacy","9 7 4 5 8","Lentiform Loewenfeld","3.3.3","0","n","0","right","left","left","right","NA","592","24775","26421","592","NA","NA","NA","2","legacy","5","1024","2","48000","-16","experiment","4","even","6","534829","531497","532584","3483","128447","532597","NA","507535","103671","3505","536843","537437","533612","29939","536843","NA","NA","Sternberg Task","75","53526","80","yes","1024"
"93.82716049382717","93.82716049382717","667.8271604938271","667.8271604938271","black","experiment","legacy","legacy","legacy","0","uniform","1","undefined","1","left","80","80","80","0","0","80","NA","80","0","0","80","80","80","0","80","0","NA","Sun Oct 25 14:02:30 2020","The main experiment item","yes","SternbergTask.osexp","/Users/Arianna/Desktop","no","mono","no","18","no","white","no","yes","768","legacy","68","11","/Users/Arianna/Downloads/AG-subject-4.csv","legacy","6 7 8 5","Lentiform Loewenfeld","3.3.3","3","y","0","left","left","left","left","NA","568","24775","26421","568","NA","NA","NA","2","legacy","4","1024","2","48000","-16","experiment","4","even","8","540793","537461","538548","3483","128447","538560","NA","507535","103671","3505","542809","543379","539576","29939","542809","NA","NA","Sternberg Task","76","54094","81","yes","1024"
"93.90243902439025","93.90243902439025","667.9878048780488","667.9878048780488","black","experiment","legacy","legacy","legacy","0","uniform","1","undefined","1","right","81","81","81","0","0","81","NA","81","0","0","81","81","81","0","81","0","NA","Sun Oct 25 14:02:30 2020","The main experiment item","yes","SternbergTask.osexp","/Users/Arianna/Desktop","no","mono","no","18","no","white","no","yes","768","legacy","69","11","/Users/Arianna/Downloads/AG-subject-4.csv","legacy","6 2 9 3 8 4","Lentiform Loewenfeld","3.3.3","0","n","0","right","left","left","right","NA","681","24775","26421","681","NA","NA","NA","2","legacy","6","1024","2","48000","-16","experiment","4","even","1","546760","543396","544513","3483","128447","544527","NA","507535","103671","3505","548774","549456","545543","29939","548774","NA","NA","Sternberg Task","77","54775","82","yes","1024"
"93.97590361445783","93.97590361445783","672.0843373493976","672.0843373493976","black","experiment","legacy","legacy","legacy","0","uniform","1","undefined","1","left","82","82","82","0","0","82","NA","82","0","0","82","82","82","0","82","0","NA","Sun Oct 25 14:02:30 2020","The main experiment item","yes","SternbergTask.osexp","/Users/Arianna/Desktop","no","mono","no","18","no","white","no","yes","768","legacy","70","11","/Users/Arianna/Downloads/AG-subject-4.csv","legacy","4","Lentiform Loewenfeld","3.3.3","1","y","0","left","left","left","left","NA","1008","24775","26421","1008","NA","NA","NA","2","legacy","1","1024","2","48000","-16","experiment","4","even","4","552810","549479","550565","3483","128447","550578","NA","507535","103671","3505","554825","555834","551593","29939","554825","NA","NA","Sternberg Task","78","55783","83","yes","1024"
"94.04761904761905","94.04761904761905","672.0238095238095","672.0238095238095","black","experiment","legacy","legacy","legacy","0","uniform","1","undefined","1","right","83","83","83","0","0","83","NA","83","0","0","83","83","83","0","83","0","NA","Sun Oct 25 14:02:30 2020","The main experiment item","yes","SternbergTask.osexp","/Users/Arianna/Desktop","no","mono","no","18","no","white","no","yes","768","legacy","71","11","/Users/Arianna/Downloads/AG-subject-4.csv","legacy","7 6 4 8 1 2","Lentiform Loewenfeld","3.3.3","0","n","0","right","left","left","right","NA","667","24775","26421","667","NA","NA","NA","2","legacy","6","1024","2","48000","-16","experiment","4","even","9","559188","555857","556943","3483","128447","556956","NA","507535","103671","3505","561202","561871","557971","29939","561202","NA","NA","Sternberg Task","79","56450","84","yes","1024"
"94.11764705882354","94.11764705882354","673.2352941176471","673.2352941176471","black","experiment","legacy","legacy","legacy","0","uniform","1","undefined","1","right","84","84","84","0","0","84","NA","84","0","0","84","84","84","0","84","0","NA","Sun Oct 25 14:02:30 2020","The main experiment item","yes","SternbergTask.osexp","/Users/Arianna/Desktop","no","mono","no","18","no","white","no","yes","768","legacy","72","11","/Users/Arianna/Downloads/AG-subject-4.csv","legacy","7 1","Lentiform Loewenfeld","3.3.3","0","n","0","right","left","left","right","NA","775","24775","26421","775","NA","NA","NA","2","legacy","2","1024","2","48000","-16","experiment","4","even","8","565225","561897","562981","3483","128447","562994","NA","507535","103671","3505","567239","568016","564008","29939","567239","NA","NA","Sternberg Task","80","57225","85","yes","1024"
"94.18604651162791","94.18604651162791","674.6627906976744","674.6627906976744","black","experiment","legacy","legacy","legacy","0","uniform","1","undefined","1","left","85","85","85","0","0","85","NA","85","0","0","85","85","85","0","85","0","NA","Sun Oct 25 14:02:30 2020","The main experiment item","yes","SternbergTask.osexp","/Users/Arianna/Desktop","no","mono","no","18","no","white","no","yes","768","legacy","73","11","/Users/Arianna/Downloads/AG-subject-4.csv","legacy","6 1 2","Lentiform Loewenfeld","3.3.3","3","y","0","left","left","left","left","NA","796","24775","26421","796","NA","NA","NA","2","legacy","3","1024","2","48000","-16","experiment","4","even","2","571375","568042","569128","3483","128447","569141","NA","507535","103671","3505","573389","574187","570156","29939","573389","NA","NA","Sternberg Task","81","58021","86","yes","1024"
"94.25287356321839","94.25287356321839","677.3218390804598","677.3218390804598","black","experiment","legacy","legacy","legacy","0","uniform","1","undefined","1","right","86","86","86","0","0","86","NA","86","0","0","86","86","86","0","86","0","NA","Sun Oct 25 14:02:30 2020","The main experiment item","yes","SternbergTask.osexp","/Users/Arianna/Desktop","no","mono","no","18","no","white","no","yes","768","legacy","74","11","/Users/Arianna/Downloads/AG-subject-4.csv","legacy","8 2 1 4 5 9","Lentiform Loewenfeld","3.3.3","0","n","0","right","left","left","right","NA","906","24775","26421","906","NA","NA","NA","2","legacy","6","1024","2","48000","-16","experiment","4","even","7","577545","574213","575299","3483","128447","575313","NA","507535","103671","3505","579559","580467","576328","29939","579559","NA","NA","Sternberg Task","82","58927","87","yes","1024"
"94.31818181818181","94.31818181818181","676.7613636363636","676.7613636363636","black","experiment","legacy","legacy","legacy","0","uniform","1","undefined","1","left","87","87","87","0","0","87","NA","87","0","0","87","87","87","0","87","0","NA","Sun Oct 25 14:02:30 2020","The main experiment item","yes","SternbergTask.osexp","/Users/Arianna/Desktop","no","mono","no","18","no","white","no","yes","768","legacy","75","11","/Users/Arianna/Downloads/AG-subject-4.csv","legacy","6 9 7 4 5 1","Lentiform Loewenfeld","3.3.3","2","y","0","left","left","left","left","NA","628","24775","26421","628","NA","NA","NA","2","legacy","6","1024","2","48000","-16","experiment","4","even","9","583826","580490","581579","3483","128447","581592","NA","507535","103671","3505","585842","586472","582607","29939","585842","NA","NA","Sternberg Task","83","59555","88","yes","1024"
"94.38202247191012","94.38202247191012","676.2696629213483","676.2696629213483","black","experiment","legacy","legacy","legacy","0","uniform","1","undefined","1","right","88","88","88","0","0","88","NA","88","0","0","88","88","88","0","88","0","NA","Sun Oct 25 14:02:30 2020","The main experiment item","yes","SternbergTask.osexp","/Users/Arianna/Desktop","no","mono","no","18","no","white","no","yes","768","legacy","76","11","/Users/Arianna/Downloads/AG-subject-4.csv","legacy","5 3 2 6 9 8","Lentiform Loewenfeld","3.3.3","0","n","0","right","left","left","right","NA","633","24775","26421","633","NA","NA","NA","2","legacy","6","1024","2","48000","-16","experiment","4","even","4","589826","586494","587580","3483","128447","587593","NA","507535","103671","3505","591840","592475","588609","29939","591840","NA","NA","Sternberg Task","84","60188","89","yes","1024"
"94.44444444444444","94.44444444444444","674.9","674.9","black","experiment","legacy","legacy","legacy","0","uniform","1","undefined","1","right","89","89","89","0","0","89","NA","89","0","0","89","89","89","0","89","0","NA","Sun Oct 25 14:02:30 2020","The main experiment item","yes","SternbergTask.osexp","/Users/Arianna/Desktop","no","mono","no","18","no","white","no","yes","768","legacy","77","11","/Users/Arianna/Downloads/AG-subject-4.csv","legacy","2 8 9 4 1","Lentiform Loewenfeld","3.3.3","0","n","0","right","left","left","right","NA","553","24775","26421","553","NA","NA","NA","2","legacy","5","1024","2","48000","-16","experiment","4","even","5","595826","592493","593581","3483","128447","593594","NA","507535","103671","3505","597850","598405","594609","29939","597850","NA","NA","Sternberg Task","85","60741","90","yes","1024"
"94.50549450549451","94.50549450549451","673.989010989011","673.989010989011","black","experiment","legacy","legacy","legacy","0","uniform","1","undefined","1","right","90","90","90","0","0","90","NA","90","0","0","90","90","90","0","90","0","NA","Sun Oct 25 14:02:30 2020","The main experiment item","yes","SternbergTask.osexp","/Users/Arianna/Desktop","no","mono","no","18","no","white","no","yes","768","legacy","78","11","/Users/Arianna/Downloads/AG-subject-4.csv","legacy","2 3 8 5 6 7","Lentiform Loewenfeld","3.3.3","0","n","0","right","left","left","right","NA","592","24775","26421","592","NA","NA","NA","2","legacy","6","1024","2","48000","-16","experiment","4","even","1","601754","598422","599507","3483","128447","599520","NA","507535","103671","3505","603768","604361","600537","29939","603767","NA","NA","Sternberg Task","86","61333","91","yes","1024"
"93.47826086956522","93.47826086956522","672.9891304347826","672.9891304347826","black","experiment","legacy","legacy","legacy","0","uniform","0","undefined","0","left","91","91","91","0","0","91","NA","91","0","0","91","91","91","0","91","0","NA","Sun Oct 25 14:02:30 2020","The main experiment item","yes","SternbergTask.osexp","/Users/Arianna/Desktop","no","mono","no","18","no","white","no","yes","768","legacy","79","11","/Users/Arianna/Downloads/AG-subject-4.csv","legacy","4 7 6 8 2 3","Lentiform Loewenfeld","3.3.3","6","y","0","right","left","left","right","NA","582","24775","26421","582","NA","NA","NA","2","legacy","6","1024","2","48000","-16","experiment","4","even","3","607716","604385","605470","3483","128447","605483","NA","507535","103671","3505","609729","610313","606499","29939","609729","NA","NA","Sternberg Task","86","61915","92","yes","1024"
"93.54838709677419","93.54838709677419","674.8387096774194","674.8387096774194","black","experiment","legacy","legacy","legacy","0","uniform","1","undefined","1","left","92","92","92","0","0","92","NA","92","0","0","92","92","92","0","92","0","NA","Sun Oct 25 14:02:30 2020","The main experiment item","yes","SternbergTask.osexp","/Users/Arianna/Desktop","no","mono","no","18","no","white","no","yes","768","legacy","80","11","/Users/Arianna/Downloads/AG-subject-4.csv","legacy","7 1 8 5 6 2","Lentiform Loewenfeld","3.3.3","2","y","0","left","left","left","left","NA","845","24775","26421","845","NA","NA","NA","2","legacy","6","1024","2","48000","-16","experiment","4","even","1","613661","604385","611414","3483","128447","611428","NA","610327","103671","3505","615675","616521","612443","29939","615675","NA","NA","Sternberg Task","87","62760","93","yes","1024"
"93.61702127659575","93.61702127659575","674.063829787234","674.063829787234","black","experiment","legacy","legacy","legacy","0","uniform","1","undefined","1","right","93","93","93","0","0","93","NA","93","0","0","93","93","93","0","93","0","NA","Sun Oct 25 14:02:30 2020","The main experiment item","yes","SternbergTask.osexp","/Users/Arianna/Desktop","no","mono","no","18","no","white","no","yes","768","legacy","81","11","/Users/Arianna/Downloads/AG-subject-4.csv","legacy","2 8 7 9 5 3","Lentiform Loewenfeld","3.3.3","0","n","0","right","left","left","right","NA","602","24775","26421","602","NA","NA","NA","2","legacy","6","1024","2","48000","-16","experiment","4","even","6","619876","616545","617630","3483","128447","617643","NA","610327","103671","3505","621890","622494","618659","29939","621890","NA","NA","Sternberg Task","88","63362","94","yes","1024"
"93.6842105263158","93.6842105263158","673.7368421052631","673.7368421052631","black","experiment","legacy","legacy","legacy","0","uniform","1","undefined","1","left","94","94","94","0","0","94","NA","94","0","0","94","94","94","0","94","0","NA","Sun Oct 25 14:02:30 2020","The main experiment item","yes","SternbergTask.osexp","/Users/Arianna/Desktop","no","mono","no","18","no","white","no","yes","768","legacy","82","11","/Users/Arianna/Downloads/AG-subject-4.csv","legacy","9 5 8 1","Lentiform Loewenfeld","3.3.3","2","y","0","left","left","left","left","NA","643","24775","26421","643","NA","NA","NA","2","legacy","4","1024","2","48000","-16","experiment","4","even","5","625851","622517","623604","3483","128447","623618","NA","610327","103671","3505","627865","628509","624633","29939","627865","NA","NA","Sternberg Task","89","64005","95","yes","1024"
"93.75","93.75","673.1458333333334","673.1458333333334","black","experiment","legacy","legacy","legacy","0","uniform","1","undefined","1","left","95","95","95","0","0","95","NA","95","0","0","95","95","95","0","95","0","NA","Sun Oct 25 14:02:30 2020","The main experiment item","yes","SternbergTask.osexp","/Users/Arianna/Desktop","no","mono","no","18","no","white","no","yes","768","legacy","83","11","/Users/Arianna/Downloads/AG-subject-4.csv","legacy","3 4 9 6 2 9","Lentiform Loewenfeld","3.3.3","5","y","0","left","left","left","left","NA","617","24775","26421","617","NA","NA","NA","2","legacy","6","1024","2","48000","-16","experiment","4","even","2","631868","628532","629622","3483","128447","629634","NA","610327","103671","3505","633882","634500","630651","29939","633882","NA","NA","Sternberg Task","90","64622","96","yes","1024"
"93.81443298969072","93.81443298969072","671.9896907216495","671.9896907216495","black","experiment","legacy","legacy","legacy","0","uniform","1","undefined","1","right","96","96","96","0","0","96","NA","96","0","0","96","96","96","0","96","0","NA","Sun Oct 25 14:02:30 2020","The main experiment item","yes","SternbergTask.osexp","/Users/Arianna/Desktop","no","mono","no","18","no","white","no","yes","768","legacy","84","11","/Users/Arianna/Downloads/AG-subject-4.csv","legacy","9 5 3 2 8 6","Lentiform Loewenfeld","3.3.3","0","n","0","right","left","left","right","NA","561","24775","26421","561","NA","NA","NA","2","legacy","6","1024","2","48000","-16","experiment","4","even","7","637857","634524","635611","3483","128447","635624","NA","610327","103671","3505","639871","640433","636639","29939","639870","NA","NA","Sternberg Task","91","65183","97","yes","1024"
"93.87755102040816","93.87755102040816","671.7755102040817","671.7755102040817","black","experiment","legacy","legacy","legacy","0","uniform","1","undefined","1","left","97","97","97","0","0","97","NA","97","0","0","97","97","97","0","97","0","NA","Sun Oct 25 14:02:30 2020","The main experiment item","yes","SternbergTask.osexp","/Users/Arianna/Desktop","no","mono","no","18","no","white","no","yes","768","legacy","85","11","/Users/Arianna/Downloads/AG-subject-4.csv","legacy","5 2 6","Lentiform Loewenfeld","3.3.3","2","y","0","left","left","left","left","NA","651","24775","26421","651","NA","NA","NA","2","legacy","3","1024","2","48000","-16","experiment","4","even","2","643785","640457","641541","3483","128447","641554","NA","610327","103671","3505","645800","646452","642568","29939","645800","NA","NA","Sternberg Task","92","65834","98","yes","1024"
"93.93939393939394","93.93939393939394","671.040404040404","671.040404040404","black","experiment","legacy","legacy","legacy","0","uniform","1","undefined","1","right","98","98","98","0","0","98","NA","98","0","0","98","98","98","0","98","0","NA","Sun Oct 25 14:02:30 2020","The main experiment item","yes","SternbergTask.osexp","/Users/Arianna/Desktop","no","mono","no","18","no","white","no","yes","768","legacy","86","11","/Users/Arianna/Downloads/AG-subject-4.csv","legacy","3 4 2","Lentiform Loewenfeld","3.3.3","0","n","0","right","left","left","right","NA","599","24775","26421","599","NA","NA","NA","2","legacy","3","1024","2","48000","-16","experiment","4","even","5","649810","646476","647563","3483","128447","647578","NA","610327","103671","3505","651824","652425","648593","29939","651823","NA","NA","Sternberg Task","93","66433","99","yes","1024"
"94","94","671.08","671.08","black","experiment","legacy","legacy","legacy","0","uniform","1","undefined","1","right","99","99","99","0","0","99","NA","99","0","0","99","99","99","0","99","0","NA","Sun Oct 25 14:02:30 2020","The main experiment item","yes","SternbergTask.osexp","/Users/Arianna/Desktop","no","mono","no","18","no","white","no","yes","768","legacy","87","11","/Users/Arianna/Downloads/AG-subject-4.csv","legacy","1 3 2 6 9","Lentiform Loewenfeld","3.3.3","0","n","0","right","left","left","right","NA","675","24775","26421","675","NA","NA","NA","2","legacy","5","1024","2","48000","-16","experiment","4","even","5","655781","652448","653536","3483","128447","653549","NA","610327","103671","3505","657795","658472","654564","29939","657795","NA","NA","Sternberg Task","94","67108","100","yes","1024"
"94.05940594059406","94.05940594059406","669.8316831683169","669.8316831683169","black","experiment","legacy","legacy","legacy","0","uniform","1","undefined","1","left","100","100","100","0","0","100","NA","100","0","0","100","100","100","0","100","0","NA","Sun Oct 25 14:02:30 2020","The main experiment item","yes","SternbergTask.osexp","/Users/Arianna/Desktop","no","mono","no","18","no","white","no","yes","768","legacy","88","11","/Users/Arianna/Downloads/AG-subject-4.csv","legacy","3 5 4 7","Lentiform Loewenfeld","3.3.3","1","y","0","left","left","left","left","NA","545","24775","26421","545","NA","NA","NA","2","legacy","4","1024","2","48000","-16","experiment","4","even","3","661825","658495","659579","3483","128447","659592","NA","610327","103671","3505","663839","664385","660608","29939","663839","NA","NA","Sternberg Task","95","67653","101","yes","1024"
"94.11764705882354","94.11764705882354","670.5490196078431","670.5490196078431","black","experiment","legacy","legacy","legacy","0","uniform","1","undefined","1","right","101","101","101","0","0","101","NA","101","0","0","101","101","101","0","101","0","NA","Sun Oct 25 14:02:30 2020","The main experiment item","yes","SternbergTask.osexp","/Users/Arianna/Desktop","no","mono","no","18","no","white","no","yes","768","legacy","89","11","/Users/Arianna/Downloads/AG-subject-4.csv","legacy","1 7 5 2","Lentiform Loewenfeld","3.3.3","0","n","0","right","left","left","right","NA","743","24775","26421","743","NA","NA","NA","2","legacy","4","1024","2","48000","-16","experiment","4","even","3","667741","664409","665497","3483","128447","665510","NA","610327","103671","3505","669755","670499","666526","29939","669755","NA","NA","Sternberg Task","96","68396","102","yes","1024"
"94.1747572815534","94.1747572815534","671.6990291262136","671.6990291262136","black","experiment","legacy","legacy","legacy","0","uniform","1","undefined","1","right","102","102","102","0","0","102","NA","102","0","0","102","102","102","0","102","0","NA","Sun Oct 25 14:02:30 2020","The main experiment item","yes","SternbergTask.osexp","/Users/Arianna/Desktop","no","mono","no","18","no","white","no","yes","768","legacy","90","11","/Users/Arianna/Downloads/AG-subject-4.csv","legacy","4 2 6 9","Lentiform Loewenfeld","3.3.3","0","n","0","right","left","left","right","NA","789","24775","26421","789","NA","NA","NA","2","legacy","4","1024","2","48000","-16","experiment","4","even","7","673844","670515","671599","3483","128447","671612","NA","610327","103671","3505","675859","676650","672628","29939","675859","NA","NA","Sternberg Task","97","69185","103","yes","1024"
"94.23076923076923","94.23076923076923","672.5576923076923","672.5576923076923","black","experiment","legacy","legacy","legacy","0","uniform","1","undefined","1","right","103","103","103","0","0","103","NA","103","0","0","103","103","103","0","103","0","NA","Sun Oct 25 14:02:30 2020","The main experiment item","yes","SternbergTask.osexp","/Users/Arianna/Desktop","no","mono","no","18","no","white","no","yes","768","legacy","91","11","/Users/Arianna/Downloads/AG-subject-4.csv","legacy","5 7 3","Lentiform Loewenfeld","3.3.3","0","n","0","right","left","left","right","NA","761","24775","26421","761","NA","NA","NA","2","legacy","3","1024","2","48000","-16","experiment","4","even","9","680004","676675","677760","3483","128447","677773","NA","610327","103671","3505","682018","682781","678788","29939","682018","NA","NA","Sternberg Task","98","69946","104","yes","1024"
"94.28571428571429","94.28571428571429","673.4571428571429","673.4571428571429","black","experiment","legacy","legacy","legacy","0","uniform","1","undefined","1","right","104","104","104","0","0","104","NA","104","0","0","104","104","104","0","104","0","NA","Sun Oct 25 14:02:30 2020","The main experiment item","yes","SternbergTask.osexp","/Users/Arianna/Desktop","no","mono","no","18","no","white","no","yes","768","legacy","92","11","/Users/Arianna/Downloads/AG-subject-4.csv","legacy","1 6 4","Lentiform Loewenfeld","3.3.3","0","n","0","right","left","left","right","NA","767","24775","26421","767","NA","NA","NA","2","legacy","3","1024","2","48000","-16","experiment","4","even","7","686138","682808","683893","3483","128447","683906","NA","610327","103671","3505","688152","688921","684921","29939","688152","NA","NA","Sternberg Task","99","70713","105","yes","1024"
"94.33962264150944","94.33962264150944","674.3396226415094","674.3396226415094","black","experiment","legacy","legacy","legacy","0","uniform","1","undefined","1","right","105","105","105","0","0","105","NA","105","0","0","105","105","105","0","105","0","NA","Sun Oct 25 14:02:30 2020","The main experiment item","yes","SternbergTask.osexp","/Users/Arianna/Desktop","no","mono","no","18","no","white","no","yes","768","legacy","93","11","/Users/Arianna/Downloads/AG-subject-4.csv","legacy","6 8 4","Lentiform Loewenfeld","3.3.3","0","n","0","right","left","left","right","NA","767","24775","26421","767","NA","NA","NA","2","legacy","3","1024","2","48000","-16","experiment","4","even","1","692279","688949","690033","3483","128447","690046","NA","610327","103671","3505","694293","695062","691062","29939","694293","NA","NA","Sternberg Task","100","71480","106","yes","1024"
"94.39252336448598","94.39252336448598","676.1401869158879","676.1401869158879","black","experiment","legacy","legacy","legacy","0","uniform","1","undefined","1","left","106","106","106","0","0","106","NA","106","0","0","106","106","106","0","106","0","NA","Sun Oct 25 14:02:30 2020","The main experiment item","yes","SternbergTask.osexp","/Users/Arianna/Desktop","no","mono","no","18","no","white","no","yes","768","legacy","94","11","/Users/Arianna/Downloads/AG-subject-4.csv","legacy","8 7 3","Lentiform Loewenfeld","3.3.3","1","y","0","left","left","left","left","NA","867","24775","26421","867","NA","NA","NA","2","legacy","3","1024","2","48000","-16","experiment","4","even","8","698417","695086","696172","3483","128447","696185","NA","610327","103671","3505","700432","701300","697200","29939","700432","NA","NA","Sternberg Task","101","72347","107","yes","1024"
"94.44444444444444","94.44444444444444","674.5648148148148","674.5648148148148","black","experiment","legacy","legacy","legacy","0","uniform","1","undefined","1","right","107","107","107","0","0","107","NA","107","0","0","107","107","107","0","107","0","NA","Sun Oct 25 14:02:30 2020","The main experiment item","yes","SternbergTask.osexp","/Users/Arianna/Desktop","no","mono","no","18","no","white","no","yes","768","legacy","95","11","/Users/Arianna/Downloads/AG-subject-4.csv","legacy","5 9 2 3","Lentiform Loewenfeld","3.3.3","0","n","0","right","left","left","right","NA","506","24775","26421","506","NA","NA","NA","2","legacy","4","1024","2","48000","-16","experiment","4","even","8","704663","701329","702418","3483","128447","702431","NA","610327","103671","3505","706677","707185","703446","29939","706677","NA","NA","Sternberg Task","102","72853","108","yes","1024"
"94.4954128440367","94.4954128440367","675.302752293578","675.302752293578","black","experiment","legacy","legacy","legacy","0","uniform","1","undefined","1","left","108","108","108","0","0","108","NA","108","0","0","108","108","108","0","108","0","NA","Sun Oct 25 14:02:30 2020","The main experiment item","yes","SternbergTask.osexp","/Users/Arianna/Desktop","no","mono","no","18","no","white","no","yes","768","legacy","96","11","/Users/Arianna/Downloads/AG-subject-4.csv","legacy","7 8 6 3 1","Lentiform Loewenfeld","3.3.3","5","y","0","left","left","left","left","NA","755","24775","26421","755","NA","NA","NA","2","legacy","5","1024","2","48000","-16","experiment","4","even","1","710544","707211","708298","3483","128447","708312","NA","610327","103671","3505","712558","713315","709327","29939","712557","NA","NA","Sternberg Task","103","73608","109","yes","1024"
"94.54545454545455","94.54545454545455","674.1636363636363","674.1636363636363","black","experiment","legacy","legacy","legacy","0","uniform","1","undefined","1","right","109","109","109","0","0","109","NA","109","0","0","109","109","109","0","109","0","NA","Sun Oct 25 14:02:30 2020","The main experiment item","yes","SternbergTask.osexp","/Users/Arianna/Desktop","no","mono","no","18","no","white","no","yes","768","legacy","97","11","/Users/Arianna/Downloads/AG-subject-4.csv","legacy","1 7 5 2 9","Lentiform Loewenfeld","3.3.3","0","n","0","right","left","left","right","NA","550","24775","26421","550","NA","NA","NA","2","legacy","5","1024","2","48000","-16","experiment","4","even","3","716671","713341","714428","3483","128447","714441","NA","610327","103671","3505","718685","719237","715454","29939","718685","NA","NA","Sternberg Task","104","74158","110","yes","1024"
"94.5945945945946","94.5945945945946","673.2702702702703","673.2702702702703","black","experiment","legacy","legacy","legacy","0","uniform","1","undefined","1","left","110","110","110","0","0","110","NA","110","0","0","110","110","110","0","110","0","NA","Sun Oct 25 14:02:30 2020","The main experiment item","yes","SternbergTask.osexp","/Users/Arianna/Desktop","no","mono","no","18","no","white","no","yes","768","legacy","98","11","/Users/Arianna/Downloads/AG-subject-4.csv","legacy","6 9 3 1","Lentiform Loewenfeld","3.3.3","4","y","0","left","left","left","left","NA","575","24775","26421","575","NA","NA","NA","2","legacy","4","1024","2","48000","-16","experiment","4","even","1","722596","719264","720350","3483","128447","720363","NA","610327","103671","3505","724610","725187","721378","29939","724610","NA","NA","Sternberg Task","105","74733","111","yes","1024"
"94.64285714285714","94.64285714285714","675.4196428571429","675.4196428571429","black","experiment","legacy","legacy","legacy","0","uniform","1","undefined","1","left","111","111","111","0","0","111","NA","111","0","0","111","111","111","0","111","0","NA","Sun Oct 25 14:02:30 2020","The main experiment item","yes","SternbergTask.osexp","/Users/Arianna/Desktop","no","mono","no","18","no","white","no","yes","768","legacy","99","11","/Users/Arianna/Downloads/AG-subject-4.csv","legacy","3 9 6 2","Lentiform Loewenfeld","3.3.3","4","y","0","left","left","left","left","NA","914","24775","26421","914","NA","NA","NA","2","legacy","4","1024","2","48000","-16","experiment","4","even","2","728546","725212","726298","3483","128447","726312","NA","610327","103671","3505","730561","731476","727328","29939","730561","NA","NA","Sternberg Task","106","75647","112","yes","1024"
"94.69026548672566","94.69026548672566","674.0973451327434","674.0973451327434","black","experiment","legacy","legacy","legacy","0","uniform","1","undefined","1","left","112","112","112","0","0","112","NA","112","0","0","112","112","112","0","112","0","NA","Sun Oct 25 14:02:30 2020","The main experiment item","yes","SternbergTask.osexp","/Users/Arianna/Desktop","no","mono","no","18","no","white","no","yes","768","legacy","100","11","/Users/Arianna/Downloads/AG-subject-4.csv","legacy","2 3 7 4","Lentiform Loewenfeld","3.3.3","1","y","0","left","left","left","left","NA","526","24775","26421","526","NA","NA","NA","2","legacy","4","1024","2","48000","-16","experiment","4","even","2","734831","731500","732586","3483","128447","732599","NA","610327","103671","3505","736844","737371","733614","29939","736844","NA","NA","Sternberg Task","107","76173","113","yes","1024"
"94.73684210526316","94.73684210526316","672.921052631579","672.921052631579","black","experiment","legacy","legacy","legacy","0","uniform","1","undefined","1","right","113","113","113","0","0","113","NA","113","0","0","113","113","113","0","113","0","NA","Sun Oct 25 14:02:30 2020","The main experiment item","yes","SternbergTask.osexp","/Users/Arianna/Desktop","no","mono","no","18","no","white","no","yes","768","legacy","101","11","/Users/Arianna/Downloads/AG-subject-4.csv","legacy","4 8 1 2","Lentiform Loewenfeld","3.3.3","0","n","0","right","left","left","right","NA","540","24775","26421","540","NA","NA","NA","2","legacy","4","1024","2","48000","-16","experiment","4","even","7","740727","737395","738481","3483","128447","738495","NA","610327","103671","3505","742741","743283","739510","29939","742741","NA","NA","Sternberg Task","108","76713","114","yes","1024"
"94.78260869565217","94.78260869565217","673.9304347826087","673.9304347826087","black","experiment","legacy","legacy","legacy","0","uniform","1","undefined","1","left","114","114","114","0","0","114","NA","114","0","0","114","114","114","0","114","0","NA","Sun Oct 25 14:02:30 2020","The main experiment item","yes","SternbergTask.osexp","/Users/Arianna/Desktop","no","mono","no","18","no","white","no","yes","768","legacy","102","11","/Users/Arianna/Downloads/AG-subject-4.csv","legacy","2 4 8 5 1 3","Lentiform Loewenfeld","3.3.3","1","y","0","left","left","left","left","NA","789","24775","26421","789","NA","NA","NA","2","legacy","6","1024","2","48000","-16","experiment","4","even","2","746642","743310","744396","3483","128447","744409","NA","610327","103671","3505","748656","749447","745425","29939","748656","NA","NA","Sternberg Task","109","77502","115","yes","1024"
