"acc","accuracy","average_response_time","avg_rt","background","block","canvas_backend","clock_backend","color_backend","compensation","coordinates","correct","correct_Instruction_1","correct_Keyboard_Response","correct_response","count_Correct_Feedback","count_Experimental_Loop","count_Fixation","count_ISI","count_Incorrect_Feedback","count_Instruction_1","count_Instructions_2","count_Instructions_3_Thanks","count_Keyboard_Response","count_Logger","count_Memory_Set","count_Practice_Loop","count_Probe","count_expSequence","count_experiment","count_new_sketchpad","datetime","description","disable_garbage_collection","experiment_file","experiment_path","font_bold","font_family","font_italic","font_size","font_underline","foreground","form_clicks","fullscreen","height","keyboard_backend","live_row","live_row_Practice_Loop","logfile","mouse_backend","numberSet","opensesame_codename","opensesame_version","posInSet","present","repeat_cycle","response","response_Incorrect_Feedback","response_Instruction_1","response_Instructions_2","response_Instructions_3_Thanks","response_Keyboard_Response","response_new_sketchpad","response_time","response_time_Incorrect_Feedback","response_time_Instruction_1","response_time_Instructions_2","response_time_Instructions_3_Thanks","response_time_Keyboard_Response","response_time_new_sketchpad","round_decimals","sampler_backend","setSize","sound_buf_size","sound_channels","sound_freq","sound_sample_size","start","subject_nr","subject_parity","target","time_Correct_Feedback","time_Experimental_Loop","time_Fixation","time_ISI","time_Incorrect_Feedback","time_Instruction_1","time_Instructions_2","time_Instructions_3_Thanks","time_Keyboard_Response","time_Logger","time_Memory_Set","time_Practice_Loop","time_Probe","time_expSequence","time_experiment","time_new_sketchpad","title","total_correct","total_response_time","total_responses","uniform_coordinates","width"
"0","0","2001","2001","black","practice","legacy","legacy","legacy","0","uniform","0","undefined","0","left","0","0","0","0","0","0","0","0","0","0","0","0","0","0","0","NA","Sun Oct 25 18:38:27 2020","The main experiment item","yes","SternbergTask (1).osexp","/Users/jacobspurling/Downloads","no","mono","no","18","no","white","no","yes","768","legacy","0","0","/Users/jacobspurling/Desktop/RL-subject-2.csv","legacy","6","Lentiform Loewenfeld","3.3.5","1","y","0","None","NA","right","NA","NA","None","NA","2001","NA","254733","NA","NA","2001","NA","2","legacy","1","1024","2","48000","-16","experiment","2","even","6","NA","NA","260708","262941","NA","5340","NA","NA","264954","266955","261722","260117","264954","260683","5318","NA","Sternberg Task","0","2001","1","yes","1024"
"0","0","2000.5","2000.5","black","practice","legacy","legacy","legacy","0","uniform","0","undefined","0","right","1","0","1","1","1","0","0","0","1","1","1","0","1","1","0","NA","Sun Oct 25 18:38:27 2020","The main experiment item","yes","SternbergTask (1).osexp","/Users/jacobspurling/Downloads","no","mono","no","18","no","white","no","yes","768","legacy","1","1","/Users/jacobspurling/Desktop/RL-subject-2.csv","legacy","3 1 9 4","Lentiform Loewenfeld","3.3.5","0","n","0","None","right","right","NA","NA","None","NA","2000","7920","254733","NA","NA","2000","NA","2","legacy","4","1024","2","48000","-16","experiment","2","even","6","NA","NA","275184","277415","267018","5340","NA","NA","279429","281429","276198","260117","279429","275170","5318","NA","Sternberg Task","0","4001","2","yes","1024"
"0","0","2000.3333333333333","2000.3333333333333","black","practice","legacy","legacy","legacy","0","uniform","0","undefined","0","right","2","0","2","2","2","0","0","0","2","2","2","0","2","2","0","NA","Sun Oct 25 18:38:27 2020","The main experiment item","yes","SternbergTask (1).osexp","/Users/jacobspurling/Downloads","no","mono","no","18","no","white","no","yes","768","legacy","2","2","/Users/jacobspurling/Desktop/RL-subject-2.csv","legacy","9 6 7 4 5","Lentiform Loewenfeld","3.3.5","0","n","0","None","right","right","NA","NA","None","NA","2000","8992","254733","NA","NA","2000","NA","2","legacy","5","1024","2","48000","-16","experiment","2","even","3","NA","NA","290567","292799","281455","5340","NA","NA","294812","296812","291582","260117","294811","290547","5318","NA","Sternberg Task","0","6001","3","yes","1024"
"0","0","2000.25","2000.25","black","practice","legacy","legacy","legacy","0","uniform","0","undefined","0","left","3","0","3","3","3","0","0","0","3","3","3","0","3","3","0","NA","Sun Oct 25 18:38:27 2020","The main experiment item","yes","SternbergTask (1).osexp","/Users/jacobspurling/Downloads","no","mono","no","18","no","white","no","yes","768","legacy","3","3","/Users/jacobspurling/Desktop/RL-subject-2.csv","legacy","4 8","Lentiform Loewenfeld","3.3.5","1","y","0","None","left","right","NA","NA","None","NA","2000","6142","254733","NA","NA","2000","NA","2","legacy","2","1024","2","48000","-16","experiment","2","even","4","NA","NA","303089","305317","296837","5340","NA","NA","307330","309330","304101","260117","307329","303076","5318","NA","Sternberg Task","0","8001","4","yes","1024"
"0","0","2000.2","2000.2","black","practice","legacy","legacy","legacy","0","uniform","0","undefined","0","left","4","0","4","4","4","0","0","0","4","4","4","0","4","4","0","NA","Sun Oct 25 18:38:27 2020","The main experiment item","yes","SternbergTask (1).osexp","/Users/jacobspurling/Downloads","no","mono","no","18","no","white","no","yes","768","legacy","4","4","/Users/jacobspurling/Desktop/RL-subject-2.csv","legacy","4 3 1 7 9 8","Lentiform Loewenfeld","3.3.5","1","y","0","None","right","right","NA","NA","None","NA","2000","46760","254733","NA","NA","2000","NA","2","legacy","6","1024","2","48000","-16","experiment","2","even","4","NA","NA","356225","358455","309355","5340","NA","NA","360468","362468","357239","260117","360468","356211","5318","NA","Sternberg Task","0","10001","5","yes","1024"
"16.666666666666668","16.666666666666668","1799.5","1799.5","black","practice","legacy","legacy","legacy","0","uniform","1","undefined","1","left","5","0","5","5","5","0","0","0","5","5","5","0","5","5","0","NA","Sun Oct 25 18:38:27 2020","The main experiment item","yes","SternbergTask (1).osexp","/Users/jacobspurling/Downloads","no","mono","no","18","no","white","no","yes","768","legacy","5","5","/Users/jacobspurling/Desktop/RL-subject-2.csv","legacy","1 5 2 9","Lentiform Loewenfeld","3.3.5","2","y","0","left","right","right","NA","NA","left","NA","796","19680","254733","NA","NA","796","NA","2","legacy","4","1024","2","48000","-16","experiment","2","even","5","NA","NA","382293","384521","362494","5340","NA","NA","386534","387332","383306","260117","386533","382274","5318","NA","Sternberg Task","1","10797","6","yes","1024"
"28.571428571428573","28.571428571428573","1694.142857142857","1694.142857142857","black","practice","legacy","legacy","legacy","0","uniform","1","undefined","1","right","6","0","6","6","6","0","0","0","6","6","6","0","6","6","0","NA","Sun Oct 25 18:38:27 2020","The main experiment item","yes","SternbergTask (1).osexp","/Users/jacobspurling/Downloads","no","mono","no","18","no","white","no","yes","768","legacy","6","6","/Users/jacobspurling/Desktop/RL-subject-2.csv","legacy","2 1","Lentiform Loewenfeld","3.3.5","0","n","0","right","right","right","NA","NA","right","NA","1062","19680","254733","NA","NA","1062","NA","2","legacy","2","1024","2","48000","-16","experiment","2","even","5","387357","NA","388460","390691","362494","5340","NA","NA","392707","393770","389475","260117","392706","388449","5318","NA","Sternberg Task","2","11859","7","yes","1024"
"25","25","1732.375","1732.375","black","practice","legacy","legacy","legacy","0","uniform","0","undefined","0","right","7","0","7","7","7","0","0","0","7","7","7","0","7","7","0","NA","Sun Oct 25 18:38:27 2020","The main experiment item","yes","SternbergTask (1).osexp","/Users/jacobspurling/Downloads","no","mono","no","18","no","white","no","yes","768","legacy","7","7","/Users/jacobspurling/Desktop/RL-subject-2.csv","legacy","4 1 5","Lentiform Loewenfeld","3.3.5","0","n","0","None","right","right","NA","NA","None","NA","2000","19680","254733","NA","NA","2000","NA","2","legacy","3","1024","2","48000","-16","experiment","2","even","2","393795","NA","394905","397136","362494","5340","NA","NA","399150","401150","395921","260117","399149","394893","5318","NA","Sternberg Task","2","13859","8","yes","1024"
"33.333333333333336","33.333333333333336","1683.888888888889","1683.888888888889","black","practice","legacy","legacy","legacy","0","uniform","1","undefined","1","left","8","0","8","8","8","0","0","0","8","8","8","0","8","8","0","NA","Sun Oct 25 18:38:27 2020","The main experiment item","yes","SternbergTask (1).osexp","/Users/jacobspurling/Downloads","no","mono","no","18","no","white","no","yes","768","legacy","8","8","/Users/jacobspurling/Desktop/RL-subject-2.csv","legacy","2 9 4","Lentiform Loewenfeld","3.3.5","3","y","0","left","right","right","NA","NA","left","NA","1296","59365","254733","NA","NA","1296","NA","2","legacy","3","1024","2","48000","-16","experiment","2","even","4","393795","NA","460652","462883","401176","5340","NA","NA","464898","466195","461667","260117","464897","460638","5318","NA","Sternberg Task","3","15155","9","yes","1024"
"40","40","1608.5","1608.5","black","practice","legacy","legacy","legacy","0","uniform","1","undefined","1","right","9","0","9","9","9","0","0","0","9","9","9","0","9","9","0","NA","Sun Oct 25 18:38:27 2020","The main experiment item","yes","SternbergTask (1).osexp","/Users/jacobspurling/Downloads","no","mono","no","18","no","white","no","yes","768","legacy","9","9","/Users/jacobspurling/Desktop/RL-subject-2.csv","legacy","5 7 8 4 1 2","Lentiform Loewenfeld","3.3.5","0","n","0","right","right","right","NA","NA","right","NA","930","59365","254733","NA","NA","930","NA","2","legacy","6","1024","2","48000","-16","experiment","2","even","6","466219","NA","467327","469557","401176","5340","NA","NA","471569","472501","468341","260117","471569","467315","5318","NA","Sternberg Task","4","16085","10","yes","1024"
"45.45454545454545","45.45454545454545","1588.1818181818182","1588.1818181818182","black","practice","legacy","legacy","legacy","0","uniform","1","undefined","1","right","10","0","10","10","10","0","0","0","10","10","10","0","10","10","0","NA","Sun Oct 25 18:38:27 2020","The main experiment item","yes","SternbergTask (1).osexp","/Users/jacobspurling/Downloads","no","mono","no","18","no","white","no","yes","768","legacy","10","10","/Users/jacobspurling/Desktop/RL-subject-2.csv","legacy","5","Lentiform Loewenfeld","3.3.5","0","n","0","right","right","right","NA","NA","right","NA","1385","59365","254733","NA","NA","1385","NA","2","legacy","1","1024","2","48000","-16","experiment","2","even","3","472526","NA","473631","475862","401176","5340","NA","NA","477875","479262","474646","260117","477875","473619","5318","NA","Sternberg Task","5","17470","11","yes","1024"
"50","50","1546.75","1546.75","black","practice","legacy","legacy","legacy","0","uniform","1","undefined","1","left","11","0","11","11","11","0","0","0","11","11","11","0","11","11","0","NA","Sun Oct 25 18:38:27 2020","The main experiment item","yes","SternbergTask (1).osexp","/Users/jacobspurling/Downloads","no","mono","no","18","no","white","no","yes","768","legacy","11","11","/Users/jacobspurling/Desktop/RL-subject-2.csv","legacy","1 7 9 8 5","Lentiform Loewenfeld","3.3.5","4","y","0","left","right","right","NA","NA","left","NA","1091","59365","254733","NA","NA","1091","NA","2","legacy","5","1024","2","48000","-16","experiment","2","even","8","479287","NA","480392","482623","401176","5340","NA","NA","484636","485729","481407","260117","484636","480381","5318","NA","Sternberg Task","6","18561","12","yes","1024"
"53.84615384615385","53.84615384615385","1479.076923076923","1479.076923076923","black","experiment","legacy","legacy","legacy","0","uniform","1","undefined","1","right","12","0","12","12","12","0","0","0","12","12","12","0","12","12","0","NA","Sun Oct 25 18:38:27 2020","The main experiment item","yes","SternbergTask (1).osexp","/Users/jacobspurling/Downloads","no","mono","no","18","no","white","no","yes","768","legacy","0","11","/Users/jacobspurling/Desktop/RL-subject-2.csv","legacy","2 7 5","Lentiform Loewenfeld","3.3.5","0","n","0","right","right","right","left","NA","right","NA","667","59365","254733","5106","NA","667","NA","2","legacy","3","1024","2","48000","-16","experiment","2","even","8","485755","491922","492033","494262","401176","5340","486815","NA","496275","496944","493047","260117","496275","492021","5318","NA","Sternberg Task","7","19228","13","yes","1024"
"57.142857142857146","57.142857142857146","1448.5","1448.5","black","experiment","legacy","legacy","legacy","0","uniform","1","undefined","1","left","13","0","13","13","13","0","0","0","13","13","13","0","13","13","0","NA","Sun Oct 25 18:38:27 2020","The main experiment item","yes","SternbergTask (1).osexp","/Users/jacobspurling/Downloads","no","mono","no","18","no","white","no","yes","768","legacy","1","11","/Users/jacobspurling/Desktop/RL-subject-2.csv","legacy","6 1 2","Lentiform Loewenfeld","3.3.5","3","y","0","left","right","right","left","NA","left","NA","1051","59365","254733","5106","NA","1051","NA","2","legacy","3","1024","2","48000","-16","experiment","2","even","2","496969","491922","498073","500304","401176","5340","486815","NA","502316","503369","499088","260117","502316","498061","5318","NA","Sternberg Task","8","20279","14","yes","1024"
"60","60","1404.9333333333334","1404.9333333333334","black","experiment","legacy","legacy","legacy","0","uniform","1","undefined","1","right","14","0","14","14","14","0","0","0","14","14","14","0","14","14","0","NA","Sun Oct 25 18:38:27 2020","The main experiment item","yes","SternbergTask (1).osexp","/Users/jacobspurling/Downloads","no","mono","no","18","no","white","no","yes","768","legacy","2","11","/Users/jacobspurling/Desktop/RL-subject-2.csv","legacy","5 9 2 3","Lentiform Loewenfeld","3.3.5","0","n","0","right","right","right","left","NA","right","NA","795","59365","254733","5106","NA","795","NA","2","legacy","4","1024","2","48000","-16","experiment","2","even","8","503396","491922","504502","506733","401176","5340","486815","NA","508746","509543","505516","260117","508746","504490","5318","NA","Sternberg Task","9","21074","15","yes","1024"
"56.25","56.25","1365.75","1365.75","black","experiment","legacy","legacy","legacy","0","uniform","0","undefined","0","right","15","0","15","15","15","0","0","0","15","15","15","0","15","15","0","NA","Sun Oct 25 18:38:27 2020","The main experiment item","yes","SternbergTask (1).osexp","/Users/jacobspurling/Downloads","no","mono","no","18","no","white","no","yes","768","legacy","3","11","/Users/jacobspurling/Desktop/RL-subject-2.csv","legacy","1 5 3 2 8","Lentiform Loewenfeld","3.3.5","0","n","0","left","right","right","left","NA","left","NA","778","59365","254733","5106","NA","778","NA","2","legacy","5","1024","2","48000","-16","experiment","2","even","4","509568","491922","510679","512911","401176","5340","486815","NA","514924","515703","511695","260117","514924","510667","5318","NA","Sternberg Task","9","21852","16","yes","1024"
"58.8235294117647","58.8235294117647","1362.8823529411766","1362.8823529411766","black","experiment","legacy","legacy","legacy","0","uniform","1","undefined","1","right","16","0","16","16","16","0","0","0","16","16","16","0","16","16","0","NA","Sun Oct 25 18:38:27 2020","The main experiment item","yes","SternbergTask (1).osexp","/Users/jacobspurling/Downloads","no","mono","no","18","no","white","no","yes","768","legacy","4","11","/Users/jacobspurling/Desktop/RL-subject-2.csv","legacy","2 6 4 3 9","Lentiform Loewenfeld","3.3.5","0","n","0","right","right","right","left","NA","right","NA","1317","2806","254733","5106","NA","1317","NA","2","legacy","5","1024","2","48000","-16","experiment","2","even","1","509568","491922","518645","520876","515728","5340","486815","NA","522888","524206","519659","260117","522888","518633","5318","NA","Sternberg Task","10","23169","17","yes","1024"
"61.111111111111114","61.111111111111114","1336.4444444444443","1336.4444444444443","black","experiment","legacy","legacy","legacy","0","uniform","1","undefined","1","right","17","0","17","17","17","0","0","0","17","17","17","0","17","17","0","NA","Sun Oct 25 18:38:27 2020","The main experiment item","yes","SternbergTask (1).osexp","/Users/jacobspurling/Downloads","no","mono","no","18","no","white","no","yes","768","legacy","5","11","/Users/jacobspurling/Desktop/RL-subject-2.csv","legacy","7 3 2 8","Lentiform Loewenfeld","3.3.5","0","n","0","right","right","right","left","NA","right","NA","887","2806","254733","5106","NA","887","NA","2","legacy","4","1024","2","48000","-16","experiment","2","even","4","524231","491922","525339","527571","515728","5340","486815","NA","529585","530473","526355","260117","529585","525328","5318","NA","Sternberg Task","11","24056","18","yes","1024"
"63.1578947368421","63.1578947368421","1304.3157894736842","1304.3157894736842","black","experiment","legacy","legacy","legacy","0","uniform","1","undefined","1","left","18","0","18","18","18","0","0","0","18","18","18","0","18","18","0","NA","Sun Oct 25 18:38:27 2020","The main experiment item","yes","SternbergTask (1).osexp","/Users/jacobspurling/Downloads","no","mono","no","18","no","white","no","yes","768","legacy","6","11","/Users/jacobspurling/Desktop/RL-subject-2.csv","legacy","6 7 8 5","Lentiform Loewenfeld","3.3.5","3","y","0","left","right","right","left","NA","left","NA","726","2806","254733","5106","NA","726","NA","2","legacy","4","1024","2","48000","-16","experiment","2","even","8","530498","491922","531607","533840","515728","5340","486815","NA","535853","536581","532623","260117","535852","531595","5318","NA","Sternberg Task","12","24782","19","yes","1024"
"65","65","1284.45","1284.45","black","experiment","legacy","legacy","legacy","0","uniform","1","undefined","1","left","19","0","19","19","19","0","0","0","19","19","19","0","19","19","0","NA","Sun Oct 25 18:38:27 2020","The main experiment item","yes","SternbergTask (1).osexp","/Users/jacobspurling/Downloads","no","mono","no","18","no","white","no","yes","768","legacy","7","11","/Users/jacobspurling/Desktop/RL-subject-2.csv","legacy","5 2 9 6 1 7","Lentiform Loewenfeld","3.3.5","3","y","0","left","right","right","left","NA","left","NA","907","2806","254733","5106","NA","907","NA","2","legacy","6","1024","2","48000","-16","experiment","2","even","9","536606","491922","537715","539945","515728","5340","486815","NA","541956","542865","538729","260117","541956","537704","5318","NA","Sternberg Task","13","25689","20","yes","1024"
"61.904761904761905","61.904761904761905","1261.5714285714287","1261.5714285714287","black","experiment","legacy","legacy","legacy","0","uniform","0","undefined","0","left","20","0","20","20","20","0","0","0","20","20","20","0","20","20","0","NA","Sun Oct 25 18:38:27 2020","The main experiment item","yes","SternbergTask (1).osexp","/Users/jacobspurling/Downloads","no","mono","no","18","no","white","no","yes","768","legacy","8","11","/Users/jacobspurling/Desktop/RL-subject-2.csv","legacy","3 9 7 6 4","Lentiform Loewenfeld","3.3.5","3","y","0","right","right","right","left","NA","right","NA","804","2806","254733","5106","NA","804","NA","2","legacy","5","1024","2","48000","-16","experiment","2","even","7","542892","491922","544002","546233","515728","5340","486815","NA","548246","549052","545017","260117","548246","543991","5318","NA","Sternberg Task","13","26493","21","yes","1024"
"59.09090909090909","59.09090909090909","1248","1248","black","experiment","legacy","legacy","legacy","0","uniform","0","undefined","0","right","21","0","21","21","21","0","0","0","21","21","21","0","21","21","0","NA","Sun Oct 25 18:38:27 2020","The main experiment item","yes","SternbergTask (1).osexp","/Users/jacobspurling/Downloads","no","mono","no","18","no","white","no","yes","768","legacy","9","11","/Users/jacobspurling/Desktop/RL-subject-2.csv","legacy","2 8 9 4 1","Lentiform Loewenfeld","3.3.5","0","n","0","left","right","right","left","NA","left","NA","963","3621","254733","5106","NA","963","NA","2","legacy","5","1024","2","48000","-16","experiment","2","even","5","542892","491922","552806","555035","549077","5340","486815","NA","557048","558013","553820","260117","557047","552794","5318","NA","Sternberg Task","13","27456","22","yes","1024"
"60.869565217391305","60.869565217391305","1233.6521739130435","1233.6521739130435","black","experiment","legacy","legacy","legacy","0","uniform","1","undefined","1","right","22","0","22","22","22","0","0","0","22","22","22","0","22","22","0","NA","Sun Oct 25 18:38:27 2020","The main experiment item","yes","SternbergTask (1).osexp","/Users/jacobspurling/Downloads","no","mono","no","18","no","white","no","yes","768","legacy","10","11","/Users/jacobspurling/Desktop/RL-subject-2.csv","legacy","2 5 1 4","Lentiform Loewenfeld","3.3.5","0","n","0","right","right","right","left","NA","right","NA","918","4237","254733","5106","NA","918","NA","2","legacy","4","1024","2","48000","-16","experiment","2","even","6","542892","491922","562382","564616","558037","5340","486815","NA","566631","567550","563400","260117","566631","562371","5318","NA","Sternberg Task","14","28374","23","yes","1024"
"62.5","62.5","1220.5","1220.5","black","experiment","legacy","legacy","legacy","0","uniform","1","undefined","1","left","23","0","23","23","23","0","0","0","23","23","23","0","23","23","0","NA","Sun Oct 25 18:38:27 2020","The main experiment item","yes","SternbergTask (1).osexp","/Users/jacobspurling/Downloads","no","mono","no","18","no","white","no","yes","768","legacy","11","11","/Users/jacobspurling/Desktop/RL-subject-2.csv","legacy","6 7 9 3 1 2","Lentiform Loewenfeld","3.3.5","1","y","0","left","right","right","left","NA","left","NA","918","4237","254733","5106","NA","918","NA","2","legacy","6","1024","2","48000","-16","experiment","2","even","6","567576","491922","568682","570913","558037","5340","486815","NA","572928","573848","569697","260117","572928","568670","5318","NA","Sternberg Task","15","29292","24","yes","1024"
"64","64","1204.88","1204.88","black","experiment","legacy","legacy","legacy","0","uniform","1","undefined","1","left","24","0","24","24","24","0","0","0","24","24","24","0","24","24","0","NA","Sun Oct 25 18:38:27 2020","The main experiment item","yes","SternbergTask (1).osexp","/Users/jacobspurling/Downloads","no","mono","no","18","no","white","no","yes","768","legacy","12","11","/Users/jacobspurling/Desktop/RL-subject-2.csv","legacy","5 7 8 2 3 8","Lentiform Loewenfeld","3.3.5","5","y","0","left","right","right","left","NA","left","NA","830","4237","254733","5106","NA","830","NA","2","legacy","6","1024","2","48000","-16","experiment","2","even","3","573862","491922","574969","577200","558037","5340","486815","NA","579212","580043","575985","260117","579212","574957","5318","NA","Sternberg Task","16","30122","25","yes","1024"
"61.53846153846154","61.53846153846154","1191.4615384615386","1191.4615384615386","black","experiment","legacy","legacy","legacy","0","uniform","0","undefined","0","left","25","0","25","25","25","0","0","0","25","25","25","0","25","25","0","NA","Sun Oct 25 18:38:27 2020","The main experiment item","yes","SternbergTask (1).osexp","/Users/jacobspurling/Downloads","no","mono","no","18","no","white","no","yes","768","legacy","13","11","/Users/jacobspurling/Desktop/RL-subject-2.csv","legacy","1 4 9 3 2 5","Lentiform Loewenfeld","3.3.5","3","y","0","right","right","right","left","NA","right","NA","856","4237","254733","5106","NA","856","NA","2","legacy","6","1024","2","48000","-16","experiment","2","even","9","580069","491922","581175","583405","558037","5340","486815","NA","585419","586277","582190","260117","585419","581164","5318","NA","Sternberg Task","16","30978","26","yes","1024"
"62.96296296296296","62.96296296296296","1188.4074074074074","1188.4074074074074","black","experiment","legacy","legacy","legacy","0","uniform","1","undefined","1","right","26","0","26","26","26","0","0","0","26","26","26","0","26","26","0","NA","Sun Oct 25 18:38:27 2020","The main experiment item","yes","SternbergTask (1).osexp","/Users/jacobspurling/Downloads","no","mono","no","18","no","white","no","yes","768","legacy","14","11","/Users/jacobspurling/Desktop/RL-subject-2.csv","legacy","6 7 5 9","Lentiform Loewenfeld","3.3.5","0","n","0","right","right","right","left","NA","right","NA","1109","3304","254733","5106","NA","1109","NA","2","legacy","4","1024","2","48000","-16","experiment","2","even","2","580069","491922","589724","591955","586304","5340","486815","NA","593968","595078","590739","260117","593967","589713","5318","NA","Sternberg Task","17","32087","27","yes","1024"
"64.28571428571429","64.28571428571429","1171.2142857142858","1171.2142857142858","black","experiment","legacy","legacy","legacy","0","uniform","1","undefined","1","left","27","0","27","27","27","0","0","0","27","27","27","0","27","27","0","NA","Sun Oct 25 18:38:27 2020","The main experiment item","yes","SternbergTask (1).osexp","/Users/jacobspurling/Downloads","no","mono","no","18","no","white","no","yes","768","legacy","15","11","/Users/jacobspurling/Desktop/RL-subject-2.csv","legacy","9 5 8 1","Lentiform Loewenfeld","3.3.5","2","y","0","left","right","right","left","NA","left","NA","707","3304","254733","5106","NA","707","NA","2","legacy","4","1024","2","48000","-16","experiment","2","even","5","595104","491922","596208","598439","586304","5340","486815","NA","600453","601162","597222","260117","600453","596196","5318","NA","Sternberg Task","18","32794","28","yes","1024"
"65.51724137931035","65.51724137931035","1158.2758620689656","1158.2758620689656","black","experiment","legacy","legacy","legacy","0","uniform","1","undefined","1","left","28","0","28","28","28","0","0","0","28","28","28","0","28","28","0","NA","Sun Oct 25 18:38:27 2020","The main experiment item","yes","SternbergTask (1).osexp","/Users/jacobspurling/Downloads","no","mono","no","18","no","white","no","yes","768","legacy","16","11","/Users/jacobspurling/Desktop/RL-subject-2.csv","legacy","8 3","Lentiform Loewenfeld","3.3.5","2","y","0","left","right","right","left","NA","left","NA","796","3304","254733","5106","NA","796","NA","2","legacy","2","1024","2","48000","-16","experiment","2","even","3","601187","491922","602300","604531","586304","5340","486815","NA","606545","607343","603316","260117","606544","602288","5318","NA","Sternberg Task","19","33590","29","yes","1024"
"63.333333333333336","63.333333333333336","1156.0666666666666","1156.0666666666666","black","experiment","legacy","legacy","legacy","0","uniform","0","undefined","0","left","29","0","29","29","29","0","0","0","29","29","29","0","29","29","0","NA","Sun Oct 25 18:38:27 2020","The main experiment item","yes","SternbergTask (1).osexp","/Users/jacobspurling/Downloads","no","mono","no","18","no","white","no","yes","768","legacy","17","11","/Users/jacobspurling/Desktop/RL-subject-2.csv","legacy","8 5 4 7 3 1","Lentiform Loewenfeld","3.3.5","2","y","0","right","right","right","left","NA","right","NA","1092","3304","254733","5106","NA","1092","NA","2","legacy","6","1024","2","48000","-16","experiment","2","even","5","607368","491922","608481","610711","586304","5340","486815","NA","612725","613819","609495","260117","612725","608470","5318","NA","Sternberg Task","19","34682","30","yes","1024"
"64.51612903225806","64.51612903225806","1144.3548387096773","1144.3548387096773","black","experiment","legacy","legacy","legacy","0","uniform","1","undefined","1","right","30","0","30","30","30","0","0","0","30","30","30","0","30","30","0","NA","Sun Oct 25 18:38:27 2020","The main experiment item","yes","SternbergTask (1).osexp","/Users/jacobspurling/Downloads","no","mono","no","18","no","white","no","yes","768","legacy","18","11","/Users/jacobspurling/Desktop/RL-subject-2.csv","legacy","4 2 7 6 1 3","Lentiform Loewenfeld","3.3.5","0","n","0","right","right","right","left","NA","right","NA","793","3511","254733","5106","NA","793","NA","2","legacy","6","1024","2","48000","-16","experiment","2","even","8","607368","491922","617466","619699","613845","5340","486815","NA","621712","622507","618483","260117","621712","617454","5318","NA","Sternberg Task","20","35475","31","yes","1024"
"65.625","65.625","1130.4375","1130.4375","black","experiment","legacy","legacy","legacy","0","uniform","1","undefined","1","right","31","0","31","31","31","0","0","0","31","31","31","0","31","31","0","NA","Sun Oct 25 18:38:27 2020","The main experiment item","yes","SternbergTask (1).osexp","/Users/jacobspurling/Downloads","no","mono","no","18","no","white","no","yes","768","legacy","19","11","/Users/jacobspurling/Desktop/RL-subject-2.csv","legacy","3 9 8 1 6 4","Lentiform Loewenfeld","3.3.5","0","n","0","right","right","right","left","NA","right","NA","699","3511","254733","5106","NA","699","NA","2","legacy","6","1024","2","48000","-16","experiment","2","even","7","622533","491922","623640","625872","613845","5340","486815","NA","627885","628586","624655","260117","627885","623629","5318","NA","Sternberg Task","21","36174","32","yes","1024"
"66.66666666666667","66.66666666666667","1117.909090909091","1117.909090909091","black","experiment","legacy","legacy","legacy","0","uniform","1","undefined","1","right","32","0","32","32","32","0","0","0","32","32","32","0","32","32","0","NA","Sun Oct 25 18:38:27 2020","The main experiment item","yes","SternbergTask (1).osexp","/Users/jacobspurling/Downloads","no","mono","no","18","no","white","no","yes","768","legacy","20","11","/Users/jacobspurling/Desktop/RL-subject-2.csv","legacy","3 9 1","Lentiform Loewenfeld","3.3.5","0","n","0","right","right","right","left","NA","right","NA","717","3511","254733","5106","NA","717","NA","2","legacy","3","1024","2","48000","-16","experiment","2","even","7","628612","491922","629722","631955","613845","5340","486815","NA","633967","634685","630737","260117","633967","629709","5318","NA","Sternberg Task","22","36891","33","yes","1024"
"67.6470588235294","67.6470588235294","1107.1764705882354","1107.1764705882354","black","experiment","legacy","legacy","legacy","0","uniform","1","undefined","1","left","33","0","33","33","33","0","0","0","33","33","33","0","33","33","0","NA","Sun Oct 25 18:38:27 2020","The main experiment item","yes","SternbergTask (1).osexp","/Users/jacobspurling/Downloads","no","mono","no","18","no","white","no","yes","768","legacy","21","11","/Users/jacobspurling/Desktop/RL-subject-2.csv","legacy","9 4 2","Lentiform Loewenfeld","3.3.5","1","y","0","left","right","right","left","NA","left","NA","753","3511","254733","5106","NA","753","NA","2","legacy","3","1024","2","48000","-16","experiment","2","even","9","634711","491922","635819","638048","613845","5340","486815","NA","640061","640815","636833","260117","640061","635808","5318","NA","Sternberg Task","23","37644","34","yes","1024"
"68.57142857142857","68.57142857142857","1097.7142857142858","1097.7142857142858","black","experiment","legacy","legacy","legacy","0","uniform","1","undefined","1","left","34","0","34","34","34","0","0","0","34","34","34","0","34","34","0","NA","Sun Oct 25 18:38:27 2020","The main experiment item","yes","SternbergTask (1).osexp","/Users/jacobspurling/Downloads","no","mono","no","18","no","white","no","yes","768","legacy","22","11","/Users/jacobspurling/Desktop/RL-subject-2.csv","legacy","2 8 5 1","Lentiform Loewenfeld","3.3.5","4","y","0","left","right","right","left","NA","left","NA","776","3511","254733","5106","NA","776","NA","2","legacy","4","1024","2","48000","-16","experiment","2","even","1","640840","491922","641945","644175","613845","5340","486815","NA","646187","646965","642960","260117","646187","641934","5318","NA","Sternberg Task","24","38420","35","yes","1024"
"69.44444444444444","69.44444444444444","1083.8055555555557","1083.8055555555557","black","experiment","legacy","legacy","legacy","0","uniform","1","undefined","1","right","35","0","35","35","35","0","0","0","35","35","35","0","35","35","0","NA","Sun Oct 25 18:38:27 2020","The main experiment item","yes","SternbergTask (1).osexp","/Users/jacobspurling/Downloads","no","mono","no","18","no","white","no","yes","768","legacy","23","11","/Users/jacobspurling/Desktop/RL-subject-2.csv","legacy","9 7 4 5 8","Lentiform Loewenfeld","3.3.5","0","n","0","right","right","right","left","NA","right","NA","597","3511","254733","5106","NA","597","NA","2","legacy","5","1024","2","48000","-16","experiment","2","even","6","646989","491922","648101","650331","613845","5340","486815","NA","652344","652942","649115","260117","652344","648086","5318","NA","Sternberg Task","25","39017","36","yes","1024"
"70.27027027027027","70.27027027027027","1069.8918918918919","1069.8918918918919","black","experiment","legacy","legacy","legacy","0","uniform","1","undefined","1","right","36","0","36","36","36","0","0","0","36","36","36","0","36","36","0","NA","Sun Oct 25 18:38:27 2020","The main experiment item","yes","SternbergTask (1).osexp","/Users/jacobspurling/Downloads","no","mono","no","18","no","white","no","yes","768","legacy","24","11","/Users/jacobspurling/Desktop/RL-subject-2.csv","legacy","7 1","Lentiform Loewenfeld","3.3.5","0","n","0","right","right","right","left","NA","right","NA","569","3511","254733","5106","NA","569","NA","2","legacy","2","1024","2","48000","-16","experiment","2","even","8","652969","491922","654075","656305","613845","5340","486815","NA","658318","658888","655090","260117","658318","654062","5318","NA","Sternberg Task","26","39586","37","yes","1024"
"71.05263157894737","71.05263157894737","1061.9736842105262","1061.9736842105262","black","experiment","legacy","legacy","legacy","0","uniform","1","undefined","1","left","37","0","37","37","37","0","0","0","37","37","37","0","37","37","0","NA","Sun Oct 25 18:38:27 2020","The main experiment item","yes","SternbergTask (1).osexp","/Users/jacobspurling/Downloads","no","mono","no","18","no","white","no","yes","768","legacy","25","11","/Users/jacobspurling/Desktop/RL-subject-2.csv","legacy","4 1 8 7 5","Lentiform Loewenfeld","3.3.5","3","y","0","left","right","right","left","NA","left","NA","769","3511","254733","5106","NA","769","NA","2","legacy","5","1024","2","48000","-16","experiment","2","even","8","658913","491922","660018","662247","613845","5340","486815","NA","664261","665032","661031","260117","664261","660006","5318","NA","Sternberg Task","27","40355","38","yes","1024"
"69.23076923076923","69.23076923076923","1055.2051282051282","1055.2051282051282","black","experiment","legacy","legacy","legacy","0","uniform","0","undefined","0","right","38","0","38","38","38","0","0","0","38","38","38","0","38","38","0","NA","Sun Oct 25 18:38:27 2020","The main experiment item","yes","SternbergTask (1).osexp","/Users/jacobspurling/Downloads","no","mono","no","18","no","white","no","yes","768","legacy","26","11","/Users/jacobspurling/Desktop/RL-subject-2.csv","legacy","5 3 2 6 9 8","Lentiform Loewenfeld","3.3.5","0","n","0","left","right","right","left","NA","left","NA","798","3511","254733","5106","NA","798","NA","2","legacy","6","1024","2","48000","-16","experiment","2","even","4","665057","491922","666163","668393","613845","5340","486815","NA","670405","671204","667177","260117","670405","666151","5318","NA","Sternberg Task","27","41153","39","yes","1024"
"70","70","1052.125","1052.125","black","experiment","legacy","legacy","legacy","0","uniform","1","undefined","1","right","39","0","39","39","39","0","0","0","39","39","39","0","39","39","0","NA","Sun Oct 25 18:38:27 2020","The main experiment item","yes","SternbergTask (1).osexp","/Users/jacobspurling/Downloads","no","mono","no","18","no","white","no","yes","768","legacy","27","11","/Users/jacobspurling/Desktop/RL-subject-2.csv","legacy","4 1","Lentiform Loewenfeld","3.3.5","0","n","0","right","right","right","left","NA","right","NA","932","1570","254733","5106","NA","932","NA","2","legacy","2","1024","2","48000","-16","experiment","2","even","6","665057","491922","672915","675145","671230","5340","486815","NA","677158","678091","673930","260117","677158","672895","5318","NA","Sternberg Task","28","42085","40","yes","1024"
"70.73170731707317","70.73170731707317","1043.0487804878048","1043.0487804878048","black","experiment","legacy","legacy","legacy","0","uniform","1","undefined","1","left","40","0","40","40","40","0","0","0","40","40","40","0","40","40","0","NA","Sun Oct 25 18:38:27 2020","The main experiment item","yes","SternbergTask (1).osexp","/Users/jacobspurling/Downloads","no","mono","no","18","no","white","no","yes","768","legacy","28","11","/Users/jacobspurling/Desktop/RL-subject-2.csv","legacy","4 3 2 5 8","Lentiform Loewenfeld","3.3.5","2","y","0","left","right","right","left","NA","left","NA","680","1570","254733","5106","NA","680","NA","2","legacy","5","1024","2","48000","-16","experiment","2","even","3","678116","491922","679222","681451","671230","5340","486815","NA","683463","684145","680235","260117","683463","679210","5318","NA","Sternberg Task","29","42765","41","yes","1024"
"71.42857142857143","71.42857142857143","1036.095238095238","1036.095238095238","black","experiment","legacy","legacy","legacy","0","uniform","1","undefined","1","left","41","0","41","41","41","0","0","0","41","41","41","0","41","41","0","NA","Sun Oct 25 18:38:27 2020","The main experiment item","yes","SternbergTask (1).osexp","/Users/jacobspurling/Downloads","no","mono","no","18","no","white","no","yes","768","legacy","29","11","/Users/jacobspurling/Desktop/RL-subject-2.csv","legacy","4 1 5","Lentiform Loewenfeld","3.3.5","2","y","0","left","right","right","left","NA","left","NA","751","1570","254733","5106","NA","751","NA","2","legacy","3","1024","2","48000","-16","experiment","2","even","1","684170","491922","685283","687513","671230","5340","486815","NA","689526","690279","686297","260117","689526","685267","5318","NA","Sternberg Task","30","43516","42","yes","1024"
"72.09302325581395","72.09302325581395","1034","1034","black","experiment","legacy","legacy","legacy","0","uniform","1","undefined","1","right","42","0","42","42","42","0","0","0","42","42","42","0","42","42","0","NA","Sun Oct 25 18:38:27 2020","The main experiment item","yes","SternbergTask (1).osexp","/Users/jacobspurling/Downloads","no","mono","no","18","no","white","no","yes","768","legacy","30","11","/Users/jacobspurling/Desktop/RL-subject-2.csv","legacy","4 2 6 9","Lentiform Loewenfeld","3.3.5","0","n","0","right","right","right","left","NA","right","NA","946","1570","254733","5106","NA","946","NA","2","legacy","4","1024","2","48000","-16","experiment","2","even","7","690304","491922","691412","693641","671230","5340","486815","NA","695653","696600","692425","260117","695653","691400","5318","NA","Sternberg Task","31","44462","43","yes","1024"
"72.72727272727273","72.72727272727273","1030.4318181818182","1030.4318181818182","black","experiment","legacy","legacy","legacy","0","uniform","1","undefined","1","right","43","0","43","43","43","0","0","0","43","43","43","0","43","43","0","NA","Sun Oct 25 18:38:27 2020","The main experiment item","yes","SternbergTask (1).osexp","/Users/jacobspurling/Downloads","no","mono","no","18","no","white","no","yes","768","legacy","31","11","/Users/jacobspurling/Desktop/RL-subject-2.csv","legacy","7 6 4 8 1 2","Lentiform Loewenfeld","3.3.5","0","n","0","right","right","right","left","NA","right","NA","877","1570","254733","5106","NA","877","NA","2","legacy","6","1024","2","48000","-16","experiment","2","even","9","696625","491922","697732","699966","671230","5340","486815","NA","701979","702858","698749","260117","701979","697721","5318","NA","Sternberg Task","32","45339","44","yes","1024"
"73.33333333333333","73.33333333333333","1023.3555555555556","1023.3555555555556","black","experiment","legacy","legacy","legacy","0","uniform","1","undefined","1","left","44","0","44","44","44","0","0","0","44","44","44","0","44","44","0","NA","Sun Oct 25 18:38:27 2020","The main experiment item","yes","SternbergTask (1).osexp","/Users/jacobspurling/Downloads","no","mono","no","18","no","white","no","yes","768","legacy","32","11","/Users/jacobspurling/Desktop/RL-subject-2.csv","legacy","7 4 2 6 3 5","Lentiform Loewenfeld","3.3.5","6","y","0","left","right","right","left","NA","left","NA","712","1570","254733","5106","NA","712","NA","2","legacy","6","1024","2","48000","-16","experiment","2","even","5","702883","491922","703990","706218","671230","5340","486815","NA","708234","708948","705003","260117","708234","703979","5318","NA","Sternberg Task","33","46051","45","yes","1024"
"73.91304347826087","73.91304347826087","1015.5869565217391","1015.5869565217391","black","experiment","legacy","legacy","legacy","0","uniform","1","undefined","1","right","45","0","45","45","45","0","0","0","45","45","45","0","45","45","0","NA","Sun Oct 25 18:38:27 2020","The main experiment item","yes","SternbergTask (1).osexp","/Users/jacobspurling/Downloads","no","mono","no","18","no","white","no","yes","768","legacy","33","11","/Users/jacobspurling/Desktop/RL-subject-2.csv","legacy","6 9 4 5 2","Lentiform Loewenfeld","3.3.5","0","n","0","right","right","right","left","NA","right","NA","666","1570","254733","5106","NA","666","NA","2","legacy","5","1024","2","48000","-16","experiment","2","even","1","708974","491922","710078","712307","671230","5340","486815","NA","714320","714987","711092","260117","714320","710066","5318","NA","Sternberg Task","34","46717","46","yes","1024"
"74.46808510638297","74.46808510638297","1011.5744680851063","1011.5744680851063","black","experiment","legacy","legacy","legacy","0","uniform","1","undefined","1","right","46","0","46","46","46","0","0","0","46","46","46","0","46","46","0","NA","Sun Oct 25 18:38:27 2020","The main experiment item","yes","SternbergTask (1).osexp","/Users/jacobspurling/Downloads","no","mono","no","18","no","white","no","yes","768","legacy","34","11","/Users/jacobspurling/Desktop/RL-subject-2.csv","legacy","8 4 3 5","Lentiform Loewenfeld","3.3.5","0","n","0","right","right","right","left","NA","right","NA","827","1570","254733","5106","NA","827","NA","2","legacy","4","1024","2","48000","-16","experiment","2","even","6","715013","491922","716132","718361","671230","5340","486815","NA","720374","721202","717146","260117","720373","716116","5318","NA","Sternberg Task","35","47544","47","yes","1024"
"75","75","1008.9166666666666","1008.9166666666666","black","experiment","legacy","legacy","legacy","0","uniform","1","undefined","1","left","47","0","47","47","47","0","0","0","47","47","47","0","47","47","0","NA","Sun Oct 25 18:38:27 2020","The main experiment item","yes","SternbergTask (1).osexp","/Users/jacobspurling/Downloads","no","mono","no","18","no","white","no","yes","768","legacy","35","11","/Users/jacobspurling/Desktop/RL-subject-2.csv","legacy","2 5 4 8 7","Lentiform Loewenfeld","3.3.5","3","y","0","left","right","right","left","NA","left","NA","884","1570","254733","5106","NA","884","NA","2","legacy","5","1024","2","48000","-16","experiment","2","even","4","721227","491922","722340","724570","671230","5340","486815","NA","726583","727469","723355","260117","726583","722329","5318","NA","Sternberg Task","36","48428","48","yes","1024"
"75.51020408163265","75.51020408163265","1013.530612244898","1013.530612244898","black","experiment","legacy","legacy","legacy","0","uniform","1","undefined","1","right","48","0","48","48","48","0","0","0","48","48","48","0","48","48","0","NA","Sun Oct 25 18:38:27 2020","The main experiment item","yes","SternbergTask (1).osexp","/Users/jacobspurling/Downloads","no","mono","no","18","no","white","no","yes","768","legacy","36","11","/Users/jacobspurling/Desktop/RL-subject-2.csv","legacy","1 4 3 6 5","Lentiform Loewenfeld","3.3.5","0","n","0","right","right","right","left","NA","right","NA","1235","1570","254733","5106","NA","1235","NA","2","legacy","5","1024","2","48000","-16","experiment","2","even","8","727494","491922","728608","730839","671230","5340","486815","NA","732851","734087","729622","260117","732851","728596","5318","NA","Sternberg Task","37","49663","49","yes","1024"
"76","76","1007.96","1007.96","black","experiment","legacy","legacy","legacy","0","uniform","1","undefined","1","right","49","0","49","49","49","0","0","0","49","49","49","0","49","49","0","NA","Sun Oct 25 18:38:27 2020","The main experiment item","yes","SternbergTask (1).osexp","/Users/jacobspurling/Downloads","no","mono","no","18","no","white","no","yes","768","legacy","37","11","/Users/jacobspurling/Desktop/RL-subject-2.csv","legacy","8 2 1 4 5 9","Lentiform Loewenfeld","3.3.5","0","n","0","right","right","right","left","NA","right","NA","735","1570","254733","5106","NA","735","NA","2","legacy","6","1024","2","48000","-16","experiment","2","even","7","734112","491922","735218","737448","671230","5340","486815","NA","739460","740196","736232","260117","739460","735207","5318","NA","Sternberg Task","38","50398","50","yes","1024"
"76.47058823529412","76.47058823529412","1001.4313725490196","1001.4313725490196","black","experiment","legacy","legacy","legacy","0","uniform","1","undefined","1","left","50","0","50","50","50","0","0","0","50","50","50","0","50","50","0","NA","Sun Oct 25 18:38:27 2020","The main experiment item","yes","SternbergTask (1).osexp","/Users/jacobspurling/Downloads","no","mono","no","18","no","white","no","yes","768","legacy","38","11","/Users/jacobspurling/Desktop/RL-subject-2.csv","legacy","7 8 4 6 9 5","Lentiform Loewenfeld","3.3.5","4","y","0","left","right","right","left","NA","left","NA","675","1570","254733","5106","NA","675","NA","2","legacy","6","1024","2","48000","-16","experiment","2","even","6","740221","491922","741329","743558","671230","5340","486815","NA","745572","746248","742343","260117","745572","741317","5318","NA","Sternberg Task","39","51073","51","yes","1024"
"76.92307692307692","76.92307692307692","994.9615384615385","994.9615384615385","black","experiment","legacy","legacy","legacy","0","uniform","1","undefined","1","left","51","0","51","51","51","0","0","0","51","51","51","0","51","51","0","NA","Sun Oct 25 18:38:27 2020","The main experiment item","yes","SternbergTask (1).osexp","/Users/jacobspurling/Downloads","no","mono","no","18","no","white","no","yes","768","legacy","39","11","/Users/jacobspurling/Desktop/RL-subject-2.csv","legacy","6 2","Lentiform Loewenfeld","3.3.5","1","y","0","left","right","right","left","NA","left","NA","665","1570","254733","5106","NA","665","NA","2","legacy","2","1024","2","48000","-16","experiment","2","even","6","746276","491922","747386","749618","671230","5340","486815","NA","751631","752298","748400","260117","751631","747374","5318","NA","Sternberg Task","40","51738","52","yes","1024"
"77.35849056603773","77.35849056603773","992.7169811320755","992.7169811320755","black","experiment","legacy","legacy","legacy","0","uniform","1","undefined","1","right","52","0","52","52","52","0","0","0","52","52","52","0","52","52","0","NA","Sun Oct 25 18:38:27 2020","The main experiment item","yes","SternbergTask (1).osexp","/Users/jacobspurling/Downloads","no","mono","no","18","no","white","no","yes","768","legacy","40","11","/Users/jacobspurling/Desktop/RL-subject-2.csv","legacy","6 2 9 3 8 4","Lentiform Loewenfeld","3.3.5","0","n","0","right","right","right","left","NA","right","NA","876","1570","254733","5106","NA","876","NA","2","legacy","6","1024","2","48000","-16","experiment","2","even","1","752323","491922","753428","755658","671230","5340","486815","NA","757674","758551","754442","260117","757673","753416","5318","NA","Sternberg Task","41","52614","53","yes","1024"
"77.77777777777777","77.77777777777777","988.6111111111111","988.6111111111111","black","experiment","legacy","legacy","legacy","0","uniform","1","undefined","1","right","53","0","53","53","53","0","0","0","53","53","53","0","53","53","0","NA","Sun Oct 25 18:38:27 2020","The main experiment item","yes","SternbergTask (1).osexp","/Users/jacobspurling/Downloads","no","mono","no","18","no","white","no","yes","768","legacy","41","11","/Users/jacobspurling/Desktop/RL-subject-2.csv","legacy","2 3 8 5 6 7","Lentiform Loewenfeld","3.3.5","0","n","0","right","right","right","left","NA","right","NA","771","1570","254733","5106","NA","771","NA","2","legacy","6","1024","2","48000","-16","experiment","2","even","1","758576","491922","759682","761912","671230","5340","486815","NA","763926","764698","760697","260117","763926","759670","5318","NA","Sternberg Task","42","53385","54","yes","1024"
"78.18181818181819","78.18181818181819","987","987","black","experiment","legacy","legacy","legacy","0","uniform","1","undefined","1","right","54","0","54","54","54","0","0","0","54","54","54","0","54","54","0","NA","Sun Oct 25 18:38:27 2020","The main experiment item","yes","SternbergTask (1).osexp","/Users/jacobspurling/Downloads","no","mono","no","18","no","white","no","yes","768","legacy","42","11","/Users/jacobspurling/Desktop/RL-subject-2.csv","legacy","6 9 7 3 8 2","Lentiform Loewenfeld","3.3.5","0","n","0","right","right","right","left","NA","right","NA","900","1570","254733","5106","NA","900","NA","2","legacy","6","1024","2","48000","-16","experiment","2","even","5","764724","491922","765832","768061","671230","5340","486815","NA","770073","770974","766846","260117","770073","765820","5318","NA","Sternberg Task","43","54285","55","yes","1024"
"78.57142857142857","78.57142857142857","980.5714285714286","980.5714285714286","black","experiment","legacy","legacy","legacy","0","uniform","1","undefined","1","left","55","0","55","55","55","0","0","0","55","55","55","0","55","55","0","NA","Sun Oct 25 18:38:27 2020","The main experiment item","yes","SternbergTask (1).osexp","/Users/jacobspurling/Downloads","no","mono","no","18","no","white","no","yes","768","legacy","43","11","/Users/jacobspurling/Desktop/RL-subject-2.csv","legacy","9 8 4","Lentiform Loewenfeld","3.3.5","1","y","0","left","right","right","left","NA","left","NA","627","1570","254733","5106","NA","627","NA","2","legacy","3","1024","2","48000","-16","experiment","2","even","9","770996","491922","772109","774339","671230","5340","486815","NA","776352","776981","773123","260117","776352","772098","5318","NA","Sternberg Task","44","54912","56","yes","1024"
"78.94736842105263","78.94736842105263","983.5964912280701","983.5964912280701","black","experiment","legacy","legacy","legacy","0","uniform","1","undefined","1","left","56","0","56","56","56","0","0","0","56","56","56","0","56","56","0","NA","Sun Oct 25 18:38:27 2020","The main experiment item","yes","SternbergTask (1).osexp","/Users/jacobspurling/Downloads","no","mono","no","18","no","white","no","yes","768","legacy","44","11","/Users/jacobspurling/Desktop/RL-subject-2.csv","legacy","7 2 3","Lentiform Loewenfeld","3.3.5","3","y","0","left","right","right","left","NA","left","NA","1153","1570","254733","5106","NA","1153","NA","2","legacy","3","1024","2","48000","-16","experiment","2","even","3","777005","491922","778118","780347","671230","5340","486815","NA","782361","783516","779132","260117","782361","778106","5318","NA","Sternberg Task","45","56065","57","yes","1024"
"79.3103448275862","79.3103448275862","978.3103448275862","978.3103448275862","black","experiment","legacy","legacy","legacy","0","uniform","1","undefined","1","right","57","0","57","57","57","0","0","0","57","57","57","0","57","57","0","NA","Sun Oct 25 18:38:27 2020","The main experiment item","yes","SternbergTask (1).osexp","/Users/jacobspurling/Downloads","no","mono","no","18","no","white","no","yes","768","legacy","45","11","/Users/jacobspurling/Desktop/RL-subject-2.csv","legacy","6 9 5","Lentiform Loewenfeld","3.3.5","0","n","0","right","right","right","left","NA","right","NA","677","1570","254733","5106","NA","677","NA","2","legacy","3","1024","2","48000","-16","experiment","2","even","8","783541","491922","784649","786880","671230","5340","486815","NA","788893","789572","785663","260117","788893","784637","5318","NA","Sternberg Task","46","56742","58","yes","1024"
"79.66101694915254","79.66101694915254","980.8305084745763","980.8305084745763","black","experiment","legacy","legacy","legacy","0","uniform","1","undefined","1","left","58","0","58","58","58","0","0","0","58","58","58","0","58","58","0","NA","Sun Oct 25 18:38:27 2020","The main experiment item","yes","SternbergTask (1).osexp","/Users/jacobspurling/Downloads","no","mono","no","18","no","white","no","yes","768","legacy","46","11","/Users/jacobspurling/Desktop/RL-subject-2.csv","legacy","3 4 9 6 2 9","Lentiform Loewenfeld","3.3.5","5","y","0","left","right","right","left","NA","left","NA","1127","1570","254733","5106","NA","1127","NA","2","legacy","6","1024","2","48000","-16","experiment","2","even","2","789595","491922","790703","792933","671230","5340","486815","NA","794946","796077","791717","260117","794946","790690","5318","NA","Sternberg Task","47","57869","59","yes","1024"
"80","80","974.7666666666667","974.7666666666667","black","experiment","legacy","legacy","legacy","0","uniform","1","undefined","1","left","59","0","59","59","59","0","0","0","59","59","59","0","59","59","0","NA","Sun Oct 25 18:38:27 2020","The main experiment item","yes","SternbergTask (1).osexp","/Users/jacobspurling/Downloads","no","mono","no","18","no","white","no","yes","768","legacy","47","11","/Users/jacobspurling/Desktop/RL-subject-2.csv","legacy","8","Lentiform Loewenfeld","3.3.5","1","y","0","left","right","right","left","NA","left","NA","617","1570","254733","5106","NA","617","NA","2","legacy","1","1024","2","48000","-16","experiment","2","even","8","796102","491922","797206","799436","671230","5340","486815","NA","801450","802069","798220","260117","801450","797195","5318","NA","Sternberg Task","48","58486","60","yes","1024"
"80.32786885245902","80.32786885245902","969.8360655737705","969.8360655737705","black","experiment","legacy","legacy","legacy","0","uniform","1","undefined","1","left","60","0","60","60","60","0","0","0","60","60","60","0","60","60","0","NA","Sun Oct 25 18:38:27 2020","The main experiment item","yes","SternbergTask (1).osexp","/Users/jacobspurling/Downloads","no","mono","no","18","no","white","no","yes","768","legacy","48","11","/Users/jacobspurling/Desktop/RL-subject-2.csv","legacy","9 3 8 2 1 4","Lentiform Loewenfeld","3.3.5","3","y","0","left","right","right","left","NA","left","NA","674","1570","254733","5106","NA","674","NA","2","legacy","6","1024","2","48000","-16","experiment","2","even","8","802096","491922","803206","805435","671230","5340","486815","NA","807447","808122","804219","260117","807447","803193","5318","NA","Sternberg Task","49","59160","61","yes","1024"
"80.64516129032258","80.64516129032258","970.758064516129","970.758064516129","black","experiment","legacy","legacy","legacy","0","uniform","1","undefined","1","left","61","0","61","61","61","0","0","0","61","61","61","0","61","61","0","NA","Sun Oct 25 18:38:27 2020","The main experiment item","yes","SternbergTask (1).osexp","/Users/jacobspurling/Downloads","no","mono","no","18","no","white","no","yes","768","legacy","49","11","/Users/jacobspurling/Desktop/RL-subject-2.csv","legacy","7 8 6 3 1","Lentiform Loewenfeld","3.3.5","5","y","0","left","right","right","left","NA","left","NA","1027","1570","254733","5106","NA","1027","NA","2","legacy","5","1024","2","48000","-16","experiment","2","even","1","808148","491922","809258","811489","671230","5340","486815","NA","813502","814530","810273","260117","813502","809246","5318","NA","Sternberg Task","50","60187","62","yes","1024"
"80.95238095238095","80.95238095238095","966.3015873015873","966.3015873015873","black","experiment","legacy","legacy","legacy","0","uniform","1","undefined","1","left","62","0","62","62","62","0","0","0","62","62","62","0","62","62","0","NA","Sun Oct 25 18:38:27 2020","The main experiment item","yes","SternbergTask (1).osexp","/Users/jacobspurling/Downloads","no","mono","no","18","no","white","no","yes","768","legacy","50","11","/Users/jacobspurling/Desktop/RL-subject-2.csv","legacy","4 9 7 8 5 3","Lentiform Loewenfeld","3.3.5","4","y","0","left","right","right","left","NA","left","NA","690","1570","254733","5106","NA","690","NA","2","legacy","6","1024","2","48000","-16","experiment","2","even","8","814556","491922","815664","817894","671230","5340","486815","NA","819907","820599","816678","260117","819906","815652","5318","NA","Sternberg Task","51","60877","63","yes","1024"
"81.25","81.25","962.703125","962.703125","black","experiment","legacy","legacy","legacy","0","uniform","1","undefined","1","right","63","0","63","63","63","0","0","0","63","63","63","0","63","63","0","NA","Sun Oct 25 18:38:27 2020","The main experiment item","yes","SternbergTask (1).osexp","/Users/jacobspurling/Downloads","no","mono","no","18","no","white","no","yes","768","legacy","51","11","/Users/jacobspurling/Desktop/RL-subject-2.csv","legacy","1 3 2 6 9","Lentiform Loewenfeld","3.3.5","0","n","0","right","right","right","left","NA","right","NA","736","1570","254733","5106","NA","736","NA","2","legacy","5","1024","2","48000","-16","experiment","2","even","5","820623","491922","821729","823960","671230","5340","486815","NA","825973","826710","822742","260117","825973","821717","5318","NA","Sternberg Task","52","61613","64","yes","1024"
"81.53846153846153","81.53846153846153","959.1076923076923","959.1076923076923","black","experiment","legacy","legacy","legacy","0","uniform","1","undefined","1","right","64","0","64","64","64","0","0","0","64","64","64","0","64","64","0","NA","Sun Oct 25 18:38:27 2020","The main experiment item","yes","SternbergTask (1).osexp","/Users/jacobspurling/Downloads","no","mono","no","18","no","white","no","yes","768","legacy","52","11","/Users/jacobspurling/Desktop/RL-subject-2.csv","legacy","5 7 3","Lentiform Loewenfeld","3.3.5","0","n","0","right","right","right","left","NA","right","NA","729","1570","254733","5106","NA","729","NA","2","legacy","3","1024","2","48000","-16","experiment","2","even","9","826736","491922","827846","830076","671230","5340","486815","NA","832093","832824","828860","260117","832092","827835","5318","NA","Sternberg Task","53","62342","65","yes","1024"
"81.81818181818181","81.81818181818181","955.3333333333334","955.3333333333334","black","experiment","legacy","legacy","legacy","0","uniform","1","undefined","1","left","65","0","65","65","65","0","0","0","65","65","65","0","65","65","0","NA","Sun Oct 25 18:38:27 2020","The main experiment item","yes","SternbergTask (1).osexp","/Users/jacobspurling/Downloads","no","mono","no","18","no","white","no","yes","768","legacy","53","11","/Users/jacobspurling/Desktop/RL-subject-2.csv","legacy","4 7 6 8 2 3","Lentiform Loewenfeld","3.3.5","6","y","0","left","right","right","left","NA","left","NA","710","1570","254733","5106","NA","710","NA","2","legacy","6","1024","2","48000","-16","experiment","2","even","3","832849","491922","833959","836188","671230","5340","486815","NA","838201","838913","834973","260117","838201","833947","5318","NA","Sternberg Task","54","63052","66","yes","1024"
"82.08955223880596","82.08955223880596","953.3283582089553","953.3283582089553","black","experiment","legacy","legacy","legacy","0","uniform","1","undefined","1","left","66","0","66","66","66","0","0","0","66","66","66","0","66","66","0","NA","Sun Oct 25 18:38:27 2020","The main experiment item","yes","SternbergTask (1).osexp","/Users/jacobspurling/Downloads","no","mono","no","18","no","white","no","yes","768","legacy","54","11","/Users/jacobspurling/Desktop/RL-subject-2.csv","legacy","7 1 3","Lentiform Loewenfeld","3.3.5","2","y","0","left","right","right","left","NA","left","NA","821","1570","254733","5106","NA","821","NA","2","legacy","3","1024","2","48000","-16","experiment","2","even","1","838938","491922","840043","842274","671230","5340","486815","NA","844287","845110","841058","260117","844286","840032","5318","NA","Sternberg Task","55","63873","67","yes","1024"
"82.3529411764706","82.3529411764706","947.7647058823529","947.7647058823529","black","experiment","legacy","legacy","legacy","0","uniform","1","undefined","1","left","67","0","67","67","67","0","0","0","67","67","67","0","67","67","0","NA","Sun Oct 25 18:38:27 2020","The main experiment item","yes","SternbergTask (1).osexp","/Users/jacobspurling/Downloads","no","mono","no","18","no","white","no","yes","768","legacy","55","11","/Users/jacobspurling/Desktop/RL-subject-2.csv","legacy","8 9 5 6 7","Lentiform Loewenfeld","3.3.5","1","y","0","left","right","right","left","NA","left","NA","575","1570","254733","5106","NA","575","NA","2","legacy","5","1024","2","48000","-16","experiment","2","even","8","845136","491922","846243","848476","671230","5340","486815","NA","850489","851067","847260","260117","850489","846232","5318","NA","Sternberg Task","56","64448","68","yes","1024"
"82.6086956521739","82.6086956521739","945.9420289855072","945.9420289855072","black","experiment","legacy","legacy","legacy","0","uniform","1","undefined","1","right","68","0","68","68","68","0","0","0","68","68","68","0","68","68","0","NA","Sun Oct 25 18:38:27 2020","The main experiment item","yes","SternbergTask (1).osexp","/Users/jacobspurling/Downloads","no","mono","no","18","no","white","no","yes","768","legacy","56","11","/Users/jacobspurling/Desktop/RL-subject-2.csv","legacy","1","Lentiform Loewenfeld","3.3.5","0","n","0","right","right","right","left","NA","right","NA","822","1570","254733","5106","NA","822","NA","2","legacy","1","1024","2","48000","-16","experiment","2","even","7","851092","491922","852197","854426","671230","5340","486815","NA","856438","857262","853211","260117","856438","852185","5318","NA","Sternberg Task","57","65270","69","yes","1024"
"82.85714285714286","82.85714285714286","942.9285714285714","942.9285714285714","black","experiment","legacy","legacy","legacy","0","uniform","1","undefined","1","right","69","0","69","69","69","0","0","0","69","69","69","0","69","69","0","NA","Sun Oct 25 18:38:27 2020","The main experiment item","yes","SternbergTask (1).osexp","/Users/jacobspurling/Downloads","no","mono","no","18","no","white","no","yes","768","legacy","57","11","/Users/jacobspurling/Desktop/RL-subject-2.csv","legacy","1 4 9 3","Lentiform Loewenfeld","3.3.5","0","n","0","right","right","right","left","NA","right","NA","735","1570","254733","5106","NA","735","NA","2","legacy","4","1024","2","48000","-16","experiment","2","even","5","857287","491922","858390","860621","671230","5340","486815","NA","862634","863371","859405","260117","862634","858379","5318","NA","Sternberg Task","58","66005","70","yes","1024"
"83.09859154929578","83.09859154929578","939.0985915492957","939.0985915492957","black","experiment","legacy","legacy","legacy","0","uniform","1","undefined","1","right","70","0","70","70","70","0","0","0","70","70","70","0","70","70","0","NA","Sun Oct 25 18:38:27 2020","The main experiment item","yes","SternbergTask (1).osexp","/Users/jacobspurling/Downloads","no","mono","no","18","no","white","no","yes","768","legacy","58","11","/Users/jacobspurling/Desktop/RL-subject-2.csv","legacy","1 8 7","Lentiform Loewenfeld","3.3.5","0","n","0","right","right","right","left","NA","right","NA","671","1570","254733","5106","NA","671","NA","2","legacy","3","1024","2","48000","-16","experiment","2","even","4","863397","491922","864508","866740","671230","5340","486815","NA","868755","869428","865522","260117","868755","864497","5318","NA","Sternberg Task","59","66676","71","yes","1024"
"83.33333333333333","83.33333333333333","936.25","936.25","black","experiment","legacy","legacy","legacy","0","uniform","1","undefined","1","right","71","0","71","71","71","0","0","0","71","71","71","0","71","71","0","NA","Sun Oct 25 18:38:27 2020","The main experiment item","yes","SternbergTask (1).osexp","/Users/jacobspurling/Downloads","no","mono","no","18","no","white","no","yes","768","legacy","59","11","/Users/jacobspurling/Desktop/RL-subject-2.csv","legacy","1 7 5 2","Lentiform Loewenfeld","3.3.5","0","n","0","right","right","right","left","NA","right","NA","734","1570","254733","5106","NA","734","NA","2","legacy","4","1024","2","48000","-16","experiment","2","even","3","869449","491922","870562","872798","671230","5340","486815","NA","874811","875547","871576","260117","874811","870550","5318","NA","Sternberg Task","60","67410","72","yes","1024"
"83.56164383561644","83.56164383561644","932.5890410958904","932.5890410958904","black","experiment","legacy","legacy","legacy","0","uniform","1","undefined","1","right","72","0","72","72","72","0","0","0","72","72","72","0","72","72","0","NA","Sun Oct 25 18:38:27 2020","The main experiment item","yes","SternbergTask (1).osexp","/Users/jacobspurling/Downloads","no","mono","no","18","no","white","no","yes","768","legacy","60","11","/Users/jacobspurling/Desktop/RL-subject-2.csv","legacy","7 1 8 4 9 3","Lentiform Loewenfeld","3.3.5","0","n","0","right","right","right","left","NA","right","NA","669","1570","254733","5106","NA","669","NA","2","legacy","6","1024","2","48000","-16","experiment","2","even","6","875573","491922","876678","878909","671230","5340","486815","NA","880923","881594","877692","260117","880923","876667","5318","NA","Sternberg Task","61","68079","73","yes","1024"
"83.78378378378379","83.78378378378379","928.7702702702703","928.7702702702703","black","experiment","legacy","legacy","legacy","0","uniform","1","undefined","1","left","73","0","73","73","73","0","0","0","73","73","73","0","73","73","0","NA","Sun Oct 25 18:38:27 2020","The main experiment item","yes","SternbergTask (1).osexp","/Users/jacobspurling/Downloads","no","mono","no","18","no","white","no","yes","768","legacy","61","11","/Users/jacobspurling/Desktop/RL-subject-2.csv","legacy","3 5 4 7","Lentiform Loewenfeld","3.3.5","1","y","0","left","right","right","left","NA","left","NA","650","1570","254733","5106","NA","650","NA","2","legacy","4","1024","2","48000","-16","experiment","2","even","3","881618","491922","882725","884954","671230","5340","486815","NA","886968","887619","883738","260117","886968","882713","5318","NA","Sternberg Task","62","68729","74","yes","1024"
"84","84","929.68","929.68","black","experiment","legacy","legacy","legacy","0","uniform","1","undefined","1","right","74","0","74","74","74","0","0","0","74","74","74","0","74","74","0","NA","Sun Oct 25 18:38:27 2020","The main experiment item","yes","SternbergTask (1).osexp","/Users/jacobspurling/Downloads","no","mono","no","18","no","white","no","yes","768","legacy","62","11","/Users/jacobspurling/Desktop/RL-subject-2.csv","legacy","7 9 1 6","Lentiform Loewenfeld","3.3.5","0","n","0","right","right","right","left","NA","right","NA","997","1570","254733","5106","NA","997","NA","2","legacy","4","1024","2","48000","-16","experiment","2","even","4","887644","491922","888765","890996","671230","5340","486815","NA","893008","894007","889779","260117","893008","888753","5318","NA","Sternberg Task","63","69726","75","yes","1024"
"84.21052631578948","84.21052631578948","925.8421052631579","925.8421052631579","black","experiment","legacy","legacy","legacy","0","uniform","1","undefined","1","left","75","0","75","75","75","0","0","0","75","75","75","0","75","75","0","NA","Sun Oct 25 18:38:27 2020","The main experiment item","yes","SternbergTask (1).osexp","/Users/jacobspurling/Downloads","no","mono","no","18","no","white","no","yes","768","legacy","63","11","/Users/jacobspurling/Desktop/RL-subject-2.csv","legacy","9 6 2 4 1","Lentiform Loewenfeld","3.3.5","4","y","0","left","right","right","left","NA","left","NA","638","1570","254733","5106","NA","638","NA","2","legacy","5","1024","2","48000","-16","experiment","2","even","4","894031","491922","895140","897371","671230","5340","486815","NA","899384","900024","896155","260117","899384","895128","5318","NA","Sternberg Task","64","70364","76","yes","1024"
"84.41558441558442","84.41558441558442","922.038961038961","922.038961038961","black","experiment","legacy","legacy","legacy","0","uniform","1","undefined","1","right","76","0","76","76","76","0","0","0","76","76","76","0","76","76","0","NA","Sun Oct 25 18:38:27 2020","The main experiment item","yes","SternbergTask (1).osexp","/Users/jacobspurling/Downloads","no","mono","no","18","no","white","no","yes","768","legacy","64","11","/Users/jacobspurling/Desktop/RL-subject-2.csv","legacy","8 5 7 3 6","Lentiform Loewenfeld","3.3.5","0","n","0","right","right","right","left","NA","right","NA","633","1570","254733","5106","NA","633","NA","2","legacy","5","1024","2","48000","-16","experiment","2","even","9","900048","491922","901161","903391","671230","5340","486815","NA","905404","906039","902175","260117","905403","901150","5318","NA","Sternberg Task","65","70997","77","yes","1024"
"84.61538461538461","84.61538461538461","917.7564102564103","917.7564102564103","black","experiment","legacy","legacy","legacy","0","uniform","1","undefined","1","left","77","0","77","77","77","0","0","0","77","77","77","0","77","77","0","NA","Sun Oct 25 18:38:27 2020","The main experiment item","yes","SternbergTask (1).osexp","/Users/jacobspurling/Downloads","no","mono","no","18","no","white","no","yes","768","legacy","65","11","/Users/jacobspurling/Desktop/RL-subject-2.csv","legacy","2 3","Lentiform Loewenfeld","3.3.5","1","y","0","left","right","right","left","NA","left","NA","588","1570","254733","5106","NA","588","NA","2","legacy","2","1024","2","48000","-16","experiment","2","even","2","906064","491922","907176","909408","671230","5340","486815","NA","911421","912010","908191","260117","911420","907164","5318","NA","Sternberg Task","66","71585","78","yes","1024"
"84.81012658227849","84.81012658227849","915.632911392405","915.632911392405","black","experiment","legacy","legacy","legacy","0","uniform","1","undefined","1","left","78","0","78","78","78","0","0","0","78","78","78","0","78","78","0","NA","Sun Oct 25 18:38:27 2020","The main experiment item","yes","SternbergTask (1).osexp","/Users/jacobspurling/Downloads","no","mono","no","18","no","white","no","yes","768","legacy","66","11","/Users/jacobspurling/Desktop/RL-subject-2.csv","legacy","8 5 1 3 9","Lentiform Loewenfeld","3.3.5","4","y","0","left","right","right","left","NA","left","NA","750","1570","254733","5106","NA","750","NA","2","legacy","5","1024","2","48000","-16","experiment","2","even","3","912036","491922","913142","915374","671230","5340","486815","NA","917387","918139","914157","260117","917386","913130","5318","NA","Sternberg Task","67","72335","79","yes","1024"
"85","85","911.2875","911.2875","black","experiment","legacy","legacy","legacy","0","uniform","1","undefined","1","right","79","0","79","79","79","0","0","0","79","79","79","0","79","79","0","NA","Sun Oct 25 18:38:27 2020","The main experiment item","yes","SternbergTask (1).osexp","/Users/jacobspurling/Downloads","no","mono","no","18","no","white","no","yes","768","legacy","67","11","/Users/jacobspurling/Desktop/RL-subject-2.csv","legacy","1 4 9 2 5","Lentiform Loewenfeld","3.3.5","0","n","0","right","right","right","left","NA","right","NA","568","1570","254733","5106","NA","568","NA","2","legacy","5","1024","2","48000","-16","experiment","2","even","7","918165","491922","919271","921504","671230","5340","486815","NA","923517","924087","920287","260117","923517","919260","5318","NA","Sternberg Task","68","72903","80","yes","1024"
"83.95061728395062","83.95061728395062","908.2469135802469","908.2469135802469","black","experiment","legacy","legacy","legacy","0","uniform","0","undefined","0","left","80","0","80","80","80","0","0","0","80","80","80","0","80","80","0","NA","Sun Oct 25 18:38:27 2020","The main experiment item","yes","SternbergTask (1).osexp","/Users/jacobspurling/Downloads","no","mono","no","18","no","white","no","yes","768","legacy","68","11","/Users/jacobspurling/Desktop/RL-subject-2.csv","legacy","2 6 1 7 4","Lentiform Loewenfeld","3.3.5","2","y","0","right","right","right","left","NA","right","NA","665","1570","254733","5106","NA","665","NA","2","legacy","5","1024","2","48000","-16","experiment","2","even","6","924112","491922","925230","927460","671230","5340","486815","NA","929475","930142","926244","260117","929475","925218","5318","NA","Sternberg Task","68","73568","81","yes","1024"
"84.14634146341463","84.14634146341463","905.9268292682926","905.9268292682926","black","experiment","legacy","legacy","legacy","0","uniform","1","undefined","1","left","81","0","81","81","81","0","0","0","81","81","81","0","81","81","0","NA","Sun Oct 25 18:38:27 2020","The main experiment item","yes","SternbergTask (1).osexp","/Users/jacobspurling/Downloads","no","mono","no","18","no","white","no","yes","768","legacy","69","11","/Users/jacobspurling/Desktop/RL-subject-2.csv","legacy","3 4","Lentiform Loewenfeld","3.3.5","1","y","0","left","right","right","left","NA","left","NA","718","1801","254733","5106","NA","718","NA","2","legacy","2","1024","2","48000","-16","experiment","2","even","3","924112","491922","932083","934311","930167","5340","486815","NA","936325","937045","933095","260117","936325","932066","5318","NA","Sternberg Task","69","74286","82","yes","1024"
"84.33734939759036","84.33734939759036","902.8915662650602","902.8915662650602","black","experiment","legacy","legacy","legacy","0","uniform","1","undefined","1","left","82","0","82","82","82","0","0","0","82","82","82","0","82","82","0","NA","Sun Oct 25 18:38:27 2020","The main experiment item","yes","SternbergTask (1).osexp","/Users/jacobspurling/Downloads","no","mono","no","18","no","white","no","yes","768","legacy","70","11","/Users/jacobspurling/Desktop/RL-subject-2.csv","legacy","3 5 9 6 2 4","Lentiform Loewenfeld","3.3.5","1","y","0","left","right","right","left","NA","left","NA","654","1801","254733","5106","NA","654","NA","2","legacy","6","1024","2","48000","-16","experiment","2","even","3","937071","491922","938183","940413","930167","5340","486815","NA","942425","943081","939197","260117","942425","938171","5318","NA","Sternberg Task","70","74940","83","yes","1024"
"84.52380952380952","84.52380952380952","901.297619047619","901.297619047619","black","experiment","legacy","legacy","legacy","0","uniform","1","undefined","1","right","83","0","83","83","83","0","0","0","83","83","83","0","83","83","0","NA","Sun Oct 25 18:38:27 2020","The main experiment item","yes","SternbergTask (1).osexp","/Users/jacobspurling/Downloads","no","mono","no","18","no","white","no","yes","768","legacy","71","11","/Users/jacobspurling/Desktop/RL-subject-2.csv","legacy","6 8","Lentiform Loewenfeld","3.3.5","0","n","0","right","right","right","left","NA","right","NA","769","1801","254733","5106","NA","769","NA","2","legacy","2","1024","2","48000","-16","experiment","2","even","9","943109","491922","944220","946449","930167","5340","486815","NA","948462","949233","945234","260117","948462","944207","5318","NA","Sternberg Task","71","75709","84","yes","1024"
"84.70588235294117","84.70588235294117","901.2941176470588","901.2941176470588","black","experiment","legacy","legacy","legacy","0","uniform","1","undefined","1","left","84","0","84","84","84","0","0","0","84","84","84","0","84","84","0","NA","Sun Oct 25 18:38:27 2020","The main experiment item","yes","SternbergTask (1).osexp","/Users/jacobspurling/Downloads","no","mono","no","18","no","white","no","yes","768","legacy","72","11","/Users/jacobspurling/Desktop/RL-subject-2.csv","legacy","3 5 7 1","Lentiform Loewenfeld","3.3.5","3","y","0","left","right","right","left","NA","left","NA","901","1801","254733","5106","NA","901","NA","2","legacy","4","1024","2","48000","-16","experiment","2","even","7","949257","491922","950367","952596","930167","5340","486815","NA","954608","955511","951380","260117","954608","950355","5318","NA","Sternberg Task","72","76610","85","yes","1024"
"84.88372093023256","84.88372093023256","898.0813953488372","898.0813953488372","black","experiment","legacy","legacy","legacy","0","uniform","1","undefined","1","right","85","0","85","85","85","0","0","0","85","85","85","0","85","85","0","NA","Sun Oct 25 18:38:27 2020","The main experiment item","yes","SternbergTask (1).osexp","/Users/jacobspurling/Downloads","no","mono","no","18","no","white","no","yes","768","legacy","73","11","/Users/jacobspurling/Desktop/RL-subject-2.csv","legacy","2 8 9","Lentiform Loewenfeld","3.3.5","0","n","0","right","right","right","left","NA","right","NA","625","1801","254733","5106","NA","625","NA","2","legacy","3","1024","2","48000","-16","experiment","2","even","6","955536","491922","956645","958875","930167","5340","486815","NA","960888","961515","957659","260117","960888","956633","5318","NA","Sternberg Task","73","77235","86","yes","1024"
"85.05747126436782","85.05747126436782","899.7126436781609","899.7126436781609","black","experiment","legacy","legacy","legacy","0","uniform","1","undefined","1","left","86","0","86","86","86","0","0","0","86","86","86","0","86","86","0","NA","Sun Oct 25 18:38:27 2020","The main experiment item","yes","SternbergTask (1).osexp","/Users/jacobspurling/Downloads","no","mono","no","18","no","white","no","yes","768","legacy","74","11","/Users/jacobspurling/Desktop/RL-subject-2.csv","legacy","4 6 2 5 1","Lentiform Loewenfeld","3.3.5","5","y","0","left","right","right","left","NA","left","NA","1040","1801","254733","5106","NA","1040","NA","2","legacy","5","1024","2","48000","-16","experiment","2","even","1","961539","491922","962653","964882","930167","5340","486815","NA","966895","967937","963666","260117","966895","962642","5318","NA","Sternberg Task","74","78275","87","yes","1024"
"85.22727272727273","85.22727272727273","898.4431818181819","898.4431818181819","black","experiment","legacy","legacy","legacy","0","uniform","1","undefined","1","right","87","0","87","87","87","0","0","0","87","87","87","0","87","87","0","NA","Sun Oct 25 18:38:27 2020","The main experiment item","yes","SternbergTask (1).osexp","/Users/jacobspurling/Downloads","no","mono","no","18","no","white","no","yes","768","legacy","75","11","/Users/jacobspurling/Desktop/RL-subject-2.csv","legacy","1 7 8 3 9","Lentiform Loewenfeld","3.3.5","0","n","0","right","right","right","left","NA","right","NA","788","1801","254733","5106","NA","788","NA","2","legacy","5","1024","2","48000","-16","experiment","2","even","2","967962","491922","969074","971303","930167","5340","486815","NA","973323","974113","970087","260117","973323","969061","5318","NA","Sternberg Task","75","79063","88","yes","1024"
"85.3932584269663","85.3932584269663","895.3595505617977","895.3595505617977","black","experiment","legacy","legacy","legacy","0","uniform","1","undefined","1","left","88","0","88","88","88","0","0","0","88","88","88","0","88","88","0","NA","Sun Oct 25 18:38:27 2020","The main experiment item","yes","SternbergTask (1).osexp","/Users/jacobspurling/Downloads","no","mono","no","18","no","white","no","yes","768","legacy","76","11","/Users/jacobspurling/Desktop/RL-subject-2.csv","legacy","4","Lentiform Loewenfeld","3.3.5","1","y","0","left","right","right","left","NA","left","NA","624","1801","254733","5106","NA","624","NA","2","legacy","1","1024","2","48000","-16","experiment","2","even","4","974141","491922","975257","977489","930167","5340","486815","NA","979501","980127","976273","260117","979501","975245","5318","NA","Sternberg Task","76","79687","89","yes","1024"
"85.55555555555556","85.55555555555556","895.5555555555555","895.5555555555555","black","experiment","legacy","legacy","legacy","0","uniform","1","undefined","1","left","89","0","89","89","89","0","0","0","89","89","89","0","89","89","0","NA","Sun Oct 25 18:38:27 2020","The main experiment item","yes","SternbergTask (1).osexp","/Users/jacobspurling/Downloads","no","mono","no","18","no","white","no","yes","768","legacy","77","11","/Users/jacobspurling/Desktop/RL-subject-2.csv","legacy","7 1 8 5 6 2","Lentiform Loewenfeld","3.3.5","2","y","0","left","right","right","left","NA","left","NA","913","1801","254733","5106","NA","913","NA","2","legacy","6","1024","2","48000","-16","experiment","2","even","1","980152","491922","981271","983501","930167","5340","486815","NA","985515","986431","982285","260117","985515","981260","5318","NA","Sternberg Task","77","80600","90","yes","1024"
"85.71428571428571","85.71428571428571","893.8021978021978","893.8021978021978","black","experiment","legacy","legacy","legacy","0","uniform","1","undefined","1","left","90","0","90","90","90","0","0","0","90","90","90","0","90","90","0","NA","Sun Oct 25 18:38:27 2020","The main experiment item","yes","SternbergTask (1).osexp","/Users/jacobspurling/Downloads","no","mono","no","18","no","white","no","yes","768","legacy","78","11","/Users/jacobspurling/Desktop/RL-subject-2.csv","legacy","2 3 7 4","Lentiform Loewenfeld","3.3.5","1","y","0","left","right","right","left","NA","left","NA","736","1801","254733","5106","NA","736","NA","2","legacy","4","1024","2","48000","-16","experiment","2","even","2","986457","491922","987565","989796","930167","5340","486815","NA","991808","992547","988579","260117","991808","987553","5318","NA","Sternberg Task","78","81336","91","yes","1024"
"85.8695652173913","85.8695652173913","891.4130434782609","891.4130434782609","black","experiment","legacy","legacy","legacy","0","uniform","1","undefined","1","right","91","0","91","91","91","0","0","0","91","91","91","0","91","91","0","NA","Sun Oct 25 18:38:27 2020","The main experiment item","yes","SternbergTask (1).osexp","/Users/jacobspurling/Downloads","no","mono","no","18","no","white","no","yes","768","legacy","79","11","/Users/jacobspurling/Desktop/RL-subject-2.csv","legacy","9","Lentiform Loewenfeld","3.3.5","0","n","0","right","right","right","left","NA","right","NA","674","1801","254733","5106","NA","674","NA","2","legacy","1","1024","2","48000","-16","experiment","2","even","6","992572","491922","993677","995910","930167","5340","486815","NA","997926","998603","994695","260117","997926","993666","5318","NA","Sternberg Task","79","82010","92","yes","1024"
"86.02150537634408","86.02150537634408","889.516129032258","889.516129032258","black","experiment","legacy","legacy","legacy","0","uniform","1","undefined","1","right","92","0","92","92","92","0","0","0","92","92","92","0","92","92","0","NA","Sun Oct 25 18:38:27 2020","The main experiment item","yes","SternbergTask (1).osexp","/Users/jacobspurling/Downloads","no","mono","no","18","no","white","no","yes","768","legacy","80","11","/Users/jacobspurling/Desktop/RL-subject-2.csv","legacy","8 6 3 4 7","Lentiform Loewenfeld","3.3.5","0","n","0","right","right","right","left","NA","right","NA","715","1801","254733","5106","NA","715","NA","2","legacy","5","1024","2","48000","-16","experiment","2","even","1","998628","491922","999733","1001963","930167","5340","486815","NA","1003976","1004695","1000747","260117","1003975","999722","5318","NA","Sternberg Task","80","82725","93","yes","1024"
"86.17021276595744","86.17021276595744","888.4148936170212","888.4148936170212","black","experiment","legacy","legacy","legacy","0","uniform","1","undefined","1","left","93","0","93","93","93","0","0","0","93","93","93","0","93","93","0","NA","Sun Oct 25 18:38:27 2020","The main experiment item","yes","SternbergTask (1).osexp","/Users/jacobspurling/Downloads","no","mono","no","18","no","white","no","yes","768","legacy","81","11","/Users/jacobspurling/Desktop/RL-subject-2.csv","legacy","9 1 6 7 8","Lentiform Loewenfeld","3.3.5","1","y","0","left","right","right","left","NA","left","NA","786","1801","254733","5106","NA","786","NA","2","legacy","5","1024","2","48000","-16","experiment","2","even","9","1004720","491922","1005831","1008061","930167","5340","486815","NA","1010074","1010862","1006846","260117","1010074","1005820","5318","NA","Sternberg Task","81","83511","94","yes","1024"
"86.3157894736842","86.3157894736842","886.4842105263158","886.4842105263158","black","experiment","legacy","legacy","legacy","0","uniform","1","undefined","1","right","94","0","94","94","94","0","0","0","94","94","94","0","94","94","0","NA","Sun Oct 25 18:38:27 2020","The main experiment item","yes","SternbergTask (1).osexp","/Users/jacobspurling/Downloads","no","mono","no","18","no","white","no","yes","768","legacy","82","11","/Users/jacobspurling/Desktop/RL-subject-2.csv","legacy","4 8 1 2","Lentiform Loewenfeld","3.3.5","0","n","0","right","right","right","left","NA","right","NA","705","1801","254733","5106","NA","705","NA","2","legacy","4","1024","2","48000","-16","experiment","2","even","7","1010887","491922","1011996","1014224","930167","5340","486815","NA","1016237","1016944","1013009","260117","1016237","1011985","5318","NA","Sternberg Task","82","84216","95","yes","1024"
"86.45833333333333","86.45833333333333","886.25","886.25","black","experiment","legacy","legacy","legacy","0","uniform","1","undefined","1","right","95","0","95","95","95","0","0","0","95","95","95","0","95","95","0","NA","Sun Oct 25 18:38:27 2020","The main experiment item","yes","SternbergTask (1).osexp","/Users/jacobspurling/Downloads","no","mono","no","18","no","white","no","yes","768","legacy","83","11","/Users/jacobspurling/Desktop/RL-subject-2.csv","legacy","5","Lentiform Loewenfeld","3.3.5","0","n","0","right","right","right","left","NA","right","NA","864","1801","254733","5106","NA","864","NA","2","legacy","1","1024","2","48000","-16","experiment","2","even","8","1016969","491922","1018079","1020306","930167","5340","486815","NA","1022318","1023184","1019091","260117","1022318","1018066","5318","NA","Sternberg Task","83","85080","96","yes","1024"
"86.5979381443299","86.5979381443299","885.4329896907217","885.4329896907217","black","experiment","legacy","legacy","legacy","0","uniform","1","undefined","1","left","96","0","96","96","96","0","0","0","96","96","96","0","96","96","0","NA","Sun Oct 25 18:38:27 2020","The main experiment item","yes","SternbergTask (1).osexp","/Users/jacobspurling/Downloads","no","mono","no","18","no","white","no","yes","768","legacy","84","11","/Users/jacobspurling/Desktop/RL-subject-2.csv","legacy","5 2 6","Lentiform Loewenfeld","3.3.5","2","y","0","left","right","right","left","NA","left","NA","807","1801","254733","5106","NA","807","NA","2","legacy","3","1024","2","48000","-16","experiment","2","even","2","1023207","491922","1024315","1026550","930167","5340","486815","NA","1028562","1029371","1025332","260117","1028562","1024303","5318","NA","Sternberg Task","84","85887","97","yes","1024"
"86.73469387755102","86.73469387755102","885.5816326530612","885.5816326530612","black","experiment","legacy","legacy","legacy","0","uniform","1","undefined","1","right","97","0","97","97","97","0","0","0","97","97","97","0","97","97","0","NA","Sun Oct 25 18:38:27 2020","The main experiment item","yes","SternbergTask (1).osexp","/Users/jacobspurling/Downloads","no","mono","no","18","no","white","no","yes","768","legacy","85","11","/Users/jacobspurling/Desktop/RL-subject-2.csv","legacy","7 1 5 6 3","Lentiform Loewenfeld","3.3.5","0","n","0","right","right","right","left","NA","right","NA","900","1801","254733","5106","NA","900","NA","2","legacy","5","1024","2","48000","-16","experiment","2","even","8","1029396","491922","1030502","1032732","930167","5340","486815","NA","1034746","1035649","1031516","260117","1034746","1030490","5318","NA","Sternberg Task","85","86787","98","yes","1024"
"86.86868686868686","86.86868686868686","885.030303030303","885.030303030303","black","experiment","legacy","legacy","legacy","0","uniform","1","undefined","1","right","98","0","98","98","98","0","0","0","98","98","98","0","98","98","0","NA","Sun Oct 25 18:38:27 2020","The main experiment item","yes","SternbergTask (1).osexp","/Users/jacobspurling/Downloads","no","mono","no","18","no","white","no","yes","768","legacy","86","11","/Users/jacobspurling/Desktop/RL-subject-2.csv","legacy","1 7 5 2 9","Lentiform Loewenfeld","3.3.5","0","n","0","right","right","right","left","NA","right","NA","831","1801","254733","5106","NA","831","NA","2","legacy","5","1024","2","48000","-16","experiment","2","even","3","1035674","491922","1036788","1039014","930167","5340","486815","NA","1041026","1041859","1037802","260117","1041026","1036776","5318","NA","Sternberg Task","86","87618","99","yes","1024"
"87","87","887.36","887.36","black","experiment","legacy","legacy","legacy","0","uniform","1","undefined","1","left","99","0","99","99","99","0","0","0","99","99","99","0","99","99","0","NA","Sun Oct 25 18:38:27 2020","The main experiment item","yes","SternbergTask (1).osexp","/Users/jacobspurling/Downloads","no","mono","no","18","no","white","no","yes","768","legacy","87","11","/Users/jacobspurling/Desktop/RL-subject-2.csv","legacy","4 6 5 8","Lentiform Loewenfeld","3.3.5","1","y","0","left","right","right","left","NA","left","NA","1118","1801","254733","5106","NA","1118","NA","2","legacy","4","1024","2","48000","-16","experiment","2","even","4","1041872","491922","1042978","1045207","930167","5340","486815","NA","1047220","1048340","1043992","260117","1047219","1042966","5318","NA","Sternberg Task","87","88736","100","yes","1024"
"87.12871287128714","87.12871287128714","887.7524752475248","887.7524752475248","black","experiment","legacy","legacy","legacy","0","uniform","1","undefined","1","right","100","0","100","100","100","0","0","0","100","100","100","0","100","100","0","NA","Sun Oct 25 18:38:27 2020","The main experiment item","yes","SternbergTask (1).osexp","/Users/jacobspurling/Downloads","no","mono","no","18","no","white","no","yes","768","legacy","88","11","/Users/jacobspurling/Desktop/RL-subject-2.csv","legacy","2 8 6 3 1","Lentiform Loewenfeld","3.3.5","0","n","0","right","right","right","left","NA","right","NA","927","1801","254733","5106","NA","927","NA","2","legacy","5","1024","2","48000","-16","experiment","2","even","7","1048365","491922","1049471","1051702","930167","5340","486815","NA","1053714","1054643","1050485","260117","1053714","1049460","5318","NA","Sternberg Task","88","89663","101","yes","1024"
"87.25490196078431","87.25490196078431","889.7549019607843","889.7549019607843","black","experiment","legacy","legacy","legacy","0","uniform","1","undefined","1","left","101","0","101","101","101","0","0","0","101","101","101","0","101","101","0","NA","Sun Oct 25 18:38:27 2020","The main experiment item","yes","SternbergTask (1).osexp","/Users/jacobspurling/Downloads","no","mono","no","18","no","white","no","yes","768","legacy","89","11","/Users/jacobspurling/Desktop/RL-subject-2.csv","legacy","8 5 3 7 4 6","Lentiform Loewenfeld","3.3.5","6","y","0","left","right","right","left","NA","left","NA","1092","1801","254733","5106","NA","1092","NA","2","legacy","6","1024","2","48000","-16","experiment","2","even","6","1054669","491922","1055778","1058007","930167","5340","486815","NA","1060021","1061115","1056792","260117","1060020","1055766","5318","NA","Sternberg Task","89","90755","102","yes","1024"
"87.37864077669903","87.37864077669903","888.2135922330098","888.2135922330098","black","experiment","legacy","legacy","legacy","0","uniform","1","undefined","1","left","102","0","102","102","102","0","0","0","102","102","102","0","102","102","0","NA","Sun Oct 25 18:38:27 2020","The main experiment item","yes","SternbergTask (1).osexp","/Users/jacobspurling/Downloads","no","mono","no","18","no","white","no","yes","768","legacy","90","11","/Users/jacobspurling/Desktop/RL-subject-2.csv","legacy","3 2 1 4 7","Lentiform Loewenfeld","3.3.5","2","y","0","left","right","right","left","NA","left","NA","731","1801","254733","5106","NA","731","NA","2","legacy","5","1024","2","48000","-16","experiment","2","even","2","1061140","491922","1062244","1064478","930167","5340","486815","NA","1066491","1067225","1063261","260117","1066490","1062233","5318","NA","Sternberg Task","90","91486","103","yes","1024"
"87.5","87.5","885.7307692307693","885.7307692307693","black","experiment","legacy","legacy","legacy","0","uniform","1","undefined","1","right","103","0","103","103","103","0","0","0","103","103","103","0","103","103","0","NA","Sun Oct 25 18:38:27 2020","The main experiment item","yes","SternbergTask (1).osexp","/Users/jacobspurling/Downloads","no","mono","no","18","no","white","no","yes","768","legacy","91","11","/Users/jacobspurling/Desktop/RL-subject-2.csv","legacy","8 9","Lentiform Loewenfeld","3.3.5","0","n","0","right","right","right","left","NA","right","NA","630","1801","254733","5106","NA","630","NA","2","legacy","2","1024","2","48000","-16","experiment","2","even","5","1067250","491922","1068356","1070586","930167","5340","486815","NA","1072599","1073231","1069370","260117","1072599","1068345","5318","NA","Sternberg Task","91","92116","104","yes","1024"
"87.61904761904762","87.61904761904762","884.2571428571429","884.2571428571429","black","experiment","legacy","legacy","legacy","0","uniform","1","undefined","1","right","104","0","104","104","104","0","0","0","104","104","104","0","104","104","0","NA","Sun Oct 25 18:38:27 2020","The main experiment item","yes","SternbergTask (1).osexp","/Users/jacobspurling/Downloads","no","mono","no","18","no","white","no","yes","768","legacy","92","11","/Users/jacobspurling/Desktop/RL-subject-2.csv","legacy","2 8 7 9 5 3","Lentiform Loewenfeld","3.3.5","0","n","0","right","right","right","left","NA","right","NA","731","1801","254733","5106","NA","731","NA","2","legacy","6","1024","2","48000","-16","experiment","2","even","6","1073257","491922","1074362","1076592","930167","5340","486815","NA","1078604","1079337","1075376","260117","1078604","1074350","5318","NA","Sternberg Task","92","92847","105","yes","1024"
"87.73584905660377","87.73584905660377","883.2830188679245","883.2830188679245","black","experiment","legacy","legacy","legacy","0","uniform","1","undefined","1","left","105","0","105","105","105","0","0","0","105","105","105","0","105","105","0","NA","Sun Oct 25 18:38:27 2020","The main experiment item","yes","SternbergTask (1).osexp","/Users/jacobspurling/Downloads","no","mono","no","18","no","white","no","yes","768","legacy","93","11","/Users/jacobspurling/Desktop/RL-subject-2.csv","legacy","2 4 6 9","Lentiform Loewenfeld","3.3.5","3","y","0","left","right","right","left","NA","left","NA","781","1801","254733","5106","NA","781","NA","2","legacy","4","1024","2","48000","-16","experiment","2","even","6","1079362","491922","1080470","1082701","930167","5340","486815","NA","1084714","1085497","1081484","260117","1084714","1080459","5318","NA","Sternberg Task","93","93628","106","yes","1024"
"87.85046728971963","87.85046728971963","883.2616822429907","883.2616822429907","black","experiment","legacy","legacy","legacy","0","uniform","1","undefined","1","right","106","0","106","106","106","0","0","0","106","106","106","0","106","106","0","NA","Sun Oct 25 18:38:27 2020","The main experiment item","yes","SternbergTask (1).osexp","/Users/jacobspurling/Downloads","no","mono","no","18","no","white","no","yes","768","legacy","94","11","/Users/jacobspurling/Desktop/RL-subject-2.csv","legacy","9 5 3 2 8 6","Lentiform Loewenfeld","3.3.5","0","n","0","right","right","right","left","NA","right","NA","881","1801","254733","5106","NA","881","NA","2","legacy","6","1024","2","48000","-16","experiment","2","even","7","1085522","491922","1086632","1088862","930167","5340","486815","NA","1090875","1091758","1087645","260117","1090875","1086621","5318","NA","Sternberg Task","94","94509","107","yes","1024"
"87.96296296296296","87.96296296296296","882.8796296296297","882.8796296296297","black","experiment","legacy","legacy","legacy","0","uniform","1","undefined","1","right","107","0","107","107","107","0","0","0","107","107","107","0","107","107","0","NA","Sun Oct 25 18:38:27 2020","The main experiment item","yes","SternbergTask (1).osexp","/Users/jacobspurling/Downloads","no","mono","no","18","no","white","no","yes","768","legacy","95","11","/Users/jacobspurling/Desktop/RL-subject-2.csv","legacy","9 8 2 7 4","Lentiform Loewenfeld","3.3.5","0","n","0","right","right","right","left","NA","right","NA","842","1801","254733","5106","NA","842","NA","2","legacy","5","1024","2","48000","-16","experiment","2","even","5","1091783","491922","1092888","1095119","930167","5340","486815","NA","1097132","1097976","1093902","260117","1097131","1092877","5318","NA","Sternberg Task","95","95351","108","yes","1024"
"88.07339449541284","88.07339449541284","882.5321100917431","882.5321100917431","black","experiment","legacy","legacy","legacy","0","uniform","1","undefined","1","left","108","0","108","108","108","0","0","0","108","108","108","0","108","108","0","NA","Sun Oct 25 18:38:27 2020","The main experiment item","yes","SternbergTask (1).osexp","/Users/jacobspurling/Downloads","no","mono","no","18","no","white","no","yes","768","legacy","96","11","/Users/jacobspurling/Desktop/RL-subject-2.csv","legacy","7","Lentiform Loewenfeld","3.3.5","1","y","0","left","right","right","left","NA","left","NA","845","1801","254733","5106","NA","845","NA","2","legacy","1","1024","2","48000","-16","experiment","2","even","7","1098001","491922","1099107","1101339","930167","5340","486815","NA","1103352","1104199","1100123","260117","1103351","1099095","5318","NA","Sternberg Task","96","96196","109","yes","1024"
"88.18181818181819","88.18181818181819","880.8818181818182","880.8818181818182","black","experiment","legacy","legacy","legacy","0","uniform","1","undefined","1","right","109","0","109","109","109","0","0","0","109","109","109","0","109","109","0","NA","Sun Oct 25 18:38:27 2020","The main experiment item","yes","SternbergTask (1).osexp","/Users/jacobspurling/Downloads","no","mono","no","18","no","white","no","yes","768","legacy","97","11","/Users/jacobspurling/Desktop/RL-subject-2.csv","legacy","6 3 1 7 9 8","Lentiform Loewenfeld","3.3.5","0","n","0","right","right","right","left","NA","right","NA","701","1801","254733","5106","NA","701","NA","2","legacy","6","1024","2","48000","-16","experiment","2","even","4","1104225","491922","1105330","1107563","930167","5340","486815","NA","1109578","1110281","1106347","260117","1109578","1105319","5318","NA","Sternberg Task","97","96897","110","yes","1024"
"87.38738738738739","87.38738738738739","880.1171171171171","880.1171171171171","black","experiment","legacy","legacy","legacy","0","uniform","0","undefined","0","right","110","0","110","110","110","0","0","0","110","110","110","0","110","110","0","NA","Sun Oct 25 18:38:27 2020","The main experiment item","yes","SternbergTask (1).osexp","/Users/jacobspurling/Downloads","no","mono","no","18","no","white","no","yes","768","legacy","98","11","/Users/jacobspurling/Desktop/RL-subject-2.csv","legacy","1 6 4 3 9 7","Lentiform Loewenfeld","3.3.5","0","n","0","left","right","right","left","NA","left","NA","796","1801","254733","5106","NA","796","NA","2","legacy","6","1024","2","48000","-16","experiment","2","even","8","1110306","491922","1111413","1113643","930167","5340","486815","NA","1115658","1116456","1112427","260117","1115658","1111402","5318","NA","Sternberg Task","97","97693","111","yes","1024"
