"acc","accuracy","average_response_time","avg_rt","background","block","canvas_backend","clock_backend","color_backend","compensation","coordinates","correct","correct_instruction1","correct_new_keyboard_response","correct_response","count_ISI","count_correctFeedback","count_expSequence","count_experiment","count_experimentLoop","count_fixation","count_incorrectFeedback","count_instruction1","count_instructions2","count_logger","count_memorySet","count_new_keyboard_response","count_practiceLoop","count_probe","count_thankYou","datetime","description","disable_garbage_collection","experiment_file","experiment_path","font_bold","font_family","font_italic","font_size","font_underline","foreground","form_clicks","fullscreen","height","keyboard_backend","live_row","live_row_practiceLoop","logfile","mouse_backend","numberSet","opensesame_codename","opensesame_version","posInSet","present","repeat_cycle","response","response_instruction1","response_instructions2","response_new_keyboard_response","response_thankYou","response_time","response_time_instruction1","response_time_instructions2","response_time_new_keyboard_response","response_time_thankYou","round_decimals","sampler_backend","setSize","sound_buf_size","sound_channels","sound_freq","sound_sample_size","start","subject_nr","subject_parity","target","time_ISI","time_correctFeedback","time_expSequence","time_experiment","time_experimentLoop","time_fixation","time_incorrectFeedback","time_instruction1","time_instructions2","time_logger","time_memorySet","time_new_keyboard_response","time_practiceLoop","time_probe","time_thankYou","title","total_correct","total_response_time","total_responses","uniform_coordinates","width"
"100","100","1161","1161","black","practice","legacy","legacy","legacy","0","uniform","1","undefined","1","right","0","0","0","0","0","0","0","0","0","0","0","0","0","0","0","Sun Oct 18 17:39:56 2020","The main experiment item","yes","Sternbergtask.osexp","/Users/shelia","no","mono","no","18","no","white","no","yes","768","legacy","0","0","/Users/shelia/Desktop/subject-1 Oct 18.csv","legacy","2 1","Lentiform Loewenfeld","3.3.3","0","n","0","right","return","NA","right","NA","1161","39806","NA","1161","NA","2","legacy","2","1024","2","48000","-16","experiment","1","odd","5","44773","NA","42515","2425","NA","42528","NA","2443","NA","47956","43549","46794","42272","46793","NA","Sternberg task","1","1161","1","yes","1024"
"50","50","915","915","black","practice","legacy","legacy","legacy","0","uniform","0","undefined","0","left","1","1","1","0","0","1","1","0","0","1","1","1","0","1","0","Sun Oct 18 17:39:56 2020","The main experiment item","yes","Sternbergtask.osexp","/Users/shelia","no","mono","no","18","no","white","no","yes","768","legacy","1","1","/Users/shelia/Desktop/subject-1 Oct 18.csv","legacy","4 3 1 7 9 8","Lentiform Loewenfeld","3.3.3","1","y","0","right","return","NA","right","NA","669","39806","NA","669","NA","2","legacy","6","1024","2","48000","-16","experiment","1","odd","4","51330","47996","49073","2425","NA","49086","NA","2443","NA","54019","50107","53349","42272","53349","NA","Sternberg task","1","1830","2","yes","1024"
"66.66666666666667","66.66666666666667","770.6666666666666","770.6666666666666","black","practice","legacy","legacy","legacy","0","uniform","1","undefined","1","left","2","2","2","0","0","2","2","0","0","2","2","2","0","2","0","Sun Oct 18 17:39:56 2020","The main experiment item","yes","Sternbergtask.osexp","/Users/shelia","no","mono","no","18","no","white","no","yes","768","legacy","2","2","/Users/shelia/Desktop/subject-1 Oct 18.csv","legacy","2 9 4","Lentiform Loewenfeld","3.3.3","3","y","0","left","return","NA","left","NA","482","39806","NA","482","NA","2","legacy","3","1024","2","48000","-16","experiment","1","odd","4","57350","47996","55095","2425","NA","55108","54034","2443","NA","59851","56128","59369","42272","59369","NA","Sternberg task","2","2312","3","yes","1024"
"75","75","771","771","black","practice","legacy","legacy","legacy","0","uniform","1","undefined","1","left","3","3","3","0","0","3","3","0","0","3","3","3","0","3","0","Sun Oct 18 17:39:56 2020","The main experiment item","yes","Sternbergtask.osexp","/Users/shelia","no","mono","no","18","no","white","no","yes","768","legacy","3","3","/Users/shelia/Desktop/subject-1 Oct 18.csv","legacy","1 7 9 8 5","Lentiform Loewenfeld","3.3.3","4","y","0","left","return","NA","left","NA","772","39806","NA","772","NA","2","legacy","5","1024","2","48000","-16","experiment","1","odd","8","63183","59866","60928","2425","NA","60941","54034","2443","NA","65974","61961","65202","42272","65202","NA","Sternberg task","3","3084","4","yes","1024"
"80","80","857.6","857.6","black","practice","legacy","legacy","legacy","0","uniform","1","undefined","1","right","4","4","4","0","0","4","4","0","0","4","4","4","0","4","0","Sun Oct 18 17:39:56 2020","The main experiment item","yes","Sternbergtask.osexp","/Users/shelia","no","mono","no","18","no","white","no","yes","768","legacy","4","4","/Users/shelia/Desktop/subject-1 Oct 18.csv","legacy","5 7 8 4 1 2","Lentiform Loewenfeld","3.3.3","0","n","0","right","return","NA","right","NA","1204","39806","NA","1204","NA","2","legacy","6","1024","2","48000","-16","experiment","1","odd","6","69308","65990","67052","2425","NA","67065","54034","2443","NA","72532","68085","71327","42272","71327","NA","Sternberg task","4","4288","5","yes","1024"
"83.33333333333333","83.33333333333333","868.6666666666666","868.6666666666666","black","practice","legacy","legacy","legacy","0","uniform","1","undefined","1","left","5","5","5","0","0","5","5","0","0","5","5","5","0","5","0","Sun Oct 18 17:39:56 2020","The main experiment item","yes","Sternbergtask.osexp","/Users/shelia","no","mono","no","18","no","white","no","yes","768","legacy","5","5","/Users/shelia/Desktop/subject-1 Oct 18.csv","legacy","6","Lentiform Loewenfeld","3.3.3","1","y","0","left","return","NA","left","NA","924","39806","NA","924","NA","2","legacy","1","1024","2","48000","-16","experiment","1","odd","6","75867","72546","73606","2425","NA","73621","54034","2443","NA","78813","74643","77888","42272","77888","NA","Sternberg task","5","5212","6","yes","1024"
"85.71428571428571","85.71428571428571","827.5714285714286","827.5714285714286","black","practice","legacy","legacy","legacy","0","uniform","1","undefined","1","left","6","6","6","0","0","6","6","0","0","6","6","6","0","6","0","Sun Oct 18 17:39:56 2020","The main experiment item","yes","Sternbergtask.osexp","/Users/shelia","no","mono","no","18","no","white","no","yes","768","legacy","6","6","/Users/shelia/Desktop/subject-1 Oct 18.csv","legacy","1 5 2 9","Lentiform Loewenfeld","3.3.3","2","y","0","left","return","NA","left","NA","581","39806","NA","581","NA","2","legacy","4","1024","2","48000","-16","experiment","1","odd","5","82145","78827","79890","2425","NA","79903","54034","2443","NA","84746","80923","84165","42272","84165","NA","Sternberg task","6","5793","7","yes","1024"
"87.5","87.5","812.125","812.125","black","practice","legacy","legacy","legacy","0","uniform","1","undefined","1","left","7","7","7","0","0","7","7","0","0","7","7","7","0","7","0","Sun Oct 18 17:39:56 2020","The main experiment item","yes","Sternbergtask.osexp","/Users/shelia","no","mono","no","18","no","white","no","yes","768","legacy","7","7","/Users/shelia/Desktop/subject-1 Oct 18.csv","legacy","4 8","Lentiform Loewenfeld","3.3.3","1","y","0","left","return","NA","left","NA","704","39806","NA","704","NA","2","legacy","2","1024","2","48000","-16","experiment","1","odd","4","88082","84762","85826","2425","NA","85839","54034","2443","NA","90805","86860","90101","42272","90101","NA","Sternberg task","7","6497","8","yes","1024"
"88.88888888888889","88.88888888888889","843.3333333333334","843.3333333333334","black","practice","legacy","legacy","legacy","0","uniform","1","undefined","1","right","8","8","8","0","0","8","8","0","0","8","8","8","0","8","0","Sun Oct 18 17:39:56 2020","The main experiment item","yes","Sternbergtask.osexp","/Users/shelia","no","mono","no","18","no","white","no","yes","768","legacy","8","8","/Users/shelia/Desktop/subject-1 Oct 18.csv","legacy","4 1 5","Lentiform Loewenfeld","3.3.3","0","n","0","right","return","NA","right","NA","1093","39806","NA","1093","NA","2","legacy","3","1024","2","48000","-16","experiment","1","odd","2","94136","90820","91881","2425","NA","91894","54034","2443","NA","97250","92914","96156","42272","96156","NA","Sternberg task","8","7590","9","yes","1024"
"90","90","814.2","814.2","black","practice","legacy","legacy","legacy","0","uniform","1","undefined","1","right","9","9","9","0","0","9","9","0","0","9","9","9","0","9","0","Sun Oct 18 17:39:56 2020","The main experiment item","yes","Sternbergtask.osexp","/Users/shelia","no","mono","no","18","no","white","no","yes","768","legacy","9","9","/Users/shelia/Desktop/subject-1 Oct 18.csv","legacy","5","Lentiform Loewenfeld","3.3.3","0","n","0","right","return","NA","right","NA","552","39806","NA","552","NA","2","legacy","1","1024","2","48000","-16","experiment","1","odd","3","100583","97264","98327","2425","NA","98340","54034","2443","NA","103155","99361","102602","42272","102602","NA","Sternberg task","9","8142","10","yes","1024"
"90.9090909090909","90.9090909090909","809.0909090909091","809.0909090909091","black","practice","legacy","legacy","legacy","0","uniform","1","undefined","1","right","10","10","10","0","0","10","10","0","0","10","10","10","0","10","0","Sun Oct 18 17:39:56 2020","The main experiment item","yes","Sternbergtask.osexp","/Users/shelia","no","mono","no","18","no","white","no","yes","768","legacy","10","10","/Users/shelia/Desktop/subject-1 Oct 18.csv","legacy","3 1 9 4","Lentiform Loewenfeld","3.3.3","0","n","0","right","return","NA","right","NA","758","39806","NA","758","NA","2","legacy","4","1024","2","48000","-16","experiment","1","odd","6","106489","103170","104233","2425","NA","104247","54034","2443","NA","109268","105267","108509","42272","108508","NA","Sternberg task","10","8900","11","yes","1024"
"91.66666666666667","91.66666666666667","808.9166666666666","808.9166666666666","black","practice","legacy","legacy","legacy","0","uniform","1","undefined","1","right","11","11","11","0","0","11","11","0","0","11","11","11","0","11","0","Sun Oct 18 17:39:56 2020","The main experiment item","yes","Sternbergtask.osexp","/Users/shelia","no","mono","no","18","no","white","no","yes","768","legacy","11","11","/Users/shelia/Desktop/subject-1 Oct 18.csv","legacy","9 6 7 4 5","Lentiform Loewenfeld","3.3.3","0","n","0","right","return","NA","right","NA","807","39806","NA","807","NA","2","legacy","5","1024","2","48000","-16","experiment","1","odd","3","112602","109284","110344","2425","NA","110357","54034","2443","NA","115428","111379","114621","42272","114621","NA","Sternberg task","11","9707","12","yes","1024"
"92.3076923076923","92.3076923076923","793.3846153846154","793.3846153846154","black","experiment","legacy","legacy","legacy","0","uniform","1","undefined","1","right","12","12","12","0","0","12","12","0","0","12","12","12","0","12","0","Sun Oct 18 17:39:56 2020","The main experiment item","yes","Sternbergtask.osexp","/Users/shelia","no","mono","no","18","no","white","no","yes","768","legacy","0","11","/Users/shelia/Desktop/subject-1 Oct 18.csv","legacy","9 5 3 2 8 6","Lentiform Loewenfeld","3.3.3","0","n","0","right","return","right","right","NA","607","39806","5449","607","NA","2","legacy","6","1024","2","48000","-16","experiment","1","odd","7","124245","115444","121988","2425","121942","122000","54034","2443","116492","126872","123022","126264","42272","126264","NA","Sternberg task","12","10314","13","yes","1024"
"92.85714285714286","92.85714285714286","780","780","black","experiment","legacy","legacy","legacy","0","uniform","1","undefined","1","right","13","13","13","0","0","13","13","0","0","13","13","13","0","13","0","Sun Oct 18 17:39:56 2020","The main experiment item","yes","Sternbergtask.osexp","/Users/shelia","no","mono","no","18","no","white","no","yes","768","legacy","1","11","/Users/shelia/Desktop/subject-1 Oct 18.csv","legacy","2 7 5","Lentiform Loewenfeld","3.3.3","0","n","0","right","return","right","right","NA","606","39806","5449","606","NA","2","legacy","3","1024","2","48000","-16","experiment","1","odd","8","130204","126886","127948","2425","121942","127961","54034","2443","116492","132829","128982","132223","42272","132223","NA","Sternberg task","13","10920","14","yes","1024"
"86.66666666666667","86.66666666666667","794.6","794.6","black","experiment","legacy","legacy","legacy","0","uniform","0","undefined","0","left","14","14","14","0","0","14","14","0","0","14","14","14","0","14","0","Sun Oct 18 17:39:56 2020","The main experiment item","yes","Sternbergtask.osexp","/Users/shelia","no","mono","no","18","no","white","no","yes","768","legacy","2","11","/Users/shelia/Desktop/subject-1 Oct 18.csv","legacy","7 1 8 5 6 2","Lentiform Loewenfeld","3.3.3","2","y","0","right","return","right","right","NA","999","39806","5449","999","NA","2","legacy","6","1024","2","48000","-16","experiment","1","odd","1","136161","132844","133908","2425","121942","133921","54034","2443","116492","139180","134939","138180","42272","138180","NA","Sternberg task","13","11919","15","yes","1024"
"87.5","87.5","795.3125","795.3125","black","experiment","legacy","legacy","legacy","0","uniform","1","undefined","1","right","15","15","15","0","0","15","15","0","0","15","15","15","0","15","0","Sun Oct 18 17:39:56 2020","The main experiment item","yes","Sternbergtask.osexp","/Users/shelia","no","mono","no","18","no","white","no","yes","768","legacy","3","11","/Users/shelia/Desktop/subject-1 Oct 18.csv","legacy","6 9 4 5 3 2","Lentiform Loewenfeld","3.3.3","0","n","0","right","return","right","right","NA","806","39806","5449","806","NA","2","legacy","6","1024","2","48000","-16","experiment","1","odd","8","142514","132844","140258","2425","121942","140271","139194","2443","116492","145340","141292","144534","42272","144534","NA","Sternberg task","14","12725","16","yes","1024"
"88.23529411764706","88.23529411764706","796.8235294117648","796.8235294117648","black","experiment","legacy","legacy","legacy","0","uniform","1","undefined","1","right","16","16","16","0","0","16","16","0","0","16","16","16","0","16","0","Sun Oct 18 17:39:56 2020","The main experiment item","yes","Sternbergtask.osexp","/Users/shelia","no","mono","no","18","no","white","no","yes","768","legacy","4","11","/Users/shelia/Desktop/subject-1 Oct 18.csv","legacy","5 9 2 3","Lentiform Loewenfeld","3.3.3","0","n","0","right","return","right","right","NA","821","39806","5449","821","NA","2","legacy","4","1024","2","48000","-16","experiment","1","odd","8","148675","145355","146418","2425","121942","146431","139194","2443","116492","151517","147452","150695","42272","150695","NA","Sternberg task","15","13546","17","yes","1024"
"88.88888888888889","88.88888888888889","786.8888888888889","786.8888888888889","black","experiment","legacy","legacy","legacy","0","uniform","1","undefined","1","right","17","17","17","0","0","17","17","0","0","17","17","17","0","17","0","Sun Oct 18 17:39:56 2020","The main experiment item","yes","Sternbergtask.osexp","/Users/shelia","no","mono","no","18","no","white","no","yes","768","legacy","5","11","/Users/shelia/Desktop/subject-1 Oct 18.csv","legacy","9 7 4 5 8","Lentiform Loewenfeld","3.3.3","0","n","0","right","return","right","right","NA","618","39806","5449","618","NA","2","legacy","5","1024","2","48000","-16","experiment","1","odd","6","154853","151532","152595","2425","121942","152609","139194","2443","116492","157491","153630","156872","42272","156872","NA","Sternberg task","16","14164","18","yes","1024"
"84.21052631578948","84.21052631578948","771","771","black","experiment","legacy","legacy","legacy","0","uniform","0","undefined","0","left","18","18","18","0","0","18","18","0","0","18","18","18","0","18","0","Sun Oct 18 17:39:56 2020","The main experiment item","yes","Sternbergtask.osexp","/Users/shelia","no","mono","no","18","no","white","no","yes","768","legacy","6","11","/Users/shelia/Desktop/subject-1 Oct 18.csv","legacy","7","Lentiform Loewenfeld","3.3.3","1","y","0","right","return","right","right","NA","485","39806","5449","485","NA","2","legacy","1","1024","2","48000","-16","experiment","1","odd","7","160824","157506","158566","2425","121942","158580","139194","2443","116492","163329","159601","162843","42272","162843","NA","Sternberg task","16","14649","19","yes","1024"
"85","85","788.8","788.8","black","experiment","legacy","legacy","legacy","0","uniform","1","undefined","1","right","19","19","19","0","0","19","19","0","0","19","19","19","0","19","0","Sun Oct 18 17:39:56 2020","The main experiment item","yes","Sternbergtask.osexp","/Users/shelia","no","mono","no","18","no","white","no","yes","768","legacy","7","11","/Users/shelia/Desktop/subject-1 Oct 18.csv","legacy","7 1 5 6 3","Lentiform Loewenfeld","3.3.3","0","n","0","right","return","right","right","NA","1127","39806","5449","1127","NA","2","legacy","5","1024","2","48000","-16","experiment","1","odd","8","166661","157506","164404","2425","121942","164417","163344","2443","116492","169809","165438","168681","42272","168681","NA","Sternberg task","17","15776","20","yes","1024"
"80.95238095238095","80.95238095238095","795.6666666666666","795.6666666666666","black","experiment","legacy","legacy","legacy","0","uniform","0","undefined","0","left","20","20","20","0","0","20","20","0","0","20","20","20","0","20","0","Sun Oct 18 17:39:56 2020","The main experiment item","yes","Sternbergtask.osexp","/Users/shelia","no","mono","no","18","no","white","no","yes","768","legacy","8","11","/Users/shelia/Desktop/subject-1 Oct 18.csv","legacy","2 4 8 5 1 3","Lentiform Loewenfeld","3.3.3","1","y","0","right","return","right","right","NA","933","39806","5449","933","NA","2","legacy","6","1024","2","48000","-16","experiment","1","odd","2","173142","169824","170887","2425","121942","170900","163344","2443","116492","176096","171920","175162","42272","175161","NA","Sternberg task","17","16709","21","yes","1024"
"77.27272727272727","77.27272727272727","796.6818181818181","796.6818181818181","black","experiment","legacy","legacy","legacy","0","uniform","0","undefined","0","left","21","21","21","0","0","21","21","0","0","21","21","21","0","21","0","Sun Oct 18 17:39:56 2020","The main experiment item","yes","Sternbergtask.osexp","/Users/shelia","no","mono","no","18","no","white","no","yes","768","legacy","9","11","/Users/shelia/Desktop/subject-1 Oct 18.csv","legacy","8 1 6","Lentiform Loewenfeld","3.3.3","3","y","0","right","return","right","right","NA","818","39806","5449","818","NA","2","legacy","3","1024","2","48000","-16","experiment","1","odd","6","179430","169824","177174","2425","121942","177187","176111","2443","116492","182269","178208","181450","42272","181450","NA","Sternberg task","17","17527","22","yes","1024"
"78.26086956521739","78.26086956521739","789.2173913043479","789.2173913043479","black","experiment","legacy","legacy","legacy","0","uniform","1","undefined","1","right","22","22","22","0","0","22","22","0","0","22","22","22","0","22","0","Sun Oct 18 17:39:56 2020","The main experiment item","yes","Sternbergtask.osexp","/Users/shelia","no","mono","no","18","no","white","no","yes","768","legacy","10","11","/Users/shelia/Desktop/subject-1 Oct 18.csv","legacy","2 8 9 4 1","Lentiform Loewenfeld","3.3.3","0","n","0","right","return","right","right","NA","625","39806","5449","625","NA","2","legacy","5","1024","2","48000","-16","experiment","1","odd","5","185601","169824","183345","2425","121942","183358","182283","2443","116492","188247","184378","187621","42272","187621","NA","Sternberg task","18","18152","23","yes","1024"
"79.16666666666667","79.16666666666667","780.5","780.5","black","experiment","legacy","legacy","legacy","0","uniform","1","undefined","1","left","23","23","23","0","0","23","23","0","0","23","23","23","0","23","0","Sun Oct 18 17:39:56 2020","The main experiment item","yes","Sternbergtask.osexp","/Users/shelia","no","mono","no","18","no","white","no","yes","768","legacy","11","11","/Users/shelia/Desktop/subject-1 Oct 18.csv","legacy","6 7 8 5","Lentiform Loewenfeld","3.3.3","3","y","0","left","return","right","left","NA","580","39806","5449","580","NA","2","legacy","4","1024","2","48000","-16","experiment","1","odd","8","191581","188261","189325","2425","121942","189338","182283","2443","116492","194181","190358","193600","42272","193600","NA","Sternberg task","19","18732","24","yes","1024"
"80","80","772.12","772.12","black","experiment","legacy","legacy","legacy","0","uniform","1","undefined","1","right","24","24","24","0","0","24","24","0","0","24","24","24","0","24","0","Sun Oct 18 17:39:56 2020","The main experiment item","yes","Sternbergtask.osexp","/Users/shelia","no","mono","no","18","no","white","no","yes","768","legacy","12","11","/Users/shelia/Desktop/subject-1 Oct 18.csv","legacy","3 9 8 1 6 4","Lentiform Loewenfeld","3.3.3","0","n","0","right","return","right","right","NA","571","39806","5449","571","NA","2","legacy","6","1024","2","48000","-16","experiment","1","odd","7","197512","194196","195256","2425","121942","195269","182283","2443","116492","200103","196289","199531","42272","199531","NA","Sternberg task","20","19303","25","yes","1024"
"80.76923076923077","80.76923076923077","765.1153846153846","765.1153846153846","black","experiment","legacy","legacy","legacy","0","uniform","1","undefined","1","right","25","25","25","0","0","25","25","0","0","25","25","25","0","25","0","Sun Oct 18 17:39:56 2020","The main experiment item","yes","Sternbergtask.osexp","/Users/shelia","no","mono","no","18","no","white","no","yes","768","legacy","13","11","/Users/shelia/Desktop/subject-1 Oct 18.csv","legacy","6 9 7 3 8 2","Lentiform Loewenfeld","3.3.3","0","n","0","right","return","right","right","NA","590","39806","5449","590","NA","2","legacy","6","1024","2","48000","-16","experiment","1","odd","5","203438","200118","201181","2425","121942","201194","182283","2443","116492","206048","202215","205457","42272","205457","NA","Sternberg task","21","19893","26","yes","1024"
"81.48148148148148","81.48148148148148","764.7407407407408","764.7407407407408","black","experiment","legacy","legacy","legacy","0","uniform","1","undefined","1","left","26","26","26","0","0","26","26","0","0","26","26","26","0","26","0","Sun Oct 18 17:39:56 2020","The main experiment item","yes","Sternbergtask.osexp","/Users/shelia","no","mono","no","18","no","white","no","yes","768","legacy","14","11","/Users/shelia/Desktop/subject-1 Oct 18.csv","legacy","9 5 3 8 4","Lentiform Loewenfeld","3.3.3","1","y","0","left","return","right","left","NA","755","39806","5449","755","NA","2","legacy","5","1024","2","48000","-16","experiment","1","odd","9","209382","206063","207126","2425","121942","207139","182283","2443","116492","212157","208159","211401","42272","211401","NA","Sternberg task","22","20648","27","yes","1024"
"82.14285714285714","82.14285714285714","757.8214285714286","757.8214285714286","black","experiment","legacy","legacy","legacy","0","uniform","1","undefined","1","right","27","27","27","0","0","27","27","0","0","27","27","27","0","27","0","Sun Oct 18 17:39:56 2020","The main experiment item","yes","Sternbergtask.osexp","/Users/shelia","no","mono","no","18","no","white","no","yes","768","legacy","15","11","/Users/shelia/Desktop/subject-1 Oct 18.csv","legacy","1 6 4 3 9 7","Lentiform Loewenfeld","3.3.3","0","n","0","right","return","right","right","NA","571","39806","5449","571","NA","2","legacy","6","1024","2","48000","-16","experiment","1","odd","8","215490","212173","213234","2425","121942","213247","182283","2443","116492","218082","214268","217510","42272","217510","NA","Sternberg task","23","21219","28","yes","1024"
"82.75862068965517","82.75862068965517","775.6206896551724","775.6206896551724","black","experiment","legacy","legacy","legacy","0","uniform","1","undefined","1","left","28","28","28","0","0","28","28","0","0","28","28","28","0","28","0","Sun Oct 18 17:39:56 2020","The main experiment item","yes","Sternbergtask.osexp","/Users/shelia","no","mono","no","18","no","white","no","yes","768","legacy","16","11","/Users/shelia/Desktop/subject-1 Oct 18.csv","legacy","3 5 7 1","Lentiform Loewenfeld","3.3.3","3","y","0","left","return","right","left","NA","1274","39806","5449","1274","NA","2","legacy","4","1024","2","48000","-16","experiment","1","odd","7","221409","218098","219162","2425","121942","219175","182283","2443","116492","224703","220195","223428","42272","223427","NA","Sternberg task","24","22493","29","yes","1024"
"80","80","767.9333333333333","767.9333333333333","black","experiment","legacy","legacy","legacy","0","uniform","0","undefined","0","left","29","29","29","0","0","29","29","0","0","29","29","29","0","29","0","Sun Oct 18 17:39:56 2020","The main experiment item","yes","Sternbergtask.osexp","/Users/shelia","no","mono","no","18","no","white","no","yes","768","legacy","17","11","/Users/shelia/Desktop/subject-1 Oct 18.csv","legacy","4 6 2 5 1","Lentiform Loewenfeld","3.3.3","5","y","0","right","return","right","right","NA","545","39806","5449","545","NA","2","legacy","5","1024","2","48000","-16","experiment","1","odd","1","228038","224718","225781","2425","121942","225795","182283","2443","116492","230602","226815","230057","42272","230057","NA","Sternberg task","24","23038","30","yes","1024"
"80.64516129032258","80.64516129032258","764.0322580645161","764.0322580645161","black","experiment","legacy","legacy","legacy","0","uniform","1","undefined","1","left","30","30","30","0","0","30","30","0","0","30","30","30","0","30","0","Sun Oct 18 17:39:56 2020","The main experiment item","yes","Sternbergtask.osexp","/Users/shelia","no","mono","no","18","no","white","no","yes","768","legacy","18","11","/Users/shelia/Desktop/subject-1 Oct 18.csv","legacy","3 4 9 6 2 9","Lentiform Loewenfeld","3.3.3","5","y","0","left","return","right","left","NA","647","39806","5449","647","NA","2","legacy","6","1024","2","48000","-16","experiment","1","odd","2","233935","224718","231679","2425","121942","231692","230618","2443","116492","236602","232713","235954","42272","235954","NA","Sternberg task","25","23685","31","yes","1024"
"81.25","81.25","772.78125","772.78125","black","experiment","legacy","legacy","legacy","0","uniform","1","undefined","1","left","31","31","31","0","0","31","31","0","0","31","31","31","0","31","0","Sun Oct 18 17:39:56 2020","The main experiment item","yes","Sternbergtask.osexp","/Users/shelia","no","mono","no","18","no","white","no","yes","768","legacy","19","11","/Users/shelia/Desktop/subject-1 Oct 18.csv","legacy","4 9 7 8 5 3","Lentiform Loewenfeld","3.3.3","4","y","0","left","return","right","left","NA","1044","39806","5449","1044","NA","2","legacy","6","1024","2","48000","-16","experiment","1","odd","8","239936","236617","237679","2425","121942","237692","230618","2443","116492","243000","238713","241955","42272","241955","NA","Sternberg task","26","24729","32","yes","1024"
"81.81818181818181","81.81818181818181","779.3636363636364","779.3636363636364","black","experiment","legacy","legacy","legacy","0","uniform","1","undefined","1","right","32","32","32","0","0","32","32","0","0","32","32","32","0","32","0","Sun Oct 18 17:39:56 2020","The main experiment item","yes","Sternbergtask.osexp","/Users/shelia","no","mono","no","18","no","white","no","yes","768","legacy","20","11","/Users/shelia/Desktop/subject-1 Oct 18.csv","legacy","5","Lentiform Loewenfeld","3.3.3","0","n","0","right","return","right","right","NA","990","39806","5449","990","NA","2","legacy","1","1024","2","48000","-16","experiment","1","odd","8","246331","243014","244074","2425","121942","244087","230618","2443","116492","249341","245108","248350","42272","248350","NA","Sternberg task","27","25719","33","yes","1024"
"82.3529411764706","82.3529411764706","778.8235294117648","778.8235294117648","black","experiment","legacy","legacy","legacy","0","uniform","1","undefined","1","right","33","33","33","0","0","33","33","0","0","33","33","33","0","33","0","Sun Oct 18 17:39:56 2020","The main experiment item","yes","Sternbergtask.osexp","/Users/shelia","no","mono","no","18","no","white","no","yes","768","legacy","21","11","/Users/shelia/Desktop/subject-1 Oct 18.csv","legacy","1 4 9 2 5","Lentiform Loewenfeld","3.3.3","0","n","0","right","return","right","right","NA","761","39806","5449","761","NA","2","legacy","5","1024","2","48000","-16","experiment","1","odd","7","252677","249357","250420","2425","121942","250433","230618","2443","116492","255458","251454","254697","42272","254697","NA","Sternberg task","28","26480","34","yes","1024"
"82.85714285714286","82.85714285714286","782.8857142857142","782.8857142857142","black","experiment","legacy","legacy","legacy","0","uniform","1","undefined","1","left","34","34","34","0","0","34","34","0","0","34","34","34","0","34","0","Sun Oct 18 17:39:56 2020","The main experiment item","yes","Sternbergtask.osexp","/Users/shelia","no","mono","no","18","no","white","no","yes","768","legacy","22","11","/Users/shelia/Desktop/subject-1 Oct 18.csv","legacy","7 6","Lentiform Loewenfeld","3.3.3","2","y","0","left","return","right","left","NA","921","39806","5449","921","NA","2","legacy","2","1024","2","48000","-16","experiment","1","odd","6","258793","255473","256537","2425","121942","256550","230618","2443","116492","261734","257570","260812","42272","260812","NA","Sternberg task","29","27401","35","yes","1024"
"83.33333333333333","83.33333333333333","780.6666666666666","780.6666666666666","black","experiment","legacy","legacy","legacy","0","uniform","1","undefined","1","right","35","35","35","0","0","35","35","0","0","35","35","35","0","35","0","Sun Oct 18 17:39:56 2020","The main experiment item","yes","Sternbergtask.osexp","/Users/shelia","no","mono","no","18","no","white","no","yes","768","legacy","23","11","/Users/shelia/Desktop/subject-1 Oct 18.csv","legacy","2 8 7 9 5 3","Lentiform Loewenfeld","3.3.3","0","n","0","right","return","right","right","NA","703","39806","5449","703","NA","2","legacy","6","1024","2","48000","-16","experiment","1","odd","6","265068","261748","262811","2425","121942","262824","230618","2443","116492","267791","263846","267087","42272","267087","NA","Sternberg task","30","28104","36","yes","1024"
"83.78378378378379","83.78378378378379","776.972972972973","776.972972972973","black","experiment","legacy","legacy","legacy","0","uniform","1","undefined","1","right","36","36","36","0","0","36","36","0","0","36","36","36","0","36","0","Sun Oct 18 17:39:56 2020","The main experiment item","yes","Sternbergtask.osexp","/Users/shelia","no","mono","no","18","no","white","no","yes","768","legacy","24","11","/Users/shelia/Desktop/subject-1 Oct 18.csv","legacy","2 8 6 3 1","Lentiform Loewenfeld","3.3.3","0","n","0","right","return","right","right","NA","644","39806","5449","644","NA","2","legacy","5","1024","2","48000","-16","experiment","1","odd","7","271124","267806","268867","2425","121942","268880","230618","2443","116492","273788","269901","273143","42272","273143","NA","Sternberg task","31","28748","37","yes","1024"
"84.21052631578948","84.21052631578948","777","777","black","experiment","legacy","legacy","legacy","0","uniform","1","undefined","1","right","37","37","37","0","0","37","37","0","0","37","37","37","0","37","0","Sun Oct 18 17:39:56 2020","The main experiment item","yes","Sternbergtask.osexp","/Users/shelia","no","mono","no","18","no","white","no","yes","768","legacy","25","11","/Users/shelia/Desktop/subject-1 Oct 18.csv","legacy","3 4 9 6 7 8","Lentiform Loewenfeld","3.3.3","0","n","0","right","return","right","right","NA","778","39806","5449","778","NA","2","legacy","6","1024","2","48000","-16","experiment","1","odd","2","277123","273803","274867","2425","121942","274880","230618","2443","116492","279922","275901","279143","42272","279143","NA","Sternberg task","32","29526","38","yes","1024"
"84.61538461538461","84.61538461538461","782.7948717948718","782.7948717948718","black","experiment","legacy","legacy","legacy","0","uniform","1","undefined","1","left","38","38","38","0","0","38","38","0","0","38","38","38","0","38","0","Sun Oct 18 17:39:56 2020","The main experiment item","yes","Sternbergtask.osexp","/Users/shelia","no","mono","no","18","no","white","no","yes","768","legacy","26","11","/Users/shelia/Desktop/subject-1 Oct 18.csv","legacy","8 9 6 1","Lentiform Loewenfeld","3.3.3","2","y","0","left","return","right","left","NA","1003","39806","5449","1003","NA","2","legacy","4","1024","2","48000","-16","experiment","1","odd","9","283255","279937","281000","2425","121942","281012","230618","2443","116492","286279","282033","285275","42272","285275","NA","Sternberg task","33","30529","39","yes","1024"
"85","85","782.875","782.875","black","experiment","legacy","legacy","legacy","0","uniform","1","undefined","1","right","39","39","39","0","0","39","39","0","0","39","39","39","0","39","0","Sun Oct 18 17:39:56 2020","The main experiment item","yes","Sternbergtask.osexp","/Users/shelia","no","mono","no","18","no","white","no","yes","768","legacy","27","11","/Users/shelia/Desktop/subject-1 Oct 18.csv","legacy","2 6 4 3 9","Lentiform Loewenfeld","3.3.3","0","n","0","right","return","right","right","NA","786","39806","5449","786","NA","2","legacy","5","1024","2","48000","-16","experiment","1","odd","1","289613","286293","287356","2425","121942","287369","230618","2443","116492","292419","288390","291633","42272","291633","NA","Sternberg task","34","31315","40","yes","1024"
"85.36585365853658","85.36585365853658","786.5853658536586","786.5853658536586","black","experiment","legacy","legacy","legacy","0","uniform","1","undefined","1","left","40","40","40","0","0","40","40","0","0","40","40","40","0","40","0","Sun Oct 18 17:39:56 2020","The main experiment item","yes","Sternbergtask.osexp","/Users/shelia","no","mono","no","18","no","white","no","yes","768","legacy","28","11","/Users/shelia/Desktop/subject-1 Oct 18.csv","legacy","4 6 5 8","Lentiform Loewenfeld","3.3.3","1","y","0","left","return","right","left","NA","935","39806","5449","935","NA","2","legacy","4","1024","2","48000","-16","experiment","1","odd","4","295753","292435","293496","2425","121942","293509","230618","2443","116492","298707","294530","297772","42272","297772","NA","Sternberg task","35","32250","41","yes","1024"
"85.71428571428571","85.71428571428571","794.3809523809524","794.3809523809524","black","experiment","legacy","legacy","legacy","0","uniform","1","undefined","1","left","41","41","41","0","0","41","41","0","0","41","41","41","0","41","0","Sun Oct 18 17:39:56 2020","The main experiment item","yes","Sternbergtask.osexp","/Users/shelia","no","mono","no","18","no","white","no","yes","768","legacy","29","11","/Users/shelia/Desktop/subject-1 Oct 18.csv","legacy","7 8 4 6 9 5","Lentiform Loewenfeld","3.3.3","4","y","0","left","return","right","left","NA","1114","39806","5449","1114","NA","2","legacy","6","1024","2","48000","-16","experiment","1","odd","6","302042","298722","299786","2425","121942","299799","230618","2443","116492","305176","300820","304061","42272","304061","NA","Sternberg task","36","33364","42","yes","1024"
"86.04651162790698","86.04651162790698","800.8139534883721","800.8139534883721","black","experiment","legacy","legacy","legacy","0","uniform","1","undefined","1","left","42","42","42","0","0","42","42","0","0","42","42","42","0","42","0","Sun Oct 18 17:39:56 2020","The main experiment item","yes","Sternbergtask.osexp","/Users/shelia","no","mono","no","18","no","white","no","yes","768","legacy","30","11","/Users/shelia/Desktop/subject-1 Oct 18.csv","legacy","3 5 9 6 2 4","Lentiform Loewenfeld","3.3.3","1","y","0","left","return","right","left","NA","1071","39806","5449","1071","NA","2","legacy","6","1024","2","48000","-16","experiment","1","odd","3","308510","305192","306255","2425","121942","306268","230618","2443","116492","311601","307288","310529","42272","310529","NA","Sternberg task","37","34435","43","yes","1024"
"86.36363636363636","86.36363636363636","796.6590909090909","796.6590909090909","black","experiment","legacy","legacy","legacy","0","uniform","1","undefined","1","left","43","43","43","0","0","43","43","0","0","43","43","43","0","43","0","Sun Oct 18 17:39:56 2020","The main experiment item","yes","Sternbergtask.osexp","/Users/shelia","no","mono","no","18","no","white","no","yes","768","legacy","31","11","/Users/shelia/Desktop/subject-1 Oct 18.csv","legacy","8 3","Lentiform Loewenfeld","3.3.3","2","y","0","left","return","right","left","NA","618","39806","5449","618","NA","2","legacy","2","1024","2","48000","-16","experiment","1","odd","3","314937","311617","312681","2425","121942","312694","230618","2443","116492","317575","313715","316957","42272","316956","NA","Sternberg task","38","35053","44","yes","1024"
"86.66666666666667","86.66666666666667","811.4666666666667","811.4666666666667","black","experiment","legacy","legacy","legacy","0","uniform","1","undefined","1","left","44","44","44","0","0","44","44","0","0","44","44","44","0","44","0","Sun Oct 18 17:39:56 2020","The main experiment item","yes","Sternbergtask.osexp","/Users/shelia","no","mono","no","18","no","white","no","yes","768","legacy","32","11","/Users/shelia/Desktop/subject-1 Oct 18.csv","legacy","9 3 8 2 1 4","Lentiform Loewenfeld","3.3.3","3","y","0","left","return","right","left","NA","1463","39806","5449","1463","NA","2","legacy","6","1024","2","48000","-16","experiment","1","odd","8","320911","317590","318654","2425","121942","318667","230618","2443","116492","324394","319688","322930","42272","322930","NA","Sternberg task","39","36516","45","yes","1024"
"86.95652173913044","86.95652173913044","812.9347826086956","812.9347826086956","black","experiment","legacy","legacy","legacy","0","uniform","1","undefined","1","right","45","45","45","0","0","45","45","0","0","45","45","45","0","45","0","Sun Oct 18 17:39:56 2020","The main experiment item","yes","Sternbergtask.osexp","/Users/shelia","no","mono","no","18","no","white","no","yes","768","legacy","33","11","/Users/shelia/Desktop/subject-1 Oct 18.csv","legacy","8 5 4 2 9 6","Lentiform Loewenfeld","3.3.3","0","n","0","right","return","right","right","NA","879","39806","5449","879","NA","2","legacy","6","1024","2","48000","-16","experiment","1","odd","3","327727","324409","325470","2425","121942","325483","230618","2443","116492","330627","326504","329747","42272","329746","NA","Sternberg task","40","37395","46","yes","1024"
"87.23404255319149","87.23404255319149","812.0212765957447","812.0212765957447","black","experiment","legacy","legacy","legacy","0","uniform","1","undefined","1","left","46","46","46","0","0","46","46","0","0","46","46","46","0","46","0","Sun Oct 18 17:39:56 2020","The main experiment item","yes","Sternbergtask.osexp","/Users/shelia","no","mono","no","18","no","white","no","yes","768","legacy","34","11","/Users/shelia/Desktop/subject-1 Oct 18.csv","legacy","8 9 5 7 1 6","Lentiform Loewenfeld","3.3.3","4","y","0","left","return","right","left","NA","770","39806","5449","770","NA","2","legacy","6","1024","2","48000","-16","experiment","1","odd","7","333958","330641","331702","2425","121942","331715","230618","2443","116492","336748","332735","335977","42272","335977","NA","Sternberg task","41","38165","47","yes","1024"
"87.5","87.5","809.8958333333334","809.8958333333334","black","experiment","legacy","legacy","legacy","0","uniform","1","undefined","1","right","47","47","47","0","0","47","47","0","0","47","47","47","0","47","0","Sun Oct 18 17:39:56 2020","The main experiment item","yes","Sternbergtask.osexp","/Users/shelia","no","mono","no","18","no","white","no","yes","768","legacy","35","11","/Users/shelia/Desktop/subject-1 Oct 18.csv","legacy","1 5 3 2 8","Lentiform Loewenfeld","3.3.3","0","n","0","right","return","right","right","NA","710","39806","5449","710","NA","2","legacy","5","1024","2","48000","-16","experiment","1","odd","4","340083","336763","337827","2425","121942","337840","230618","2443","116492","342813","338861","342102","42272","342102","NA","Sternberg task","42","38875","48","yes","1024"
"87.75510204081633","87.75510204081633","810.9387755102041","810.9387755102041","black","experiment","legacy","legacy","legacy","0","uniform","1","undefined","1","left","48","48","48","0","0","48","48","0","0","48","48","48","0","48","0","Sun Oct 18 17:39:56 2020","The main experiment item","yes","Sternbergtask.osexp","/Users/shelia","no","mono","no","18","no","white","no","yes","768","legacy","36","11","/Users/shelia/Desktop/subject-1 Oct 18.csv","legacy","6 5","Lentiform Loewenfeld","3.3.3","2","y","0","left","return","right","left","NA","861","39806","5449","861","NA","2","legacy","2","1024","2","48000","-16","experiment","1","odd","5","346145","342827","343890","2425","121942","343904","230618","2443","116492","349026","344922","348164","42272","348164","NA","Sternberg task","43","39736","49","yes","1024"
"86","86","825.94","825.94","black","experiment","legacy","legacy","legacy","0","uniform","0","undefined","0","left","49","49","49","0","0","49","49","0","0","49","49","49","0","49","0","Sun Oct 18 17:39:56 2020","The main experiment item","yes","Sternbergtask.osexp","/Users/shelia","no","mono","no","18","no","white","no","yes","768","legacy","37","11","/Users/shelia/Desktop/subject-1 Oct 18.csv","legacy","3 2 1 4 7","Lentiform Loewenfeld","3.3.3","2","y","0","right","return","right","right","NA","1561","39806","5449","1561","NA","2","legacy","5","1024","2","48000","-16","experiment","1","odd","2","352361","349041","350105","2425","121942","350118","230618","2443","116492","355942","351139","354381","42272","354381","NA","Sternberg task","43","41297","50","yes","1024"
"86.27450980392157","86.27450980392157","823.843137254902","823.843137254902","black","experiment","legacy","legacy","legacy","0","uniform","1","undefined","1","left","50","50","50","0","0","50","50","0","0","50","50","50","0","50","0","Sun Oct 18 17:39:56 2020","The main experiment item","yes","Sternbergtask.osexp","/Users/shelia","no","mono","no","18","no","white","no","yes","768","legacy","38","11","/Users/shelia/Desktop/subject-1 Oct 18.csv","legacy","6 1 2","Lentiform Loewenfeld","3.3.3","3","y","0","left","return","right","left","NA","719","39806","5449","719","NA","2","legacy","3","1024","2","48000","-16","experiment","1","odd","2","359276","349041","357019","2425","121942","357032","355957","2443","116492","362015","358053","361295","42272","361295","NA","Sternberg task","44","42016","51","yes","1024"
"86.53846153846153","86.53846153846153","819.2307692307693","819.2307692307693","black","experiment","legacy","legacy","legacy","0","uniform","1","undefined","1","left","51","51","51","0","0","51","51","0","0","51","51","51","0","51","0","Sun Oct 18 17:39:56 2020","The main experiment item","yes","Sternbergtask.osexp","/Users/shelia","no","mono","no","18","no","white","no","yes","768","legacy","39","11","/Users/shelia/Desktop/subject-1 Oct 18.csv","legacy","2 5 4 8 7","Lentiform Loewenfeld","3.3.3","3","y","0","left","return","right","left","NA","584","39806","5449","584","NA","2","legacy","5","1024","2","48000","-16","experiment","1","odd","4","365351","362030","363094","2425","121942","363107","355957","2443","116492","367955","364128","367370","42272","367370","NA","Sternberg task","45","42600","52","yes","1024"
"86.79245283018868","86.79245283018868","817.1320754716982","817.1320754716982","black","experiment","legacy","legacy","legacy","0","uniform","1","undefined","1","right","52","52","52","0","0","52","52","0","0","52","52","52","0","52","0","Sun Oct 18 17:39:56 2020","The main experiment item","yes","Sternbergtask.osexp","/Users/shelia","no","mono","no","18","no","white","no","yes","768","legacy","40","11","/Users/shelia/Desktop/subject-1 Oct 18.csv","legacy","1","Lentiform Loewenfeld","3.3.3","0","n","0","right","return","right","right","NA","708","39806","5449","708","NA","2","legacy","1","1024","2","48000","-16","experiment","1","odd","7","371290","367971","369033","2425","121942","369046","355957","2443","116492","374018","370067","373309","42272","373309","NA","Sternberg task","46","43308","53","yes","1024"
"87.03703703703704","87.03703703703704","813.3518518518518","813.3518518518518","black","experiment","legacy","legacy","legacy","0","uniform","1","undefined","1","left","53","53","53","0","0","53","53","0","0","53","53","53","0","53","0","Sun Oct 18 17:39:56 2020","The main experiment item","yes","Sternbergtask.osexp","/Users/shelia","no","mono","no","18","no","white","no","yes","768","legacy","41","11","/Users/shelia/Desktop/subject-1 Oct 18.csv","legacy","9 4 2","Lentiform Loewenfeld","3.3.3","1","y","0","left","return","right","left","NA","613","39806","5449","613","NA","2","legacy","3","1024","2","48000","-16","experiment","1","odd","9","377353","374033","375097","2425","121942","375110","355957","2443","116492","379987","376131","379373","42272","379373","NA","Sternberg task","47","43921","54","yes","1024"
"87.27272727272727","87.27272727272727","816.8","816.8","black","experiment","legacy","legacy","legacy","0","uniform","1","undefined","1","right","54","54","54","0","0","54","54","0","0","54","54","54","0","54","0","Sun Oct 18 17:39:56 2020","The main experiment item","yes","Sternbergtask.osexp","/Users/shelia","no","mono","no","18","no","white","no","yes","768","legacy","42","11","/Users/shelia/Desktop/subject-1 Oct 18.csv","legacy","5 3 8 7 2 4","Lentiform Loewenfeld","3.3.3","0","n","0","right","return","right","right","NA","1003","39806","5449","1003","NA","2","legacy","6","1024","2","48000","-16","experiment","1","odd","9","383316","380000","381060","2425","121942","381073","355957","2443","116492","386340","382094","385336","42272","385336","NA","Sternberg task","48","44924","55","yes","1024"
"87.5","87.5","811.4642857142857","811.4642857142857","black","experiment","legacy","legacy","legacy","0","uniform","1","undefined","1","left","55","55","55","0","0","55","55","0","0","55","55","55","0","55","0","Sun Oct 18 17:39:56 2020","The main experiment item","yes","Sternbergtask.osexp","/Users/shelia","no","mono","no","18","no","white","no","yes","768","legacy","43","11","/Users/shelia/Desktop/subject-1 Oct 18.csv","legacy","6 2","Lentiform Loewenfeld","3.3.3","1","y","0","left","return","right","left","NA","518","39806","5449","518","NA","2","legacy","2","1024","2","48000","-16","experiment","1","odd","6","389675","386355","387418","2425","121942","387431","355957","2443","116492","392215","388452","391696","42272","391695","NA","Sternberg task","49","45442","56","yes","1024"
"87.71929824561404","87.71929824561404","815.719298245614","815.719298245614","black","experiment","legacy","legacy","legacy","0","uniform","1","undefined","1","right","56","56","56","0","0","56","56","0","0","56","56","56","0","56","0","Sun Oct 18 17:39:56 2020","The main experiment item","yes","Sternbergtask.osexp","/Users/shelia","no","mono","no","18","no","white","no","yes","768","legacy","44","11","/Users/shelia/Desktop/subject-1 Oct 18.csv","legacy","6 8 4","Lentiform Loewenfeld","3.3.3","0","n","0","right","return","right","right","NA","1054","39806","5449","1054","NA","2","legacy","3","1024","2","48000","-16","experiment","1","odd","1","395547","392230","393291","2425","121942","393303","355957","2443","116492","398621","394324","397566","42272","397566","NA","Sternberg task","50","46496","57","yes","1024"
"87.93103448275862","87.93103448275862","810.5344827586207","810.5344827586207","black","experiment","legacy","legacy","legacy","0","uniform","1","undefined","1","left","57","57","57","0","0","57","57","0","0","57","57","57","0","57","0","Sun Oct 18 17:39:56 2020","The main experiment item","yes","Sternbergtask.osexp","/Users/shelia","no","mono","no","18","no","white","no","yes","768","legacy","45","11","/Users/shelia/Desktop/subject-1 Oct 18.csv","legacy","8 9 5 6 7","Lentiform Loewenfeld","3.3.3","1","y","0","left","return","right","left","NA","515","39806","5449","515","NA","2","legacy","5","1024","2","48000","-16","experiment","1","odd","8","401953","398635","399697","2425","121942","399710","355957","2443","116492","404488","400731","403972","42272","403972","NA","Sternberg task","51","47011","58","yes","1024"
"88.13559322033899","88.13559322033899","810.0677966101695","810.0677966101695","black","experiment","legacy","legacy","legacy","0","uniform","1","undefined","1","right","58","58","58","0","0","58","58","0","0","58","58","58","0","58","0","Sun Oct 18 17:39:56 2020","The main experiment item","yes","Sternbergtask.osexp","/Users/shelia","no","mono","no","18","no","white","no","yes","768","legacy","46","11","/Users/shelia/Desktop/subject-1 Oct 18.csv","legacy","8 4 3 5","Lentiform Loewenfeld","3.3.3","0","n","0","right","return","right","right","NA","783","39806","5449","783","NA","2","legacy","4","1024","2","48000","-16","experiment","1","odd","6","407817","404503","405561","2425","121942","405573","355957","2443","116492","410620","406594","409836","42272","409836","NA","Sternberg task","52","47794","59","yes","1024"
"88.33333333333333","88.33333333333333","807.05","807.05","black","experiment","legacy","legacy","legacy","0","uniform","1","undefined","1","right","59","59","59","0","0","59","59","0","0","59","59","59","0","59","0","Sun Oct 18 17:39:56 2020","The main experiment item","yes","Sternbergtask.osexp","/Users/shelia","no","mono","no","18","no","white","no","yes","768","legacy","47","11","/Users/shelia/Desktop/subject-1 Oct 18.csv","legacy","9","Lentiform Loewenfeld","3.3.3","0","n","0","right","return","right","right","NA","629","39806","5449","629","NA","2","legacy","1","1024","2","48000","-16","experiment","1","odd","6","413955","410634","411698","2425","121942","411711","355957","2443","116492","416604","412733","415974","42272","415974","NA","Sternberg task","53","48423","60","yes","1024"
"88.52459016393442","88.52459016393442","804.4590163934427","804.4590163934427","black","experiment","legacy","legacy","legacy","0","uniform","1","undefined","1","left","60","60","60","0","0","60","60","0","0","60","60","60","0","60","0","Sun Oct 18 17:39:56 2020","The main experiment item","yes","Sternbergtask.osexp","/Users/shelia","no","mono","no","18","no","white","no","yes","768","legacy","48","11","/Users/shelia/Desktop/subject-1 Oct 18.csv","legacy","7 1 3","Lentiform Loewenfeld","3.3.3","2","y","0","left","return","right","left","NA","649","39806","5449","649","NA","2","legacy","3","1024","2","48000","-16","experiment","1","odd","1","419940","416619","417683","2425","121942","417696","355957","2443","116492","422609","418717","421959","42272","421959","NA","Sternberg task","54","49072","61","yes","1024"
"87.09677419354838","87.09677419354838","812.6774193548387","812.6774193548387","black","experiment","legacy","legacy","legacy","0","uniform","0","undefined","0","left","61","61","61","0","0","61","61","0","0","61","61","61","0","61","0","Sun Oct 18 17:39:56 2020","The main experiment item","yes","Sternbergtask.osexp","/Users/shelia","no","mono","no","18","no","white","no","yes","768","legacy","49","11","/Users/shelia/Desktop/subject-1 Oct 18.csv","legacy","6 9 7 4 5 1","Lentiform Loewenfeld","3.3.3","2","y","0","right","return","right","right","NA","1314","39806","5449","1314","NA","2","legacy","6","1024","2","48000","-16","experiment","1","odd","9","425944","422625","423688","2425","121942","423700","355957","2443","116492","429278","424722","427963","42272","427963","NA","Sternberg task","54","50386","62","yes","1024"
"87.3015873015873","87.3015873015873","810.8412698412699","810.8412698412699","black","experiment","legacy","legacy","legacy","0","uniform","1","undefined","1","right","62","62","62","0","0","62","62","0","0","62","62","62","0","62","0","Sun Oct 18 17:39:56 2020","The main experiment item","yes","Sternbergtask.osexp","/Users/shelia","no","mono","no","18","no","white","no","yes","768","legacy","50","11","/Users/shelia/Desktop/subject-1 Oct 18.csv","legacy","1 7 5 2","Lentiform Loewenfeld","3.3.3","0","n","0","right","return","right","right","NA","697","39806","5449","697","NA","2","legacy","4","1024","2","48000","-16","experiment","1","odd","3","432614","422625","430357","2425","121942","430370","429294","2443","116492","435330","431391","434633","42272","434633","NA","Sternberg task","55","51083","63","yes","1024"
"87.5","87.5","807.640625","807.640625","black","experiment","legacy","legacy","legacy","0","uniform","1","undefined","1","right","63","63","63","0","0","63","63","0","0","63","63","63","0","63","0","Sun Oct 18 17:39:56 2020","The main experiment item","yes","Sternbergtask.osexp","/Users/shelia","no","mono","no","18","no","white","no","yes","768","legacy","51","11","/Users/shelia/Desktop/subject-1 Oct 18.csv","legacy","6 7 5 9","Lentiform Loewenfeld","3.3.3","0","n","0","right","return","right","right","NA","606","39806","5449","606","NA","2","legacy","4","1024","2","48000","-16","experiment","1","odd","2","438666","435346","436409","2425","121942","436422","429294","2443","116492","441293","437443","440686","42272","440686","NA","Sternberg task","56","51689","64","yes","1024"
"87.6923076923077","87.6923076923077","806.5384615384615","806.5384615384615","black","experiment","legacy","legacy","legacy","0","uniform","1","undefined","1","right","64","64","64","0","0","64","64","0","0","64","64","64","0","64","0","Sun Oct 18 17:39:56 2020","The main experiment item","yes","Sternbergtask.osexp","/Users/shelia","no","mono","no","18","no","white","no","yes","768","legacy","52","11","/Users/shelia/Desktop/subject-1 Oct 18.csv","legacy","5 2","Lentiform Loewenfeld","3.3.3","0","n","0","right","return","right","right","NA","736","39806","5449","736","NA","2","legacy","2","1024","2","48000","-16","experiment","1","odd","7","444627","441308","442371","2425","121942","442384","429294","2443","116492","447383","443405","446647","42272","446647","NA","Sternberg task","57","52425","65","yes","1024"
"87.87878787878788","87.87878787878788","802.4242424242424","802.4242424242424","black","experiment","legacy","legacy","legacy","0","uniform","1","undefined","1","right","65","65","65","0","0","65","65","0","0","65","65","65","0","65","0","Sun Oct 18 17:39:56 2020","The main experiment item","yes","Sternbergtask.osexp","/Users/shelia","no","mono","no","18","no","white","no","yes","768","legacy","53","11","/Users/shelia/Desktop/subject-1 Oct 18.csv","legacy","4 8 1 2","Lentiform Loewenfeld","3.3.3","0","n","0","right","return","right","right","NA","535","39806","5449","535","NA","2","legacy","4","1024","2","48000","-16","experiment","1","odd","7","450716","447398","448458","2425","121942","448472","429294","2443","116492","453271","449492","452735","42272","452735","NA","Sternberg task","58","52960","66","yes","1024"
"88.05970149253731","88.05970149253731","801.4328358208955","801.4328358208955","black","experiment","legacy","legacy","legacy","0","uniform","1","undefined","1","right","66","66","66","0","0","66","66","0","0","66","66","66","0","66","0","Sun Oct 18 17:39:56 2020","The main experiment item","yes","Sternbergtask.osexp","/Users/shelia","no","mono","no","18","no","white","no","yes","768","legacy","54","11","/Users/shelia/Desktop/subject-1 Oct 18.csv","legacy","7 1","Lentiform Loewenfeld","3.3.3","0","n","0","right","return","right","right","NA","736","39806","5449","736","NA","2","legacy","2","1024","2","48000","-16","experiment","1","odd","8","456603","453286","454346","2425","121942","454359","429294","2443","116492","459359","455380","458622","42272","458622","NA","Sternberg task","59","53696","67","yes","1024"
"88.23529411764706","88.23529411764706","797.9411764705883","797.9411764705883","black","experiment","legacy","legacy","legacy","0","uniform","1","undefined","1","right","67","67","67","0","0","67","67","0","0","67","67","67","0","67","0","Sun Oct 18 17:39:56 2020","The main experiment item","yes","Sternbergtask.osexp","/Users/shelia","no","mono","no","18","no","white","no","yes","768","legacy","55","11","/Users/shelia/Desktop/subject-1 Oct 18.csv","legacy","7 6 4 8 1 2","Lentiform Loewenfeld","3.3.3","0","n","0","right","return","right","right","NA","564","39806","5449","564","NA","2","legacy","6","1024","2","48000","-16","experiment","1","odd","9","462693","459374","460436","2425","121942","460449","429294","2443","116492","465277","461470","464712","42272","464712","NA","Sternberg task","60","54260","68","yes","1024"
"88.40579710144928","88.40579710144928","794.5507246376811","794.5507246376811","black","experiment","legacy","legacy","legacy","0","uniform","1","undefined","1","right","68","68","68","0","0","68","68","0","0","68","68","68","0","68","0","Sun Oct 18 17:39:56 2020","The main experiment item","yes","Sternbergtask.osexp","/Users/shelia","no","mono","no","18","no","white","no","yes","768","legacy","56","11","/Users/shelia/Desktop/subject-1 Oct 18.csv","legacy","2 5 1 4","Lentiform Loewenfeld","3.3.3","0","n","0","right","return","right","right","NA","564","39806","5449","564","NA","2","legacy","4","1024","2","48000","-16","experiment","1","odd","6","468613","465293","466356","2425","121942","466370","429294","2443","116492","471196","467391","470632","42272","470632","NA","Sternberg task","61","54824","69","yes","1024"
"88.57142857142857","88.57142857142857","797.8714285714286","797.8714285714286","black","experiment","legacy","legacy","legacy","0","uniform","1","undefined","1","left","69","69","69","0","0","69","69","0","0","69","69","69","0","69","0","Sun Oct 18 17:39:56 2020","The main experiment item","yes","Sternbergtask.osexp","/Users/shelia","no","mono","no","18","no","white","no","yes","768","legacy","57","11","/Users/shelia/Desktop/subject-1 Oct 18.csv","legacy","9 5 8 1","Lentiform Loewenfeld","3.3.3","2","y","0","left","return","right","left","NA","1027","39806","5449","1027","NA","2","legacy","4","1024","2","48000","-16","experiment","1","odd","5","474532","471211","472274","2425","121942","472288","429294","2443","116492","477578","473309","476551","42272","476551","NA","Sternberg task","62","55851","70","yes","1024"
"88.73239436619718","88.73239436619718","797.8169014084507","797.8169014084507","black","experiment","legacy","legacy","legacy","0","uniform","1","undefined","1","left","70","70","70","0","0","70","70","0","0","70","70","70","0","70","0","Sun Oct 18 17:39:56 2020","The main experiment item","yes","Sternbergtask.osexp","/Users/shelia","no","mono","no","18","no","white","no","yes","768","legacy","58","11","/Users/shelia/Desktop/subject-1 Oct 18.csv","legacy","8 5 3 7 4 6","Lentiform Loewenfeld","3.3.3","6","y","0","left","return","right","left","NA","794","39806","5449","794","NA","2","legacy","6","1024","2","48000","-16","experiment","1","odd","6","480914","477593","478657","2425","121942","478670","429294","2443","116492","483728","479692","482933","42272","482933","NA","Sternberg task","63","56645","71","yes","1024"
"88.88888888888889","88.88888888888889","797.5138888888889","797.5138888888889","black","experiment","legacy","legacy","legacy","0","uniform","1","undefined","1","left","71","71","71","0","0","71","71","0","0","71","71","71","0","71","0","Sun Oct 18 17:39:56 2020","The main experiment item","yes","Sternbergtask.osexp","/Users/shelia","no","mono","no","18","no","white","no","yes","768","legacy","59","11","/Users/shelia/Desktop/subject-1 Oct 18.csv","legacy","8 7 3","Lentiform Loewenfeld","3.3.3","1","y","0","left","return","right","left","NA","776","39806","5449","776","NA","2","legacy","3","1024","2","48000","-16","experiment","1","odd","8","487062","483743","484806","2425","121942","484819","429294","2443","116492","489858","485840","489081","42272","489081","NA","Sternberg task","64","57421","72","yes","1024"
"89.04109589041096","89.04109589041096","794.4657534246576","794.4657534246576","black","experiment","legacy","legacy","legacy","0","uniform","1","undefined","1","left","72","72","72","0","0","72","72","0","0","72","72","72","0","72","0","Sun Oct 18 17:39:56 2020","The main experiment item","yes","Sternbergtask.osexp","/Users/shelia","no","mono","no","18","no","white","no","yes","768","legacy","60","11","/Users/shelia/Desktop/subject-1 Oct 18.csv","legacy","2 3","Lentiform Loewenfeld","3.3.3","1","y","0","left","return","right","left","NA","575","39806","5449","575","NA","2","legacy","2","1024","2","48000","-16","experiment","1","odd","2","493189","489873","490933","2425","121942","490946","429294","2443","116492","495784","491967","495208","42272","495208","NA","Sternberg task","65","57996","73","yes","1024"
"87.83783783783784","87.83783783783784","795.972972972973","795.972972972973","black","experiment","legacy","legacy","legacy","0","uniform","0","undefined","0","left","73","73","73","0","0","73","73","0","0","73","73","73","0","73","0","Sun Oct 18 17:39:56 2020","The main experiment item","yes","Sternbergtask.osexp","/Users/shelia","no","mono","no","18","no","white","no","yes","768","legacy","61","11","/Users/shelia/Desktop/subject-1 Oct 18.csv","legacy","6 8 9 3 4 9","Lentiform Loewenfeld","3.3.3","5","y","0","right","return","right","right","NA","906","39806","5449","906","NA","2","legacy","6","1024","2","48000","-16","experiment","1","odd","4","499119","495799","496863","2425","121942","496876","429294","2443","116492","502045","497897","501138","42272","501138","NA","Sternberg task","65","58902","74","yes","1024"
"88","88","796.48","796.48","black","experiment","legacy","legacy","legacy","0","uniform","1","undefined","1","left","74","74","74","0","0","74","74","0","0","74","74","74","0","74","0","Sun Oct 18 17:39:56 2020","The main experiment item","yes","Sternbergtask.osexp","/Users/shelia","no","mono","no","18","no","white","no","yes","768","legacy","62","11","/Users/shelia/Desktop/subject-1 Oct 18.csv","legacy","4 1 5","Lentiform Loewenfeld","3.3.3","2","y","0","left","return","right","left","NA","834","39806","5449","834","NA","2","legacy","3","1024","2","48000","-16","experiment","1","odd","1","505377","495799","503120","2425","121942","503133","502060","2443","116492","508231","504154","507396","42272","507396","NA","Sternberg task","66","59736","75","yes","1024"
"88.15789473684211","88.15789473684211","795.1578947368421","795.1578947368421","black","experiment","legacy","legacy","legacy","0","uniform","1","undefined","1","left","75","75","75","0","0","75","75","0","0","75","75","75","0","75","0","Sun Oct 18 17:39:56 2020","The main experiment item","yes","Sternbergtask.osexp","/Users/shelia","no","mono","no","18","no","white","no","yes","768","legacy","63","11","/Users/shelia/Desktop/subject-1 Oct 18.csv","legacy","3 9 7 6 4","Lentiform Loewenfeld","3.3.3","3","y","0","left","return","right","left","NA","696","39806","5449","696","NA","2","legacy","5","1024","2","48000","-16","experiment","1","odd","7","511565","508246","509309","2425","121942","509322","502060","2443","116492","514281","510342","513584","42272","513584","NA","Sternberg task","67","60432","76","yes","1024"
"88.31168831168831","88.31168831168831","791.5714285714286","791.5714285714286","black","experiment","legacy","legacy","legacy","0","uniform","1","undefined","1","left","76","76","76","0","0","76","76","0","0","76","76","76","0","76","0","Sun Oct 18 17:39:56 2020","The main experiment item","yes","Sternbergtask.osexp","/Users/shelia","no","mono","no","18","no","white","no","yes","768","legacy","64","11","/Users/shelia/Desktop/subject-1 Oct 18.csv","legacy","9 8 4","Lentiform Loewenfeld","3.3.3","1","y","0","left","return","right","left","NA","519","39806","5449","519","NA","2","legacy","3","1024","2","48000","-16","experiment","1","odd","9","517615","514296","515359","2425","121942","515372","502060","2443","116492","520154","516392","519634","42272","519634","NA","Sternberg task","68","60951","77","yes","1024"
"88.46153846153847","88.46153846153847","790.1025641025641","790.1025641025641","black","experiment","legacy","legacy","legacy","0","uniform","1","undefined","1","left","77","77","77","0","0","77","77","0","0","77","77","77","0","77","0","Sun Oct 18 17:39:56 2020","The main experiment item","yes","Sternbergtask.osexp","/Users/shelia","no","mono","no","18","no","white","no","yes","768","legacy","65","11","/Users/shelia/Desktop/subject-1 Oct 18.csv","legacy","9 3 1 2 5","Lentiform Loewenfeld","3.3.3","4","y","0","left","return","right","left","NA","677","39806","5449","677","NA","2","legacy","5","1024","2","48000","-16","experiment","1","odd","2","523489","520169","521233","2425","121942","521246","502060","2443","116492","526187","522267","525509","42272","525509","NA","Sternberg task","69","61628","78","yes","1024"
"88.60759493670886","88.60759493670886","787.506329113924","787.506329113924","black","experiment","legacy","legacy","legacy","0","uniform","1","undefined","1","left","78","78","78","0","0","78","78","0","0","78","78","78","0","78","0","Sun Oct 18 17:39:56 2020","The main experiment item","yes","Sternbergtask.osexp","/Users/shelia","no","mono","no","18","no","white","no","yes","768","legacy","66","11","/Users/shelia/Desktop/subject-1 Oct 18.csv","legacy","9 1 6 7 8","Lentiform Loewenfeld","3.3.3","1","y","0","left","return","right","left","NA","585","39806","5449","585","NA","2","legacy","5","1024","2","48000","-16","experiment","1","odd","9","529522","526201","527264","2425","121942","527278","502060","2443","116492","532127","528299","531541","42272","531541","NA","Sternberg task","70","62213","79","yes","1024"
"88.75","88.75","796.1375","796.1375","black","experiment","legacy","legacy","legacy","0","uniform","1","undefined","1","left","79","79","79","0","0","79","79","0","0","79","79","79","0","79","0","Sun Oct 18 17:39:56 2020","The main experiment item","yes","Sternbergtask.osexp","/Users/shelia","no","mono","no","18","no","white","no","yes","768","legacy","67","11","/Users/shelia/Desktop/subject-1 Oct 18.csv","legacy","8 5 4 7 3 1","Lentiform Loewenfeld","3.3.3","2","y","0","left","return","right","left","NA","1478","39806","5449","1478","NA","2","legacy","6","1024","2","48000","-16","experiment","1","odd","5","535461","532140","533205","2425","121942","533218","502060","2443","116492","538961","534239","537482","42272","537481","NA","Sternberg task","71","63691","80","yes","1024"
"88.88888888888889","88.88888888888889","799.3086419753087","799.3086419753087","black","experiment","legacy","legacy","legacy","0","uniform","1","undefined","1","right","80","80","80","0","0","80","80","0","0","80","80","80","0","80","0","Sun Oct 18 17:39:56 2020","The main experiment item","yes","Sternbergtask.osexp","/Users/shelia","no","mono","no","18","no","white","no","yes","768","legacy","68","11","/Users/shelia/Desktop/subject-1 Oct 18.csv","legacy","3 4 2","Lentiform Loewenfeld","3.3.3","0","n","0","right","return","right","right","NA","1053","39806","5449","1053","NA","2","legacy","3","1024","2","48000","-16","experiment","1","odd","5","542295","538977","540039","2425","121942","540052","502060","2443","116492","545368","541073","544314","42272","544314","NA","Sternberg task","72","64744","81","yes","1024"
"89.02439024390245","89.02439024390245","799.9512195121952","799.9512195121952","black","experiment","legacy","legacy","legacy","0","uniform","1","undefined","1","left","81","81","81","0","0","81","81","0","0","81","81","81","0","81","0","Sun Oct 18 17:39:56 2020","The main experiment item","yes","Sternbergtask.osexp","/Users/shelia","no","mono","no","18","no","white","no","yes","768","legacy","69","11","/Users/shelia/Desktop/subject-1 Oct 18.csv","legacy","2 6 1 7 4","Lentiform Loewenfeld","3.3.3","2","y","0","left","return","right","left","NA","852","39806","5449","852","NA","2","legacy","5","1024","2","48000","-16","experiment","1","odd","6","548704","545384","546447","2425","121942","546460","502060","2443","116492","551576","547481","550723","42272","550723","NA","Sternberg task","73","65596","82","yes","1024"
"89.1566265060241","89.1566265060241","802.5783132530121","802.5783132530121","black","experiment","legacy","legacy","legacy","0","uniform","1","undefined","1","right","82","82","82","0","0","82","82","0","0","82","82","82","0","82","0","Sun Oct 18 17:39:56 2020","The main experiment item","yes","Sternbergtask.osexp","/Users/shelia","no","mono","no","18","no","white","no","yes","768","legacy","70","11","/Users/shelia/Desktop/subject-1 Oct 18.csv","legacy","1 4 3 6 5","Lentiform Loewenfeld","3.3.3","0","n","0","right","return","right","right","NA","1018","39806","5449","1018","NA","2","legacy","5","1024","2","48000","-16","experiment","1","odd","8","554906","551591","552651","2425","121942","552664","502060","2443","116492","557944","553686","556925","42272","556925","NA","Sternberg task","74","66614","83","yes","1024"
"89.28571428571429","89.28571428571429","806.3095238095239","806.3095238095239","black","experiment","legacy","legacy","legacy","0","uniform","1","undefined","1","left","83","83","83","0","0","83","83","0","0","83","83","83","0","83","0","Sun Oct 18 17:39:56 2020","The main experiment item","yes","Sternbergtask.osexp","/Users/shelia","no","mono","no","18","no","white","no","yes","768","legacy","71","11","/Users/shelia/Desktop/subject-1 Oct 18.csv","legacy","4 7 6 8 2 3","Lentiform Loewenfeld","3.3.3","6","y","0","left","return","right","left","NA","1116","39806","5449","1116","NA","2","legacy","6","1024","2","48000","-16","experiment","1","odd","3","561276","557958","559020","2425","121942","559033","502060","2443","116492","564413","560053","563296","42272","563295","NA","Sternberg task","75","67730","84","yes","1024"
"89.41176470588235","89.41176470588235","803.1294117647059","803.1294117647059","black","experiment","legacy","legacy","legacy","0","uniform","1","undefined","1","left","84","84","84","0","0","84","84","0","0","84","84","84","0","84","0","Sun Oct 18 17:39:56 2020","The main experiment item","yes","Sternbergtask.osexp","/Users/shelia","no","mono","no","18","no","white","no","yes","768","legacy","72","11","/Users/shelia/Desktop/subject-1 Oct 18.csv","legacy","3 4","Lentiform Loewenfeld","3.3.3","1","y","0","left","return","right","left","NA","536","39806","5449","536","NA","2","legacy","2","1024","2","48000","-16","experiment","1","odd","3","567745","564428","565488","2425","121942","565501","502060","2443","116492","570301","566522","569764","42272","569764","NA","Sternberg task","76","68266","85","yes","1024"
"89.53488372093024","89.53488372093024","807.3604651162791","807.3604651162791","black","experiment","legacy","legacy","legacy","0","uniform","1","undefined","1","right","85","85","85","0","0","85","85","0","0","85","85","85","0","85","0","Sun Oct 18 17:39:56 2020","The main experiment item","yes","Sternbergtask.osexp","/Users/shelia","no","mono","no","18","no","white","no","yes","768","legacy","73","11","/Users/shelia/Desktop/subject-1 Oct 18.csv","legacy","8 6 3 4 7","Lentiform Loewenfeld","3.3.3","0","n","0","right","return","right","right","NA","1167","39806","5449","1167","NA","2","legacy","5","1024","2","48000","-16","experiment","1","odd","1","573635","570317","571378","2425","121942","571391","502060","2443","116492","576822","572412","575654","42272","575654","NA","Sternberg task","77","69433","86","yes","1024"
"89.65517241379311","89.65517241379311","804.3103448275862","804.3103448275862","black","experiment","legacy","legacy","legacy","0","uniform","1","undefined","1","left","86","86","86","0","0","86","86","0","0","86","86","86","0","86","0","Sun Oct 18 17:39:56 2020","The main experiment item","yes","Sternbergtask.osexp","/Users/shelia","no","mono","no","18","no","white","no","yes","768","legacy","74","11","/Users/shelia/Desktop/subject-1 Oct 18.csv","legacy","8","Lentiform Loewenfeld","3.3.3","1","y","0","left","return","right","left","NA","542","39806","5449","542","NA","2","legacy","1","1024","2","48000","-16","experiment","1","odd","8","580153","576837","577897","2425","121942","577910","502060","2443","116492","582715","578931","582172","42272","582172","NA","Sternberg task","78","69975","87","yes","1024"
"89.77272727272727","89.77272727272727","806.1136363636364","806.1136363636364","black","experiment","legacy","legacy","legacy","0","uniform","1","undefined","1","right","87","87","87","0","0","87","87","0","0","87","87","87","0","87","0","Sun Oct 18 17:39:56 2020","The main experiment item","yes","Sternbergtask.osexp","/Users/shelia","no","mono","no","18","no","white","no","yes","768","legacy","75","11","/Users/shelia/Desktop/subject-1 Oct 18.csv","legacy","8 5 7 3 6","Lentiform Loewenfeld","3.3.3","0","n","0","right","return","right","right","NA","963","39806","5449","963","NA","2","legacy","5","1024","2","48000","-16","experiment","1","odd","9","586048","582730","583792","2425","121942","583805","502060","2443","116492","589031","584825","588067","42272","588067","NA","Sternberg task","79","70938","88","yes","1024"
"89.88764044943821","89.88764044943821","804.8202247191011","804.8202247191011","black","experiment","legacy","legacy","legacy","0","uniform","1","undefined","1","right","88","88","88","0","0","88","88","0","0","88","88","88","0","88","0","Sun Oct 18 17:39:56 2020","The main experiment item","yes","Sternbergtask.osexp","/Users/shelia","no","mono","no","18","no","white","no","yes","768","legacy","76","11","/Users/shelia/Desktop/subject-1 Oct 18.csv","legacy","7 9","Lentiform Loewenfeld","3.3.3","0","n","0","right","return","right","right","NA","691","39806","5449","691","NA","2","legacy","2","1024","2","48000","-16","experiment","1","odd","1","592364","589046","590108","2425","121942","590121","502060","2443","116492","595075","591141","594383","42272","594383","NA","Sternberg task","80","71629","89","yes","1024"
"90","90","803.5333333333333","803.5333333333333","black","experiment","legacy","legacy","legacy","0","uniform","1","undefined","1","left","89","89","89","0","0","89","89","0","0","89","89","89","0","89","0","Sun Oct 18 17:39:56 2020","The main experiment item","yes","Sternbergtask.osexp","/Users/shelia","no","mono","no","18","no","white","no","yes","768","legacy","77","11","/Users/shelia/Desktop/subject-1 Oct 18.csv","legacy","4","Lentiform Loewenfeld","3.3.3","1","y","0","left","return","right","left","NA","689","39806","5449","689","NA","2","legacy","1","1024","2","48000","-16","experiment","1","odd","4","598408","595090","596151","2425","121942","596164","502060","2443","116492","601117","597185","600427","42272","600427","NA","Sternberg task","81","72318","90","yes","1024"
"90.10989010989012","90.10989010989012","802.4175824175824","802.4175824175824","black","experiment","legacy","legacy","legacy","0","uniform","1","undefined","1","left","90","90","90","0","0","90","90","0","0","90","90","90","0","90","0","Sun Oct 18 17:39:56 2020","The main experiment item","yes","Sternbergtask.osexp","/Users/shelia","no","mono","no","18","no","white","no","yes","768","legacy","78","11","/Users/shelia/Desktop/subject-1 Oct 18.csv","legacy","5 2 9 6 1 7","Lentiform Loewenfeld","3.3.3","3","y","0","left","return","right","left","NA","702","39806","5449","702","NA","2","legacy","6","1024","2","48000","-16","experiment","1","odd","9","604451","601131","602194","2425","121942","602208","502060","2443","116492","607173","603228","606470","42272","606470","NA","Sternberg task","82","73020","91","yes","1024"
"90.21739130434783","90.21739130434783","805.054347826087","805.054347826087","black","experiment","legacy","legacy","legacy","0","uniform","1","undefined","1","right","91","91","91","0","0","91","91","0","0","91","91","91","0","91","0","Sun Oct 18 17:39:56 2020","The main experiment item","yes","Sternbergtask.osexp","/Users/shelia","no","mono","no","18","no","white","no","yes","768","legacy","79","11","/Users/shelia/Desktop/subject-1 Oct 18.csv","legacy","7 3 2 8","Lentiform Loewenfeld","3.3.3","0","n","0","right","return","right","right","NA","1045","39806","5449","1045","NA","2","legacy","4","1024","2","48000","-16","experiment","1","odd","4","610506","607187","608250","2425","121942","608263","502060","2443","116492","613572","609284","612525","42272","612525","NA","Sternberg task","83","74065","92","yes","1024"
"90.3225806451613","90.3225806451613","804.2150537634409","804.2150537634409","black","experiment","legacy","legacy","legacy","0","uniform","1","undefined","1","left","92","92","92","0","0","92","92","0","0","92","92","92","0","92","0","Sun Oct 18 17:39:56 2020","The main experiment item","yes","Sternbergtask.osexp","/Users/shelia","no","mono","no","18","no","white","no","yes","768","legacy","80","11","/Users/shelia/Desktop/subject-1 Oct 18.csv","legacy","5 2 6","Lentiform Loewenfeld","3.3.3","2","y","0","left","return","right","left","NA","727","39806","5449","727","NA","2","legacy","3","1024","2","48000","-16","experiment","1","odd","2","616906","613587","614648","2425","121942","614661","502060","2443","116492","619653","615683","618925","42272","618925","NA","Sternberg task","84","74792","93","yes","1024"
"90.42553191489361","90.42553191489361","801.2234042553191","801.2234042553191","black","experiment","legacy","legacy","legacy","0","uniform","1","undefined","1","left","93","93","93","0","0","93","93","0","0","93","93","93","0","93","0","Sun Oct 18 17:39:56 2020","The main experiment item","yes","Sternbergtask.osexp","/Users/shelia","no","mono","no","18","no","white","no","yes","768","legacy","81","11","/Users/shelia/Desktop/subject-1 Oct 18.csv","legacy","2 8 5 1","Lentiform Loewenfeld","3.3.3","4","y","0","left","return","right","left","NA","523","39806","5449","523","NA","2","legacy","4","1024","2","48000","-16","experiment","1","odd","1","622988","619669","620732","2425","121942","620745","502060","2443","116492","625531","621765","625007","42272","625006","NA","Sternberg task","85","75315","94","yes","1024"
"90.52631578947368","90.52631578947368","806.4736842105264","806.4736842105264","black","experiment","legacy","legacy","legacy","0","uniform","1","undefined","1","right","94","94","94","0","0","94","94","0","0","94","94","94","0","94","0","Sun Oct 18 17:39:56 2020","The main experiment item","yes","Sternbergtask.osexp","/Users/shelia","no","mono","no","18","no","white","no","yes","768","legacy","82","11","/Users/shelia/Desktop/subject-1 Oct 18.csv","legacy","6 2 9 3 8 4","Lentiform Loewenfeld","3.3.3","0","n","0","right","return","right","right","NA","1300","39806","5449","1300","NA","2","legacy","6","1024","2","48000","-16","experiment","1","odd","1","628865","625546","626608","2425","121942","626621","502060","2443","116492","632184","627642","630883","42272","630883","NA","Sternberg task","86","76615","95","yes","1024"
"90.625","90.625","805.125","805.125","black","experiment","legacy","legacy","legacy","0","uniform","1","undefined","1","left","95","95","95","0","0","95","95","0","0","95","95","95","0","95","0","Sun Oct 18 17:39:56 2020","The main experiment item","yes","Sternbergtask.osexp","/Users/shelia","no","mono","no","18","no","white","no","yes","768","legacy","83","11","/Users/shelia/Desktop/subject-1 Oct 18.csv","legacy","7 2 3","Lentiform Loewenfeld","3.3.3","3","y","0","left","return","right","left","NA","677","39806","5449","677","NA","2","legacy","3","1024","2","48000","-16","experiment","1","odd","3","635519","632199","633262","2425","121942","633275","502060","2443","116492","638216","634295","637538","42272","637538","NA","Sternberg task","87","77292","96","yes","1024"
"90.72164948453609","90.72164948453609","802.9896907216495","802.9896907216495","black","experiment","legacy","legacy","legacy","0","uniform","1","undefined","1","right","96","96","96","0","0","96","96","0","0","96","96","96","0","96","0","Sun Oct 18 17:39:56 2020","The main experiment item","yes","Sternbergtask.osexp","/Users/shelia","no","mono","no","18","no","white","no","yes","768","legacy","84","11","/Users/shelia/Desktop/subject-1 Oct 18.csv","legacy","1 8 7","Lentiform Loewenfeld","3.3.3","0","n","0","right","return","right","right","NA","598","39806","5449","598","NA","2","legacy","3","1024","2","48000","-16","experiment","1","odd","4","641550","638231","639294","2425","121942","639307","502060","2443","116492","644168","640328","643569","42272","643569","NA","Sternberg task","88","77890","97","yes","1024"
"90.81632653061224","90.81632653061224","800.5510204081633","800.5510204081633","black","experiment","legacy","legacy","legacy","0","uniform","1","undefined","1","right","97","97","97","0","0","97","97","0","0","97","97","97","0","97","0","Sun Oct 18 17:39:56 2020","The main experiment item","yes","Sternbergtask.osexp","/Users/shelia","no","mono","no","18","no","white","no","yes","768","legacy","85","11","/Users/shelia/Desktop/subject-1 Oct 18.csv","legacy","9 8 2 7 4","Lentiform Loewenfeld","3.3.3","0","n","0","right","return","right","right","NA","564","39806","5449","564","NA","2","legacy","5","1024","2","48000","-16","experiment","1","odd","5","647501","644184","645245","2425","121942","645258","502060","2443","116492","650086","646279","649521","42272","649521","NA","Sternberg task","89","78454","98","yes","1024"
"90.9090909090909","90.9090909090909","801.6969696969697","801.6969696969697","black","experiment","legacy","legacy","legacy","0","uniform","1","undefined","1","left","98","98","98","0","0","98","98","0","0","98","98","98","0","98","0","Sun Oct 18 17:39:56 2020","The main experiment item","yes","Sternbergtask.osexp","/Users/shelia","no","mono","no","18","no","white","no","yes","768","legacy","86","11","/Users/shelia/Desktop/subject-1 Oct 18.csv","legacy","9 6 2 4 1","Lentiform Loewenfeld","3.3.3","4","y","0","left","return","right","left","NA","914","39806","5449","914","NA","2","legacy","5","1024","2","48000","-16","experiment","1","odd","4","653418","650101","651162","2425","121942","651175","502060","2443","116492","656350","652196","655435","42272","655435","NA","Sternberg task","90","79368","99","yes","1024"
"91","91","798.9","798.9","black","experiment","legacy","legacy","legacy","0","uniform","1","undefined","1","right","99","99","99","0","0","99","99","0","0","99","99","99","0","99","0","Sun Oct 18 17:39:56 2020","The main experiment item","yes","Sternbergtask.osexp","/Users/shelia","no","mono","no","18","no","white","no","yes","768","legacy","87","11","/Users/shelia/Desktop/subject-1 Oct 18.csv","legacy","1 6 4","Lentiform Loewenfeld","3.3.3","0","n","0","right","return","right","right","NA","522","39806","5449","522","NA","2","legacy","3","1024","2","48000","-16","experiment","1","odd","7","659685","656365","657427","2425","121942","657440","502060","2443","116492","662227","658461","661704","42272","661704","NA","Sternberg task","91","79890","100","yes","1024"
"91.08910891089108","91.08910891089108","796.3564356435644","796.3564356435644","black","experiment","legacy","legacy","legacy","0","uniform","1","undefined","1","right","100","100","100","0","0","100","100","0","0","100","100","100","0","100","0","Sun Oct 18 17:39:56 2020","The main experiment item","yes","Sternbergtask.osexp","/Users/shelia","no","mono","no","18","no","white","no","yes","768","legacy","88","11","/Users/shelia/Desktop/subject-1 Oct 18.csv","legacy","4 2 6 9","Lentiform Loewenfeld","3.3.3","0","n","0","right","return","right","right","NA","542","39806","5449","542","NA","2","legacy","4","1024","2","48000","-16","experiment","1","odd","7","665560","662242","663304","2425","121942","663317","502060","2443","116492","668123","664338","667580","42272","667580","NA","Sternberg task","92","80432","101","yes","1024"
"91.17647058823529","91.17647058823529","794.7843137254902","794.7843137254902","black","experiment","legacy","legacy","legacy","0","uniform","1","undefined","1","right","101","101","101","0","0","101","101","0","0","101","101","101","0","101","0","Sun Oct 18 17:39:56 2020","The main experiment item","yes","Sternbergtask.osexp","/Users/shelia","no","mono","no","18","no","white","no","yes","768","legacy","89","11","/Users/shelia/Desktop/subject-1 Oct 18.csv","legacy","1 3 2 6 9","Lentiform Loewenfeld","3.3.3","0","n","0","right","return","right","right","NA","636","39806","5449","636","NA","2","legacy","5","1024","2","48000","-16","experiment","1","odd","5","671457","668138","669201","2425","121942","669214","502060","2443","116492","674113","670235","673476","42272","673476","NA","Sternberg task","93","81068","102","yes","1024"
"91.2621359223301","91.2621359223301","793.6310679611651","793.6310679611651","black","experiment","legacy","legacy","legacy","0","uniform","1","undefined","1","right","102","102","102","0","0","102","102","0","0","102","102","102","0","102","0","Sun Oct 18 17:39:56 2020","The main experiment item","yes","Sternbergtask.osexp","/Users/shelia","no","mono","no","18","no","white","no","yes","768","legacy","90","11","/Users/shelia/Desktop/subject-1 Oct 18.csv","legacy","6 9 4 5 2","Lentiform Loewenfeld","3.3.3","0","n","0","right","return","right","right","NA","676","39806","5449","676","NA","2","legacy","5","1024","2","48000","-16","experiment","1","odd","1","677450","674129","675193","2425","121942","675206","502060","2443","116492","680147","676227","679469","42272","679469","NA","Sternberg task","94","81744","103","yes","1024"
"91.34615384615384","91.34615384615384","791.9615384615385","791.9615384615385","black","experiment","legacy","legacy","legacy","0","uniform","1","undefined","1","left","103","103","103","0","0","103","103","0","0","103","103","103","0","103","0","Sun Oct 18 17:39:56 2020","The main experiment item","yes","Sternbergtask.osexp","/Users/shelia","no","mono","no","18","no","white","no","yes","768","legacy","91","11","/Users/shelia/Desktop/subject-1 Oct 18.csv","legacy","2 3 7 4","Lentiform Loewenfeld","3.3.3","1","y","0","left","return","right","left","NA","620","39806","5449","620","NA","2","legacy","4","1024","2","48000","-16","experiment","1","odd","2","683482","680161","681224","2425","121942","681238","502060","2443","116492","686123","682259","685502","42272","685502","NA","Sternberg task","95","82364","104","yes","1024"
"91.42857142857143","91.42857142857143","792.5333333333333","792.5333333333333","black","experiment","legacy","legacy","legacy","0","uniform","1","undefined","1","left","104","104","104","0","0","104","104","0","0","104","104","104","0","104","0","Sun Oct 18 17:39:56 2020","The main experiment item","yes","Sternbergtask.osexp","/Users/shelia","no","mono","no","18","no","white","no","yes","768","legacy","92","11","/Users/shelia/Desktop/subject-1 Oct 18.csv","legacy","6 9 3 1","Lentiform Loewenfeld","3.3.3","4","y","0","left","return","right","left","NA","852","39806","5449","852","NA","2","legacy","4","1024","2","48000","-16","experiment","1","odd","1","689458","686138","687202","2425","121942","687215","502060","2443","116492","692330","688235","691477","42272","691477","NA","Sternberg task","96","83216","105","yes","1024"
"91.50943396226415","91.50943396226415","792.3679245283018","792.3679245283018","black","experiment","legacy","legacy","legacy","0","uniform","1","undefined","1","right","105","105","105","0","0","105","105","0","0","105","105","105","0","105","0","Sun Oct 18 17:39:56 2020","The main experiment item","yes","Sternbergtask.osexp","/Users/shelia","no","mono","no","18","no","white","no","yes","768","legacy","93","11","/Users/shelia/Desktop/subject-1 Oct 18.csv","legacy","4 2 7 6 1 3","Lentiform Loewenfeld","3.3.3","0","n","0","right","return","right","right","NA","775","39806","5449","775","NA","2","legacy","6","1024","2","48000","-16","experiment","1","odd","8","695665","692345","693407","2425","121942","693420","502060","2443","116492","698462","694441","697686","42272","697685","NA","Sternberg task","97","83991","106","yes","1024"
"91.58878504672897","91.58878504672897","792.3644859813085","792.3644859813085","black","experiment","legacy","legacy","legacy","0","uniform","1","undefined","1","left","106","106","106","0","0","106","106","0","0","106","106","106","0","106","0","Sun Oct 18 17:39:56 2020","The main experiment item","yes","Sternbergtask.osexp","/Users/shelia","no","mono","no","18","no","white","no","yes","768","legacy","94","11","/Users/shelia/Desktop/subject-1 Oct 18.csv","legacy","4 1 8 7 5","Lentiform Loewenfeld","3.3.3","3","y","0","left","return","right","left","NA","792","39806","5449","792","NA","2","legacy","5","1024","2","48000","-16","experiment","1","odd","8","701798","698477","699540","2425","121942","699553","502060","2443","116492","704610","700574","703817","42272","703817","NA","Sternberg task","98","84783","107","yes","1024"
"91.66666666666667","91.66666666666667","790.7129629629629","790.7129629629629","black","experiment","legacy","legacy","legacy","0","uniform","1","undefined","1","left","107","107","107","0","0","107","107","0","0","107","107","107","0","107","0","Sun Oct 18 17:39:56 2020","The main experiment item","yes","Sternbergtask.osexp","/Users/shelia","no","mono","no","18","no","white","no","yes","768","legacy","95","11","/Users/shelia/Desktop/subject-1 Oct 18.csv","legacy","9 1 7 2","Lentiform Loewenfeld","3.3.3","2","y","0","left","return","right","left","NA","614","39806","5449","614","NA","2","legacy","4","1024","2","48000","-16","experiment","1","odd","1","707941","704624","705686","2425","121942","705698","502060","2443","116492","710576","706719","709961","42272","709961","NA","Sternberg task","99","85397","108","yes","1024"
"91.74311926605505","91.74311926605505","792.0825688073395","792.0825688073395","black","experiment","legacy","legacy","legacy","0","uniform","1","undefined","1","right","108","108","108","0","0","108","108","0","0","108","108","108","0","108","0","Sun Oct 18 17:39:56 2020","The main experiment item","yes","Sternbergtask.osexp","/Users/shelia","no","mono","no","18","no","white","no","yes","768","legacy","96","11","/Users/shelia/Desktop/subject-1 Oct 18.csv","legacy","8 2 1 4 5 9","Lentiform Loewenfeld","3.3.3","0","n","0","right","return","right","right","NA","940","39806","5449","940","NA","2","legacy","6","1024","2","48000","-16","experiment","1","odd","7","713908","710591","711652","2425","121942","711664","502060","2443","116492","716868","712686","715927","42272","715927","NA","Sternberg task","100","86337","109","yes","1024"
"90.9090909090909","90.9090909090909","793.1454545454545","793.1454545454545","black","experiment","legacy","legacy","legacy","0","uniform","0","undefined","0","right","109","109","109","0","0","109","109","0","0","109","109","109","0","109","0","Sun Oct 18 17:39:56 2020","The main experiment item","yes","Sternbergtask.osexp","/Users/shelia","no","mono","no","18","no","white","no","yes","768","legacy","97","11","/Users/shelia/Desktop/subject-1 Oct 18.csv","legacy","5 7 3","Lentiform Loewenfeld","3.3.3","0","n","0","left","return","right","left","NA","909","39806","5449","909","NA","2","legacy","3","1024","2","48000","-16","experiment","1","odd","9","720203","716883","717947","2425","121942","717960","502060","2443","116492","723134","718981","722223","42272","722223","NA","Sternberg task","100","87246","110","yes","1024"
"90.990990990991","90.990990990991","792.4684684684685","792.4684684684685","black","experiment","legacy","legacy","legacy","0","uniform","1","undefined","1","right","110","110","110","0","0","110","110","0","0","110","110","110","0","110","0","Sun Oct 18 17:39:56 2020","The main experiment item","yes","Sternbergtask.osexp","/Users/shelia","no","mono","no","18","no","white","no","yes","768","legacy","98","11","/Users/shelia/Desktop/subject-1 Oct 18.csv","legacy","2 8 9","Lentiform Loewenfeld","3.3.3","0","n","0","right","return","right","right","NA","718","39806","5449","718","NA","2","legacy","3","1024","2","48000","-16","experiment","1","odd","6","726469","716883","724212","2425","121942","724225","723149","2443","116492","729207","725246","728488","42272","728488","NA","Sternberg task","101","87964","111","yes","1024"
"91.07142857142857","91.07142857142857","793.625","793.625","black","experiment","legacy","legacy","legacy","0","uniform","1","undefined","1","left","111","111","111","0","0","111","111","0","0","111","111","111","0","111","0","Sun Oct 18 17:39:56 2020","The main experiment item","yes","Sternbergtask.osexp","/Users/shelia","no","mono","no","18","no","white","no","yes","768","legacy","99","11","/Users/shelia/Desktop/subject-1 Oct 18.csv","legacy","2 4 6 9","Lentiform Loewenfeld","3.3.3","3","y","0","left","return","right","left","NA","922","39806","5449","922","NA","2","legacy","4","1024","2","48000","-16","experiment","1","odd","6","732542","729221","730285","2425","121942","730298","723149","2443","116492","735484","731319","734561","42272","734561","NA","Sternberg task","102","88886","112","yes","1024"
"91.15044247787611","91.15044247787611","793.7256637168142","793.7256637168142","black","experiment","legacy","legacy","legacy","0","uniform","1","undefined","1","left","112","112","112","0","0","112","112","0","0","112","112","112","0","112","0","Sun Oct 18 17:39:56 2020","The main experiment item","yes","Sternbergtask.osexp","/Users/shelia","no","mono","no","18","no","white","no","yes","768","legacy","100","11","/Users/shelia/Desktop/subject-1 Oct 18.csv","legacy","7 8 6 3 1","Lentiform Loewenfeld","3.3.3","5","y","0","left","return","right","left","NA","805","39806","5449","805","NA","2","legacy","5","1024","2","48000","-16","experiment","1","odd","1","738817","735499","736559","2425","121942","736572","723149","2443","116492","741642","737593","740836","42272","740836","NA","Sternberg task","103","89691","113","yes","1024"
"91.2280701754386","91.2280701754386","793.3859649122807","793.3859649122807","black","experiment","legacy","legacy","legacy","0","uniform","1","undefined","1","right","113","113","113","0","0","113","113","0","0","113","113","113","0","113","0","Sun Oct 18 17:39:56 2020","The main experiment item","yes","Sternbergtask.osexp","/Users/shelia","no","mono","no","18","no","white","no","yes","768","legacy","101","11","/Users/shelia/Desktop/subject-1 Oct 18.csv","legacy","6 9 5","Lentiform Loewenfeld","3.3.3","0","n","0","right","return","right","right","NA","755","39806","5449","755","NA","2","legacy","3","1024","2","48000","-16","experiment","1","odd","8","744978","741658","742723","2425","121942","742736","723149","2443","116492","747753","743756","746997","42272","746997","NA","Sternberg task","104","90446","114","yes","1024"
"91.30434782608695","91.30434782608695","792.9826086956522","792.9826086956522","black","experiment","legacy","legacy","legacy","0","uniform","1","undefined","1","right","114","114","114","0","0","114","114","0","0","114","114","114","0","114","0","Sun Oct 18 17:39:56 2020","The main experiment item","yes","Sternbergtask.osexp","/Users/shelia","no","mono","no","18","no","white","no","yes","768","legacy","102","11","/Users/shelia/Desktop/subject-1 Oct 18.csv","legacy","7 9 1 6","Lentiform Loewenfeld","3.3.3","0","n","0","right","return","right","right","NA","747","39806","5449","747","NA","2","legacy","4","1024","2","48000","-16","experiment","1","odd","4","751088","747769","748832","2425","121942","748845","723149","2443","116492","753855","749866","753107","42272","753107","NA","Sternberg task","105","91193","115","yes","1024"
"91.37931034482759","91.37931034482759","791.5603448275862","791.5603448275862","black","experiment","legacy","legacy","legacy","0","uniform","1","undefined","1","left","115","115","115","0","0","115","115","0","0","115","115","115","0","115","0","Sun Oct 18 17:39:56 2020","The main experiment item","yes","Sternbergtask.osexp","/Users/shelia","no","mono","no","18","no","white","no","yes","768","legacy","103","11","/Users/shelia/Desktop/subject-1 Oct 18.csv","legacy","5 7 3 6 2","Lentiform Loewenfeld","3.3.3","5","y","0","left","return","right","left","NA","628","39806","5449","628","NA","2","legacy","5","1024","2","48000","-16","experiment","1","odd","2","757188","753871","754932","2425","121942","754945","723149","2443","116492","759836","755966","759207","42272","759207","NA","Sternberg task","106","91821","116","yes","1024"
"91.45299145299145","91.45299145299145","789.4786324786324","789.4786324786324","black","experiment","legacy","legacy","legacy","0","uniform","1","undefined","1","left","116","116","116","0","0","116","116","0","0","116","116","116","0","116","0","Sun Oct 18 17:39:56 2020","The main experiment item","yes","Sternbergtask.osexp","/Users/shelia","no","mono","no","18","no","white","no","yes","768","legacy","104","11","/Users/shelia/Desktop/subject-1 Oct 18.csv","legacy","3 9 6 2","Lentiform Loewenfeld","3.3.3","4","y","0","left","return","right","left","NA","548","39806","5449","548","NA","2","legacy","4","1024","2","48000","-16","experiment","1","odd","2","763168","759851","760912","2425","121942","760925","723149","2443","116492","765736","761946","765187","42272","765187","NA","Sternberg task","107","92369","117","yes","1024"
"91.52542372881356","91.52542372881356","788.5508474576271","788.5508474576271","black","experiment","legacy","legacy","legacy","0","uniform","1","undefined","1","right","117","117","117","0","0","117","117","0","0","117","117","117","0","117","0","Sun Oct 18 17:39:56 2020","The main experiment item","yes","Sternbergtask.osexp","/Users/shelia","no","mono","no","18","no","white","no","yes","768","legacy","105","11","/Users/shelia/Desktop/subject-1 Oct 18.csv","legacy","7 8 6 1","Lentiform Loewenfeld","3.3.3","0","n","0","right","return","right","right","NA","680","39806","5449","680","NA","2","legacy","4","1024","2","48000","-16","experiment","1","odd","3","769070","765751","766814","2425","121942","766827","723149","2443","116492","771770","767848","771089","42272","771089","NA","Sternberg task","108","93049","118","yes","1024"
"91.59663865546219","91.59663865546219","788.3613445378152","788.3613445378152","black","experiment","legacy","legacy","legacy","0","uniform","1","undefined","1","right","118","118","118","0","0","118","118","0","0","118","118","118","0","118","0","Sun Oct 18 17:39:56 2020","The main experiment item","yes","Sternbergtask.osexp","/Users/shelia","no","mono","no","18","no","white","no","yes","768","legacy","106","11","/Users/shelia/Desktop/subject-1 Oct 18.csv","legacy","8 4 3 9","Lentiform Loewenfeld","3.3.3","0","n","0","right","return","right","right","NA","766","39806","5449","766","NA","2","legacy","4","1024","2","48000","-16","experiment","1","odd","5","775104","771785","772848","2425","121942","772861","723149","2443","116492","777891","773882","777124","42272","777124","NA","Sternberg task","109","93815","119","yes","1024"
"90.83333333333333","90.83333333333333","793.2083333333334","793.2083333333334","black","experiment","legacy","legacy","legacy","0","uniform","0","undefined","0","left","119","119","119","0","0","119","119","0","0","119","119","119","0","119","0","Sun Oct 18 17:39:56 2020","The main experiment item","yes","Sternbergtask.osexp","/Users/shelia","no","mono","no","18","no","white","no","yes","768","legacy","107","11","/Users/shelia/Desktop/subject-1 Oct 18.csv","legacy","8 5 1 3 9","Lentiform Loewenfeld","3.3.3","4","y","0","right","return","right","right","NA","1370","39806","5449","1370","NA","2","legacy","5","1024","2","48000","-16","experiment","1","odd","3","781223","777906","778968","2425","121942","778981","723149","2443","116492","784613","780000","783242","42272","783242","NA","Sternberg task","109","95185","120","yes","1024"
