"acc","accuracy","average_response_time","avg_rt","background","block","canvas_backend","clock_backend","color_backend","compensation","coordinates","correct","correct_instruction1","correct_keyboard_response","correct_response","count_ISI","count_correctFeedback","count_expSequence","count_experiment","count_experimentLoop","count_fixation","count_incorrectFeedback","count_instruction1","count_instruction2","count_keyboard_response","count_logger","count_memorySet","count_practiceLoop","count_probe","count_thankYou","datetime","description","disable_garbage_collection","experiment_file","experiment_path","font_bold","font_family","font_italic","font_size","font_underline","foreground","form_clicks","fullscreen","height","keyboard_backend","live_row","live_row_practiceLoop","logfile","mouse_backend","numberSet","opensesame_codename","opensesame_version","posInSet","present","repeat_cycle","response","response_instruction1","response_instruction2","response_keyboard_response","response_thankYou","response_time","response_time_instruction1","response_time_instruction2","response_time_keyboard_response","response_time_thankYou","round_decimals","sampler_backend","setSize","sound_buf_size","sound_channels","sound_freq","sound_sample_size","start","subject_nr","subject_parity","target","time_ISI","time_correctFeedback","time_expSequence","time_experiment","time_experimentLoop","time_fixation","time_incorrectFeedback","time_instruction1","time_instruction2","time_keyboard_response","time_logger","time_memorySet","time_practiceLoop","time_probe","time_thankYou","title","total_correct","total_response_time","total_responses","uniform_coordinates","width"
"100","100","676","676","black","practice","legacy","legacy","legacy","0","uniform","1","undefined","1","left","0","0","0","0","0","0","0","0","0","0","0","0","0","0","0","Sat Oct 24 14:03:29 2020","The main experiment item","yes","Sterbergtask.osexp","C:\Users\Colton\OneDrive\Desktop","no","mono","no","18","no","white","no","no","768","legacy","0","0","C:/Users/Colton/OneDrive/Desktop/CS-subject-3-LAB 3.1.csv","legacy","6","Lentiform Loewenfeld","3.3.3","1","y","0","left","right","NA","left","NA","676","168421","NA","676","NA","2","legacy","1","1024","2","48000","-16","experiment","3","odd","6","193702","NA","191488","22303","NA","191494","NA","22330","NA","195709","196386","192499","190772","195709","NA","Sterberg task","1","676","1","yes","1024"
"100","100","605","605","black","practice","legacy","legacy","legacy","0","uniform","1","undefined","1","left","1","1","1","0","0","1","1","0","0","1","1","1","0","1","0","Sat Oct 24 14:03:29 2020","The main experiment item","yes","Sterbergtask.osexp","C:\Users\Colton\OneDrive\Desktop","no","mono","no","18","no","white","no","no","768","legacy","1","1","C:/Users/Colton/OneDrive/Desktop/CS-subject-3-LAB 3.1.csv","legacy","2 9 4","Lentiform Loewenfeld","3.3.3","3","y","0","left","right","NA","left","NA","534","168421","NA","534","NA","2","legacy","3","1024","2","48000","-16","experiment","3","odd","4","200989","196798","198765","22303","NA","198769","NA","22330","NA","202998","203534","199774","190772","202998","NA","Sterberg task","2","1210","2","yes","1024"
"100","100","821.3333333333334","821.3333333333334","black","practice","legacy","legacy","legacy","0","uniform","1","undefined","1","right","2","2","2","0","0","2","2","0","0","2","2","2","0","2","0","Sat Oct 24 14:03:29 2020","The main experiment item","yes","Sterbergtask.osexp","C:\Users\Colton\OneDrive\Desktop","no","mono","no","18","no","white","no","no","768","legacy","2","2","C:/Users/Colton/OneDrive/Desktop/CS-subject-3-LAB 3.1.csv","legacy","5","Lentiform Loewenfeld","3.3.3","0","n","0","right","right","NA","right","NA","1254","168421","NA","1254","NA","2","legacy","1","1024","2","48000","-16","experiment","3","odd","3","207186","203567","204962","22303","NA","204967","NA","22330","NA","209196","210452","205971","190772","209196","NA","Sterberg task","3","2464","3","yes","1024"
"100","100","757.5","757.5","black","practice","legacy","legacy","legacy","0","uniform","1","undefined","1","right","3","3","3","0","0","3","3","0","0","3","3","3","0","3","0","Sat Oct 24 14:03:29 2020","The main experiment item","yes","Sterbergtask.osexp","C:\Users\Colton\OneDrive\Desktop","no","mono","no","18","no","white","no","no","768","legacy","3","3","C:/Users/Colton/OneDrive/Desktop/CS-subject-3-LAB 3.1.csv","legacy","3 1 9 4","Lentiform Loewenfeld","3.3.3","0","n","0","right","right","NA","right","NA","566","168421","NA","566","NA","2","legacy","4","1024","2","48000","-16","experiment","3","odd","6","214140","210511","211923","22303","NA","211928","NA","22330","NA","216145","216712","212935","190772","216145","NA","Sterberg task","4","3030","4","yes","1024"
"100","100","716.8","716.8","black","practice","legacy","legacy","legacy","0","uniform","1","undefined","1","right","4","4","4","0","0","4","4","0","0","4","4","4","0","4","0","Sat Oct 24 14:03:29 2020","The main experiment item","yes","Sterbergtask.osexp","C:\Users\Colton\OneDrive\Desktop","no","mono","no","18","no","white","no","no","768","legacy","4","4","C:/Users/Colton/OneDrive/Desktop/CS-subject-3-LAB 3.1.csv","legacy","4 1 5","Lentiform Loewenfeld","3.3.3","0","n","0","right","right","NA","right","NA","554","168421","NA","554","NA","2","legacy","3","1024","2","48000","-16","experiment","3","odd","2","220294","216766","218068","22303","NA","218073","NA","22330","NA","222301","222856","219084","190772","222300","NA","Sterberg task","5","3584","5","yes","1024"
"100","100","684.1666666666666","684.1666666666666","black","practice","legacy","legacy","legacy","0","uniform","1","undefined","1","right","5","5","5","0","0","5","5","0","0","5","5","5","0","5","0","Sat Oct 24 14:03:29 2020","The main experiment item","yes","Sterbergtask.osexp","C:\Users\Colton\OneDrive\Desktop","no","mono","no","18","no","white","no","no","768","legacy","5","5","C:/Users/Colton/OneDrive/Desktop/CS-subject-3-LAB 3.1.csv","legacy","9 6 7 4 5","Lentiform Loewenfeld","3.3.3","0","n","0","right","right","NA","right","NA","521","168421","NA","521","NA","2","legacy","5","1024","2","48000","-16","experiment","3","odd","3","226427","222912","224211","22303","NA","224216","NA","22330","NA","228431","228954","225221","190772","228431","NA","Sterberg task","6","4105","6","yes","1024"
"100","100","665.8571428571429","665.8571428571429","black","practice","legacy","legacy","legacy","0","uniform","1","undefined","1","left","6","6","6","0","0","6","6","0","0","6","6","6","0","6","0","Sat Oct 24 14:03:29 2020","The main experiment item","yes","Sterbergtask.osexp","C:\Users\Colton\OneDrive\Desktop","no","mono","no","18","no","white","no","no","768","legacy","6","6","C:/Users/Colton/OneDrive/Desktop/CS-subject-3-LAB 3.1.csv","legacy","4 8","Lentiform Loewenfeld","3.3.3","1","y","0","left","right","NA","left","NA","556","168421","NA","556","NA","2","legacy","2","1024","2","48000","-16","experiment","3","odd","4","232630","228999","230406","22303","NA","230411","NA","22330","NA","234634","235191","231415","190772","234634","NA","Sterberg task","7","4661","7","yes","1024"
"100","100","635.875","635.875","black","practice","legacy","legacy","legacy","0","uniform","1","undefined","1","left","7","7","7","0","0","7","7","0","0","7","7","7","0","7","0","Sat Oct 24 14:03:29 2020","The main experiment item","yes","Sterbergtask.osexp","C:\Users\Colton\OneDrive\Desktop","no","mono","no","18","no","white","no","no","768","legacy","7","7","C:/Users/Colton/OneDrive/Desktop/CS-subject-3-LAB 3.1.csv","legacy","1 7 9 8 5","Lentiform Loewenfeld","3.3.3","4","y","0","left","right","NA","left","NA","426","168421","NA","426","NA","2","legacy","5","1024","2","48000","-16","experiment","3","odd","8","238917","235297","236688","22303","NA","236699","NA","22330","NA","240921","241349","237704","190772","240921","NA","Sterberg task","8","5087","8","yes","1024"
"100","100","632.5555555555555","632.5555555555555","black","practice","legacy","legacy","legacy","0","uniform","1","undefined","1","right","8","8","8","0","0","8","8","0","0","8","8","8","0","8","0","Sat Oct 24 14:03:29 2020","The main experiment item","yes","Sterbergtask.osexp","C:\Users\Colton\OneDrive\Desktop","no","mono","no","18","no","white","no","no","768","legacy","8","8","C:/Users/Colton/OneDrive/Desktop/CS-subject-3-LAB 3.1.csv","legacy","5 7 8 4 1 2","Lentiform Loewenfeld","3.3.3","0","n","0","right","right","NA","right","NA","606","168421","NA","606","NA","2","legacy","6","1024","2","48000","-16","experiment","3","odd","6","245102","241458","242881","22303","NA","242890","NA","22330","NA","247107","247715","243895","190772","247107","NA","Sterberg task","9","5693","9","yes","1024"
"100","100","610.7","610.7","black","practice","legacy","legacy","legacy","0","uniform","1","undefined","1","left","9","9","9","0","0","9","9","0","0","9","9","9","0","9","0","Sat Oct 24 14:03:29 2020","The main experiment item","yes","Sterbergtask.osexp","C:\Users\Colton\OneDrive\Desktop","no","mono","no","18","no","white","no","no","768","legacy","9","9","C:/Users/Colton/OneDrive/Desktop/CS-subject-3-LAB 3.1.csv","legacy","4 3 1 7 9 8","Lentiform Loewenfeld","3.3.3","1","y","0","left","right","NA","left","NA","414","168421","NA","414","NA","2","legacy","6","1024","2","48000","-16","experiment","3","odd","4","251335","247812","249119","22303","NA","249125","NA","22330","NA","253341","253757","250129","190772","253341","NA","Sterberg task","10","6107","10","yes","1024"
"100","100","593","593","black","practice","legacy","legacy","legacy","0","uniform","1","undefined","1","right","10","10","10","0","0","10","10","0","0","10","10","10","0","10","0","Sat Oct 24 14:03:29 2020","The main experiment item","yes","Sterbergtask.osexp","C:\Users\Colton\OneDrive\Desktop","no","mono","no","18","no","white","no","no","768","legacy","10","10","C:/Users/Colton/OneDrive/Desktop/CS-subject-3-LAB 3.1.csv","legacy","2 1","Lentiform Loewenfeld","3.3.3","0","n","0","right","right","NA","right","NA","416","168421","NA","416","NA","2","legacy","2","1024","2","48000","-16","experiment","3","odd","5","257344","253803","255120","22303","NA","255124","NA","22330","NA","259348","259765","256129","190772","259348","NA","Sterberg task","11","6523","11","yes","1024"
"100","100","583.25","583.25","black","practice","legacy","legacy","legacy","0","uniform","1","undefined","1","left","11","11","11","0","0","11","11","0","0","11","11","11","0","11","0","Sat Oct 24 14:03:29 2020","The main experiment item","yes","Sterbergtask.osexp","C:\Users\Colton\OneDrive\Desktop","no","mono","no","18","no","white","no","no","768","legacy","11","11","C:/Users/Colton/OneDrive/Desktop/CS-subject-3-LAB 3.1.csv","legacy","1 5 2 9","Lentiform Loewenfeld","3.3.3","2","y","0","left","right","NA","left","NA","476","168421","NA","476","NA","2","legacy","4","1024","2","48000","-16","experiment","3","odd","5","263349","259823","261131","22303","NA","261136","NA","22330","NA","265353","265831","262140","190772","265353","NA","Sterberg task","12","6999","12","yes","1024"
"100","100","572.7692307692307","572.7692307692307","black","experiment","legacy","legacy","legacy","0","uniform","1","undefined","1","right","12","12","12","0","0","12","12","0","0","12","12","12","0","12","0","Sat Oct 24 14:03:29 2020","The main experiment item","yes","Sterbergtask.osexp","C:\Users\Colton\OneDrive\Desktop","no","mono","no","18","no","white","no","no","768","legacy","0","11","C:/Users/Colton/OneDrive/Desktop/CS-subject-3-LAB 3.1.csv","legacy","9 5 3 2 8 6","Lentiform Loewenfeld","3.3.3","0","n","0","right","right","left","right","NA","447","168421","1567","447","NA","2","legacy","6","1024","2","48000","-16","experiment","3","odd","7","271341","265907","269112","22303","268625","269121","NA","22330","267056","273347","273796","270126","190772","273347","NA","Sterberg task","13","7446","13","yes","1024"
"92.85714285714286","92.85714285714286","571.1428571428571","571.1428571428571","black","experiment","legacy","legacy","legacy","0","uniform","0","undefined","0","left","13","13","13","0","0","13","13","0","0","13","13","13","0","13","0","Sat Oct 24 14:03:29 2020","The main experiment item","yes","Sterbergtask.osexp","C:\Users\Colton\OneDrive\Desktop","no","mono","no","18","no","white","no","no","768","legacy","1","11","C:/Users/Colton/OneDrive/Desktop/CS-subject-3-LAB 3.1.csv","legacy","5 7 8 2 3 8","Lentiform Loewenfeld","3.3.3","5","y","0","right","right","left","right","NA","550","168421","1567","550","NA","2","legacy","6","1024","2","48000","-16","experiment","3","odd","3","277500","273859","275283","22303","268625","275289","NA","22330","267056","279506","280058","276294","190772","279506","NA","Sterberg task","13","7996","14","yes","1024"
"93.33333333333333","93.33333333333333","590.0666666666667","590.0666666666667","black","experiment","legacy","legacy","legacy","0","uniform","1","undefined","1","left","14","14","14","0","0","14","14","0","0","14","14","14","0","14","0","Sat Oct 24 14:03:29 2020","The main experiment item","yes","Sterbergtask.osexp","C:\Users\Colton\OneDrive\Desktop","no","mono","no","18","no","white","no","no","768","legacy","2","11","C:/Users/Colton/OneDrive/Desktop/CS-subject-3-LAB 3.1.csv","legacy","9 4 2","Lentiform Loewenfeld","3.3.3","1","y","0","left","right","left","left","NA","855","168421","1567","855","NA","2","legacy","3","1024","2","48000","-16","experiment","3","odd","9","283649","273859","281434","22303","268625","281439","280123","22330","267056","285656","286513","282445","190772","285655","NA","Sterberg task","14","8851","15","yes","1024"
"93.75","93.75","596.8125","596.8125","black","experiment","legacy","legacy","legacy","0","uniform","1","undefined","1","right","15","15","15","0","0","15","15","0","0","15","15","15","0","15","0","Sat Oct 24 14:03:29 2020","The main experiment item","yes","Sterbergtask.osexp","C:\Users\Colton\OneDrive\Desktop","no","mono","no","18","no","white","no","no","768","legacy","3","11","C:/Users/Colton/OneDrive/Desktop/CS-subject-3-LAB 3.1.csv","legacy","9 7 4 5 8","Lentiform Loewenfeld","3.3.3","0","n","0","right","right","left","right","NA","698","168421","1567","698","NA","2","legacy","5","1024","2","48000","-16","experiment","3","odd","6","290105","286578","287879","22303","268625","287883","280123","22330","267056","292109","292809","288890","190772","292109","NA","Sterberg task","15","9549","16","yes","1024"
"94.11764705882354","94.11764705882354","596.8823529411765","596.8823529411765","black","experiment","legacy","legacy","legacy","0","uniform","1","undefined","1","right","16","16","16","0","0","16","16","0","0","16","16","16","0","16","0","Sat Oct 24 14:03:29 2020","The main experiment item","yes","Sterbergtask.osexp","C:\Users\Colton\OneDrive\Desktop","no","mono","no","18","no","white","no","no","768","legacy","4","11","C:/Users/Colton/OneDrive/Desktop/CS-subject-3-LAB 3.1.csv","legacy","7 1 8 4 9 3","Lentiform Loewenfeld","3.3.3","0","n","0","right","right","left","right","NA","598","168421","1567","598","NA","2","legacy","6","1024","2","48000","-16","experiment","3","odd","6","296425","292881","294197","22303","268625","294207","280123","22330","267056","298430","299030","295210","190772","298429","NA","Sterberg task","16","10147","17","yes","1024"
"94.44444444444444","94.44444444444444","598.1666666666666","598.1666666666666","black","experiment","legacy","legacy","legacy","0","uniform","1","undefined","1","right","17","17","17","0","0","17","17","0","0","17","17","17","0","17","0","Sat Oct 24 14:03:29 2020","The main experiment item","yes","Sterbergtask.osexp","C:\Users\Colton\OneDrive\Desktop","no","mono","no","18","no","white","no","no","768","legacy","5","11","C:/Users/Colton/OneDrive/Desktop/CS-subject-3-LAB 3.1.csv","legacy","6 9 7 3 8 2","Lentiform Loewenfeld","3.3.3","0","n","0","right","right","left","right","NA","620","168421","1567","620","NA","2","legacy","6","1024","2","48000","-16","experiment","3","odd","5","302723","299077","300502","22303","268625","300507","280123","22330","267056","304737","305359","301511","190772","304737","NA","Sterberg task","17","10767","18","yes","1024"
"94.73684210526316","94.73684210526316","600.3157894736842","600.3157894736842","black","experiment","legacy","legacy","legacy","0","uniform","1","undefined","1","right","18","18","18","0","0","18","18","0","0","18","18","18","0","18","0","Sat Oct 24 14:03:29 2020","The main experiment item","yes","Sterbergtask.osexp","C:\Users\Colton\OneDrive\Desktop","no","mono","no","18","no","white","no","no","768","legacy","6","11","C:/Users/Colton/OneDrive/Desktop/CS-subject-3-LAB 3.1.csv","legacy","4 2 6 9","Lentiform Loewenfeld","3.3.3","0","n","0","right","right","left","right","NA","639","168421","1567","639","NA","2","legacy","4","1024","2","48000","-16","experiment","3","odd","7","309086","305441","306862","22303","268625","306867","280123","22330","267056","311090","311732","307871","190772","311090","NA","Sterberg task","18","11406","19","yes","1024"
"95","95","592.6","592.6","black","experiment","legacy","legacy","legacy","0","uniform","1","undefined","1","left","19","19","19","0","0","19","19","0","0","19","19","19","0","19","0","Sat Oct 24 14:03:29 2020","The main experiment item","yes","Sterbergtask.osexp","C:\Users\Colton\OneDrive\Desktop","no","mono","no","18","no","white","no","no","768","legacy","7","11","C:/Users/Colton/OneDrive/Desktop/CS-subject-3-LAB 3.1.csv","legacy","4 6 2 5 1","Lentiform Loewenfeld","3.3.3","5","y","0","left","right","left","left","NA","446","168421","1567","446","NA","2","legacy","5","1024","2","48000","-16","experiment","3","odd","1","315345","311785","313125","22303","268625","313129","280123","22330","267056","317350","317798","314140","190772","317349","NA","Sterberg task","19","11852","20","yes","1024"
"95.23809523809524","95.23809523809524","585.8095238095239","585.8095238095239","black","experiment","legacy","legacy","legacy","0","uniform","1","undefined","1","left","20","20","20","0","0","20","20","0","0","20","20","20","0","20","0","Sat Oct 24 14:03:29 2020","The main experiment item","yes","Sterbergtask.osexp","C:\Users\Colton\OneDrive\Desktop","no","mono","no","18","no","white","no","no","768","legacy","8","11","C:/Users/Colton/OneDrive/Desktop/CS-subject-3-LAB 3.1.csv","legacy","2 8 5 1","Lentiform Loewenfeld","3.3.3","4","y","0","left","right","left","left","NA","450","168421","1567","450","NA","2","legacy","4","1024","2","48000","-16","experiment","3","odd","1","321425","317909","319200","22303","268625","319205","280123","22330","267056","323430","323882","320216","190772","323430","NA","Sterberg task","20","12302","21","yes","1024"
"95.45454545454545","95.45454545454545","579.6363636363636","579.6363636363636","black","experiment","legacy","legacy","legacy","0","uniform","1","undefined","1","left","21","21","21","0","0","21","21","0","0","21","21","21","0","21","0","Sat Oct 24 14:03:29 2020","The main experiment item","yes","Sterbergtask.osexp","C:\Users\Colton\OneDrive\Desktop","no","mono","no","18","no","white","no","no","768","legacy","9","11","C:/Users/Colton/OneDrive/Desktop/CS-subject-3-LAB 3.1.csv","legacy","8 9 6 1","Lentiform Loewenfeld","3.3.3","2","y","0","left","right","left","left","NA","450","168421","1567","450","NA","2","legacy","4","1024","2","48000","-16","experiment","3","odd","9","327471","323952","325250","22303","268625","325255","280123","22330","267056","329481","329932","326266","190772","329481","NA","Sterberg task","21","12752","22","yes","1024"
"95.65217391304348","95.65217391304348","582.695652173913","582.695652173913","black","experiment","legacy","legacy","legacy","0","uniform","1","undefined","1","right","22","22","22","0","0","22","22","0","0","22","22","22","0","22","0","Sat Oct 24 14:03:29 2020","The main experiment item","yes","Sterbergtask.osexp","C:\Users\Colton\OneDrive\Desktop","no","mono","no","18","no","white","no","no","768","legacy","10","11","C:/Users/Colton/OneDrive/Desktop/CS-subject-3-LAB 3.1.csv","legacy","8 6 3 4 7","Lentiform Loewenfeld","3.3.3","0","n","0","right","right","left","right","NA","650","168421","1567","650","NA","2","legacy","5","1024","2","48000","-16","experiment","3","odd","1","333676","330043","331458","22303","268625","331461","280123","22330","267056","335680","336331","332466","190772","335680","NA","Sterberg task","22","13402","23","yes","1024"
"95.83333333333333","95.83333333333333","585.625","585.625","black","experiment","legacy","legacy","legacy","0","uniform","1","undefined","1","right","23","23","23","0","0","23","23","0","0","23","23","23","0","23","0","Sat Oct 24 14:03:29 2020","The main experiment item","yes","Sterbergtask.osexp","C:\Users\Colton\OneDrive\Desktop","no","mono","no","18","no","white","no","no","768","legacy","11","11","C:/Users/Colton/OneDrive/Desktop/CS-subject-3-LAB 3.1.csv","legacy","6 8 4","Lentiform Loewenfeld","3.3.3","0","n","0","right","right","left","right","NA","653","168421","1567","653","NA","2","legacy","3","1024","2","48000","-16","experiment","3","odd","1","340026","336401","337793","22303","268625","337800","280123","22330","267056","342030","342685","338810","190772","342030","NA","Sterberg task","23","14055","24","yes","1024"
"92","92","574.56","574.56","black","experiment","legacy","legacy","legacy","0","uniform","0","undefined","0","right","24","24","24","0","0","24","24","0","0","24","24","24","0","24","0","Sat Oct 24 14:03:29 2020","The main experiment item","yes","Sterbergtask.osexp","C:\Users\Colton\OneDrive\Desktop","no","mono","no","18","no","white","no","no","768","legacy","12","11","C:/Users/Colton/OneDrive/Desktop/CS-subject-3-LAB 3.1.csv","legacy","3 9 8 1 6 4","Lentiform Loewenfeld","3.3.3","0","n","0","left","right","left","left","NA","309","168421","1567","309","NA","2","legacy","6","1024","2","48000","-16","experiment","3","odd","7","346350","342805","344131","22303","268625","344136","280123","22330","267056","348360","348671","345146","190772","348360","NA","Sterberg task","23","14364","25","yes","1024"
"92.3076923076923","92.3076923076923","573.0384615384615","573.0384615384615","black","experiment","legacy","legacy","legacy","0","uniform","1","undefined","1","right","25","25","25","0","0","25","25","0","0","25","25","25","0","25","0","Sat Oct 24 14:03:29 2020","The main experiment item","yes","Sterbergtask.osexp","C:\Users\Colton\OneDrive\Desktop","no","mono","no","18","no","white","no","no","768","legacy","13","11","C:/Users/Colton/OneDrive/Desktop/CS-subject-3-LAB 3.1.csv","legacy","2 8 9 4 1","Lentiform Loewenfeld","3.3.3","0","n","0","right","right","left","right","NA","535","168421","1567","535","NA","2","legacy","5","1024","2","48000","-16","experiment","3","odd","5","352249","342805","350024","22303","268625","350029","348720","22330","267056","354259","354796","351039","190772","354259","NA","Sterberg task","24","14899","26","yes","1024"
"92.5925925925926","92.5925925925926","572.5555555555555","572.5555555555555","black","experiment","legacy","legacy","legacy","0","uniform","1","undefined","1","right","26","26","26","0","0","26","26","0","0","26","26","26","0","26","0","Sat Oct 24 14:03:29 2020","The main experiment item","yes","Sterbergtask.osexp","C:\Users\Colton\OneDrive\Desktop","no","mono","no","18","no","white","no","no","768","legacy","14","11","C:/Users/Colton/OneDrive/Desktop/CS-subject-3-LAB 3.1.csv","legacy","1 4 9 3","Lentiform Loewenfeld","3.3.3","0","n","0","right","right","left","right","NA","560","168421","1567","560","NA","2","legacy","4","1024","2","48000","-16","experiment","3","odd","5","358385","354858","356155","22303","268625","356160","348720","22330","267056","360391","360953","357170","190772","360391","NA","Sterberg task","25","15459","27","yes","1024"
"92.85714285714286","92.85714285714286","567.8214285714286","567.8214285714286","black","experiment","legacy","legacy","legacy","0","uniform","1","undefined","1","left","27","27","27","0","0","27","27","0","0","27","27","27","0","27","0","Sat Oct 24 14:03:29 2020","The main experiment item","yes","Sterbergtask.osexp","C:\Users\Colton\OneDrive\Desktop","no","mono","no","18","no","white","no","no","768","legacy","15","11","C:/Users/Colton/OneDrive/Desktop/CS-subject-3-LAB 3.1.csv","legacy","2 3","Lentiform Loewenfeld","3.3.3","1","y","0","left","right","left","left","NA","440","168421","1567","440","NA","2","legacy","2","1024","2","48000","-16","experiment","3","odd","2","364640","361044","362422","22303","268625","362427","348720","22330","267056","366650","367092","363431","190772","366650","NA","Sterberg task","26","15899","28","yes","1024"
"93.10344827586206","93.10344827586206","562.5862068965517","562.5862068965517","black","experiment","legacy","legacy","legacy","0","uniform","1","undefined","1","left","28","28","28","0","0","28","28","0","0","28","28","28","0","28","0","Sat Oct 24 14:03:29 2020","The main experiment item","yes","Sterbergtask.osexp","C:\Users\Colton\OneDrive\Desktop","no","mono","no","18","no","white","no","no","768","legacy","16","11","C:/Users/Colton/OneDrive/Desktop/CS-subject-3-LAB 3.1.csv","legacy","8 3","Lentiform Loewenfeld","3.3.3","2","y","0","left","right","left","left","NA","416","168421","1567","416","NA","2","legacy","2","1024","2","48000","-16","experiment","3","odd","3","370840","367205","368611","22303","268625","368622","348720","22330","267056","372845","373263","369626","190772","372844","NA","Sterberg task","27","16315","29","yes","1024"
"93.33333333333333","93.33333333333333","561.5333333333333","561.5333333333333","black","experiment","legacy","legacy","legacy","0","uniform","1","undefined","1","left","29","29","29","0","0","29","29","0","0","29","29","29","0","29","0","Sat Oct 24 14:03:29 2020","The main experiment item","yes","Sterbergtask.osexp","C:\Users\Colton\OneDrive\Desktop","no","mono","no","18","no","white","no","no","768","legacy","17","11","C:/Users/Colton/OneDrive/Desktop/CS-subject-3-LAB 3.1.csv","legacy","2 4 6 9","Lentiform Loewenfeld","3.3.3","3","y","0","left","right","left","left","NA","531","168421","1567","531","NA","2","legacy","4","1024","2","48000","-16","experiment","3","odd","6","376938","373292","374712","22303","268625","374716","348720","22330","267056","378948","379481","375726","190772","378948","NA","Sterberg task","28","16846","30","yes","1024"
"93.54838709677419","93.54838709677419","558.4516129032259","558.4516129032259","black","experiment","legacy","legacy","legacy","0","uniform","1","undefined","1","left","30","30","30","0","0","30","30","0","0","30","30","30","0","30","0","Sat Oct 24 14:03:29 2020","The main experiment item","yes","Sterbergtask.osexp","C:\Users\Colton\OneDrive\Desktop","no","mono","no","18","no","white","no","no","768","legacy","18","11","C:/Users/Colton/OneDrive/Desktop/CS-subject-3-LAB 3.1.csv","legacy","8 5 3 7 4 6","Lentiform Loewenfeld","3.3.3","6","y","0","left","right","left","left","NA","466","168421","1567","466","NA","2","legacy","6","1024","2","48000","-16","experiment","3","odd","6","383197","379582","380972","22303","268625","380983","348720","22330","267056","385203","385671","381993","190772","385203","NA","Sterberg task","29","17312","31","yes","1024"
"93.75","93.75","562.1875","562.1875","black","experiment","legacy","legacy","legacy","0","uniform","1","undefined","1","left","31","31","31","0","0","31","31","0","0","31","31","31","0","31","0","Sat Oct 24 14:03:29 2020","The main experiment item","yes","Sterbergtask.osexp","C:\Users\Colton\OneDrive\Desktop","no","mono","no","18","no","white","no","no","768","legacy","19","11","C:/Users/Colton/OneDrive/Desktop/CS-subject-3-LAB 3.1.csv","legacy","8 1 6","Lentiform Loewenfeld","3.3.3","3","y","0","left","right","left","left","NA","678","168421","1567","678","NA","2","legacy","3","1024","2","48000","-16","experiment","3","odd","6","389225","385707","387009","22303","268625","387014","348720","22330","267056","391230","391911","388020","190772","391230","NA","Sterberg task","30","17990","32","yes","1024"
"93.93939393939394","93.93939393939394","563.8484848484849","563.8484848484849","black","experiment","legacy","legacy","legacy","0","uniform","1","undefined","1","right","32","32","32","0","0","32","32","0","0","32","32","32","0","32","0","Sat Oct 24 14:03:29 2020","The main experiment item","yes","Sterbergtask.osexp","C:\Users\Colton\OneDrive\Desktop","no","mono","no","18","no","white","no","no","768","legacy","20","11","C:/Users/Colton/OneDrive/Desktop/CS-subject-3-LAB 3.1.csv","legacy","5","Lentiform Loewenfeld","3.3.3","0","n","0","right","right","left","right","NA","617","168421","1567","617","NA","2","legacy","1","1024","2","48000","-16","experiment","3","odd","8","395480","391949","393249","22303","268625","393254","348720","22330","267056","397490","398112","394266","190772","397490","NA","Sterberg task","31","18607","33","yes","1024"
"94.11764705882354","94.11764705882354","565.4411764705883","565.4411764705883","black","experiment","legacy","legacy","legacy","0","uniform","1","undefined","1","right","33","33","33","0","0","33","33","0","0","33","33","33","0","33","0","Sat Oct 24 14:03:29 2020","The main experiment item","yes","Sterbergtask.osexp","C:\Users\Colton\OneDrive\Desktop","no","mono","no","18","no","white","no","no","768","legacy","21","11","C:/Users/Colton/OneDrive/Desktop/CS-subject-3-LAB 3.1.csv","legacy","6 8","Lentiform Loewenfeld","3.3.3","0","n","0","right","right","left","right","NA","618","168421","1567","618","NA","2","legacy","2","1024","2","48000","-16","experiment","3","odd","9","401751","398226","399531","22303","268625","399542","348720","22330","267056","403761","404388","400546","190772","403760","NA","Sterberg task","32","19225","34","yes","1024"
"94.28571428571429","94.28571428571429","564.3714285714286","564.3714285714286","black","experiment","legacy","legacy","legacy","0","uniform","1","undefined","1","left","34","34","34","0","0","34","34","0","0","34","34","34","0","34","0","Sat Oct 24 14:03:29 2020","The main experiment item","yes","Sterbergtask.osexp","C:\Users\Colton\OneDrive\Desktop","no","mono","no","18","no","white","no","no","768","legacy","22","11","C:/Users/Colton/OneDrive/Desktop/CS-subject-3-LAB 3.1.csv","legacy","8 7 3","Lentiform Loewenfeld","3.3.3","1","y","0","left","right","left","left","NA","528","168421","1567","528","NA","2","legacy","3","1024","2","48000","-16","experiment","3","odd","8","408096","404443","405876","22303","268625","405882","348720","22330","267056","410107","410637","406887","190772","410106","NA","Sterberg task","33","19753","35","yes","1024"
"94.44444444444444","94.44444444444444","573.9444444444445","573.9444444444445","black","experiment","legacy","legacy","legacy","0","uniform","1","undefined","1","right","35","35","35","0","0","35","35","0","0","35","35","35","0","35","0","Sat Oct 24 14:03:29 2020","The main experiment item","yes","Sterbergtask.osexp","C:\Users\Colton\OneDrive\Desktop","no","mono","no","18","no","white","no","no","768","legacy","23","11","C:/Users/Colton/OneDrive/Desktop/CS-subject-3-LAB 3.1.csv","legacy","7 1","Lentiform Loewenfeld","3.3.3","0","n","0","right","right","left","right","NA","909","168421","1567","909","NA","2","legacy","2","1024","2","48000","-16","experiment","3","odd","8","414318","410706","412093","22303","268625","412104","348720","22330","267056","416324","417242","413109","190772","416323","NA","Sterberg task","34","20662","36","yes","1024"
"94.5945945945946","94.5945945945946","571.8918918918919","571.8918918918919","black","experiment","legacy","legacy","legacy","0","uniform","1","undefined","1","left","36","36","36","0","0","36","36","0","0","36","36","36","0","36","0","Sat Oct 24 14:03:29 2020","The main experiment item","yes","Sterbergtask.osexp","C:\Users\Colton\OneDrive\Desktop","no","mono","no","18","no","white","no","no","768","legacy","24","11","C:/Users/Colton/OneDrive/Desktop/CS-subject-3-LAB 3.1.csv","legacy","3 9 7 6 4","Lentiform Loewenfeld","3.3.3","3","y","0","left","right","left","left","NA","498","168421","1567","498","NA","2","legacy","5","1024","2","48000","-16","experiment","3","odd","7","420829","417305","418609","22303","268625","418613","348720","22330","267056","422839","423340","419619","190772","422839","NA","Sterberg task","35","21160","37","yes","1024"
"94.73684210526316","94.73684210526316","571.3157894736842","571.3157894736842","black","experiment","legacy","legacy","legacy","0","uniform","1","undefined","1","left","37","37","37","0","0","37","37","0","0","37","37","37","0","37","0","Sat Oct 24 14:03:29 2020","The main experiment item","yes","Sterbergtask.osexp","C:\Users\Colton\OneDrive\Desktop","no","mono","no","18","no","white","no","no","768","legacy","25","11","C:/Users/Colton/OneDrive/Desktop/CS-subject-3-LAB 3.1.csv","legacy","4","Lentiform Loewenfeld","3.3.3","1","y","0","left","right","left","left","NA","550","168421","1567","550","NA","2","legacy","1","1024","2","48000","-16","experiment","3","odd","4","426941","423418","424709","22303","268625","424714","348720","22330","267056","428946","429498","425725","190772","428945","NA","Sterberg task","36","21710","38","yes","1024"
"92.3076923076923","92.3076923076923","573.4871794871794","573.4871794871794","black","experiment","legacy","legacy","legacy","0","uniform","0","undefined","0","left","38","38","38","0","0","38","38","0","0","38","38","38","0","38","0","Sat Oct 24 14:03:29 2020","The main experiment item","yes","Sterbergtask.osexp","C:\Users\Colton\OneDrive\Desktop","no","mono","no","18","no","white","no","no","768","legacy","26","11","C:/Users/Colton/OneDrive/Desktop/CS-subject-3-LAB 3.1.csv","legacy","6 9 3 1","Lentiform Loewenfeld","3.3.3","4","y","0","right","right","left","right","NA","656","168421","1567","656","NA","2","legacy","4","1024","2","48000","-16","experiment","3","odd","1","433073","429549","430854","22303","268625","430859","348720","22330","267056","435084","435743","431863","190772","435084","NA","Sterberg task","36","22366","39","yes","1024"
"92.5","92.5","575.5","575.5","black","experiment","legacy","legacy","legacy","0","uniform","1","undefined","1","right","39","39","39","0","0","39","39","0","0","39","39","39","0","39","0","Sat Oct 24 14:03:29 2020","The main experiment item","yes","Sterbergtask.osexp","C:\Users\Colton\OneDrive\Desktop","no","mono","no","18","no","white","no","no","768","legacy","27","11","C:/Users/Colton/OneDrive/Desktop/CS-subject-3-LAB 3.1.csv","legacy","5 3 2 6 9 8","Lentiform Loewenfeld","3.3.3","0","n","0","right","right","left","right","NA","654","168421","1567","654","NA","2","legacy","6","1024","2","48000","-16","experiment","3","odd","4","439428","429549","437201","22303","268625","437206","435794","22330","267056","441442","442098","438212","190772","441442","NA","Sterberg task","37","23020","40","yes","1024"
"92.6829268292683","92.6829268292683","575.5365853658536","575.5365853658536","black","experiment","legacy","legacy","legacy","0","uniform","1","undefined","1","right","40","40","40","0","0","40","40","0","0","40","40","40","0","40","0","Sat Oct 24 14:03:29 2020","The main experiment item","yes","Sterbergtask.osexp","C:\Users\Colton\OneDrive\Desktop","no","mono","no","18","no","white","no","no","768","legacy","28","11","C:/Users/Colton/OneDrive/Desktop/CS-subject-3-LAB 3.1.csv","legacy","1 5 3 2 8","Lentiform Loewenfeld","3.3.3","0","n","0","right","right","left","right","NA","577","168421","1567","577","NA","2","legacy","5","1024","2","48000","-16","experiment","3","odd","4","445757","442146","443536","22303","268625","443546","435794","22330","267056","447775","448355","444551","190772","447774","NA","Sterberg task","38","23597","41","yes","1024"
"92.85714285714286","92.85714285714286","571.6904761904761","571.6904761904761","black","experiment","legacy","legacy","legacy","0","uniform","1","undefined","1","left","41","41","41","0","0","41","41","0","0","41","41","41","0","41","0","Sat Oct 24 14:03:29 2020","The main experiment item","yes","Sterbergtask.osexp","C:\Users\Colton\OneDrive\Desktop","no","mono","no","18","no","white","no","no","768","legacy","29","11","C:/Users/Colton/OneDrive/Desktop/CS-subject-3-LAB 3.1.csv","legacy","4 1 5","Lentiform Loewenfeld","3.3.3","2","y","0","left","right","left","left","NA","414","168421","1567","414","NA","2","legacy","3","1024","2","48000","-16","experiment","3","odd","1","452028","448383","449807","22303","268625","449812","435794","22330","267056","454035","454451","450818","190772","454034","NA","Sterberg task","39","24011","42","yes","1024"
"93.02325581395348","93.02325581395348","572.8837209302326","572.8837209302326","black","experiment","legacy","legacy","legacy","0","uniform","1","undefined","1","left","42","42","42","0","0","42","42","0","0","42","42","42","0","42","0","Sat Oct 24 14:03:29 2020","The main experiment item","yes","Sterbergtask.osexp","C:\Users\Colton\OneDrive\Desktop","no","mono","no","18","no","white","no","no","768","legacy","30","11","C:/Users/Colton/OneDrive/Desktop/CS-subject-3-LAB 3.1.csv","legacy","2 3 7 4","Lentiform Loewenfeld","3.3.3","1","y","0","left","right","left","left","NA","623","168421","1567","623","NA","2","legacy","4","1024","2","48000","-16","experiment","3","odd","2","458011","454495","455790","22303","268625","455795","435794","22330","267056","460021","460646","456806","190772","460021","NA","Sterberg task","40","24634","43","yes","1024"
"93.18181818181819","93.18181818181819","577.8863636363636","577.8863636363636","black","experiment","legacy","legacy","legacy","0","uniform","1","undefined","1","right","43","43","43","0","0","43","43","0","0","43","43","43","0","43","0","Sat Oct 24 14:03:29 2020","The main experiment item","yes","Sterbergtask.osexp","C:\Users\Colton\OneDrive\Desktop","no","mono","no","18","no","white","no","no","768","legacy","31","11","C:/Users/Colton/OneDrive/Desktop/CS-subject-3-LAB 3.1.csv","legacy","1 8 7","Lentiform Loewenfeld","3.3.3","0","n","0","right","right","left","right","NA","793","168421","1567","793","NA","2","legacy","3","1024","2","48000","-16","experiment","3","odd","4","464216","460705","461992","22303","268625","461997","435794","22330","267056","466225","467022","463007","190772","466225","NA","Sterberg task","41","25427","44","yes","1024"
"93.33333333333333","93.33333333333333","579.5555555555555","579.5555555555555","black","experiment","legacy","legacy","legacy","0","uniform","1","undefined","1","left","44","44","44","0","0","44","44","0","0","44","44","44","0","44","0","Sat Oct 24 14:03:29 2020","The main experiment item","yes","Sterbergtask.osexp","C:\Users\Colton\OneDrive\Desktop","no","mono","no","18","no","white","no","no","768","legacy","32","11","C:/Users/Colton/OneDrive/Desktop/CS-subject-3-LAB 3.1.csv","legacy","1 4 9 3 2 5","Lentiform Loewenfeld","3.3.3","3","y","0","left","right","left","left","NA","653","168421","1567","653","NA","2","legacy","6","1024","2","48000","-16","experiment","3","odd","9","470722","467122","468498","22303","268625","468503","435794","22330","267056","472727","473383","469507","190772","472727","NA","Sterberg task","42","26080","45","yes","1024"
"93.47826086956522","93.47826086956522","578.1521739130435","578.1521739130435","black","experiment","legacy","legacy","legacy","0","uniform","1","undefined","1","left","45","45","45","0","0","45","45","0","0","45","45","45","0","45","0","Sat Oct 24 14:03:29 2020","The main experiment item","yes","Sterbergtask.osexp","C:\Users\Colton\OneDrive\Desktop","no","mono","no","18","no","white","no","no","768","legacy","33","11","C:/Users/Colton/OneDrive/Desktop/CS-subject-3-LAB 3.1.csv","legacy","9 3 8 2 1 4","Lentiform Loewenfeld","3.3.3","3","y","0","left","right","left","left","NA","515","168421","1567","515","NA","2","legacy","6","1024","2","48000","-16","experiment","3","odd","8","477017","473422","474786","22303","268625","474796","435794","22330","267056","479023","479542","475801","190772","479023","NA","Sterberg task","43","26595","46","yes","1024"
"93.61702127659575","93.61702127659575","579.5957446808511","579.5957446808511","black","experiment","legacy","legacy","legacy","0","uniform","1","undefined","1","right","46","46","46","0","0","46","46","0","0","46","46","46","0","46","0","Sat Oct 24 14:03:29 2020","The main experiment item","yes","Sterbergtask.osexp","C:\Users\Colton\OneDrive\Desktop","no","mono","no","18","no","white","no","no","768","legacy","34","11","C:/Users/Colton/OneDrive/Desktop/CS-subject-3-LAB 3.1.csv","legacy","7 9 1 6","Lentiform Loewenfeld","3.3.3","0","n","0","right","right","left","right","NA","646","168421","1567","646","NA","2","legacy","4","1024","2","48000","-16","experiment","3","odd","4","483236","479592","481020","22303","268625","481025","435794","22330","267056","485241","485889","482030","190772","485241","NA","Sterberg task","44","27241","47","yes","1024"
"91.66666666666667","91.66666666666667","582.3958333333334","582.3958333333334","black","experiment","legacy","legacy","legacy","0","uniform","0","undefined","0","right","47","47","47","0","0","47","47","0","0","47","47","47","0","47","0","Sat Oct 24 14:03:29 2020","The main experiment item","yes","Sterbergtask.osexp","C:\Users\Colton\OneDrive\Desktop","no","mono","no","18","no","white","no","no","768","legacy","35","11","C:/Users/Colton/OneDrive/Desktop/CS-subject-3-LAB 3.1.csv","legacy","1 6 4 3 9 7","Lentiform Loewenfeld","3.3.3","0","n","0","left","right","left","left","NA","714","168421","1567","714","NA","2","legacy","6","1024","2","48000","-16","experiment","3","odd","8","489468","485947","487244","22303","268625","487248","435794","22330","267056","491477","492193","488264","190772","491476","NA","Sterberg task","44","27955","48","yes","1024"
"91.83673469387755","91.83673469387755","586.2244897959183","586.2244897959183","black","experiment","legacy","legacy","legacy","0","uniform","1","undefined","1","right","48","48","48","0","0","48","48","0","0","48","48","48","0","48","0","Sat Oct 24 14:03:29 2020","The main experiment item","yes","Sterbergtask.osexp","C:\Users\Colton\OneDrive\Desktop","no","mono","no","18","no","white","no","no","768","legacy","36","11","C:/Users/Colton/OneDrive/Desktop/CS-subject-3-LAB 3.1.csv","legacy","8 4 3 5","Lentiform Loewenfeld","3.3.3","0","n","0","right","right","left","right","NA","770","168421","1567","770","NA","2","legacy","4","1024","2","48000","-16","experiment","3","odd","6","495777","485947","493547","22303","268625","493552","492240","22330","267056","497786","498559","494562","190772","497786","NA","Sterberg task","45","28725","49","yes","1024"
"90","90","600.54","600.54","black","experiment","legacy","legacy","legacy","0","uniform","0","undefined","0","left","49","49","49","0","0","49","49","0","0","49","49","49","0","49","0","Sat Oct 24 14:03:29 2020","The main experiment item","yes","Sterbergtask.osexp","C:\Users\Colton\OneDrive\Desktop","no","mono","no","18","no","white","no","no","768","legacy","37","11","C:/Users/Colton/OneDrive/Desktop/CS-subject-3-LAB 3.1.csv","legacy","7 6","Lentiform Loewenfeld","3.3.3","2","y","0","right","right","left","right","NA","1302","168421","1567","1302","NA","2","legacy","2","1024","2","48000","-16","experiment","3","odd","6","502208","498602","499988","22303","268625","499993","492240","22330","267056","504216","505521","500998","190772","504216","NA","Sterberg task","45","30027","50","yes","1024"
"90.19607843137256","90.19607843137256","601.7843137254902","601.7843137254902","black","experiment","legacy","legacy","legacy","0","uniform","1","undefined","1","left","50","50","50","0","0","50","50","0","0","50","50","50","0","50","0","Sat Oct 24 14:03:29 2020","The main experiment item","yes","Sterbergtask.osexp","C:\Users\Colton\OneDrive\Desktop","no","mono","no","18","no","white","no","no","768","legacy","38","11","C:/Users/Colton/OneDrive/Desktop/CS-subject-3-LAB 3.1.csv","legacy","6 7 9 3 1 2","Lentiform Loewenfeld","3.3.3","1","y","0","left","right","left","left","NA","664","168421","1567","664","NA","2","legacy","6","1024","2","48000","-16","experiment","3","odd","6","509153","498602","506939","22303","268625","506944","505562","22330","267056","511157","511825","507949","190772","511157","NA","Sterberg task","46","30691","51","yes","1024"
"90.38461538461539","90.38461538461539","602.5961538461538","602.5961538461538","black","experiment","legacy","legacy","legacy","0","uniform","1","undefined","1","left","51","51","51","0","0","51","51","0","0","51","51","51","0","51","0","Sat Oct 24 14:03:29 2020","The main experiment item","yes","Sterbergtask.osexp","C:\Users\Colton\OneDrive\Desktop","no","mono","no","18","no","white","no","no","768","legacy","39","11","C:/Users/Colton/OneDrive/Desktop/CS-subject-3-LAB 3.1.csv","legacy","4 3 2 5 8","Lentiform Loewenfeld","3.3.3","2","y","0","left","right","left","left","NA","644","168421","1567","644","NA","2","legacy","5","1024","2","48000","-16","experiment","3","odd","3","515418","511862","513197","22303","268625","513201","505562","22330","267056","517429","518082","514212","190772","517429","NA","Sterberg task","47","31335","52","yes","1024"
"90.56603773584905","90.56603773584905","600.4716981132076","600.4716981132076","black","experiment","legacy","legacy","legacy","0","uniform","1","undefined","1","right","52","52","52","0","0","52","52","0","0","52","52","52","0","52","0","Sat Oct 24 14:03:29 2020","The main experiment item","yes","Sterbergtask.osexp","C:\Users\Colton\OneDrive\Desktop","no","mono","no","18","no","white","no","no","768","legacy","40","11","C:/Users/Colton/OneDrive/Desktop/CS-subject-3-LAB 3.1.csv","legacy","2 5 1 4","Lentiform Loewenfeld","3.3.3","0","n","0","right","right","left","right","NA","490","168421","1567","490","NA","2","legacy","4","1024","2","48000","-16","experiment","3","odd","6","521670","518129","519440","22303","268625","519444","505562","22330","267056","523675","524168","520455","190772","523675","NA","Sterberg task","48","31825","53","yes","1024"
"90.74074074074075","90.74074074074075","596.7962962962963","596.7962962962963","black","experiment","legacy","legacy","legacy","0","uniform","1","undefined","1","left","53","53","53","0","0","53","53","0","0","53","53","53","0","53","0","Sat Oct 24 14:03:29 2020","The main experiment item","yes","Sterbergtask.osexp","C:\Users\Colton\OneDrive\Desktop","no","mono","no","18","no","white","no","no","768","legacy","41","11","C:/Users/Colton/OneDrive/Desktop/CS-subject-3-LAB 3.1.csv","legacy","3 2 1 4 7","Lentiform Loewenfeld","3.3.3","2","y","0","left","right","left","left","NA","402","168421","1567","402","NA","2","legacy","5","1024","2","48000","-16","experiment","3","odd","2","527726","524208","525505","22303","268625","525516","505562","22330","267056","529736","530143","526520","190772","529735","NA","Sterberg task","49","32227","54","yes","1024"
"90.9090909090909","90.9090909090909","594.2727272727273","594.2727272727273","black","experiment","legacy","legacy","legacy","0","uniform","1","undefined","1","left","54","54","54","0","0","54","54","0","0","54","54","54","0","54","0","Sat Oct 24 14:03:29 2020","The main experiment item","yes","Sterbergtask.osexp","C:\Users\Colton\OneDrive\Desktop","no","mono","no","18","no","white","no","no","768","legacy","42","11","C:/Users/Colton/OneDrive/Desktop/CS-subject-3-LAB 3.1.csv","legacy","9 1 7 2","Lentiform Loewenfeld","3.3.3","2","y","0","left","right","left","left","NA","458","168421","1567","458","NA","2","legacy","4","1024","2","48000","-16","experiment","3","odd","1","533786","530176","531562","22303","268625","531567","505562","22330","267056","535794","536258","532572","190772","535794","NA","Sterberg task","50","32685","55","yes","1024"
"91.07142857142857","91.07142857142857","593.0535714285714","593.0535714285714","black","experiment","legacy","legacy","legacy","0","uniform","1","undefined","1","left","55","55","55","0","0","55","55","0","0","55","55","55","0","55","0","Sat Oct 24 14:03:29 2020","The main experiment item","yes","Sterbergtask.osexp","C:\Users\Colton\OneDrive\Desktop","no","mono","no","18","no","white","no","no","768","legacy","43","11","C:/Users/Colton/OneDrive/Desktop/CS-subject-3-LAB 3.1.csv","legacy","9 6 2 4 1","Lentiform Loewenfeld","3.3.3","4","y","0","left","right","left","left","NA","526","168421","1567","526","NA","2","legacy","5","1024","2","48000","-16","experiment","3","odd","4","539944","536323","537727","22303","268625","537733","505562","22330","267056","541949","542478","538738","190772","541949","NA","Sterberg task","51","33211","56","yes","1024"
"91.2280701754386","91.2280701754386","591.5087719298245","591.5087719298245","black","experiment","legacy","legacy","legacy","0","uniform","1","undefined","1","right","56","56","56","0","0","56","56","0","0","56","56","56","0","56","0","Sat Oct 24 14:03:29 2020","The main experiment item","yes","Sterbergtask.osexp","C:\Users\Colton\OneDrive\Desktop","no","mono","no","18","no","white","no","no","768","legacy","44","11","C:/Users/Colton/OneDrive/Desktop/CS-subject-3-LAB 3.1.csv","legacy","2 7 5","Lentiform Loewenfeld","3.3.3","0","n","0","right","right","left","right","NA","505","168421","1567","505","NA","2","legacy","3","1024","2","48000","-16","experiment","3","odd","8","546198","542563","543982","22303","268625","543988","505562","22330","267056","548204","548712","544993","190772","548203","NA","Sterberg task","52","33716","57","yes","1024"
"91.37931034482759","91.37931034482759","589","589","black","experiment","legacy","legacy","legacy","0","uniform","1","undefined","1","left","57","57","57","0","0","57","57","0","0","57","57","57","0","57","0","Sat Oct 24 14:03:29 2020","The main experiment item","yes","Sterbergtask.osexp","C:\Users\Colton\OneDrive\Desktop","no","mono","no","18","no","white","no","no","768","legacy","45","11","C:/Users/Colton/OneDrive/Desktop/CS-subject-3-LAB 3.1.csv","legacy","8 9 5 6 7","Lentiform Loewenfeld","3.3.3","1","y","0","left","right","left","left","NA","446","168421","1567","446","NA","2","legacy","5","1024","2","48000","-16","experiment","3","odd","8","552300","548752","550083","22303","268625","550088","505562","22330","267056","554305","554755","551095","190772","554305","NA","Sterberg task","53","34162","58","yes","1024"
"91.52542372881356","91.52542372881356","588.8474576271186","588.8474576271186","black","experiment","legacy","legacy","legacy","0","uniform","1","undefined","1","right","58","58","58","0","0","58","58","0","0","58","58","58","0","58","0","Sat Oct 24 14:03:29 2020","The main experiment item","yes","Sterbergtask.osexp","C:\Users\Colton\OneDrive\Desktop","no","mono","no","18","no","white","no","no","768","legacy","46","11","C:/Users/Colton/OneDrive/Desktop/CS-subject-3-LAB 3.1.csv","legacy","7 1 5 6 3","Lentiform Loewenfeld","3.3.3","0","n","0","right","right","left","right","NA","580","168421","1567","580","NA","2","legacy","5","1024","2","48000","-16","experiment","3","odd","8","558361","554827","556136","22303","268625","556140","505562","22330","267056","560374","560965","557146","190772","560374","NA","Sterberg task","54","34742","59","yes","1024"
"91.66666666666667","91.66666666666667","586.0833333333334","586.0833333333334","black","experiment","legacy","legacy","legacy","0","uniform","1","undefined","1","left","59","59","59","0","0","59","59","0","0","59","59","59","0","59","0","Sat Oct 24 14:03:29 2020","The main experiment item","yes","Sterbergtask.osexp","C:\Users\Colton\OneDrive\Desktop","no","mono","no","18","no","white","no","no","768","legacy","47","11","C:/Users/Colton/OneDrive/Desktop/CS-subject-3-LAB 3.1.csv","legacy","5 7 3 6 2","Lentiform Loewenfeld","3.3.3","5","y","0","left","right","left","left","NA","423","168421","1567","423","NA","2","legacy","5","1024","2","48000","-16","experiment","3","odd","2","564537","561020","562317","22303","268625","562321","505562","22330","267056","566547","566976","563327","190772","566546","NA","Sterberg task","55","35165","60","yes","1024"
"91.80327868852459","91.80327868852459","587.688524590164","587.688524590164","black","experiment","legacy","legacy","legacy","0","uniform","1","undefined","1","right","60","60","60","0","0","60","60","0","0","60","60","60","0","60","0","Sat Oct 24 14:03:29 2020","The main experiment item","yes","Sterbergtask.osexp","C:\Users\Colton\OneDrive\Desktop","no","mono","no","18","no","white","no","no","768","legacy","48","11","C:/Users/Colton/OneDrive/Desktop/CS-subject-3-LAB 3.1.csv","legacy","8 5 4 2 9 6","Lentiform Loewenfeld","3.3.3","0","n","0","right","right","left","right","NA","684","168421","1567","684","NA","2","legacy","6","1024","2","48000","-16","experiment","3","odd","3","570690","567079","568469","22303","268625","568476","505562","22330","267056","572704","573391","569480","190772","572704","NA","Sterberg task","56","35849","61","yes","1024"
"91.93548387096774","91.93548387096774","589.0483870967741","589.0483870967741","black","experiment","legacy","legacy","legacy","0","uniform","1","undefined","1","right","61","61","61","0","0","61","61","0","0","61","61","61","0","61","0","Sat Oct 24 14:03:29 2020","The main experiment item","yes","Sterbergtask.osexp","C:\Users\Colton\OneDrive\Desktop","no","mono","no","18","no","white","no","no","768","legacy","49","11","C:/Users/Colton/OneDrive/Desktop/CS-subject-3-LAB 3.1.csv","legacy","7 9","Lentiform Loewenfeld","3.3.3","0","n","0","right","right","left","right","NA","672","168421","1567","672","NA","2","legacy","2","1024","2","48000","-16","experiment","3","odd","1","577063","573438","574844","22303","268625","574849","505562","22330","267056","579068","579743","575853","190772","579068","NA","Sterberg task","57","36521","62","yes","1024"
"92.06349206349206","92.06349206349206","586.6349206349206","586.6349206349206","black","experiment","legacy","legacy","legacy","0","uniform","1","undefined","1","left","62","62","62","0","0","62","62","0","0","62","62","62","0","62","0","Sat Oct 24 14:03:29 2020","The main experiment item","yes","Sterbergtask.osexp","C:\Users\Colton\OneDrive\Desktop","no","mono","no","18","no","white","no","no","768","legacy","50","11","C:/Users/Colton/OneDrive/Desktop/CS-subject-3-LAB 3.1.csv","legacy","2 4 8 5 1 3","Lentiform Loewenfeld","3.3.3","1","y","0","left","right","left","left","NA","437","168421","1567","437","NA","2","legacy","6","1024","2","48000","-16","experiment","3","odd","2","583439","579794","581224","22303","268625","581229","505562","22330","267056","585446","585887","582234","190772","585445","NA","Sterberg task","58","36958","63","yes","1024"
"92.1875","92.1875","584.078125","584.078125","black","experiment","legacy","legacy","legacy","0","uniform","1","undefined","1","left","63","63","63","0","0","63","63","0","0","63","63","63","0","63","0","Sat Oct 24 14:03:29 2020","The main experiment item","yes","Sterbergtask.osexp","C:\Users\Colton\OneDrive\Desktop","no","mono","no","18","no","white","no","no","768","legacy","51","11","C:/Users/Colton/OneDrive/Desktop/CS-subject-3-LAB 3.1.csv","legacy","6 9 7 4 5 1","Lentiform Loewenfeld","3.3.3","2","y","0","left","right","left","left","NA","423","168421","1567","423","NA","2","legacy","6","1024","2","48000","-16","experiment","3","odd","9","589454","585931","587233","22303","268625","587238","505562","22330","267056","591470","591896","588249","190772","591470","NA","Sterberg task","59","37381","64","yes","1024"
"92.3076923076923","92.3076923076923","582.9384615384615","582.9384615384615","black","experiment","legacy","legacy","legacy","0","uniform","1","undefined","1","right","64","64","64","0","0","64","64","0","0","64","64","64","0","64","0","Sat Oct 24 14:03:29 2020","The main experiment item","yes","Sterbergtask.osexp","C:\Users\Colton\OneDrive\Desktop","no","mono","no","18","no","white","no","no","768","legacy","52","11","C:/Users/Colton/OneDrive/Desktop/CS-subject-3-LAB 3.1.csv","legacy","7 3 2 8","Lentiform Loewenfeld","3.3.3","0","n","0","right","right","left","right","NA","510","168421","1567","510","NA","2","legacy","4","1024","2","48000","-16","experiment","3","odd","4","595469","591954","593250","22303","268625","593255","505562","22330","267056","597478","597991","594260","190772","597478","NA","Sterberg task","60","37891","65","yes","1024"
"92.42424242424242","92.42424242424242","593.3484848484849","593.3484848484849","black","experiment","legacy","legacy","legacy","0","uniform","1","undefined","1","right","65","65","65","0","0","65","65","0","0","65","65","65","0","65","0","Sat Oct 24 14:03:29 2020","The main experiment item","yes","Sterbergtask.osexp","C:\Users\Colton\OneDrive\Desktop","no","mono","no","18","no","white","no","no","768","legacy","53","11","C:/Users/Colton/OneDrive/Desktop/CS-subject-3-LAB 3.1.csv","legacy","1 3 2 6 9","Lentiform Loewenfeld","3.3.3","0","n","0","right","right","left","right","NA","1270","168421","1567","1270","NA","2","legacy","5","1024","2","48000","-16","experiment","3","odd","5","601558","598043","599338","22303","268625","599343","505562","22330","267056","603568","604841","600347","190772","603568","NA","Sterberg task","61","39161","66","yes","1024"
"92.53731343283582","92.53731343283582","593.3432835820895","593.3432835820895","black","experiment","legacy","legacy","legacy","0","uniform","1","undefined","1","right","66","66","66","0","0","66","66","0","0","66","66","66","0","66","0","Sat Oct 24 14:03:29 2020","The main experiment item","yes","Sterbergtask.osexp","C:\Users\Colton\OneDrive\Desktop","no","mono","no","18","no","white","no","no","768","legacy","54","11","C:/Users/Colton/OneDrive/Desktop/CS-subject-3-LAB 3.1.csv","legacy","6 3 1 7 9 8","Lentiform Loewenfeld","3.3.3","0","n","0","right","right","left","right","NA","593","168421","1567","593","NA","2","legacy","6","1024","2","48000","-16","experiment","3","odd","4","608509","604886","606279","22303","268625","606286","505562","22330","267056","610519","611117","607294","190772","610519","NA","Sterberg task","62","39754","67","yes","1024"
"92.6470588235294","92.6470588235294","591.5588235294117","591.5588235294117","black","experiment","legacy","legacy","legacy","0","uniform","1","undefined","1","right","67","67","67","0","0","67","67","0","0","67","67","67","0","67","0","Sat Oct 24 14:03:29 2020","The main experiment item","yes","Sterbergtask.osexp","C:\Users\Colton\OneDrive\Desktop","no","mono","no","18","no","white","no","no","768","legacy","55","11","C:/Users/Colton/OneDrive/Desktop/CS-subject-3-LAB 3.1.csv","legacy","6 7 5 9","Lentiform Loewenfeld","3.3.3","0","n","0","right","right","left","right","NA","472","168421","1567","472","NA","2","legacy","4","1024","2","48000","-16","experiment","3","odd","2","614806","611210","612581","22303","268625","612591","505562","22330","267056","616814","617290","613596","190772","616814","NA","Sterberg task","63","40226","68","yes","1024"
"92.7536231884058","92.7536231884058","591.0434782608696","591.0434782608696","black","experiment","legacy","legacy","legacy","0","uniform","1","undefined","1","right","68","68","68","0","0","68","68","0","0","68","68","68","0","68","0","Sat Oct 24 14:03:29 2020","The main experiment item","yes","Sterbergtask.osexp","C:\Users\Colton\OneDrive\Desktop","no","mono","no","18","no","white","no","no","768","legacy","56","11","C:/Users/Colton/OneDrive/Desktop/CS-subject-3-LAB 3.1.csv","legacy","1 4 3 6 5","Lentiform Loewenfeld","3.3.3","0","n","0","right","right","left","right","NA","556","168421","1567","556","NA","2","legacy","5","1024","2","48000","-16","experiment","3","odd","8","620961","617321","618743","22303","268625","618747","505562","22330","267056","622965","623523","619755","190772","622965","NA","Sterberg task","64","40782","69","yes","1024"
"92.85714285714286","92.85714285714286","589.4285714285714","589.4285714285714","black","experiment","legacy","legacy","legacy","0","uniform","1","undefined","1","right","69","69","69","0","0","69","69","0","0","69","69","69","0","69","0","Sat Oct 24 14:03:29 2020","The main experiment item","yes","Sterbergtask.osexp","C:\Users\Colton\OneDrive\Desktop","no","mono","no","18","no","white","no","no","768","legacy","57","11","C:/Users/Colton/OneDrive/Desktop/CS-subject-3-LAB 3.1.csv","legacy","1 7 5 2","Lentiform Loewenfeld","3.3.3","0","n","0","right","right","left","right","NA","478","168421","1567","478","NA","2","legacy","4","1024","2","48000","-16","experiment","3","odd","3","627129","623595","624907","22303","268625","624912","505562","22330","267056","629135","629617","625923","190772","629134","NA","Sterberg task","65","41260","70","yes","1024"
"92.95774647887323","92.95774647887323","587.5492957746479","587.5492957746479","black","experiment","legacy","legacy","legacy","0","uniform","1","undefined","1","right","70","70","70","0","0","70","70","0","0","70","70","70","0","70","0","Sat Oct 24 14:03:29 2020","The main experiment item","yes","Sterbergtask.osexp","C:\Users\Colton\OneDrive\Desktop","no","mono","no","18","no","white","no","no","768","legacy","58","11","C:/Users/Colton/OneDrive/Desktop/CS-subject-3-LAB 3.1.csv","legacy","5 7 3","Lentiform Loewenfeld","3.3.3","0","n","0","right","right","left","right","NA","456","168421","1567","456","NA","2","legacy","3","1024","2","48000","-16","experiment","3","odd","9","633234","629711","631005","22303","268625","631009","505562","22330","267056","635241","635701","632019","190772","635240","NA","Sterberg task","66","41716","71","yes","1024"
"93.05555555555556","93.05555555555556","585.5","585.5","black","experiment","legacy","legacy","legacy","0","uniform","1","undefined","1","right","71","71","71","0","0","71","71","0","0","71","71","71","0","71","0","Sat Oct 24 14:03:29 2020","The main experiment item","yes","Sterbergtask.osexp","C:\Users\Colton\OneDrive\Desktop","no","mono","no","18","no","white","no","no","768","legacy","59","11","C:/Users/Colton/OneDrive/Desktop/CS-subject-3-LAB 3.1.csv","legacy","4 2 7 6 1 3","Lentiform Loewenfeld","3.3.3","0","n","0","right","right","left","right","NA","440","168421","1567","440","NA","2","legacy","6","1024","2","48000","-16","experiment","3","odd","8","639289","635744","637070","22303","268625","637080","505562","22330","267056","641294","641738","638084","190772","641293","NA","Sterberg task","67","42156","72","yes","1024"
"93.15068493150685","93.15068493150685","586.3698630136986","586.3698630136986","black","experiment","legacy","legacy","legacy","0","uniform","1","undefined","1","left","72","72","72","0","0","72","72","0","0","72","72","72","0","72","0","Sat Oct 24 14:03:29 2020","The main experiment item","yes","Sterbergtask.osexp","C:\Users\Colton\OneDrive\Desktop","no","mono","no","18","no","white","no","no","768","legacy","60","11","C:/Users/Colton/OneDrive/Desktop/CS-subject-3-LAB 3.1.csv","legacy","3 5 7 1","Lentiform Loewenfeld","3.3.3","3","y","0","left","right","left","left","NA","649","168421","1567","649","NA","2","legacy","4","1024","2","48000","-16","experiment","3","odd","7","645408","641799","643181","22303","268625","643186","505562","22330","267056","647418","648070","644192","190772","647418","NA","Sterberg task","68","42805","73","yes","1024"
"93.24324324324324","93.24324324324324","584.527027027027","584.527027027027","black","experiment","legacy","legacy","legacy","0","uniform","1","undefined","1","right","73","73","73","0","0","73","73","0","0","73","73","73","0","73","0","Sat Oct 24 14:03:29 2020","The main experiment item","yes","Sterbergtask.osexp","C:\Users\Colton\OneDrive\Desktop","no","mono","no","18","no","white","no","no","768","legacy","61","11","C:/Users/Colton/OneDrive/Desktop/CS-subject-3-LAB 3.1.csv","legacy","1","Lentiform Loewenfeld","3.3.3","0","n","0","right","right","left","right","NA","450","168421","1567","450","NA","2","legacy","1","1024","2","48000","-16","experiment","3","odd","7","651753","648144","649539","22303","268625","649544","505562","22330","267056","653757","654211","650548","190772","653757","NA","Sterberg task","69","43255","74","yes","1024"
"92","92","586.9333333333333","586.9333333333333","black","experiment","legacy","legacy","legacy","0","uniform","0","undefined","0","left","74","74","74","0","0","74","74","0","0","74","74","74","0","74","0","Sat Oct 24 14:03:29 2020","The main experiment item","yes","Sterbergtask.osexp","C:\Users\Colton\OneDrive\Desktop","no","mono","no","18","no","white","no","no","768","legacy","62","11","C:/Users/Colton/OneDrive/Desktop/CS-subject-3-LAB 3.1.csv","legacy","6 7 8 5","Lentiform Loewenfeld","3.3.3","3","y","0","right","right","left","right","NA","765","168421","1567","765","NA","2","legacy","4","1024","2","48000","-16","experiment","3","odd","8","657895","654244","655669","22303","268625","655680","505562","22330","267056","659900","660669","656690","190772","659900","NA","Sterberg task","69","44020","75","yes","1024"
"92.10526315789474","92.10526315789474","585.7631578947369","585.7631578947369","black","experiment","legacy","legacy","legacy","0","uniform","1","undefined","1","left","75","75","75","0","0","75","75","0","0","75","75","75","0","75","0","Sat Oct 24 14:03:29 2020","The main experiment item","yes","Sterbergtask.osexp","C:\Users\Colton\OneDrive\Desktop","no","mono","no","18","no","white","no","no","768","legacy","63","11","C:/Users/Colton/OneDrive/Desktop/CS-subject-3-LAB 3.1.csv","legacy","5 2 9 6 1 7","Lentiform Loewenfeld","3.3.3","3","y","0","left","right","left","left","NA","498","168421","1567","498","NA","2","legacy","6","1024","2","48000","-16","experiment","3","odd","9","664248","654244","662033","22303","268625","662037","660722","22330","267056","666253","666754","663042","190772","666252","NA","Sterberg task","70","44518","76","yes","1024"
"92.20779220779221","92.20779220779221","584.2337662337662","584.2337662337662","black","experiment","legacy","legacy","legacy","0","uniform","1","undefined","1","left","76","76","76","0","0","76","76","0","0","76","76","76","0","76","0","Sat Oct 24 14:03:29 2020","The main experiment item","yes","Sterbergtask.osexp","C:\Users\Colton\OneDrive\Desktop","no","mono","no","18","no","white","no","no","768","legacy","64","11","C:/Users/Colton/OneDrive/Desktop/CS-subject-3-LAB 3.1.csv","legacy","9 5 3 8 4","Lentiform Loewenfeld","3.3.3","1","y","0","left","right","left","left","NA","468","168421","1567","468","NA","2","legacy","5","1024","2","48000","-16","experiment","3","odd","9","670345","666822","668125","22303","268625","668130","660722","22330","267056","672350","672822","669134","190772","672350","NA","Sterberg task","71","44986","77","yes","1024"
"92.3076923076923","92.3076923076923","586.4871794871794","586.4871794871794","black","experiment","legacy","legacy","legacy","0","uniform","1","undefined","1","right","77","77","77","0","0","77","77","0","0","77","77","77","0","77","0","Sat Oct 24 14:03:29 2020","The main experiment item","yes","Sterbergtask.osexp","C:\Users\Colton\OneDrive\Desktop","no","mono","no","18","no","white","no","no","768","legacy","65","11","C:/Users/Colton/OneDrive/Desktop/CS-subject-3-LAB 3.1.csv","legacy","7 6 4 8 1 2","Lentiform Loewenfeld","3.3.3","0","n","0","right","right","left","right","NA","760","168421","1567","760","NA","2","legacy","6","1024","2","48000","-16","experiment","3","odd","9","676410","672893","674188","22303","268625","674193","660722","22330","267056","678415","679179","675197","190772","678415","NA","Sterberg task","72","45746","78","yes","1024"
"92.40506329113924","92.40506329113924","584.632911392405","584.632911392405","black","experiment","legacy","legacy","legacy","0","uniform","1","undefined","1","left","78","78","78","0","0","78","78","0","0","78","78","78","0","78","0","Sat Oct 24 14:03:29 2020","The main experiment item","yes","Sterbergtask.osexp","C:\Users\Colton\OneDrive\Desktop","no","mono","no","18","no","white","no","no","768","legacy","66","11","C:/Users/Colton/OneDrive/Desktop/CS-subject-3-LAB 3.1.csv","legacy","3 4","Lentiform Loewenfeld","3.3.3","1","y","0","left","right","left","left","NA","440","168421","1567","440","NA","2","legacy","2","1024","2","48000","-16","experiment","3","odd","3","682873","679234","680647","22303","268625","680652","660722","22330","267056","684882","685325","681658","190772","684882","NA","Sterberg task","73","46186","79","yes","1024"
"92.5","92.5","583.8375","583.8375","black","experiment","legacy","legacy","legacy","0","uniform","1","undefined","1","right","79","79","79","0","0","79","79","0","0","79","79","79","0","79","0","Sat Oct 24 14:03:29 2020","The main experiment item","yes","Sterbergtask.osexp","C:\Users\Colton\OneDrive\Desktop","no","mono","no","18","no","white","no","no","768","legacy","67","11","C:/Users/Colton/OneDrive/Desktop/CS-subject-3-LAB 3.1.csv","legacy","1 7 8 3 9","Lentiform Loewenfeld","3.3.3","0","n","0","right","right","left","right","NA","521","168421","1567","521","NA","2","legacy","5","1024","2","48000","-16","experiment","3","odd","2","689008","685369","686788","22303","268625","686797","660722","22330","267056","691012","691540","687802","190772","691012","NA","Sterberg task","74","46707","80","yes","1024"
"92.5925925925926","92.5925925925926","581.3703703703703","581.3703703703703","black","experiment","legacy","legacy","legacy","0","uniform","1","undefined","1","left","80","80","80","0","0","80","80","0","0","80","80","80","0","80","0","Sat Oct 24 14:03:29 2020","The main experiment item","yes","Sterbergtask.osexp","C:\Users\Colton\OneDrive\Desktop","no","mono","no","18","no","white","no","no","768","legacy","68","11","C:/Users/Colton/OneDrive/Desktop/CS-subject-3-LAB 3.1.csv","legacy","5 2 6","Lentiform Loewenfeld","3.3.3","2","y","0","left","right","left","left","NA","384","168421","1567","384","NA","2","legacy","3","1024","2","48000","-16","experiment","3","odd","2","695186","691601","692967","22303","268625","692978","660722","22330","267056","697191","697579","693982","190772","697191","NA","Sterberg task","75","47091","81","yes","1024"
"92.6829268292683","92.6829268292683","580.0365853658536","580.0365853658536","black","experiment","legacy","legacy","legacy","0","uniform","1","undefined","1","right","81","81","81","0","0","81","81","0","0","81","81","81","0","81","0","Sat Oct 24 14:03:29 2020","The main experiment item","yes","Sterbergtask.osexp","C:\Users\Colton\OneDrive\Desktop","no","mono","no","18","no","white","no","no","768","legacy","69","11","C:/Users/Colton/OneDrive/Desktop/CS-subject-3-LAB 3.1.csv","legacy","1 7 5 2 9","Lentiform Loewenfeld","3.3.3","0","n","0","right","right","left","right","NA","472","168421","1567","472","NA","2","legacy","5","1024","2","48000","-16","experiment","3","odd","3","701229","697612","699008","22303","268625","699014","660722","22330","267056","703235","703710","700025","190772","703235","NA","Sterberg task","76","47563","82","yes","1024"
"92.7710843373494","92.7710843373494","578.7831325301205","578.7831325301205","black","experiment","legacy","legacy","legacy","0","uniform","1","undefined","1","right","82","82","82","0","0","82","82","0","0","82","82","82","0","82","0","Sat Oct 24 14:03:29 2020","The main experiment item","yes","Sterbergtask.osexp","C:\Users\Colton\OneDrive\Desktop","no","mono","no","18","no","white","no","no","768","legacy","70","11","C:/Users/Colton/OneDrive/Desktop/CS-subject-3-LAB 3.1.csv","legacy","8 9","Lentiform Loewenfeld","3.3.3","0","n","0","right","right","left","right","NA","476","168421","1567","476","NA","2","legacy","2","1024","2","48000","-16","experiment","3","odd","5","707284","703759","705063","22303","268625","705068","660722","22330","267056","709288","709768","706080","190772","709288","NA","Sterberg task","77","48039","83","yes","1024"
"92.85714285714286","92.85714285714286","579.6428571428571","579.6428571428571","black","experiment","legacy","legacy","legacy","0","uniform","1","undefined","1","right","83","83","83","0","0","83","83","0","0","83","83","83","0","83","0","Sat Oct 24 14:03:29 2020","The main experiment item","yes","Sterbergtask.osexp","C:\Users\Colton\OneDrive\Desktop","no","mono","no","18","no","white","no","no","768","legacy","71","11","C:/Users/Colton/OneDrive/Desktop/CS-subject-3-LAB 3.1.csv","legacy","2 6 4 3 9","Lentiform Loewenfeld","3.3.3","0","n","0","right","right","left","right","NA","651","168421","1567","651","NA","2","legacy","5","1024","2","48000","-16","experiment","3","odd","1","713351","709823","711125","22303","268625","711130","660722","22330","267056","715361","716016","712141","190772","715361","NA","Sterberg task","78","48690","84","yes","1024"
"92.94117647058823","92.94117647058823","580.7411764705882","580.7411764705882","black","experiment","legacy","legacy","legacy","0","uniform","1","undefined","1","left","84","84","84","0","0","84","84","0","0","84","84","84","0","84","0","Sat Oct 24 14:03:29 2020","The main experiment item","yes","Sterbergtask.osexp","C:\Users\Colton\OneDrive\Desktop","no","mono","no","18","no","white","no","no","768","legacy","72","11","C:/Users/Colton/OneDrive/Desktop/CS-subject-3-LAB 3.1.csv","legacy","4 9 7 8 5 3","Lentiform Loewenfeld","3.3.3","4","y","0","left","right","left","left","NA","673","168421","1567","673","NA","2","legacy","6","1024","2","48000","-16","experiment","3","odd","8","719621","716081","717398","22303","268625","717403","660722","22330","267056","721626","722302","718407","190772","721626","NA","Sterberg task","79","49363","85","yes","1024"
"93.02325581395348","93.02325581395348","578.8953488372093","578.8953488372093","black","experiment","legacy","legacy","legacy","0","uniform","1","undefined","1","right","85","85","85","0","0","85","85","0","0","85","85","85","0","85","0","Sat Oct 24 14:03:29 2020","The main experiment item","yes","Sterbergtask.osexp","C:\Users\Colton\OneDrive\Desktop","no","mono","no","18","no","white","no","no","768","legacy","73","11","C:/Users/Colton/OneDrive/Desktop/CS-subject-3-LAB 3.1.csv","legacy","7 4 2 8 1 9","Lentiform Loewenfeld","3.3.3","0","n","0","right","right","left","right","NA","422","168421","1567","422","NA","2","legacy","6","1024","2","48000","-16","experiment","3","odd","5","726003","722350","723773","22303","268625","723778","660722","22330","267056","728018","728444","724787","190772","728018","NA","Sterberg task","80","49785","86","yes","1024"
"93.10344827586206","93.10344827586206","576.7471264367816","576.7471264367816","black","experiment","legacy","legacy","legacy","0","uniform","1","undefined","1","left","86","86","86","0","0","86","86","0","0","86","86","86","0","86","0","Sat Oct 24 14:03:29 2020","The main experiment item","yes","Sterbergtask.osexp","C:\Users\Colton\OneDrive\Desktop","no","mono","no","18","no","white","no","no","768","legacy","74","11","C:/Users/Colton/OneDrive/Desktop/CS-subject-3-LAB 3.1.csv","legacy","8 5 4 7 3 1","Lentiform Loewenfeld","3.3.3","2","y","0","left","right","left","left","NA","392","168421","1567","392","NA","2","legacy","6","1024","2","48000","-16","experiment","3","odd","5","732122","728501","729907","22303","268625","729912","660722","22330","267056","734128","734524","730917","190772","734128","NA","Sterberg task","81","50177","87","yes","1024"
"93.18181818181819","93.18181818181819","575.1477272727273","575.1477272727273","black","experiment","legacy","legacy","legacy","0","uniform","1","undefined","1","left","87","87","87","0","0","87","87","0","0","87","87","87","0","87","0","Sat Oct 24 14:03:29 2020","The main experiment item","yes","Sterbergtask.osexp","C:\Users\Colton\OneDrive\Desktop","no","mono","no","18","no","white","no","no","768","legacy","75","11","C:/Users/Colton/OneDrive/Desktop/CS-subject-3-LAB 3.1.csv","legacy","8 5 1 3 9","Lentiform Loewenfeld","3.3.3","4","y","0","left","right","left","left","NA","436","168421","1567","436","NA","2","legacy","5","1024","2","48000","-16","experiment","3","odd","3","738320","734634","736101","22303","268625","736110","660722","22330","267056","740328","740768","737115","190772","740328","NA","Sterberg task","82","50613","88","yes","1024"
"93.25842696629213","93.25842696629213","574.1685393258427","574.1685393258427","black","experiment","legacy","legacy","legacy","0","uniform","1","undefined","1","left","88","88","88","0","0","88","88","0","0","88","88","88","0","88","0","Sat Oct 24 14:03:29 2020","The main experiment item","yes","Sterbergtask.osexp","C:\Users\Colton\OneDrive\Desktop","no","mono","no","18","no","white","no","no","768","legacy","76","11","C:/Users/Colton/OneDrive/Desktop/CS-subject-3-LAB 3.1.csv","legacy","9 8 4","Lentiform Loewenfeld","3.3.3","1","y","0","left","right","left","left","NA","488","168421","1567","488","NA","2","legacy","3","1024","2","48000","-16","experiment","3","odd","9","744333","740812","742117","22303","268625","742122","660722","22330","267056","746341","746832","743127","190772","746341","NA","Sterberg task","83","51101","89","yes","1024"
"93.33333333333333","93.33333333333333","574.0888888888888","574.0888888888888","black","experiment","legacy","legacy","legacy","0","uniform","1","undefined","1","right","89","89","89","0","0","89","89","0","0","89","89","89","0","89","0","Sat Oct 24 14:03:29 2020","The main experiment item","yes","Sterbergtask.osexp","C:\Users\Colton\OneDrive\Desktop","no","mono","no","18","no","white","no","no","768","legacy","77","11","C:/Users/Colton/OneDrive/Desktop/CS-subject-3-LAB 3.1.csv","legacy","8 4 3 9","Lentiform Loewenfeld","3.3.3","0","n","0","right","right","left","right","NA","567","168421","1567","567","NA","2","legacy","4","1024","2","48000","-16","experiment","3","odd","5","750394","746876","748169","22303","268625","748173","660722","22330","267056","752404","752975","749179","190772","752404","NA","Sterberg task","84","51668","90","yes","1024"
"93.4065934065934","93.4065934065934","574.7362637362637","574.7362637362637","black","experiment","legacy","legacy","legacy","0","uniform","1","undefined","1","right","90","90","90","0","0","90","90","0","0","90","90","90","0","90","0","Sat Oct 24 14:03:29 2020","The main experiment item","yes","Sterbergtask.osexp","C:\Users\Colton\OneDrive\Desktop","no","mono","no","18","no","white","no","no","768","legacy","78","11","C:/Users/Colton/OneDrive/Desktop/CS-subject-3-LAB 3.1.csv","legacy","6 2 9 3 8 4","Lentiform Loewenfeld","3.3.3","0","n","0","right","right","left","right","NA","633","168421","1567","633","NA","2","legacy","6","1024","2","48000","-16","experiment","3","odd","1","756551","753031","754330","22303","268625","754335","660722","22330","267056","758561","759198","755347","190772","758561","NA","Sterberg task","85","52301","91","yes","1024"
"93.47826086956522","93.47826086956522","574.9782608695652","574.9782608695652","black","experiment","legacy","legacy","legacy","0","uniform","1","undefined","1","left","91","91","91","0","0","91","91","0","0","91","91","91","0","91","0","Sat Oct 24 14:03:29 2020","The main experiment item","yes","Sterbergtask.osexp","C:\Users\Colton\OneDrive\Desktop","no","mono","no","18","no","white","no","no","768","legacy","79","11","C:/Users/Colton/OneDrive/Desktop/CS-subject-3-LAB 3.1.csv","legacy","3 4 9 6 2 9","Lentiform Loewenfeld","3.3.3","5","y","0","left","right","left","left","NA","597","168421","1567","597","NA","2","legacy","6","1024","2","48000","-16","experiment","3","odd","2","762843","759249","760624","22303","268625","760628","660722","22330","267056","764860","765468","761633","190772","764859","NA","Sterberg task","86","52898","92","yes","1024"
"93.54838709677419","93.54838709677419","574.8924731182796","574.8924731182796","black","experiment","legacy","legacy","legacy","0","uniform","1","undefined","1","right","92","92","92","0","0","92","92","0","0","92","92","92","0","92","0","Sat Oct 24 14:03:29 2020","The main experiment item","yes","Sterbergtask.osexp","C:\Users\Colton\OneDrive\Desktop","no","mono","no","18","no","white","no","no","768","legacy","80","11","C:/Users/Colton/OneDrive/Desktop/CS-subject-3-LAB 3.1.csv","legacy","1 4 9 2 5","Lentiform Loewenfeld","3.3.3","0","n","0","right","right","left","right","NA","567","168421","1567","567","NA","2","legacy","5","1024","2","48000","-16","experiment","3","odd","7","769201","765546","766974","22303","268625","766980","660722","22330","267056","771207","771779","767985","190772","771206","NA","Sterberg task","87","53465","93","yes","1024"
"93.61702127659575","93.61702127659575","574.2234042553191","574.2234042553191","black","experiment","legacy","legacy","legacy","0","uniform","1","undefined","1","right","93","93","93","0","0","93","93","0","0","93","93","93","0","93","0","Sat Oct 24 14:03:29 2020","The main experiment item","yes","Sterbergtask.osexp","C:\Users\Colton\OneDrive\Desktop","no","mono","no","18","no","white","no","no","768","legacy","81","11","C:/Users/Colton/OneDrive/Desktop/CS-subject-3-LAB 3.1.csv","legacy","3 4 9 6 7 8","Lentiform Loewenfeld","3.3.3","0","n","0","right","right","left","right","NA","512","168421","1567","512","NA","2","legacy","6","1024","2","48000","-16","experiment","3","odd","2","775422","771825","773207","22303","268625","773212","660722","22330","267056","777432","777954","774216","190772","777432","NA","Sterberg task","88","53977","94","yes","1024"
"92.63157894736842","92.63157894736842","574.1789473684211","574.1789473684211","black","experiment","legacy","legacy","legacy","0","uniform","0","undefined","0","left","94","94","94","0","0","94","94","0","0","94","94","94","0","94","0","Sat Oct 24 14:03:29 2020","The main experiment item","yes","Sterbergtask.osexp","C:\Users\Colton\OneDrive\Desktop","no","mono","no","18","no","white","no","no","768","legacy","82","11","C:/Users/Colton/OneDrive/Desktop/CS-subject-3-LAB 3.1.csv","legacy","7 4 2 6 3 5","Lentiform Loewenfeld","3.3.3","6","y","0","right","right","left","right","NA","570","168421","1567","570","NA","2","legacy","6","1024","2","48000","-16","experiment","3","odd","5","781534","777995","779303","22303","268625","779307","660722","22330","267056","783539","784113","780319","190772","783538","NA","Sterberg task","88","54547","95","yes","1024"
"92.70833333333333","92.70833333333333","572.4895833333334","572.4895833333334","black","experiment","legacy","legacy","legacy","0","uniform","1","undefined","1","left","95","95","95","0","0","95","95","0","0","95","95","95","0","95","0","Sat Oct 24 14:03:29 2020","The main experiment item","yes","Sterbergtask.osexp","C:\Users\Colton\OneDrive\Desktop","no","mono","no","18","no","white","no","no","768","legacy","83","11","C:/Users/Colton/OneDrive/Desktop/CS-subject-3-LAB 3.1.csv","legacy","3 5 4 7","Lentiform Loewenfeld","3.3.3","1","y","0","left","right","left","left","NA","412","168421","1567","412","NA","2","legacy","4","1024","2","48000","-16","experiment","3","odd","3","787692","777995","785467","22303","268625","785472","784165","22330","267056","789696","790111","786478","190772","789696","NA","Sterberg task","89","54959","96","yes","1024"
"92.78350515463917","92.78350515463917","572.4536082474227","572.4536082474227","black","experiment","legacy","legacy","legacy","0","uniform","1","undefined","1","left","96","96","96","0","0","96","96","0","0","96","96","96","0","96","0","Sat Oct 24 14:03:29 2020","The main experiment item","yes","Sterbergtask.osexp","C:\Users\Colton\OneDrive\Desktop","no","mono","no","18","no","white","no","no","768","legacy","84","11","C:/Users/Colton/OneDrive/Desktop/CS-subject-3-LAB 3.1.csv","legacy","6 2","Lentiform Loewenfeld","3.3.3","1","y","0","left","right","left","left","NA","569","168421","1567","569","NA","2","legacy","2","1024","2","48000","-16","experiment","3","odd","6","793838","790203","791612","22303","268625","791616","784165","22330","267056","795849","796423","792622","190772","795848","NA","Sterberg task","90","55528","97","yes","1024"
"92.85714285714286","92.85714285714286","572.3673469387755","572.3673469387755","black","experiment","legacy","legacy","legacy","0","uniform","1","undefined","1","left","97","97","97","0","0","97","97","0","0","97","97","97","0","97","0","Sat Oct 24 14:03:29 2020","The main experiment item","yes","Sterbergtask.osexp","C:\Users\Colton\OneDrive\Desktop","no","mono","no","18","no","white","no","no","768","legacy","85","11","C:/Users/Colton/OneDrive/Desktop/CS-subject-3-LAB 3.1.csv","legacy","3 5 9 6 2 4","Lentiform Loewenfeld","3.3.3","1","y","0","left","right","left","left","NA","564","168421","1567","564","NA","2","legacy","6","1024","2","48000","-16","experiment","3","odd","3","800122","796488","797896","22303","268625","797901","784165","22330","267056","802128","802696","798906","190772","802127","NA","Sterberg task","91","56092","98","yes","1024"
"92.92929292929293","92.92929292929293","570.7676767676768","570.7676767676768","black","experiment","legacy","legacy","legacy","0","uniform","1","undefined","1","left","98","98","98","0","0","98","98","0","0","98","98","98","0","98","0","Sat Oct 24 14:03:29 2020","The main experiment item","yes","Sterbergtask.osexp","C:\Users\Colton\OneDrive\Desktop","no","mono","no","18","no","white","no","no","768","legacy","86","11","C:/Users/Colton/OneDrive/Desktop/CS-subject-3-LAB 3.1.csv","legacy","9 1 6 7 8","Lentiform Loewenfeld","3.3.3","1","y","0","left","right","left","left","NA","414","168421","1567","414","NA","2","legacy","5","1024","2","48000","-16","experiment","3","odd","9","806353","802725","804116","22303","268625","804127","784165","22330","267056","808362","808780","805148","190772","808361","NA","Sterberg task","92","56506","99","yes","1024"
"93","93","570.7","570.7","black","experiment","legacy","legacy","legacy","0","uniform","1","undefined","1","right","99","99","99","0","0","99","99","0","0","99","99","99","0","99","0","Sat Oct 24 14:03:29 2020","The main experiment item","yes","Sterbergtask.osexp","C:\Users\Colton\OneDrive\Desktop","no","mono","no","18","no","white","no","no","768","legacy","87","11","C:/Users/Colton/OneDrive/Desktop/CS-subject-3-LAB 3.1.csv","legacy","9 8 2 7 4","Lentiform Loewenfeld","3.3.3","0","n","0","right","right","left","right","NA","564","168421","1567","564","NA","2","legacy","5","1024","2","48000","-16","experiment","3","odd","5","812361","808837","810140","22303","268625","810145","784165","22330","267056","814366","814935","811157","190772","814365","NA","Sterberg task","93","57070","100","yes","1024"
"93.06930693069307","93.06930693069307","572.2673267326733","572.2673267326733","black","experiment","legacy","legacy","legacy","0","uniform","1","undefined","1","right","100","100","100","0","0","100","100","0","0","100","100","100","0","100","0","Sat Oct 24 14:03:29 2020","The main experiment item","yes","Sterbergtask.osexp","C:\Users\Colton\OneDrive\Desktop","no","mono","no","18","no","white","no","no","768","legacy","88","11","C:/Users/Colton/OneDrive/Desktop/CS-subject-3-LAB 3.1.csv","legacy","2 8 7 9 5 3","Lentiform Loewenfeld","3.3.3","0","n","0","right","right","left","right","NA","729","168421","1567","729","NA","2","legacy","6","1024","2","48000","-16","experiment","3","odd","6","818512","814979","816286","22303","268625","816291","784165","22330","267056","820522","821256","817299","190772","820522","NA","Sterberg task","94","57799","101","yes","1024"
"93.13725490196079","93.13725490196079","571.2549019607843","571.2549019607843","black","experiment","legacy","legacy","legacy","0","uniform","1","undefined","1","left","101","101","101","0","0","101","101","0","0","101","101","101","0","101","0","Sat Oct 24 14:03:29 2020","The main experiment item","yes","Sterbergtask.osexp","C:\Users\Colton\OneDrive\Desktop","no","mono","no","18","no","white","no","no","768","legacy","89","11","C:/Users/Colton/OneDrive/Desktop/CS-subject-3-LAB 3.1.csv","legacy","7 1 8 5 6 2","Lentiform Loewenfeld","3.3.3","2","y","0","left","right","left","left","NA","469","168421","1567","469","NA","2","legacy","6","1024","2","48000","-16","experiment","3","odd","1","824872","821331","822649","22303","268625","822660","784165","22330","267056","826883","827357","823666","190772","826883","NA","Sterberg task","95","58268","102","yes","1024"
"92.23300970873787","92.23300970873787","570.2912621359224","570.2912621359224","black","experiment","legacy","legacy","legacy","0","uniform","0","undefined","0","right","102","102","102","0","0","102","102","0","0","102","102","102","0","102","0","Sat Oct 24 14:03:29 2020","The main experiment item","yes","Sterbergtask.osexp","C:\Users\Colton\OneDrive\Desktop","no","mono","no","18","no","white","no","no","768","legacy","90","11","C:/Users/Colton/OneDrive/Desktop/CS-subject-3-LAB 3.1.csv","legacy","5 9 2 3","Lentiform Loewenfeld","3.3.3","0","n","0","left","right","left","left","NA","472","168421","1567","472","NA","2","legacy","4","1024","2","48000","-16","experiment","3","odd","8","831035","827395","828818","22303","268625","828823","784165","22330","267056","833045","833522","829828","190772","833045","NA","Sterberg task","95","58740","103","yes","1024"
"91.34615384615384","91.34615384615384","568.9423076923077","568.9423076923077","black","experiment","legacy","legacy","legacy","0","uniform","0","undefined","0","right","103","103","103","0","0","103","103","0","0","103","103","103","0","103","0","Sat Oct 24 14:03:29 2020","The main experiment item","yes","Sterbergtask.osexp","C:\Users\Colton\OneDrive\Desktop","no","mono","no","18","no","white","no","no","768","legacy","91","11","C:/Users/Colton/OneDrive/Desktop/CS-subject-3-LAB 3.1.csv","legacy","6 9 4 5 3 2","Lentiform Loewenfeld","3.3.3","0","n","0","left","right","left","left","NA","430","168421","1567","430","NA","2","legacy","6","1024","2","48000","-16","experiment","3","odd","8","837268","827395","835044","22303","268625","835049","833637","22330","267056","839273","839707","836054","190772","839273","NA","Sterberg task","95","59170","104","yes","1024"
"91.42857142857143","91.42857142857143","569.7428571428571","569.7428571428571","black","experiment","legacy","legacy","legacy","0","uniform","1","undefined","1","left","104","104","104","0","0","104","104","0","0","104","104","104","0","104","0","Sat Oct 24 14:03:29 2020","The main experiment item","yes","Sterbergtask.osexp","C:\Users\Colton\OneDrive\Desktop","no","mono","no","18","no","white","no","no","768","legacy","92","11","C:/Users/Colton/OneDrive/Desktop/CS-subject-3-LAB 3.1.csv","legacy","8 9 5 7 1 6","Lentiform Loewenfeld","3.3.3","4","y","0","left","right","left","left","NA","653","168421","1567","653","NA","2","legacy","6","1024","2","48000","-16","experiment","3","odd","7","843476","827395","841250","22303","268625","841255","839828","22330","267056","845483","846141","842261","190772","845483","NA","Sterberg task","96","59823","105","yes","1024"
"91.50943396226415","91.50943396226415","569","569","black","experiment","legacy","legacy","legacy","0","uniform","1","undefined","1","right","105","105","105","0","0","105","105","0","0","105","105","105","0","105","0","Sat Oct 24 14:03:29 2020","The main experiment item","yes","Sterbergtask.osexp","C:\Users\Colton\OneDrive\Desktop","no","mono","no","18","no","white","no","no","768","legacy","93","11","C:/Users/Colton/OneDrive/Desktop/CS-subject-3-LAB 3.1.csv","legacy","2 3 8 5 6 7","Lentiform Loewenfeld","3.3.3","0","n","0","right","right","left","right","NA","491","168421","1567","491","NA","2","legacy","6","1024","2","48000","-16","experiment","3","odd","1","849721","846195","847502","22303","268625","847507","839828","22330","267056","851727","852223","848516","190772","851727","NA","Sterberg task","97","60314","106","yes","1024"
"91.58878504672897","91.58878504672897","568.8224299065421","568.8224299065421","black","experiment","legacy","legacy","legacy","0","uniform","1","undefined","1","left","106","106","106","0","0","106","106","0","0","106","106","106","0","106","0","Sat Oct 24 14:03:29 2020","The main experiment item","yes","Sterbergtask.osexp","C:\Users\Colton\OneDrive\Desktop","no","mono","no","18","no","white","no","no","768","legacy","94","11","C:/Users/Colton/OneDrive/Desktop/CS-subject-3-LAB 3.1.csv","legacy","4 7 6 8 2 3","Lentiform Loewenfeld","3.3.3","6","y","0","left","right","left","left","NA","550","168421","1567","550","NA","2","legacy","6","1024","2","48000","-16","experiment","3","odd","3","855851","852326","853621","22303","268625","853626","839828","22330","267056","857858","858412","854636","190772","857857","NA","Sterberg task","98","60864","107","yes","1024"
"90.74074074074075","90.74074074074075","569.2407407407408","569.2407407407408","black","experiment","legacy","legacy","legacy","0","uniform","0","undefined","0","left","107","107","107","0","0","107","107","0","0","107","107","107","0","107","0","Sat Oct 24 14:03:29 2020","The main experiment item","yes","Sterbergtask.osexp","C:\Users\Colton\OneDrive\Desktop","no","mono","no","18","no","white","no","no","768","legacy","95","11","C:/Users/Colton/OneDrive/Desktop/CS-subject-3-LAB 3.1.csv","legacy","6 8 9 3 4 9","Lentiform Loewenfeld","3.3.3","5","y","0","right","right","left","right","NA","614","168421","1567","614","NA","2","legacy","6","1024","2","48000","-16","experiment","3","odd","4","862073","858463","859848","22303","268625","859853","839828","22330","267056","864083","864702","860858","190772","864083","NA","Sterberg task","98","61478","108","yes","1024"
"90.8256880733945","90.8256880733945","569.7522935779816","569.7522935779816","black","experiment","legacy","legacy","legacy","0","uniform","1","undefined","1","right","108","108","108","0","0","108","108","0","0","108","108","108","0","108","0","Sat Oct 24 14:03:29 2020","The main experiment item","yes","Sterbergtask.osexp","C:\Users\Colton\OneDrive\Desktop","no","mono","no","18","no","white","no","no","768","legacy","96","11","C:/Users/Colton/OneDrive/Desktop/CS-subject-3-LAB 3.1.csv","legacy","6 9 4 5 2","Lentiform Loewenfeld","3.3.3","0","n","0","right","right","left","right","NA","625","168421","1567","625","NA","2","legacy","5","1024","2","48000","-16","experiment","3","odd","1","868374","858463","866139","22303","268625","866149","864749","22330","267056","870378","871008","867160","190772","870378","NA","Sterberg task","99","62103","109","yes","1024"
"90.9090909090909","90.9090909090909","568.709090909091","568.709090909091","black","experiment","legacy","legacy","legacy","0","uniform","1","undefined","1","right","109","109","109","0","0","109","109","0","0","109","109","109","0","109","0","Sat Oct 24 14:03:29 2020","The main experiment item","yes","Sterbergtask.osexp","C:\Users\Colton\OneDrive\Desktop","no","mono","no","18","no","white","no","no","768","legacy","97","11","C:/Users/Colton/OneDrive/Desktop/CS-subject-3-LAB 3.1.csv","legacy","5 2","Lentiform Loewenfeld","3.3.3","0","n","0","right","right","left","right","NA","455","168421","1567","455","NA","2","legacy","2","1024","2","48000","-16","experiment","3","odd","7","874664","871052","872448","22303","268625","872453","864749","22330","267056","876673","877133","873459","190772","876673","NA","Sterberg task","100","62558","110","yes","1024"
"90.990990990991","90.990990990991","567.7657657657658","567.7657657657658","black","experiment","legacy","legacy","legacy","0","uniform","1","undefined","1","left","110","110","110","0","0","110","110","0","0","110","110","110","0","110","0","Sat Oct 24 14:03:29 2020","The main experiment item","yes","Sterbergtask.osexp","C:\Users\Colton\OneDrive\Desktop","no","mono","no","18","no","white","no","no","768","legacy","98","11","C:/Users/Colton/OneDrive/Desktop/CS-subject-3-LAB 3.1.csv","legacy","9 3 1 2 5","Lentiform Loewenfeld","3.3.3","4","y","0","left","right","left","left","NA","464","168421","1567","464","NA","2","legacy","5","1024","2","48000","-16","experiment","3","odd","2","880731","877208","878506","22303","268625","878511","864749","22330","267056","882741","883211","879515","190772","882741","NA","Sterberg task","101","63022","111","yes","1024"
"91.07142857142857","91.07142857142857","568.0178571428571","568.0178571428571","black","experiment","legacy","legacy","legacy","0","uniform","1","undefined","1","right","111","111","111","0","0","111","111","0","0","111","111","111","0","111","0","Sat Oct 24 14:03:29 2020","The main experiment item","yes","Sterbergtask.osexp","C:\Users\Colton\OneDrive\Desktop","no","mono","no","18","no","white","no","no","768","legacy","99","11","C:/Users/Colton/OneDrive/Desktop/CS-subject-3-LAB 3.1.csv","legacy","8 2 1 4 5 9","Lentiform Loewenfeld","3.3.3","0","n","0","right","right","left","right","NA","596","168421","1567","596","NA","2","legacy","6","1024","2","48000","-16","experiment","3","odd","7","886786","883252","884557","22303","268625","884562","864749","22330","267056","888791","889393","885572","190772","888790","NA","Sterberg task","102","63618","112","yes","1024"
"91.15044247787611","91.15044247787611","568.0973451327434","568.0973451327434","black","experiment","legacy","legacy","legacy","0","uniform","1","undefined","1","left","112","112","112","0","0","112","112","0","0","112","112","112","0","112","0","Sat Oct 24 14:03:29 2020","The main experiment item","yes","Sterbergtask.osexp","C:\Users\Colton\OneDrive\Desktop","no","mono","no","18","no","white","no","no","768","legacy","100","11","C:/Users/Colton/OneDrive/Desktop/CS-subject-3-LAB 3.1.csv","legacy","7 8 4 6 9 5","Lentiform Loewenfeld","3.3.3","4","y","0","left","right","left","left","NA","577","168421","1567","577","NA","2","legacy","6","1024","2","48000","-16","experiment","3","odd","6","893041","889456","890812","22303","268625","890823","864749","22330","267056","895050","895632","891832","190772","895049","NA","Sterberg task","103","64195","113","yes","1024"
"91.2280701754386","91.2280701754386","567.3333333333334","567.3333333333334","black","experiment","legacy","legacy","legacy","0","uniform","1","undefined","1","left","113","113","113","0","0","113","113","0","0","113","113","113","0","113","0","Sat Oct 24 14:03:29 2020","The main experiment item","yes","Sterbergtask.osexp","C:\Users\Colton\OneDrive\Desktop","no","mono","no","18","no","white","no","no","768","legacy","101","11","C:/Users/Colton/OneDrive/Desktop/CS-subject-3-LAB 3.1.csv","legacy","7 8 6 3 1","Lentiform Loewenfeld","3.3.3","5","y","0","left","right","left","left","NA","481","168421","1567","481","NA","2","legacy","5","1024","2","48000","-16","experiment","3","odd","1","899294","895717","897075","22303","268625","897085","864749","22330","267056","901302","901787","898089","190772","901302","NA","Sterberg task","104","64676","114","yes","1024"
"91.30434782608695","91.30434782608695","566.4956521739131","566.4956521739131","black","experiment","legacy","legacy","legacy","0","uniform","1","undefined","1","right","114","114","114","0","0","114","114","0","0","114","114","114","0","114","0","Sat Oct 24 14:03:29 2020","The main experiment item","yes","Sterbergtask.osexp","C:\Users\Colton\OneDrive\Desktop","no","mono","no","18","no","white","no","no","768","legacy","102","11","C:/Users/Colton/OneDrive/Desktop/CS-subject-3-LAB 3.1.csv","legacy","7 8 6 1","Lentiform Loewenfeld","3.3.3","0","n","0","right","right","left","right","NA","471","168421","1567","471","NA","2","legacy","4","1024","2","48000","-16","experiment","3","odd","3","905488","901868","903268","22303","268625","903278","864749","22330","267056","907493","907969","904283","190772","907493","NA","Sterberg task","105","65147","115","yes","1024"
