"acc","accuracy","average_response_time","avg_rt","background","block","canvas_backend","clock_backend","color_backend","compensation","coordinates","correct","correct_instruction1","correct_keyboard_response","correct_response","count_ISI","count_correctFeedback","count_expSequence","count_experiment","count_experimentLoop","count_fixation","count_incorrectFeedback","count_instruction1","count_instruction2","count_instructional","count_keyboard_response","count_logger","count_memorySet","count_practiceLoop","count_probe","count_thankYou","datetime","description","disable_garbage_collection","empty_column","experiment_file","experiment_path","font_bold","font_family","font_italic","font_size","font_underline","foreground","form_clicks","fullscreen","height","keyboard_backend","live_row","live_row_practiceLoop","logfile","mouse_backend","numberSet","opensesame_codename","opensesame_version","posInSet","present","repeat_cycle","response","response_instruction1","response_instruction2","response_keyboard_response","response_thankYou","response_time","response_time_instruction1","response_time_instruction2","response_time_keyboard_response","response_time_thankYou","round_decimals","sampler_backend","setSize","sound_buf_size","sound_channels","sound_freq","sound_sample_size","start","subject_nr","subject_parity","target","time_ISI","time_correctFeedback","time_expSequence","time_experiment","time_experimentLoop","time_fixation","time_incorrectFeedback","time_instruction1","time_instruction2","time_instructional","time_keyboard_response","time_logger","time_memorySet","time_practiceLoop","time_probe","time_thankYou","title","total_correct","total_response_time","total_responses","uniform_coordinates","width"
"100","100","1124","1124","black","practice","legacy","legacy","legacy","0","uniform","1","undefined","1","left","0","0","0","0","0","0","0","0","0","NA","0","0","0","0","0","0","Sun Oct 18 14:27:22 2020","The main experiment item","yes","NA","SternbergTask.osexp","C:/Users/chelsea/OneDrive - Tarleton State University/psych 5316- adv/Sternberg test","no","mono","no","18","no","white","no","no","768","legacy","0","0","C:/Users/chelsea/OneDrive - Tarleton State University/psych 5316- adv/Sternberg test/subject-1 CK.csv","legacy","4 3 1 7 9 8","Lentiform Loewenfeld","3.3.3","1","y","0","left","left","NA","left","NA","1124","22474","NA","1124","NA","2","legacy","6","1024","2","48000","-16","experiment","1","odd","4","48397","NA","46168","21207","NA","46184","NA","21318","NA","NA","50402","51535","47189","43795","50402","NA","Sternberg Task","1","1124","1","yes","1024"
"100","100","814","814","black","practice","legacy","legacy","legacy","0","uniform","1","undefined","1","right","1","1","1","0","0","1","1","0","0","NA","1","1","1","0","1","0","Sun Oct 18 14:27:22 2020","The main experiment item","yes","NA","SternbergTask.osexp","C:/Users/chelsea/OneDrive - Tarleton State University/psych 5316- adv/Sternberg test","no","mono","no","18","no","white","no","no","768","legacy","1","1","C:/Users/chelsea/OneDrive - Tarleton State University/psych 5316- adv/Sternberg test/subject-1 CK.csv","legacy","4 1 5","Lentiform Loewenfeld","3.3.3","0","n","0","right","left","NA","right","NA","504","22474","NA","504","NA","2","legacy","3","1024","2","48000","-16","experiment","1","odd","2","56043","52198","53816","21207","NA","53821","NA","21318","NA","NA","58051","58557","54828","43795","58050","NA","Sternberg Task","2","1628","2","yes","1024"
"100","100","858.6666666666666","858.6666666666666","black","practice","legacy","legacy","legacy","0","uniform","1","undefined","1","right","2","2","2","0","0","2","2","0","0","NA","2","2","2","0","2","0","Sun Oct 18 14:27:22 2020","The main experiment item","yes","NA","SternbergTask.osexp","C:/Users/chelsea/OneDrive - Tarleton State University/psych 5316- adv/Sternberg test","no","mono","no","18","no","white","no","no","768","legacy","2","2","C:/Users/chelsea/OneDrive - Tarleton State University/psych 5316- adv/Sternberg test/subject-1 CK.csv","legacy","5 7 8 4 1 2","Lentiform Loewenfeld","3.3.3","0","n","0","right","left","NA","right","NA","948","22474","NA","948","NA","2","legacy","6","1024","2","48000","-16","experiment","1","odd","6","62408","58630","60188","21207","NA","60193","NA","21318","NA","NA","64416","65365","61203","43795","64415","NA","Sternberg Task","3","2576","3","yes","1024"
"100","100","877.5","877.5","black","practice","legacy","legacy","legacy","0","uniform","1","undefined","1","right","3","3","3","0","0","3","3","0","0","NA","3","3","3","0","3","0","Sun Oct 18 14:27:22 2020","The main experiment item","yes","NA","SternbergTask.osexp","C:/Users/chelsea/OneDrive - Tarleton State University/psych 5316- adv/Sternberg test","no","mono","no","18","no","white","no","no","768","legacy","3","3","C:/Users/chelsea/OneDrive - Tarleton State University/psych 5316- adv/Sternberg test/subject-1 CK.csv","legacy","3 1 9 4","Lentiform Loewenfeld","3.3.3","0","n","0","right","left","NA","right","NA","934","22474","NA","934","NA","2","legacy","4","1024","2","48000","-16","experiment","1","odd","6","69252","65449","67023","21207","NA","67038","NA","21318","NA","NA","71261","72197","68047","43795","71260","NA","Sternberg Task","4","3510","4","yes","1024"
"100","100","801.2","801.2","black","practice","legacy","legacy","legacy","0","uniform","1","undefined","1","right","4","4","4","0","0","4","4","0","0","NA","4","4","4","0","4","0","Sun Oct 18 14:27:22 2020","The main experiment item","yes","NA","SternbergTask.osexp","C:/Users/chelsea/OneDrive - Tarleton State University/psych 5316- adv/Sternberg test","no","mono","no","18","no","white","no","no","768","legacy","4","4","C:/Users/chelsea/OneDrive - Tarleton State University/psych 5316- adv/Sternberg test/subject-1 CK.csv","legacy","2 1","Lentiform Loewenfeld","3.3.3","0","n","0","right","left","NA","right","NA","496","22474","NA","496","NA","2","legacy","2","1024","2","48000","-16","experiment","1","odd","5","76060","72296","73832","21207","NA","73842","NA","21318","NA","NA","78074","78572","74852","43795","78074","NA","Sternberg Task","5","4006","5","yes","1024"
"100","100","819.3333333333334","819.3333333333334","black","practice","legacy","legacy","legacy","0","uniform","1","undefined","1","right","5","5","5","0","0","5","5","0","0","NA","5","5","5","0","5","0","Sun Oct 18 14:27:22 2020","The main experiment item","yes","NA","SternbergTask.osexp","C:/Users/chelsea/OneDrive - Tarleton State University/psych 5316- adv/Sternberg test","no","mono","no","18","no","white","no","no","768","legacy","5","5","C:/Users/chelsea/OneDrive - Tarleton State University/psych 5316- adv/Sternberg test/subject-1 CK.csv","legacy","5","Lentiform Loewenfeld","3.3.3","0","n","0","right","left","NA","right","NA","910","22474","NA","910","NA","2","legacy","1","1024","2","48000","-16","experiment","1","odd","3","82468","78643","80237","21207","NA","80246","NA","21318","NA","NA","84485","85397","81251","43795","84485","NA","Sternberg Task","6","4916","6","yes","1024"
"100","100","870.5714285714286","870.5714285714286","black","practice","legacy","legacy","legacy","0","uniform","1","undefined","1","left","6","6","6","0","0","6","6","0","0","NA","6","6","6","0","6","0","Sun Oct 18 14:27:22 2020","The main experiment item","yes","NA","SternbergTask.osexp","C:/Users/chelsea/OneDrive - Tarleton State University/psych 5316- adv/Sternberg test","no","mono","no","18","no","white","no","no","768","legacy","6","6","C:/Users/chelsea/OneDrive - Tarleton State University/psych 5316- adv/Sternberg test/subject-1 CK.csv","legacy","1 7 9 8 5","Lentiform Loewenfeld","3.3.3","4","y","0","left","left","NA","left","NA","1178","22474","NA","1178","NA","2","legacy","5","1024","2","48000","-16","experiment","1","odd","8","89237","85454","87016","21207","NA","87021","NA","21318","NA","NA","91249","92429","88033","43795","91248","NA","Sternberg Task","7","6094","7","yes","1024"
"100","100","861.125","861.125","black","practice","legacy","legacy","legacy","0","uniform","1","undefined","1","right","7","7","7","0","0","7","7","0","0","NA","7","7","7","0","7","0","Sun Oct 18 14:27:22 2020","The main experiment item","yes","NA","SternbergTask.osexp","C:/Users/chelsea/OneDrive - Tarleton State University/psych 5316- adv/Sternberg test","no","mono","no","18","no","white","no","no","768","legacy","7","7","C:/Users/chelsea/OneDrive - Tarleton State University/psych 5316- adv/Sternberg test/subject-1 CK.csv","legacy","9 6 7 4 5","Lentiform Loewenfeld","3.3.3","0","n","0","right","left","NA","right","NA","795","22474","NA","795","NA","2","legacy","5","1024","2","48000","-16","experiment","1","odd","3","96177","92515","93963","21207","NA","93968","NA","21318","NA","NA","98182","98979","94973","43795","98182","NA","Sternberg Task","8","6889","8","yes","1024"
"100","100","881.2222222222222","881.2222222222222","black","practice","legacy","legacy","legacy","0","uniform","1","undefined","1","left","8","8","8","0","0","8","8","0","0","NA","8","8","8","0","8","0","Sun Oct 18 14:27:22 2020","The main experiment item","yes","NA","SternbergTask.osexp","C:/Users/chelsea/OneDrive - Tarleton State University/psych 5316- adv/Sternberg test","no","mono","no","18","no","white","no","no","768","legacy","8","8","C:/Users/chelsea/OneDrive - Tarleton State University/psych 5316- adv/Sternberg test/subject-1 CK.csv","legacy","1 5 2 9","Lentiform Loewenfeld","3.3.3","2","y","0","left","left","NA","left","NA","1042","22474","NA","1042","NA","2","legacy","4","1024","2","48000","-16","experiment","1","odd","5","102914","99051","100684","21207","NA","100694","NA","21318","NA","NA","104927","105971","101705","43795","104927","NA","Sternberg Task","9","7931","9","yes","1024"
"100","100","882.5","882.5","black","practice","legacy","legacy","legacy","0","uniform","1","undefined","1","left","9","9","9","0","0","9","9","0","0","NA","9","9","9","0","9","0","Sun Oct 18 14:27:22 2020","The main experiment item","yes","NA","SternbergTask.osexp","C:/Users/chelsea/OneDrive - Tarleton State University/psych 5316- adv/Sternberg test","no","mono","no","18","no","white","no","no","768","legacy","9","9","C:/Users/chelsea/OneDrive - Tarleton State University/psych 5316- adv/Sternberg test/subject-1 CK.csv","legacy","4 8","Lentiform Loewenfeld","3.3.3","1","y","0","left","left","NA","left","NA","894","22474","NA","894","NA","2","legacy","2","1024","2","48000","-16","experiment","1","odd","4","109882","106018","107646","21207","NA","107663","NA","21318","NA","NA","111887","112783","108668","43795","111886","NA","Sternberg Task","10","8825","10","yes","1024"
"90.9090909090909","90.9090909090909","984.3636363636364","984.3636363636364","black","practice","legacy","legacy","legacy","0","uniform","0","undefined","0","left","10","10","10","0","0","10","10","0","0","NA","10","10","10","0","10","0","Sun Oct 18 14:27:22 2020","The main experiment item","yes","NA","SternbergTask.osexp","C:/Users/chelsea/OneDrive - Tarleton State University/psych 5316- adv/Sternberg test","no","mono","no","18","no","white","no","no","768","legacy","10","10","C:/Users/chelsea/OneDrive - Tarleton State University/psych 5316- adv/Sternberg test/subject-1 CK.csv","legacy","2 9 4","Lentiform Loewenfeld","3.3.3","3","y","0","None","left","NA","None","NA","2003","22474","NA","2003","NA","2","legacy","3","1024","2","48000","-16","experiment","1","odd","4","116753","112881","114525","21207","NA","114535","NA","21318","NA","NA","118759","120763","115549","43795","118758","NA","Sternberg Task","10","10828","11","yes","1024"
"91.66666666666667","91.66666666666667","973.3333333333334","973.3333333333334","black","practice","legacy","legacy","legacy","0","uniform","1","undefined","1","left","11","11","11","0","0","11","11","0","0","NA","11","11","11","0","11","0","Sun Oct 18 14:27:22 2020","The main experiment item","yes","NA","SternbergTask.osexp","C:/Users/chelsea/OneDrive - Tarleton State University/psych 5316- adv/Sternberg test","no","mono","no","18","no","white","no","no","768","legacy","11","11","C:/Users/chelsea/OneDrive - Tarleton State University/psych 5316- adv/Sternberg test/subject-1 CK.csv","legacy","6","Lentiform Loewenfeld","3.3.3","1","y","0","left","left","NA","left","NA","852","22474","NA","852","NA","2","legacy","1","1024","2","48000","-16","experiment","1","odd","6","124690","112881","122469","21207","NA","122475","120948","21318","NA","NA","126696","127551","123486","43795","126694","NA","Sternberg Task","11","11680","12","yes","1024"
"92.3076923076923","92.3076923076923","958.6923076923077","958.6923076923077","black","experiment","legacy","legacy","legacy","0","uniform","1","undefined","1","right","12","12","12","0","0","12","12","0","0","NA","12","12","12","0","12","0","Sun Oct 18 14:27:22 2020","The main experiment item","yes","NA","SternbergTask.osexp","C:/Users/chelsea/OneDrive - Tarleton State University/psych 5316- adv/Sternberg test","no","mono","no","18","no","white","no","no","768","legacy","0","11","C:/Users/chelsea/OneDrive - Tarleton State University/psych 5316- adv/Sternberg test/subject-1 CK.csv","legacy","4 2 7 6 1 3","Lentiform Loewenfeld","3.3.3","0","n","0","right","left","left","right","NA","783","22474","752824","783","NA","2","legacy","6","1024","2","48000","-16","experiment","1","odd","8","884461","127605","882217","21207","881650","882223","120948","21318","128823","NA","886474","887258","883238","43795","886474","NA","Sternberg Task","12","12463","13","yes","1024"
"92.85714285714286","92.85714285714286","948.4285714285714","948.4285714285714","black","experiment","legacy","legacy","legacy","0","uniform","1","undefined","1","right","13","13","13","0","0","13","13","0","0","NA","13","13","13","0","13","0","Sun Oct 18 14:27:22 2020","The main experiment item","yes","NA","SternbergTask.osexp","C:/Users/chelsea/OneDrive - Tarleton State University/psych 5316- adv/Sternberg test","no","mono","no","18","no","white","no","no","768","legacy","1","11","C:/Users/chelsea/OneDrive - Tarleton State University/psych 5316- adv/Sternberg test/subject-1 CK.csv","legacy","1 4 9 3","Lentiform Loewenfeld","3.3.3","0","n","0","right","left","left","right","NA","815","22474","752824","815","NA","2","legacy","4","1024","2","48000","-16","experiment","1","odd","5","894279","887306","892044","21207","881650","892054","120948","21318","128823","NA","896293","897110","893064","43795","896293","NA","Sternberg Task","13","13278","14","yes","1024"
"86.66666666666667","86.66666666666667","960.5333333333333","960.5333333333333","black","experiment","legacy","legacy","legacy","0","uniform","0","undefined","0","left","14","14","14","0","0","14","14","0","0","NA","14","14","14","0","14","0","Sun Oct 18 14:27:22 2020","The main experiment item","yes","NA","SternbergTask.osexp","C:/Users/chelsea/OneDrive - Tarleton State University/psych 5316- adv/Sternberg test","no","mono","no","18","no","white","no","no","768","legacy","2","11","C:/Users/chelsea/OneDrive - Tarleton State University/psych 5316- adv/Sternberg test/subject-1 CK.csv","legacy","7 8 6 3 1","Lentiform Loewenfeld","3.3.3","5","y","0","right","left","left","right","NA","1130","22474","752824","1130","NA","2","legacy","5","1024","2","48000","-16","experiment","1","odd","1","900788","897163","898571","21207","881650","898575","120948","21318","128823","NA","902793","903925","899581","43795","902793","NA","Sternberg Task","13","14408","15","yes","1024"
"87.5","87.5","960.375","960.375","black","experiment","legacy","legacy","legacy","0","uniform","1","undefined","1","left","15","15","15","0","0","15","15","0","0","NA","15","15","15","0","15","0","Sun Oct 18 14:27:22 2020","The main experiment item","yes","NA","SternbergTask.osexp","C:/Users/chelsea/OneDrive - Tarleton State University/psych 5316- adv/Sternberg test","no","mono","no","18","no","white","no","no","768","legacy","3","11","C:/Users/chelsea/OneDrive - Tarleton State University/psych 5316- adv/Sternberg test/subject-1 CK.csv","legacy","5 7 8 2 3 8","Lentiform Loewenfeld","3.3.3","5","y","0","left","left","left","left","NA","958","22474","752824","958","NA","2","legacy","6","1024","2","48000","-16","experiment","1","odd","3","907723","897163","905499","21207","881650","905508","903969","21318","128823","NA","909733","910699","906517","43795","909733","NA","Sternberg Task","14","15366","16","yes","1024"
"88.23529411764706","88.23529411764706","935.6470588235294","935.6470588235294","black","experiment","legacy","legacy","legacy","0","uniform","1","undefined","1","right","16","16","16","0","0","16","16","0","0","NA","16","16","16","0","16","0","Sun Oct 18 14:27:22 2020","The main experiment item","yes","NA","SternbergTask.osexp","C:/Users/chelsea/OneDrive - Tarleton State University/psych 5316- adv/Sternberg test","no","mono","no","18","no","white","no","no","768","legacy","4","11","C:/Users/chelsea/OneDrive - Tarleton State University/psych 5316- adv/Sternberg test/subject-1 CK.csv","legacy","3 4 2","Lentiform Loewenfeld","3.3.3","0","n","0","right","left","left","right","NA","540","22474","752824","540","NA","2","legacy","3","1024","2","48000","-16","experiment","1","odd","5","914632","910768","912405","21207","881650","912415","903969","21318","128823","NA","916637","917180","913422","43795","916637","NA","Sternberg Task","15","15906","17","yes","1024"
"88.88888888888889","88.88888888888889","943.7222222222222","943.7222222222222","black","experiment","legacy","legacy","legacy","0","uniform","1","undefined","1","right","17","17","17","0","0","17","17","0","0","NA","17","17","17","0","17","0","Sun Oct 18 14:27:22 2020","The main experiment item","yes","NA","SternbergTask.osexp","C:/Users/chelsea/OneDrive - Tarleton State University/psych 5316- adv/Sternberg test","no","mono","no","18","no","white","no","no","768","legacy","5","11","C:/Users/chelsea/OneDrive - Tarleton State University/psych 5316- adv/Sternberg test/subject-1 CK.csv","legacy","9 5 3 2 8 6","Lentiform Loewenfeld","3.3.3","0","n","0","right","left","left","right","NA","1081","22474","752824","1081","NA","2","legacy","6","1024","2","48000","-16","experiment","1","odd","7","921039","917242","918820","21207","881650","918825","903969","21318","128823","NA","923048","924132","919832","43795","923048","NA","Sternberg Task","16","16987","18","yes","1024"
"89.47368421052632","89.47368421052632","936","936","black","experiment","legacy","legacy","legacy","0","uniform","1","undefined","1","left","18","18","18","0","0","18","18","0","0","NA","18","18","18","0","18","0","Sun Oct 18 14:27:22 2020","The main experiment item","yes","NA","SternbergTask.osexp","C:/Users/chelsea/OneDrive - Tarleton State University/psych 5316- adv/Sternberg test","no","mono","no","18","no","white","no","no","768","legacy","6","11","C:/Users/chelsea/OneDrive - Tarleton State University/psych 5316- adv/Sternberg test/subject-1 CK.csv","legacy","9 1 6 7 8","Lentiform Loewenfeld","3.3.3","1","y","0","left","left","left","left","NA","797","22474","752824","797","NA","2","legacy","5","1024","2","48000","-16","experiment","1","odd","9","928190","924190","925965","21207","881650","925972","903969","21318","128823","NA","930195","931000","926979","43795","930194","NA","Sternberg Task","17","17784","19","yes","1024"
"90","90","954.45","954.45","black","experiment","legacy","legacy","legacy","0","uniform","1","undefined","1","right","19","19","19","0","0","19","19","0","0","NA","19","19","19","0","19","0","Sun Oct 18 14:27:22 2020","The main experiment item","yes","NA","SternbergTask.osexp","C:/Users/chelsea/OneDrive - Tarleton State University/psych 5316- adv/Sternberg test","no","mono","no","18","no","white","no","no","768","legacy","7","11","C:/Users/chelsea/OneDrive - Tarleton State University/psych 5316- adv/Sternberg test/subject-1 CK.csv","legacy","7 1 8 4 9 3","Lentiform Loewenfeld","3.3.3","0","n","0","right","left","left","right","NA","1305","22474","752824","1305","NA","2","legacy","6","1024","2","48000","-16","experiment","1","odd","6","934656","931057","932440","21207","881650","932445","903969","21318","128823","NA","936661","937969","933453","43795","936660","NA","Sternberg Task","18","19089","20","yes","1024"
"90.47619047619048","90.47619047619048","959.047619047619","959.047619047619","black","experiment","legacy","legacy","legacy","0","uniform","1","undefined","1","left","20","20","20","0","0","20","20","0","0","NA","20","20","20","0","20","0","Sun Oct 18 14:27:22 2020","The main experiment item","yes","NA","SternbergTask.osexp","C:/Users/chelsea/OneDrive - Tarleton State University/psych 5316- adv/Sternberg test","no","mono","no","18","no","white","no","no","768","legacy","8","11","C:/Users/chelsea/OneDrive - Tarleton State University/psych 5316- adv/Sternberg test/subject-1 CK.csv","legacy","2 5 4 8 7","Lentiform Loewenfeld","3.3.3","3","y","0","left","left","left","left","NA","1051","22474","752824","1051","NA","2","legacy","5","1024","2","48000","-16","experiment","1","odd","4","941639","938017","939418","21207","881650","939423","903969","21318","128823","NA","943643","944696","940434","43795","943643","NA","Sternberg Task","19","20140","21","yes","1024"
"90.9090909090909","90.9090909090909","959.2272727272727","959.2272727272727","black","experiment","legacy","legacy","legacy","0","uniform","1","undefined","1","left","21","21","21","0","0","21","21","0","0","NA","21","21","21","0","21","0","Sun Oct 18 14:27:22 2020","The main experiment item","yes","NA","SternbergTask.osexp","C:/Users/chelsea/OneDrive - Tarleton State University/psych 5316- adv/Sternberg test","no","mono","no","18","no","white","no","no","768","legacy","9","11","C:/Users/chelsea/OneDrive - Tarleton State University/psych 5316- adv/Sternberg test/subject-1 CK.csv","legacy","2 4 6 9","Lentiform Loewenfeld","3.3.3","3","y","0","left","left","left","left","NA","963","22474","752824","963","NA","2","legacy","4","1024","2","48000","-16","experiment","1","odd","6","948413","944742","946188","21207","881650","946193","903969","21318","128823","NA","950418","951383","947209","43795","950418","NA","Sternberg Task","20","21103","22","yes","1024"
"91.30434782608695","91.30434782608695","963.7826086956521","963.7826086956521","black","experiment","legacy","legacy","legacy","0","uniform","1","undefined","1","right","22","22","22","0","0","22","22","0","0","NA","22","22","22","0","22","0","Sun Oct 18 14:27:22 2020","The main experiment item","yes","NA","SternbergTask.osexp","C:/Users/chelsea/OneDrive - Tarleton State University/psych 5316- adv/Sternberg test","no","mono","no","18","no","white","no","no","768","legacy","10","11","C:/Users/chelsea/OneDrive - Tarleton State University/psych 5316- adv/Sternberg test/subject-1 CK.csv","legacy","2 8 9","Lentiform Loewenfeld","3.3.3","0","n","0","right","left","left","right","NA","1064","22474","752824","1064","NA","2","legacy","3","1024","2","48000","-16","experiment","1","odd","6","955118","951424","952900","21207","881650","952904","903969","21318","128823","NA","957123","958190","953911","43795","957123","NA","Sternberg Task","21","22167","23","yes","1024"
"91.66666666666667","91.66666666666667","955.7083333333334","955.7083333333334","black","experiment","legacy","legacy","legacy","0","uniform","1","undefined","1","right","23","23","23","0","0","23","23","0","0","NA","23","23","23","0","23","0","Sun Oct 18 14:27:22 2020","The main experiment item","yes","NA","SternbergTask.osexp","C:/Users/chelsea/OneDrive - Tarleton State University/psych 5316- adv/Sternberg test","no","mono","no","18","no","white","no","no","768","legacy","11","11","C:/Users/chelsea/OneDrive - Tarleton State University/psych 5316- adv/Sternberg test/subject-1 CK.csv","legacy","2 6 4 3 9","Lentiform Loewenfeld","3.3.3","0","n","0","right","left","left","right","NA","770","22474","752824","770","NA","2","legacy","5","1024","2","48000","-16","experiment","1","odd","1","961995","958280","959775","21207","881650","959781","903969","21318","128823","NA","964001","964773","960791","43795","964000","NA","Sternberg Task","22","22937","24","yes","1024"
"92","92","972.92","972.92","black","experiment","legacy","legacy","legacy","0","uniform","1","undefined","1","right","24","24","24","0","0","24","24","0","0","NA","24","24","24","0","24","0","Sun Oct 18 14:27:22 2020","The main experiment item","yes","NA","SternbergTask.osexp","C:/Users/chelsea/OneDrive - Tarleton State University/psych 5316- adv/Sternberg test","no","mono","no","18","no","white","no","no","768","legacy","12","11","C:/Users/chelsea/OneDrive - Tarleton State University/psych 5316- adv/Sternberg test/subject-1 CK.csv","legacy","9","Lentiform Loewenfeld","3.3.3","0","n","0","right","left","left","right","NA","1386","22474","752824","1386","NA","2","legacy","1","1024","2","48000","-16","experiment","1","odd","6","968571","964817","966345","21207","881650","966353","903969","21318","128823","NA","970576","971965","967364","43795","970575","NA","Sternberg Task","23","24323","25","yes","1024"
"92.3076923076923","92.3076923076923","980.2692307692307","980.2692307692307","black","experiment","legacy","legacy","legacy","0","uniform","1","undefined","1","right","25","25","25","0","0","25","25","0","0","NA","25","25","25","0","25","0","Sun Oct 18 14:27:22 2020","The main experiment item","yes","NA","SternbergTask.osexp","C:/Users/chelsea/OneDrive - Tarleton State University/psych 5316- adv/Sternberg test","no","mono","no","18","no","white","no","no","768","legacy","13","11","C:/Users/chelsea/OneDrive - Tarleton State University/psych 5316- adv/Sternberg test/subject-1 CK.csv","legacy","2 7 5","Lentiform Loewenfeld","3.3.3","0","n","0","right","left","left","right","NA","1164","22474","752824","1164","NA","2","legacy","3","1024","2","48000","-16","experiment","1","odd","8","975667","972008","973442","21207","881650","973447","903969","21318","128823","NA","977673","978839","974462","43795","977673","NA","Sternberg Task","24","25487","26","yes","1024"
"92.5925925925926","92.5925925925926","974.9629629629629","974.9629629629629","black","experiment","legacy","legacy","legacy","0","uniform","1","undefined","1","left","26","26","26","0","0","26","26","0","0","NA","26","26","26","0","26","0","Sun Oct 18 14:27:22 2020","The main experiment item","yes","NA","SternbergTask.osexp","C:/Users/chelsea/OneDrive - Tarleton State University/psych 5316- adv/Sternberg test","no","mono","no","18","no","white","no","no","768","legacy","14","11","C:/Users/chelsea/OneDrive - Tarleton State University/psych 5316- adv/Sternberg test/subject-1 CK.csv","legacy","6 2","Lentiform Loewenfeld","3.3.3","1","y","0","left","left","left","left","NA","837","22474","752824","837","NA","2","legacy","2","1024","2","48000","-16","experiment","1","odd","6","982654","978911","980439","21207","881650","980444","903969","21318","128823","NA","984659","985499","981449","43795","984659","NA","Sternberg Task","25","26324","27","yes","1024"
"92.85714285714286","92.85714285714286","979.8571428571429","979.8571428571429","black","experiment","legacy","legacy","legacy","0","uniform","1","undefined","1","right","27","27","27","0","0","27","27","0","0","NA","27","27","27","0","27","0","Sun Oct 18 14:27:22 2020","The main experiment item","yes","NA","SternbergTask.osexp","C:/Users/chelsea/OneDrive - Tarleton State University/psych 5316- adv/Sternberg test","no","mono","no","18","no","white","no","no","768","legacy","15","11","C:/Users/chelsea/OneDrive - Tarleton State University/psych 5316- adv/Sternberg test/subject-1 CK.csv","legacy","1 4 3 6 5","Lentiform Loewenfeld","3.3.3","0","n","0","right","left","left","right","NA","1112","22474","752824","1112","NA","2","legacy","5","1024","2","48000","-16","experiment","1","odd","8","989210","985542","986993","21207","881650","986997","903969","21318","128823","NA","991215","992330","988006","43795","991215","NA","Sternberg Task","26","27436","28","yes","1024"
"89.65517241379311","89.65517241379311","983.551724137931","983.551724137931","black","experiment","legacy","legacy","legacy","0","uniform","0","undefined","0","left","28","28","28","0","0","28","28","0","0","NA","28","28","28","0","28","0","Sun Oct 18 14:27:22 2020","The main experiment item","yes","NA","SternbergTask.osexp","C:/Users/chelsea/OneDrive - Tarleton State University/psych 5316- adv/Sternberg test","no","mono","no","18","no","white","no","no","768","legacy","16","11","C:/Users/chelsea/OneDrive - Tarleton State University/psych 5316- adv/Sternberg test/subject-1 CK.csv","legacy","5 2 6","Lentiform Loewenfeld","3.3.3","2","y","0","right","left","left","right","NA","1087","22474","752824","1087","NA","2","legacy","3","1024","2","48000","-16","experiment","1","odd","2","996115","992427","993900","21207","881650","993905","903969","21318","128823","NA","998119","999209","994911","43795","998119","NA","Sternberg Task","26","28523","29","yes","1024"
"90","90","1001.5333333333333","1001.5333333333333","black","experiment","legacy","legacy","legacy","0","uniform","1","undefined","1","left","29","29","29","0","0","29","29","0","0","NA","29","29","29","0","29","0","Sun Oct 18 14:27:22 2020","The main experiment item","yes","NA","SternbergTask.osexp","C:/Users/chelsea/OneDrive - Tarleton State University/psych 5316- adv/Sternberg test","no","mono","no","18","no","white","no","no","768","legacy","17","11","C:/Users/chelsea/OneDrive - Tarleton State University/psych 5316- adv/Sternberg test/subject-1 CK.csv","legacy","5 2 9 6 1 7","Lentiform Loewenfeld","3.3.3","3","y","0","left","left","left","left","NA","1523","22474","752824","1523","NA","2","legacy","6","1024","2","48000","-16","experiment","1","odd","9","1002974","992427","1000748","21207","881650","1000758","999298","21318","128823","NA","1004978","1006505","1001767","43795","1004978","NA","Sternberg Task","27","30046","30","yes","1024"
"90.3225806451613","90.3225806451613","1020.3225806451613","1020.3225806451613","black","experiment","legacy","legacy","legacy","0","uniform","1","undefined","1","left","30","30","30","0","0","30","30","0","0","NA","30","30","30","0","30","0","Sun Oct 18 14:27:22 2020","The main experiment item","yes","NA","SternbergTask.osexp","C:/Users/chelsea/OneDrive - Tarleton State University/psych 5316- adv/Sternberg test","no","mono","no","18","no","white","no","no","768","legacy","18","11","C:/Users/chelsea/OneDrive - Tarleton State University/psych 5316- adv/Sternberg test/subject-1 CK.csv","legacy","6 9 3 1","Lentiform Loewenfeld","3.3.3","4","y","0","left","left","left","left","NA","1584","22474","752824","1584","NA","2","legacy","4","1024","2","48000","-16","experiment","1","odd","1","1010274","1006667","1008056","21207","881650","1008060","999298","21318","128823","NA","1012280","1013867","1009070","43795","1012279","NA","Sternberg Task","28","31630","31","yes","1024"
"90.625","90.625","1015.40625","1015.40625","black","experiment","legacy","legacy","legacy","0","uniform","1","undefined","1","left","31","31","31","0","0","31","31","0","0","NA","31","31","31","0","31","0","Sun Oct 18 14:27:22 2020","The main experiment item","yes","NA","SternbergTask.osexp","C:/Users/chelsea/OneDrive - Tarleton State University/psych 5316- adv/Sternberg test","no","mono","no","18","no","white","no","no","768","legacy","19","11","C:/Users/chelsea/OneDrive - Tarleton State University/psych 5316- adv/Sternberg test/subject-1 CK.csv","legacy","7 8 4 6 9 5","Lentiform Loewenfeld","3.3.3","4","y","0","left","left","left","left","NA","863","22474","752824","863","NA","2","legacy","6","1024","2","48000","-16","experiment","1","odd","6","1017634","1013984","1015394","21207","881650","1015413","999298","21318","128823","NA","1019641","1020507","1016429","43795","1019641","NA","Sternberg Task","29","32493","32","yes","1024"
"90.9090909090909","90.9090909090909","1011.2121212121212","1011.2121212121212","black","experiment","legacy","legacy","legacy","0","uniform","1","undefined","1","right","32","32","32","0","0","32","32","0","0","NA","32","32","32","0","32","0","Sun Oct 18 14:27:22 2020","The main experiment item","yes","NA","SternbergTask.osexp","C:/Users/chelsea/OneDrive - Tarleton State University/psych 5316- adv/Sternberg test","no","mono","no","18","no","white","no","no","768","legacy","20","11","C:/Users/chelsea/OneDrive - Tarleton State University/psych 5316- adv/Sternberg test/subject-1 CK.csv","legacy","1 4 9 2 5","Lentiform Loewenfeld","3.3.3","0","n","0","right","left","left","right","NA","877","22474","752824","877","NA","2","legacy","5","1024","2","48000","-16","experiment","1","odd","7","1024248","1020567","1022026","21207","881650","1022031","999298","21318","128823","NA","1026254","1027134","1023044","43795","1026253","NA","Sternberg Task","30","33370","33","yes","1024"
"91.17647058823529","91.17647058823529","1005.2941176470588","1005.2941176470588","black","experiment","legacy","legacy","legacy","0","uniform","1","undefined","1","right","33","33","33","0","0","33","33","0","0","NA","33","33","33","0","33","0","Sun Oct 18 14:27:22 2020","The main experiment item","yes","NA","SternbergTask.osexp","C:/Users/chelsea/OneDrive - Tarleton State University/psych 5316- adv/Sternberg test","no","mono","no","18","no","white","no","no","768","legacy","21","11","C:/Users/chelsea/OneDrive - Tarleton State University/psych 5316- adv/Sternberg test/subject-1 CK.csv","legacy","1 5 3 2 8","Lentiform Loewenfeld","3.3.3","0","n","0","right","left","left","right","NA","810","22474","752824","810","NA","2","legacy","5","1024","2","48000","-16","experiment","1","odd","4","1030923","1027295","1028708","21207","881650","1028713","999298","21318","128823","NA","1032928","1033742","1029718","43795","1032928","NA","Sternberg Task","31","34180","34","yes","1024"
"91.42857142857143","91.42857142857143","1005.1142857142858","1005.1142857142858","black","experiment","legacy","legacy","legacy","0","uniform","1","undefined","1","right","34","34","34","0","0","34","34","0","0","NA","34","34","34","0","34","0","Sun Oct 18 14:27:22 2020","The main experiment item","yes","NA","SternbergTask.osexp","C:/Users/chelsea/OneDrive - Tarleton State University/psych 5316- adv/Sternberg test","no","mono","no","18","no","white","no","no","768","legacy","22","11","C:/Users/chelsea/OneDrive - Tarleton State University/psych 5316- adv/Sternberg test/subject-1 CK.csv","legacy","6 3 1 7 9 8","Lentiform Loewenfeld","3.3.3","0","n","0","right","left","left","right","NA","999","22474","752824","999","NA","2","legacy","6","1024","2","48000","-16","experiment","1","odd","4","1037541","1033843","1035325","21207","881650","1035331","999298","21318","128823","NA","1039545","1040547","1036337","43795","1039545","NA","Sternberg Task","32","35179","35","yes","1024"
"91.66666666666667","91.66666666666667","994.7777777777778","994.7777777777778","black","experiment","legacy","legacy","legacy","0","uniform","1","undefined","1","left","35","35","35","0","0","35","35","0","0","NA","35","35","35","0","35","0","Sun Oct 18 14:27:22 2020","The main experiment item","yes","NA","SternbergTask.osexp","C:/Users/chelsea/OneDrive - Tarleton State University/psych 5316- adv/Sternberg test","no","mono","no","18","no","white","no","no","768","legacy","23","11","C:/Users/chelsea/OneDrive - Tarleton State University/psych 5316- adv/Sternberg test/subject-1 CK.csv","legacy","9 1 7 2","Lentiform Loewenfeld","3.3.3","2","y","0","left","left","left","left","NA","633","22474","752824","633","NA","2","legacy","4","1024","2","48000","-16","experiment","1","odd","1","1044275","1040594","1042053","21207","881650","1042060","999298","21318","128823","NA","1046279","1046915","1043071","43795","1046279","NA","Sternberg Task","33","35812","36","yes","1024"
"91.89189189189189","91.89189189189189","1006.6486486486486","1006.6486486486486","black","experiment","legacy","legacy","legacy","0","uniform","1","undefined","1","left","36","36","36","0","0","36","36","0","0","NA","36","36","36","0","36","0","Sun Oct 18 14:27:22 2020","The main experiment item","yes","NA","SternbergTask.osexp","C:/Users/chelsea/OneDrive - Tarleton State University/psych 5316- adv/Sternberg test","no","mono","no","18","no","white","no","no","768","legacy","24","11","C:/Users/chelsea/OneDrive - Tarleton State University/psych 5316- adv/Sternberg test/subject-1 CK.csv","legacy","4 3 2 5 8","Lentiform Loewenfeld","3.3.3","2","y","0","left","left","left","left","NA","1434","22474","752824","1434","NA","2","legacy","5","1024","2","48000","-16","experiment","1","odd","3","1050730","1046987","1048511","21207","881650","1048522","999298","21318","128823","NA","1052734","1054171","1049526","43795","1052734","NA","Sternberg Task","34","37246","37","yes","1024"
"92.10526315789474","92.10526315789474","1004.6578947368421","1004.6578947368421","black","experiment","legacy","legacy","legacy","0","uniform","1","undefined","1","right","37","37","37","0","0","37","37","0","0","NA","37","37","37","0","37","0","Sun Oct 18 14:27:22 2020","The main experiment item","yes","NA","SternbergTask.osexp","C:/Users/chelsea/OneDrive - Tarleton State University/psych 5316- adv/Sternberg test","no","mono","no","18","no","white","no","no","768","legacy","25","11","C:/Users/chelsea/OneDrive - Tarleton State University/psych 5316- adv/Sternberg test/subject-1 CK.csv","legacy","1 8 7","Lentiform Loewenfeld","3.3.3","0","n","0","right","left","left","right","NA","931","22474","752824","931","NA","2","legacy","3","1024","2","48000","-16","experiment","1","odd","4","1057883","1054250","1055661","21207","881650","1055666","999298","21318","128823","NA","1059888","1060822","1056679","43795","1059888","NA","Sternberg Task","35","38177","38","yes","1024"
"92.3076923076923","92.3076923076923","996.5897435897435","996.5897435897435","black","experiment","legacy","legacy","legacy","0","uniform","1","undefined","1","right","38","38","38","0","0","38","38","0","0","NA","38","38","38","0","38","0","Sun Oct 18 14:27:22 2020","The main experiment item","yes","NA","SternbergTask.osexp","C:/Users/chelsea/OneDrive - Tarleton State University/psych 5316- adv/Sternberg test","no","mono","no","18","no","white","no","no","768","legacy","26","11","C:/Users/chelsea/OneDrive - Tarleton State University/psych 5316- adv/Sternberg test/subject-1 CK.csv","legacy","7 1","Lentiform Loewenfeld","3.3.3","0","n","0","right","left","left","right","NA","690","22474","752824","690","NA","2","legacy","2","1024","2","48000","-16","experiment","1","odd","8","1064527","1060862","1062307","21207","881650","1062312","999298","21318","128823","NA","1066531","1067223","1063323","43795","1066531","NA","Sternberg Task","36","38867","39","yes","1024"
"92.5","92.5","996.925","996.925","black","experiment","legacy","legacy","legacy","0","uniform","1","undefined","1","right","39","39","39","0","0","39","39","0","0","NA","39","39","39","0","39","0","Sun Oct 18 14:27:22 2020","The main experiment item","yes","NA","SternbergTask.osexp","C:/Users/chelsea/OneDrive - Tarleton State University/psych 5316- adv/Sternberg test","no","mono","no","18","no","white","no","no","768","legacy","27","11","C:/Users/chelsea/OneDrive - Tarleton State University/psych 5316- adv/Sternberg test/subject-1 CK.csv","legacy","8 5 4 2 9 6","Lentiform Loewenfeld","3.3.3","0","n","0","right","left","left","right","NA","1010","22474","752824","1010","NA","2","legacy","6","1024","2","48000","-16","experiment","1","odd","3","1071020","1067287","1068804","21207","881650","1068809","999298","21318","128823","NA","1073026","1074040","1069814","43795","1073026","NA","Sternberg Task","37","39877","40","yes","1024"
"92.6829268292683","92.6829268292683","1004.0731707317074","1004.0731707317074","black","experiment","legacy","legacy","legacy","0","uniform","1","undefined","1","right","40","40","40","0","0","40","40","0","0","NA","40","40","40","0","40","0","Sun Oct 18 14:27:22 2020","The main experiment item","yes","NA","SternbergTask.osexp","C:/Users/chelsea/OneDrive - Tarleton State University/psych 5316- adv/Sternberg test","no","mono","no","18","no","white","no","no","768","legacy","28","11","C:/Users/chelsea/OneDrive - Tarleton State University/psych 5316- adv/Sternberg test/subject-1 CK.csv","legacy","1 6 4","Lentiform Loewenfeld","3.3.3","0","n","0","right","left","left","right","NA","1290","22474","752824","1290","NA","2","legacy","3","1024","2","48000","-16","experiment","1","odd","7","1077851","1074109","1075632","21207","881650","1075638","999298","21318","128823","NA","1079857","1081150","1076647","43795","1079857","NA","Sternberg Task","38","41167","41","yes","1024"
"92.85714285714286","92.85714285714286","1014.8333333333334","1014.8333333333334","black","experiment","legacy","legacy","legacy","0","uniform","1","undefined","1","left","41","41","41","0","0","41","41","0","0","NA","41","41","41","0","41","0","Sun Oct 18 14:27:22 2020","The main experiment item","yes","NA","SternbergTask.osexp","C:/Users/chelsea/OneDrive - Tarleton State University/psych 5316- adv/Sternberg test","no","mono","no","18","no","white","no","no","768","legacy","29","11","C:/Users/chelsea/OneDrive - Tarleton State University/psych 5316- adv/Sternberg test/subject-1 CK.csv","legacy","7 4 2 6 3 5","Lentiform Loewenfeld","3.3.3","6","y","0","left","left","left","left","NA","1456","22474","752824","1456","NA","2","legacy","6","1024","2","48000","-16","experiment","1","odd","5","1084856","1081187","1082636","21207","881650","1082641","999298","21318","128823","NA","1086861","1088320","1083650","43795","1086860","NA","Sternberg Task","39","42623","42","yes","1024"
"93.02325581395348","93.02325581395348","1012.5581395348837","1012.5581395348837","black","experiment","legacy","legacy","legacy","0","uniform","1","undefined","1","right","42","42","42","0","0","42","42","0","0","NA","42","42","42","0","42","0","Sun Oct 18 14:27:22 2020","The main experiment item","yes","NA","SternbergTask.osexp","C:/Users/chelsea/OneDrive - Tarleton State University/psych 5316- adv/Sternberg test","no","mono","no","18","no","white","no","no","768","legacy","30","11","C:/Users/chelsea/OneDrive - Tarleton State University/psych 5316- adv/Sternberg test/subject-1 CK.csv","legacy","1 6 4 3 9 7","Lentiform Loewenfeld","3.3.3","0","n","0","right","left","left","right","NA","917","22474","752824","917","NA","2","legacy","6","1024","2","48000","-16","experiment","1","odd","8","1092004","1088395","1089788","21207","881650","1089794","999298","21318","128823","NA","1094009","1094929","1090799","43795","1094009","NA","Sternberg Task","40","43540","43","yes","1024"
"93.18181818181819","93.18181818181819","1008.3863636363636","1008.3863636363636","black","experiment","legacy","legacy","legacy","0","uniform","1","undefined","1","left","43","43","43","0","0","43","43","0","0","NA","43","43","43","0","43","0","Sun Oct 18 14:27:22 2020","The main experiment item","yes","NA","SternbergTask.osexp","C:/Users/chelsea/OneDrive - Tarleton State University/psych 5316- adv/Sternberg test","no","mono","no","18","no","white","no","no","768","legacy","31","11","C:/Users/chelsea/OneDrive - Tarleton State University/psych 5316- adv/Sternberg test/subject-1 CK.csv","legacy","3 5 4 7","Lentiform Loewenfeld","3.3.3","1","y","0","left","left","left","left","NA","829","22474","752824","829","NA","2","legacy","4","1024","2","48000","-16","experiment","1","odd","3","1098702","1094999","1096481","21207","881650","1096489","999298","21318","128823","NA","1100707","1101539","1097497","43795","1100707","NA","Sternberg Task","41","44369","44","yes","1024"
"91.11111111111111","91.11111111111111","1030.4444444444443","1030.4444444444443","black","experiment","legacy","legacy","legacy","0","uniform","0","undefined","0","right","44","44","44","0","0","44","44","0","0","NA","44","44","44","0","44","0","Sun Oct 18 14:27:22 2020","The main experiment item","yes","NA","SternbergTask.osexp","C:/Users/chelsea/OneDrive - Tarleton State University/psych 5316- adv/Sternberg test","no","mono","no","18","no","white","no","no","768","legacy","32","11","C:/Users/chelsea/OneDrive - Tarleton State University/psych 5316- adv/Sternberg test/subject-1 CK.csv","legacy","2 8 7 9 5 3","Lentiform Loewenfeld","3.3.3","0","n","0","None","left","left","None","NA","2001","22474","752824","2001","NA","2","legacy","6","1024","2","48000","-16","experiment","1","odd","6","1105307","1101618","1103086","21207","881650","1103094","999298","21318","128823","NA","1107311","1109314","1104103","43795","1107310","NA","Sternberg Task","41","46370","45","yes","1024"
"91.30434782608695","91.30434782608695","1029.8478260869565","1029.8478260869565","black","experiment","legacy","legacy","legacy","0","uniform","1","undefined","1","left","45","45","45","0","0","45","45","0","0","NA","45","45","45","0","45","0","Sun Oct 18 14:27:22 2020","The main experiment item","yes","NA","SternbergTask.osexp","C:/Users/chelsea/OneDrive - Tarleton State University/psych 5316- adv/Sternberg test","no","mono","no","18","no","white","no","no","768","legacy","33","11","C:/Users/chelsea/OneDrive - Tarleton State University/psych 5316- adv/Sternberg test/subject-1 CK.csv","legacy","8 9 6 1","Lentiform Loewenfeld","3.3.3","2","y","0","left","left","left","left","NA","1003","22474","752824","1003","NA","2","legacy","4","1024","2","48000","-16","experiment","1","odd","9","1113054","1101618","1110832","21207","881650","1110837","1109392","21318","128823","NA","1115060","1116071","1111848","43795","1115059","NA","Sternberg Task","42","47373","46","yes","1024"
"91.48936170212765","91.48936170212765","1027.404255319149","1027.404255319149","black","experiment","legacy","legacy","legacy","0","uniform","1","undefined","1","right","46","46","46","0","0","46","46","0","0","NA","46","46","46","0","46","0","Sun Oct 18 14:27:22 2020","The main experiment item","yes","NA","SternbergTask.osexp","C:/Users/chelsea/OneDrive - Tarleton State University/psych 5316- adv/Sternberg test","no","mono","no","18","no","white","no","no","768","legacy","34","11","C:/Users/chelsea/OneDrive - Tarleton State University/psych 5316- adv/Sternberg test/subject-1 CK.csv","legacy","1 7 8 3 9","Lentiform Loewenfeld","3.3.3","0","n","0","right","left","left","right","NA","915","22474","752824","915","NA","2","legacy","5","1024","2","48000","-16","experiment","1","odd","2","1119808","1116133","1117581","21207","881650","1117586","1109392","21318","128823","NA","1121812","1122729","1118603","43795","1121811","NA","Sternberg Task","43","48288","47","yes","1024"
"91.66666666666667","91.66666666666667","1025.6458333333333","1025.6458333333333","black","experiment","legacy","legacy","legacy","0","uniform","1","undefined","1","left","47","47","47","0","0","47","47","0","0","NA","47","47","47","0","47","0","Sun Oct 18 14:27:22 2020","The main experiment item","yes","NA","SternbergTask.osexp","C:/Users/chelsea/OneDrive - Tarleton State University/psych 5316- adv/Sternberg test","no","mono","no","18","no","white","no","no","768","legacy","35","11","C:/Users/chelsea/OneDrive - Tarleton State University/psych 5316- adv/Sternberg test/subject-1 CK.csv","legacy","7 6","Lentiform Loewenfeld","3.3.3","2","y","0","left","left","left","left","NA","943","22474","752824","943","NA","2","legacy","2","1024","2","48000","-16","experiment","1","odd","6","1126441","1122764","1124225","21207","881650","1124229","1109392","21318","128823","NA","1128445","1129392","1125235","43795","1128445","NA","Sternberg Task","44","49231","48","yes","1024"
"91.83673469387755","91.83673469387755","1023.530612244898","1023.530612244898","black","experiment","legacy","legacy","legacy","0","uniform","1","undefined","1","left","48","48","48","0","0","48","48","0","0","NA","48","48","48","0","48","0","Sun Oct 18 14:27:22 2020","The main experiment item","yes","NA","SternbergTask.osexp","C:/Users/chelsea/OneDrive - Tarleton State University/psych 5316- adv/Sternberg test","no","mono","no","18","no","white","no","no","768","legacy","36","11","C:/Users/chelsea/OneDrive - Tarleton State University/psych 5316- adv/Sternberg test/subject-1 CK.csv","legacy","2 6 1 7 4","Lentiform Loewenfeld","3.3.3","2","y","0","left","left","left","left","NA","922","22474","752824","922","NA","2","legacy","5","1024","2","48000","-16","experiment","1","odd","6","1133125","1129454","1130907","21207","881650","1130912","1109392","21318","128823","NA","1135130","1136055","1131919","43795","1135129","NA","Sternberg Task","45","50153","49","yes","1024"
"92","92","1023.2","1023.2","black","experiment","legacy","legacy","legacy","0","uniform","1","undefined","1","right","49","49","49","0","0","49","49","0","0","NA","49","49","49","0","49","0","Sun Oct 18 14:27:22 2020","The main experiment item","yes","NA","SternbergTask.osexp","C:/Users/chelsea/OneDrive - Tarleton State University/psych 5316- adv/Sternberg test","no","mono","no","18","no","white","no","no","768","legacy","37","11","C:/Users/chelsea/OneDrive - Tarleton State University/psych 5316- adv/Sternberg test/subject-1 CK.csv","legacy","2 3 8 5 6 7","Lentiform Loewenfeld","3.3.3","0","n","0","right","left","left","right","NA","1007","22474","752824","1007","NA","2","legacy","6","1024","2","48000","-16","experiment","1","odd","1","1139826","1136129","1137613","21207","881650","1137617","1109392","21318","128823","NA","1141831","1142842","1138622","43795","1141831","NA","Sternberg Task","46","51160","50","yes","1024"
"92.15686274509804","92.15686274509804","1021.7843137254902","1021.7843137254902","black","experiment","legacy","legacy","legacy","0","uniform","1","undefined","1","right","50","50","50","0","0","50","50","0","0","NA","50","50","50","0","50","0","Sun Oct 18 14:27:22 2020","The main experiment item","yes","NA","SternbergTask.osexp","C:/Users/chelsea/OneDrive - Tarleton State University/psych 5316- adv/Sternberg test","no","mono","no","18","no","white","no","no","768","legacy","38","11","C:/Users/chelsea/OneDrive - Tarleton State University/psych 5316- adv/Sternberg test/subject-1 CK.csv","legacy","3 4 9 6 7 8","Lentiform Loewenfeld","3.3.3","0","n","0","right","left","left","right","NA","951","22474","752824","951","NA","2","legacy","6","1024","2","48000","-16","experiment","1","odd","2","1146549","1142906","1144332","21207","881650","1144339","1109392","21318","128823","NA","1148556","1149516","1145346","43795","1148555","NA","Sternberg Task","47","52111","51","yes","1024"
"92.3076923076923","92.3076923076923","1024.4807692307693","1024.4807692307693","black","experiment","legacy","legacy","legacy","0","uniform","1","undefined","1","left","51","51","51","0","0","51","51","0","0","NA","51","51","51","0","51","0","Sun Oct 18 14:27:22 2020","The main experiment item","yes","NA","SternbergTask.osexp","C:/Users/chelsea/OneDrive - Tarleton State University/psych 5316- adv/Sternberg test","no","mono","no","18","no","white","no","no","768","legacy","39","11","C:/Users/chelsea/OneDrive - Tarleton State University/psych 5316- adv/Sternberg test/subject-1 CK.csv","legacy","4 7 6 8 2 3","Lentiform Loewenfeld","3.3.3","6","y","0","left","left","left","left","NA","1162","22474","752824","1162","NA","2","legacy","6","1024","2","48000","-16","experiment","1","odd","3","1153260","1149609","1151044","21207","881650","1151049","1109392","21318","128823","NA","1155264","1156429","1152054","43795","1155264","NA","Sternberg Task","48","53273","52","yes","1024"
"92.45283018867924","92.45283018867924","1027.6603773584907","1027.6603773584907","black","experiment","legacy","legacy","legacy","0","uniform","1","undefined","1","left","52","52","52","0","0","52","52","0","0","NA","52","52","52","0","52","0","Sun Oct 18 14:27:22 2020","The main experiment item","yes","NA","SternbergTask.osexp","C:/Users/chelsea/OneDrive - Tarleton State University/psych 5316- adv/Sternberg test","no","mono","no","18","no","white","no","no","768","legacy","40","11","C:/Users/chelsea/OneDrive - Tarleton State University/psych 5316- adv/Sternberg test/subject-1 CK.csv","legacy","5 7 3 6 2","Lentiform Loewenfeld","3.3.3","5","y","0","left","left","left","left","NA","1193","22474","752824","1193","NA","2","legacy","5","1024","2","48000","-16","experiment","1","odd","2","1160120","1156509","1157907","21207","881650","1157912","1109392","21318","128823","NA","1162127","1163323","1158916","43795","1162127","NA","Sternberg Task","49","54466","53","yes","1024"
"92.5925925925926","92.5925925925926","1029.888888888889","1029.888888888889","black","experiment","legacy","legacy","legacy","0","uniform","1","undefined","1","left","53","53","53","0","0","53","53","0","0","NA","53","53","53","0","53","0","Sun Oct 18 14:27:22 2020","The main experiment item","yes","NA","SternbergTask.osexp","C:/Users/chelsea/OneDrive - Tarleton State University/psych 5316- adv/Sternberg test","no","mono","no","18","no","white","no","no","768","legacy","41","11","C:/Users/chelsea/OneDrive - Tarleton State University/psych 5316- adv/Sternberg test/subject-1 CK.csv","legacy","8 5 1 3 9","Lentiform Loewenfeld","3.3.3","4","y","0","left","left","left","left","NA","1148","22474","752824","1148","NA","2","legacy","5","1024","2","48000","-16","experiment","1","odd","3","1167041","1163399","1164828","21207","881650","1164832","1109392","21318","128823","NA","1169047","1170199","1165837","43795","1169046","NA","Sternberg Task","50","55614","54","yes","1024"
"90.9090909090909","90.9090909090909","1032.3636363636363","1032.3636363636363","black","experiment","legacy","legacy","legacy","0","uniform","0","undefined","0","left","54","54","54","0","0","54","54","0","0","NA","54","54","54","0","54","0","Sun Oct 18 14:27:22 2020","The main experiment item","yes","NA","SternbergTask.osexp","C:/Users/chelsea/OneDrive - Tarleton State University/psych 5316- adv/Sternberg test","no","mono","no","18","no","white","no","no","768","legacy","42","11","C:/Users/chelsea/OneDrive - Tarleton State University/psych 5316- adv/Sternberg test/subject-1 CK.csv","legacy","8 5 4 7 3 1","Lentiform Loewenfeld","3.3.3","2","y","0","right","left","left","right","NA","1166","22474","752824","1166","NA","2","legacy","6","1024","2","48000","-16","experiment","1","odd","5","1174069","1170466","1171848","21207","881650","1171859","1109392","21318","128823","NA","1176074","1177249","1172865","43795","1176073","NA","Sternberg Task","50","56780","55","yes","1024"
"91.07142857142857","91.07142857142857","1027","1027","black","experiment","legacy","legacy","legacy","0","uniform","1","undefined","1","left","55","55","55","0","0","55","55","0","0","NA","55","55","55","0","55","0","Sun Oct 18 14:27:22 2020","The main experiment item","yes","NA","SternbergTask.osexp","C:/Users/chelsea/OneDrive - Tarleton State University/psych 5316- adv/Sternberg test","no","mono","no","18","no","white","no","no","768","legacy","43","11","C:/Users/chelsea/OneDrive - Tarleton State University/psych 5316- adv/Sternberg test/subject-1 CK.csv","legacy","9 5 8 1","Lentiform Loewenfeld","3.3.3","2","y","0","left","left","left","left","NA","732","22474","752824","732","NA","2","legacy","4","1024","2","48000","-16","experiment","1","odd","5","1180893","1170466","1178679","21207","881650","1178683","1177289","21318","128823","NA","1182897","1183638","1179687","43795","1182896","NA","Sternberg Task","51","57512","56","yes","1024"
"91.2280701754386","91.2280701754386","1021.1228070175439","1021.1228070175439","black","experiment","legacy","legacy","legacy","0","uniform","1","undefined","1","left","56","56","56","0","0","56","56","0","0","NA","56","56","56","0","56","0","Sun Oct 18 14:27:22 2020","The main experiment item","yes","NA","SternbergTask.osexp","C:/Users/chelsea/OneDrive - Tarleton State University/psych 5316- adv/Sternberg test","no","mono","no","18","no","white","no","no","768","legacy","44","11","C:/Users/chelsea/OneDrive - Tarleton State University/psych 5316- adv/Sternberg test/subject-1 CK.csv","legacy","9 8 4","Lentiform Loewenfeld","3.3.3","1","y","0","left","left","left","left","NA","692","22474","752824","692","NA","2","legacy","3","1024","2","48000","-16","experiment","1","odd","9","1187396","1183685","1185178","21207","881650","1185182","1177289","21318","128823","NA","1189401","1190104","1186188","43795","1189400","NA","Sternberg Task","52","58204","57","yes","1024"
"91.37931034482759","91.37931034482759","1029.2241379310344","1029.2241379310344","black","experiment","legacy","legacy","legacy","0","uniform","1","undefined","1","left","57","57","57","0","0","57","57","0","0","NA","57","57","57","0","57","0","Sun Oct 18 14:27:22 2020","The main experiment item","yes","NA","SternbergTask.osexp","C:/Users/chelsea/OneDrive - Tarleton State University/psych 5316- adv/Sternberg test","no","mono","no","18","no","white","no","no","768","legacy","45","11","C:/Users/chelsea/OneDrive - Tarleton State University/psych 5316- adv/Sternberg test/subject-1 CK.csv","legacy","9 6 2 4 1","Lentiform Loewenfeld","3.3.3","4","y","0","left","left","left","left","NA","1491","22474","752824","1491","NA","2","legacy","5","1024","2","48000","-16","experiment","1","odd","4","1193917","1190147","1191697","21207","881650","1191706","1177289","21318","128823","NA","1195929","1197424","1192712","43795","1195929","NA","Sternberg Task","53","59695","58","yes","1024"
"91.52542372881356","91.52542372881356","1027.4406779661017","1027.4406779661017","black","experiment","legacy","legacy","legacy","0","uniform","1","undefined","1","left","58","58","58","0","0","58","58","0","0","NA","58","58","58","0","58","0","Sun Oct 18 14:27:22 2020","The main experiment item","yes","NA","SternbergTask.osexp","C:/Users/chelsea/OneDrive - Tarleton State University/psych 5316- adv/Sternberg test","no","mono","no","18","no","white","no","no","768","legacy","46","11","C:/Users/chelsea/OneDrive - Tarleton State University/psych 5316- adv/Sternberg test/subject-1 CK.csv","legacy","2 3 7 4","Lentiform Loewenfeld","3.3.3","1","y","0","left","left","left","left","NA","924","22474","752824","924","NA","2","legacy","4","1024","2","48000","-16","experiment","1","odd","2","1201214","1197490","1198996","21207","881650","1199000","1177289","21318","128823","NA","1203218","1204145","1200010","43795","1203218","NA","Sternberg Task","54","60619","59","yes","1024"
"91.66666666666667","91.66666666666667","1027.1166666666666","1027.1166666666666","black","experiment","legacy","legacy","legacy","0","uniform","1","undefined","1","left","59","59","59","0","0","59","59","0","0","NA","59","59","59","0","59","0","Sun Oct 18 14:27:22 2020","The main experiment item","yes","NA","SternbergTask.osexp","C:/Users/chelsea/OneDrive - Tarleton State University/psych 5316- adv/Sternberg test","no","mono","no","18","no","white","no","no","768","legacy","47","11","C:/Users/chelsea/OneDrive - Tarleton State University/psych 5316- adv/Sternberg test/subject-1 CK.csv","legacy","6 5","Lentiform Loewenfeld","3.3.3","2","y","0","left","left","left","left","NA","1008","22474","752824","1008","NA","2","legacy","2","1024","2","48000","-16","experiment","1","odd","5","1207893","1204188","1205679","21207","881650","1205684","1177289","21318","128823","NA","1209898","1210910","1206688","43795","1209898","NA","Sternberg Task","55","61627","60","yes","1024"
"91.80327868852459","91.80327868852459","1022.1803278688525","1022.1803278688525","black","experiment","legacy","legacy","legacy","0","uniform","1","undefined","1","right","60","60","60","0","0","60","60","0","0","NA","60","60","60","0","60","0","Sun Oct 18 14:27:22 2020","The main experiment item","yes","NA","SternbergTask.osexp","C:/Users/chelsea/OneDrive - Tarleton State University/psych 5316- adv/Sternberg test","no","mono","no","18","no","white","no","no","768","legacy","48","11","C:/Users/chelsea/OneDrive - Tarleton State University/psych 5316- adv/Sternberg test/subject-1 CK.csv","legacy","5","Lentiform Loewenfeld","3.3.3","0","n","0","right","left","left","right","NA","726","22474","752824","726","NA","2","legacy","1","1024","2","48000","-16","experiment","1","odd","8","1214743","1210949","1212526","21207","881650","1212531","1177289","21318","128823","NA","1216747","1217481","1213535","43795","1216747","NA","Sternberg Task","56","62353","61","yes","1024"
"91.93548387096774","91.93548387096774","1019.9193548387096","1019.9193548387096","black","experiment","legacy","legacy","legacy","0","uniform","1","undefined","1","right","61","61","61","0","0","61","61","0","0","NA","61","61","61","0","61","0","Sun Oct 18 14:27:22 2020","The main experiment item","yes","NA","SternbergTask.osexp","C:/Users/chelsea/OneDrive - Tarleton State University/psych 5316- adv/Sternberg test","no","mono","no","18","no","white","no","no","768","legacy","49","11","C:/Users/chelsea/OneDrive - Tarleton State University/psych 5316- adv/Sternberg test/subject-1 CK.csv","legacy","2 8 6 3 1","Lentiform Loewenfeld","3.3.3","0","n","0","right","left","left","right","NA","882","22474","752824","882","NA","2","legacy","5","1024","2","48000","-16","experiment","1","odd","7","1221330","1217653","1219111","21207","881650","1219116","1177289","21318","128823","NA","1223336","1224221","1220126","43795","1223336","NA","Sternberg Task","57","63235","62","yes","1024"
"90.47619047619048","90.47619047619048","1017.1111111111111","1017.1111111111111","black","experiment","legacy","legacy","legacy","0","uniform","0","undefined","0","left","62","62","62","0","0","62","62","0","0","NA","62","62","62","0","62","0","Sun Oct 18 14:27:22 2020","The main experiment item","yes","NA","SternbergTask.osexp","C:/Users/chelsea/OneDrive - Tarleton State University/psych 5316- adv/Sternberg test","no","mono","no","18","no","white","no","no","768","legacy","50","11","C:/Users/chelsea/OneDrive - Tarleton State University/psych 5316- adv/Sternberg test/subject-1 CK.csv","legacy","8 9 5 7 1 6","Lentiform Loewenfeld","3.3.3","4","y","0","right","left","left","right","NA","843","22474","752824","843","NA","2","legacy","6","1024","2","48000","-16","experiment","1","odd","7","1228078","1224266","1225857","21207","881650","1225864","1177289","21318","128823","NA","1230082","1230929","1226872","43795","1230082","NA","Sternberg Task","57","64078","63","yes","1024"
"89.0625","89.0625","1022.28125","1022.28125","black","experiment","legacy","legacy","legacy","0","uniform","0","undefined","0","left","63","63","63","0","0","63","63","0","0","NA","63","63","63","0","63","0","Sun Oct 18 14:27:22 2020","The main experiment item","yes","NA","SternbergTask.osexp","C:/Users/chelsea/OneDrive - Tarleton State University/psych 5316- adv/Sternberg test","no","mono","no","18","no","white","no","no","768","legacy","51","11","C:/Users/chelsea/OneDrive - Tarleton State University/psych 5316- adv/Sternberg test/subject-1 CK.csv","legacy","6 8 9 3 4 9","Lentiform Loewenfeld","3.3.3","5","y","0","right","left","left","right","NA","1348","22474","752824","1348","NA","2","legacy","6","1024","2","48000","-16","experiment","1","odd","4","1234905","1224266","1232660","21207","881650","1232678","1230979","21318","128823","NA","1236941","1238302","1233689","43795","1236941","NA","Sternberg Task","57","65426","64","yes","1024"
"89.23076923076923","89.23076923076923","1020","1020","black","experiment","legacy","legacy","legacy","0","uniform","1","undefined","1","right","64","64","64","0","0","64","64","0","0","NA","64","64","64","0","64","0","Sun Oct 18 14:27:22 2020","The main experiment item","yes","NA","SternbergTask.osexp","C:/Users/chelsea/OneDrive - Tarleton State University/psych 5316- adv/Sternberg test","no","mono","no","18","no","white","no","no","768","legacy","52","11","C:/Users/chelsea/OneDrive - Tarleton State University/psych 5316- adv/Sternberg test/subject-1 CK.csv","legacy","8 2 1 4 5 9","Lentiform Loewenfeld","3.3.3","0","n","0","right","left","left","right","NA","874","22474","752824","874","NA","2","legacy","6","1024","2","48000","-16","experiment","1","odd","7","1242218","1224266","1239985","21207","881650","1240004","1238351","21318","128823","NA","1244227","1245107","1241014","43795","1244226","NA","Sternberg Task","58","66300","65","yes","1024"
"89.39393939393939","89.39393939393939","1027.969696969697","1027.969696969697","black","experiment","legacy","legacy","legacy","0","uniform","1","undefined","1","left","65","65","65","0","0","65","65","0","0","NA","65","65","65","0","65","0","Sun Oct 18 14:27:22 2020","The main experiment item","yes","NA","SternbergTask.osexp","C:/Users/chelsea/OneDrive - Tarleton State University/psych 5316- adv/Sternberg test","no","mono","no","18","no","white","no","no","768","legacy","53","11","C:/Users/chelsea/OneDrive - Tarleton State University/psych 5316- adv/Sternberg test/subject-1 CK.csv","legacy","9 3 1 2 5","Lentiform Loewenfeld","3.3.3","4","y","0","left","left","left","left","NA","1546","22474","752824","1546","NA","2","legacy","5","1024","2","48000","-16","experiment","1","odd","2","1248987","1245145","1246740","21207","881650","1246754","1238351","21318","128823","NA","1250998","1252548","1247771","43795","1250998","NA","Sternberg Task","59","67846","66","yes","1024"
"89.55223880597015","89.55223880597015","1032.0746268656717","1032.0746268656717","black","experiment","legacy","legacy","legacy","0","uniform","1","undefined","1","left","66","66","66","0","0","66","66","0","0","NA","66","66","66","0","66","0","Sun Oct 18 14:27:22 2020","The main experiment item","yes","NA","SternbergTask.osexp","C:/Users/chelsea/OneDrive - Tarleton State University/psych 5316- adv/Sternberg test","no","mono","no","18","no","white","no","no","768","legacy","54","11","C:/Users/chelsea/OneDrive - Tarleton State University/psych 5316- adv/Sternberg test/subject-1 CK.csv","legacy","3 9 6 2","Lentiform Loewenfeld","3.3.3","4","y","0","left","left","left","left","NA","1303","22474","752824","1303","NA","2","legacy","4","1024","2","48000","-16","experiment","1","odd","2","1256470","1252583","1254244","21207","881650","1254251","1238351","21318","128823","NA","1258476","1259789","1255255","43795","1258475","NA","Sternberg Task","60","69149","67","yes","1024"
"89.70588235294117","89.70588235294117","1029.4558823529412","1029.4558823529412","black","experiment","legacy","legacy","legacy","0","uniform","1","undefined","1","left","67","67","67","0","0","67","67","0","0","NA","67","67","67","0","67","0","Sun Oct 18 14:27:22 2020","The main experiment item","yes","NA","SternbergTask.osexp","C:/Users/chelsea/OneDrive - Tarleton State University/psych 5316- adv/Sternberg test","no","mono","no","18","no","white","no","no","768","legacy","55","11","C:/Users/chelsea/OneDrive - Tarleton State University/psych 5316- adv/Sternberg test/subject-1 CK.csv","legacy","9 5 3 8 4","Lentiform Loewenfeld","3.3.3","1","y","0","left","left","left","left","NA","854","22474","752824","854","NA","2","legacy","5","1024","2","48000","-16","experiment","1","odd","9","1263648","1259865","1261417","21207","881650","1261422","1238351","21318","128823","NA","1265653","1266514","1262432","43795","1265652","NA","Sternberg Task","61","70003","68","yes","1024"
"89.85507246376811","89.85507246376811","1025.4057971014493","1025.4057971014493","black","experiment","legacy","legacy","legacy","0","uniform","1","undefined","1","right","68","68","68","0","0","68","68","0","0","NA","68","68","68","0","68","0","Sun Oct 18 14:27:22 2020","The main experiment item","yes","NA","SternbergTask.osexp","C:/Users/chelsea/OneDrive - Tarleton State University/psych 5316- adv/Sternberg test","no","mono","no","18","no","white","no","no","768","legacy","56","11","C:/Users/chelsea/OneDrive - Tarleton State University/psych 5316- adv/Sternberg test/subject-1 CK.csv","legacy","1","Lentiform Loewenfeld","3.3.3","0","n","0","right","left","left","right","NA","750","22474","752824","750","NA","2","legacy","1","1024","2","48000","-16","experiment","1","odd","7","1270377","1266575","1268152","21207","881650","1268157","1238351","21318","128823","NA","1272381","1273134","1269170","43795","1272381","NA","Sternberg Task","62","70753","69","yes","1024"
"88.57142857142857","88.57142857142857","1032.3","1032.3","black","experiment","legacy","legacy","legacy","0","uniform","0","undefined","0","right","69","69","69","0","0","69","69","0","0","NA","69","69","69","0","69","0","Sun Oct 18 14:27:22 2020","The main experiment item","yes","NA","SternbergTask.osexp","C:/Users/chelsea/OneDrive - Tarleton State University/psych 5316- adv/Sternberg test","no","mono","no","18","no","white","no","no","768","legacy","57","11","C:/Users/chelsea/OneDrive - Tarleton State University/psych 5316- adv/Sternberg test/subject-1 CK.csv","legacy","5 7 3","Lentiform Loewenfeld","3.3.3","0","n","0","left","left","left","left","NA","1508","22474","752824","1508","NA","2","legacy","3","1024","2","48000","-16","experiment","1","odd","9","1276985","1273203","1274754","21207","881650","1274765","1238351","21318","128823","NA","1278996","1280510","1275769","43795","1278995","NA","Sternberg Task","62","72261","70","yes","1024"
"88.73239436619718","88.73239436619718","1027.0422535211267","1027.0422535211267","black","experiment","legacy","legacy","legacy","0","uniform","1","undefined","1","right","70","70","70","0","0","70","70","0","0","NA","70","70","70","0","70","0","Sun Oct 18 14:27:22 2020","The main experiment item","yes","NA","SternbergTask.osexp","C:/Users/chelsea/OneDrive - Tarleton State University/psych 5316- adv/Sternberg test","no","mono","no","18","no","white","no","no","768","legacy","58","11","C:/Users/chelsea/OneDrive - Tarleton State University/psych 5316- adv/Sternberg test/subject-1 CK.csv","legacy","4 2 6 9","Lentiform Loewenfeld","3.3.3","0","n","0","right","left","left","right","NA","659","22474","752824","659","NA","2","legacy","4","1024","2","48000","-16","experiment","1","odd","7","1284421","1273203","1282183","21207","881650","1282194","1280557","21318","128823","NA","1286428","1287096","1283203","43795","1286428","NA","Sternberg Task","63","72920","71","yes","1024"
"88.88888888888889","88.88888888888889","1021.6527777777778","1021.6527777777778","black","experiment","legacy","legacy","legacy","0","uniform","1","undefined","1","left","71","71","71","0","0","71","71","0","0","NA","71","71","71","0","71","0","Sun Oct 18 14:27:22 2020","The main experiment item","yes","NA","SternbergTask.osexp","C:/Users/chelsea/OneDrive - Tarleton State University/psych 5316- adv/Sternberg test","no","mono","no","18","no","white","no","no","768","legacy","59","11","C:/Users/chelsea/OneDrive - Tarleton State University/psych 5316- adv/Sternberg test/subject-1 CK.csv","legacy","4 9 7 8 5 3","Lentiform Loewenfeld","3.3.3","4","y","0","left","left","left","left","NA","639","22474","752824","639","NA","2","legacy","6","1024","2","48000","-16","experiment","1","odd","8","1291009","1287166","1288777","21207","881650","1288793","1280557","21318","128823","NA","1293016","1293661","1289805","43795","1293015","NA","Sternberg Task","64","73559","72","yes","1024"
"87.67123287671232","87.67123287671232","1017.4931506849315","1017.4931506849315","black","experiment","legacy","legacy","legacy","0","uniform","0","undefined","0","left","72","72","72","0","0","72","72","0","0","NA","72","72","72","0","72","0","Sun Oct 18 14:27:22 2020","The main experiment item","yes","NA","SternbergTask.osexp","C:/Users/chelsea/OneDrive - Tarleton State University/psych 5316- adv/Sternberg test","no","mono","no","18","no","white","no","no","768","legacy","60","11","C:/Users/chelsea/OneDrive - Tarleton State University/psych 5316- adv/Sternberg test/subject-1 CK.csv","legacy","7 2 3","Lentiform Loewenfeld","3.3.3","3","y","0","right","left","left","right","NA","718","22474","752824","718","NA","2","legacy","3","1024","2","48000","-16","experiment","1","odd","3","1297495","1293703","1295278","21207","881650","1295283","1280557","21318","128823","NA","1299504","1300230","1296289","43795","1299503","NA","Sternberg Task","64","74277","73","yes","1024"
"87.83783783783784","87.83783783783784","1014.081081081081","1014.081081081081","black","experiment","legacy","legacy","legacy","0","uniform","1","undefined","1","left","73","73","73","0","0","73","73","0","0","NA","73","73","73","0","73","0","Sun Oct 18 14:27:22 2020","The main experiment item","yes","NA","SternbergTask.osexp","C:/Users/chelsea/OneDrive - Tarleton State University/psych 5316- adv/Sternberg test","no","mono","no","18","no","white","no","no","768","legacy","61","11","C:/Users/chelsea/OneDrive - Tarleton State University/psych 5316- adv/Sternberg test/subject-1 CK.csv","legacy","7 1 3","Lentiform Loewenfeld","3.3.3","2","y","0","left","left","left","left","NA","765","22474","752824","765","NA","2","legacy","3","1024","2","48000","-16","experiment","1","odd","1","1303918","1293703","1301696","21207","881650","1301701","1300273","21318","128823","NA","1305923","1306699","1302714","43795","1305922","NA","Sternberg Task","65","75042","74","yes","1024"
"88","88","1018.6533333333333","1018.6533333333333","black","experiment","legacy","legacy","legacy","0","uniform","1","undefined","1","left","74","74","74","0","0","74","74","0","0","NA","74","74","74","0","74","0","Sun Oct 18 14:27:22 2020","The main experiment item","yes","NA","SternbergTask.osexp","C:/Users/chelsea/OneDrive - Tarleton State University/psych 5316- adv/Sternberg test","no","mono","no","18","no","white","no","no","768","legacy","62","11","C:/Users/chelsea/OneDrive - Tarleton State University/psych 5316- adv/Sternberg test/subject-1 CK.csv","legacy","3 9 7 6 4","Lentiform Loewenfeld","3.3.3","3","y","0","left","left","left","left","NA","1357","22474","752824","1357","NA","2","legacy","5","1024","2","48000","-16","experiment","1","odd","7","1310626","1306745","1308392","21207","881650","1308405","1300273","21318","128823","NA","1312640","1314003","1309418","43795","1312640","NA","Sternberg Task","66","76399","75","yes","1024"
"88.15789473684211","88.15789473684211","1017.3026315789474","1017.3026315789474","black","experiment","legacy","legacy","legacy","0","uniform","1","undefined","1","right","75","75","75","0","0","75","75","0","0","NA","75","75","75","0","75","0","Sun Oct 18 14:27:22 2020","The main experiment item","yes","NA","SternbergTask.osexp","C:/Users/chelsea/OneDrive - Tarleton State University/psych 5316- adv/Sternberg test","no","mono","no","18","no","white","no","no","768","legacy","63","11","C:/Users/chelsea/OneDrive - Tarleton State University/psych 5316- adv/Sternberg test/subject-1 CK.csv","legacy","2 5 1 4","Lentiform Loewenfeld","3.3.3","0","n","0","right","left","left","right","NA","916","22474","752824","916","NA","2","legacy","4","1024","2","48000","-16","experiment","1","odd","6","1317912","1314074","1315674","21207","881650","1315685","1300273","21318","128823","NA","1319927","1320849","1316698","43795","1319927","NA","Sternberg Task","67","77315","76","yes","1024"
"88.31168831168831","88.31168831168831","1013.922077922078","1013.922077922078","black","experiment","legacy","legacy","legacy","0","uniform","1","undefined","1","right","76","76","76","0","0","76","76","0","0","NA","76","76","76","0","76","0","Sun Oct 18 14:27:22 2020","The main experiment item","yes","NA","SternbergTask.osexp","C:/Users/chelsea/OneDrive - Tarleton State University/psych 5316- adv/Sternberg test","no","mono","no","18","no","white","no","no","768","legacy","64","11","C:/Users/chelsea/OneDrive - Tarleton State University/psych 5316- adv/Sternberg test/subject-1 CK.csv","legacy","5 9 2 3","Lentiform Loewenfeld","3.3.3","0","n","0","right","left","left","right","NA","757","22474","752824","757","NA","2","legacy","4","1024","2","48000","-16","experiment","1","odd","8","1324721","1320893","1322489","21207","881650","1322500","1300273","21318","128823","NA","1326736","1327500","1323504","43795","1326736","NA","Sternberg Task","68","78072","77","yes","1024"
"88.46153846153847","88.46153846153847","1015.2435897435897","1015.2435897435897","black","experiment","legacy","legacy","legacy","0","uniform","1","undefined","1","right","77","77","77","0","0","77","77","0","0","NA","77","77","77","0","77","0","Sun Oct 18 14:27:22 2020","The main experiment item","yes","NA","SternbergTask.osexp","C:/Users/chelsea/OneDrive - Tarleton State University/psych 5316- adv/Sternberg test","no","mono","no","18","no","white","no","no","768","legacy","65","11","C:/Users/chelsea/OneDrive - Tarleton State University/psych 5316- adv/Sternberg test/subject-1 CK.csv","legacy","3 9 1","Lentiform Loewenfeld","3.3.3","0","n","0","right","left","left","right","NA","1117","22474","752824","1117","NA","2","legacy","3","1024","2","48000","-16","experiment","1","odd","7","1331216","1327558","1328992","21207","881650","1328998","1300273","21318","128823","NA","1333220","1334344","1330010","43795","1333220","NA","Sternberg Task","69","79189","78","yes","1024"
"88.60759493670886","88.60759493670886","1009.0379746835443","1009.0379746835443","black","experiment","legacy","legacy","legacy","0","uniform","1","undefined","1","right","78","78","78","0","0","78","78","0","0","NA","78","78","78","0","78","0","Sun Oct 18 14:27:22 2020","The main experiment item","yes","NA","SternbergTask.osexp","C:/Users/chelsea/OneDrive - Tarleton State University/psych 5316- adv/Sternberg test","no","mono","no","18","no","white","no","no","768","legacy","66","11","C:/Users/chelsea/OneDrive - Tarleton State University/psych 5316- adv/Sternberg test/subject-1 CK.csv","legacy","8 9","Lentiform Loewenfeld","3.3.3","0","n","0","right","left","left","right","NA","525","22474","752824","525","NA","2","legacy","2","1024","2","48000","-16","experiment","1","odd","5","1338299","1334392","1336047","21207","881650","1336065","1300273","21318","128823","NA","1340315","1340849","1337084","43795","1340315","NA","Sternberg Task","70","79714","79","yes","1024"
"88.75","88.75","1007.125","1007.125","black","experiment","legacy","legacy","legacy","0","uniform","1","undefined","1","right","79","79","79","0","0","79","79","0","0","NA","79","79","79","0","79","0","Sun Oct 18 14:27:22 2020","The main experiment item","yes","NA","SternbergTask.osexp","C:/Users/chelsea/OneDrive - Tarleton State University/psych 5316- adv/Sternberg test","no","mono","no","18","no","white","no","no","768","legacy","67","11","C:/Users/chelsea/OneDrive - Tarleton State University/psych 5316- adv/Sternberg test/subject-1 CK.csv","legacy","5 3 8 7 2 4","Lentiform Loewenfeld","3.3.3","0","n","0","right","left","left","right","NA","856","22474","752824","856","NA","2","legacy","6","1024","2","48000","-16","experiment","1","odd","9","1344691","1340891","1342460","21207","881650","1342471","1300273","21318","128823","NA","1346696","1347558","1343477","43795","1346696","NA","Sternberg Task","71","80570","80","yes","1024"
"88.88888888888889","88.88888888888889","1004.1234567901234","1004.1234567901234","black","experiment","legacy","legacy","legacy","0","uniform","1","undefined","1","left","80","80","80","0","0","80","80","0","0","NA","80","80","80","0","80","0","Sun Oct 18 14:27:22 2020","The main experiment item","yes","NA","SternbergTask.osexp","C:/Users/chelsea/OneDrive - Tarleton State University/psych 5316- adv/Sternberg test","no","mono","no","18","no","white","no","no","768","legacy","68","11","C:/Users/chelsea/OneDrive - Tarleton State University/psych 5316- adv/Sternberg test/subject-1 CK.csv","legacy","3 5 7 1","Lentiform Loewenfeld","3.3.3","3","y","0","left","left","left","left","NA","764","22474","752824","764","NA","2","legacy","4","1024","2","48000","-16","experiment","1","odd","7","1351438","1347600","1349209","21207","881650","1349221","1300273","21318","128823","NA","1353443","1354213","1350233","43795","1353443","NA","Sternberg Task","72","81334","81","yes","1024"
"89.02439024390245","89.02439024390245","1003.3658536585366","1003.3658536585366","black","experiment","legacy","legacy","legacy","0","uniform","1","undefined","1","left","81","81","81","0","0","81","81","0","0","NA","81","81","81","0","81","0","Sun Oct 18 14:27:22 2020","The main experiment item","yes","NA","SternbergTask.osexp","C:/Users/chelsea/OneDrive - Tarleton State University/psych 5316- adv/Sternberg test","no","mono","no","18","no","white","no","no","768","legacy","69","11","C:/Users/chelsea/OneDrive - Tarleton State University/psych 5316- adv/Sternberg test/subject-1 CK.csv","legacy","3 2 1 4 7","Lentiform Loewenfeld","3.3.3","2","y","0","left","left","left","left","NA","942","22474","752824","942","NA","2","legacy","5","1024","2","48000","-16","experiment","1","odd","2","1358045","1354271","1355819","21207","881650","1355829","1300273","21318","128823","NA","1360063","1361012","1356834","43795","1360062","NA","Sternberg Task","73","82276","82","yes","1024"
"89.1566265060241","89.1566265060241","1001.566265060241","1001.566265060241","black","experiment","legacy","legacy","legacy","0","uniform","1","undefined","1","left","82","82","82","0","0","82","82","0","0","NA","82","82","82","0","82","0","Sun Oct 18 14:27:22 2020","The main experiment item","yes","NA","SternbergTask.osexp","C:/Users/chelsea/OneDrive - Tarleton State University/psych 5316- adv/Sternberg test","no","mono","no","18","no","white","no","no","768","legacy","70","11","C:/Users/chelsea/OneDrive - Tarleton State University/psych 5316- adv/Sternberg test/subject-1 CK.csv","legacy","8","Lentiform Loewenfeld","3.3.3","1","y","0","left","left","left","left","NA","854","22474","752824","854","NA","2","legacy","1","1024","2","48000","-16","experiment","1","odd","8","1364820","1361046","1362601","21207","881650","1362606","1300273","21318","128823","NA","1366824","1367684","1363616","43795","1366824","NA","Sternberg Task","74","83130","83","yes","1024"
"89.28571428571429","89.28571428571429","998.8452380952381","998.8452380952381","black","experiment","legacy","legacy","legacy","0","uniform","1","undefined","1","left","83","83","83","0","0","83","83","0","0","NA","83","83","83","0","83","0","Sun Oct 18 14:27:22 2020","The main experiment item","yes","NA","SternbergTask.osexp","C:/Users/chelsea/OneDrive - Tarleton State University/psych 5316- adv/Sternberg test","no","mono","no","18","no","white","no","no","768","legacy","71","11","C:/Users/chelsea/OneDrive - Tarleton State University/psych 5316- adv/Sternberg test/subject-1 CK.csv","legacy","4 6 5 8","Lentiform Loewenfeld","3.3.3","1","y","0","left","left","left","left","NA","773","22474","752824","773","NA","2","legacy","4","1024","2","48000","-16","experiment","1","odd","4","1371529","1367756","1369308","21207","881650","1369320","1300273","21318","128823","NA","1373543","1374322","1370324","43795","1373543","NA","Sternberg Task","75","83903","84","yes","1024"
"89.41176470588235","89.41176470588235","992.1647058823529","992.1647058823529","black","experiment","legacy","legacy","legacy","0","uniform","1","undefined","1","left","84","84","84","0","0","84","84","0","0","NA","84","84","84","0","84","0","Sun Oct 18 14:27:22 2020","The main experiment item","yes","NA","SternbergTask.osexp","C:/Users/chelsea/OneDrive - Tarleton State University/psych 5316- adv/Sternberg test","no","mono","no","18","no","white","no","no","768","legacy","72","11","C:/Users/chelsea/OneDrive - Tarleton State University/psych 5316- adv/Sternberg test/subject-1 CK.csv","legacy","4","Lentiform Loewenfeld","3.3.3","1","y","0","left","left","left","left","NA","431","22474","752824","431","NA","2","legacy","1","1024","2","48000","-16","experiment","1","odd","4","1378168","1374352","1375941","21207","881650","1375952","1300273","21318","128823","NA","1380175","1380619","1376956","43795","1380175","NA","Sternberg Task","76","84334","85","yes","1024"
"89.53488372093024","89.53488372093024","987.3139534883721","987.3139534883721","black","experiment","legacy","legacy","legacy","0","uniform","1","undefined","1","left","85","85","85","0","0","85","85","0","0","NA","85","85","85","0","85","0","Sun Oct 18 14:27:22 2020","The main experiment item","yes","NA","SternbergTask.osexp","C:/Users/chelsea/OneDrive - Tarleton State University/psych 5316- adv/Sternberg test","no","mono","no","18","no","white","no","no","768","legacy","73","11","C:/Users/chelsea/OneDrive - Tarleton State University/psych 5316- adv/Sternberg test/subject-1 CK.csv","legacy","2 3","Lentiform Loewenfeld","3.3.3","1","y","0","left","left","left","left","NA","575","22474","752824","575","NA","2","legacy","2","1024","2","48000","-16","experiment","1","odd","2","1384463","1380690","1382234","21207","881650","1382239","1300273","21318","128823","NA","1386468","1387056","1383249","43795","1386468","NA","Sternberg Task","77","84909","86","yes","1024"
"89.65517241379311","89.65517241379311","985.8850574712644","985.8850574712644","black","experiment","legacy","legacy","legacy","0","uniform","1","undefined","1","right","86","86","86","0","0","86","86","0","0","NA","86","86","86","0","86","0","Sun Oct 18 14:27:22 2020","The main experiment item","yes","NA","SternbergTask.osexp","C:/Users/chelsea/OneDrive - Tarleton State University/psych 5316- adv/Sternberg test","no","mono","no","18","no","white","no","no","768","legacy","74","11","C:/Users/chelsea/OneDrive - Tarleton State University/psych 5316- adv/Sternberg test/subject-1 CK.csv","legacy","2 8 9 4 1","Lentiform Loewenfeld","3.3.3","0","n","0","right","left","left","right","NA","863","22474","752824","863","NA","2","legacy","5","1024","2","48000","-16","experiment","1","odd","5","1391032","1387128","1388801","21207","881650","1388806","1300273","21318","128823","NA","1393051","1393926","1389818","43795","1393049","NA","Sternberg Task","78","85772","87","yes","1024"
"89.77272727272727","89.77272727272727","981.5227272727273","981.5227272727273","black","experiment","legacy","legacy","legacy","0","uniform","1","undefined","1","left","87","87","87","0","0","87","87","0","0","NA","87","87","87","0","87","0","Sun Oct 18 14:27:22 2020","The main experiment item","yes","NA","SternbergTask.osexp","C:/Users/chelsea/OneDrive - Tarleton State University/psych 5316- adv/Sternberg test","no","mono","no","18","no","white","no","no","768","legacy","75","11","C:/Users/chelsea/OneDrive - Tarleton State University/psych 5316- adv/Sternberg test/subject-1 CK.csv","legacy","8 3","Lentiform Loewenfeld","3.3.3","2","y","0","left","left","left","left","NA","602","22474","752824","602","NA","2","legacy","2","1024","2","48000","-16","experiment","1","odd","3","1397970","1393993","1395738","21207","881650","1395744","1300273","21318","128823","NA","1399975","1400590","1396757","43795","1399975","NA","Sternberg Task","79","86374","88","yes","1024"
"89.88764044943821","89.88764044943821","976.561797752809","976.561797752809","black","experiment","legacy","legacy","legacy","0","uniform","1","undefined","1","left","88","88","88","0","0","88","88","0","0","NA","88","88","88","0","88","0","Sun Oct 18 14:27:22 2020","The main experiment item","yes","NA","SternbergTask.osexp","C:/Users/chelsea/OneDrive - Tarleton State University/psych 5316- adv/Sternberg test","no","mono","no","18","no","white","no","no","768","legacy","76","11","C:/Users/chelsea/OneDrive - Tarleton State University/psych 5316- adv/Sternberg test/subject-1 CK.csv","legacy","9 4 2","Lentiform Loewenfeld","3.3.3","1","y","0","left","left","left","left","NA","540","22474","752824","540","NA","2","legacy","3","1024","2","48000","-16","experiment","1","odd","9","1404512","1400646","1402273","21207","881650","1402283","1300273","21318","128823","NA","1406542","1407095","1403293","43795","1406541","NA","Sternberg Task","80","86914","89","yes","1024"
"90","90","973.6111111111111","973.6111111111111","black","experiment","legacy","legacy","legacy","0","uniform","1","undefined","1","right","89","89","89","0","0","89","89","0","0","NA","89","89","89","0","89","0","Sun Oct 18 14:27:22 2020","The main experiment item","yes","NA","SternbergTask.osexp","C:/Users/chelsea/OneDrive - Tarleton State University/psych 5316- adv/Sternberg test","no","mono","no","18","no","white","no","no","768","legacy","77","11","C:/Users/chelsea/OneDrive - Tarleton State University/psych 5316- adv/Sternberg test/subject-1 CK.csv","legacy","8 4 3 9","Lentiform Loewenfeld","3.3.3","0","n","0","right","left","left","right","NA","711","22474","752824","711","NA","2","legacy","4","1024","2","48000","-16","experiment","1","odd","5","1410920","1407144","1408699","21207","881650","1408706","1300273","21318","128823","NA","1412926","1413650","1409710","43795","1412926","NA","Sternberg Task","81","87625","90","yes","1024"
"90.10989010989012","90.10989010989012","972.3956043956044","972.3956043956044","black","experiment","legacy","legacy","legacy","0","uniform","1","undefined","1","left","90","90","90","0","0","90","90","0","0","NA","90","90","90","0","90","0","Sun Oct 18 14:27:22 2020","The main experiment item","yes","NA","SternbergTask.osexp","C:/Users/chelsea/OneDrive - Tarleton State University/psych 5316- adv/Sternberg test","no","mono","no","18","no","white","no","no","768","legacy","78","11","C:/Users/chelsea/OneDrive - Tarleton State University/psych 5316- adv/Sternberg test/subject-1 CK.csv","legacy","8 1 6","Lentiform Loewenfeld","3.3.3","3","y","0","left","left","left","left","NA","863","22474","752824","863","NA","2","legacy","3","1024","2","48000","-16","experiment","1","odd","6","1417558","1413767","1415337","21207","881650","1415341","1300273","21318","128823","NA","1419573","1420447","1416353","43795","1419573","NA","Sternberg Task","82","88488","91","yes","1024"
"90.21739130434783","90.21739130434783","974.4891304347826","974.4891304347826","black","experiment","legacy","legacy","legacy","0","uniform","1","undefined","1","left","91","91","91","0","0","91","91","0","0","NA","91","91","91","0","91","0","Sun Oct 18 14:27:22 2020","The main experiment item","yes","NA","SternbergTask.osexp","C:/Users/chelsea/OneDrive - Tarleton State University/psych 5316- adv/Sternberg test","no","mono","no","18","no","white","no","no","768","legacy","79","11","C:/Users/chelsea/OneDrive - Tarleton State University/psych 5316- adv/Sternberg test/subject-1 CK.csv","legacy","9 3 8 2 1 4","Lentiform Loewenfeld","3.3.3","3","y","0","left","left","left","left","NA","1165","22474","752824","1165","NA","2","legacy","6","1024","2","48000","-16","experiment","1","odd","8","1424389","1420564","1422169","21207","881650","1422173","1300273","21318","128823","NA","1426400","1427574","1423178","43795","1426400","NA","Sternberg Task","83","89653","92","yes","1024"
"90.3225806451613","90.3225806451613","973.1720430107526","973.1720430107526","black","experiment","legacy","legacy","legacy","0","uniform","1","undefined","1","left","92","92","92","0","0","92","92","0","0","NA","92","92","92","0","92","0","Sun Oct 18 14:27:22 2020","The main experiment item","yes","NA","SternbergTask.osexp","C:/Users/chelsea/OneDrive - Tarleton State University/psych 5316- adv/Sternberg test","no","mono","no","18","no","white","no","no","768","legacy","80","11","C:/Users/chelsea/OneDrive - Tarleton State University/psych 5316- adv/Sternberg test/subject-1 CK.csv","legacy","6 7 8 5","Lentiform Loewenfeld","3.3.3","3","y","0","left","left","left","left","NA","852","22474","752824","852","NA","2","legacy","4","1024","2","48000","-16","experiment","1","odd","8","1431252","1427622","1429027","21207","881650","1429034","1300273","21318","128823","NA","1433258","1434123","1430046","43795","1433257","NA","Sternberg Task","84","90505","93","yes","1024"
"89.36170212765957","89.36170212765957","973.2659574468086","973.2659574468086","black","experiment","legacy","legacy","legacy","0","uniform","0","undefined","0","right","93","93","93","0","0","93","93","0","0","NA","93","93","93","0","93","0","Sun Oct 18 14:27:22 2020","The main experiment item","yes","NA","SternbergTask.osexp","C:/Users/chelsea/OneDrive - Tarleton State University/psych 5316- adv/Sternberg test","no","mono","no","18","no","white","no","no","768","legacy","81","11","C:/Users/chelsea/OneDrive - Tarleton State University/psych 5316- adv/Sternberg test/subject-1 CK.csv","legacy","7 4 2 8 1 9","Lentiform Loewenfeld","3.3.3","0","n","0","left","left","left","left","NA","982","22474","752824","982","NA","2","legacy","6","1024","2","48000","-16","experiment","1","odd","5","1438038","1434174","1435810","21207","881650","1435823","1300273","21318","128823","NA","1440054","1441049","1436830","43795","1440054","NA","Sternberg Task","84","91487","94","yes","1024"
"89.47368421052632","89.47368421052632","971.8105263157895","971.8105263157895","black","experiment","legacy","legacy","legacy","0","uniform","1","undefined","1","left","94","94","94","0","0","94","94","0","0","NA","94","94","94","0","94","0","Sun Oct 18 14:27:22 2020","The main experiment item","yes","NA","SternbergTask.osexp","C:/Users/chelsea/OneDrive - Tarleton State University/psych 5316- adv/Sternberg test","no","mono","no","18","no","white","no","no","768","legacy","82","11","C:/Users/chelsea/OneDrive - Tarleton State University/psych 5316- adv/Sternberg test/subject-1 CK.csv","legacy","7 1 8 5 6 2","Lentiform Loewenfeld","3.3.3","2","y","0","left","left","left","left","NA","835","22474","752824","835","NA","2","legacy","6","1024","2","48000","-16","experiment","1","odd","1","1444968","1434174","1442730","21207","881650","1442747","1441115","21318","128823","NA","1446975","1447818","1443752","43795","1446974","NA","Sternberg Task","85","92322","95","yes","1024"
"89.58333333333333","89.58333333333333","971.9583333333334","971.9583333333334","black","experiment","legacy","legacy","legacy","0","uniform","1","undefined","1","right","95","95","95","0","0","95","95","0","0","NA","95","95","95","0","95","0","Sun Oct 18 14:27:22 2020","The main experiment item","yes","NA","SternbergTask.osexp","C:/Users/chelsea/OneDrive - Tarleton State University/psych 5316- adv/Sternberg test","no","mono","no","18","no","white","no","no","768","legacy","83","11","C:/Users/chelsea/OneDrive - Tarleton State University/psych 5316- adv/Sternberg test/subject-1 CK.csv","legacy","6 9 4 5 3 2","Lentiform Loewenfeld","3.3.3","0","n","0","right","left","left","right","NA","986","22474","752824","986","NA","2","legacy","6","1024","2","48000","-16","experiment","1","odd","8","1451707","1447895","1449480","21207","881650","1449486","1441115","21318","128823","NA","1453711","1454705","1450495","43795","1453711","NA","Sternberg Task","86","93308","96","yes","1024"
"89.69072164948453","89.69072164948453","971.2886597938144","971.2886597938144","black","experiment","legacy","legacy","legacy","0","uniform","1","undefined","1","right","96","96","96","0","0","96","96","0","0","NA","96","96","96","0","96","0","Sun Oct 18 14:27:22 2020","The main experiment item","yes","NA","SternbergTask.osexp","C:/Users/chelsea/OneDrive - Tarleton State University/psych 5316- adv/Sternberg test","no","mono","no","18","no","white","no","no","768","legacy","84","11","C:/Users/chelsea/OneDrive - Tarleton State University/psych 5316- adv/Sternberg test/subject-1 CK.csv","legacy","7 6 4 8 1 2","Lentiform Loewenfeld","3.3.3","0","n","0","right","left","left","right","NA","907","22474","752824","907","NA","2","legacy","6","1024","2","48000","-16","experiment","1","odd","9","1458597","1454781","1456372","21207","881650","1456377","1441115","21318","128823","NA","1460605","1461519","1457392","43795","1460605","NA","Sternberg Task","87","94215","97","yes","1024"
"89.79591836734694","89.79591836734694","968.5510204081633","968.5510204081633","black","experiment","legacy","legacy","legacy","0","uniform","1","undefined","1","left","97","97","97","0","0","97","97","0","0","NA","97","97","97","0","97","0","Sun Oct 18 14:27:22 2020","The main experiment item","yes","NA","SternbergTask.osexp","C:/Users/chelsea/OneDrive - Tarleton State University/psych 5316- adv/Sternberg test","no","mono","no","18","no","white","no","no","768","legacy","85","11","C:/Users/chelsea/OneDrive - Tarleton State University/psych 5316- adv/Sternberg test/subject-1 CK.csv","legacy","7","Lentiform Loewenfeld","3.3.3","1","y","0","left","left","left","left","NA","703","22474","752824","703","NA","2","legacy","1","1024","2","48000","-16","experiment","1","odd","7","1465436","1461574","1463197","21207","881650","1463209","1441115","21318","128823","NA","1467448","1468225","1464224","43795","1467447","NA","Sternberg Task","88","94918","98","yes","1024"
"89.8989898989899","89.8989898989899","965.7575757575758","965.7575757575758","black","experiment","legacy","legacy","legacy","0","uniform","1","undefined","1","right","98","98","98","0","0","98","98","0","0","NA","98","98","98","0","98","0","Sun Oct 18 14:27:22 2020","The main experiment item","yes","NA","SternbergTask.osexp","C:/Users/chelsea/OneDrive - Tarleton State University/psych 5316- adv/Sternberg test","no","mono","no","18","no","white","no","no","768","legacy","86","11","C:/Users/chelsea/OneDrive - Tarleton State University/psych 5316- adv/Sternberg test/subject-1 CK.csv","legacy","6 7 5 9","Lentiform Loewenfeld","3.3.3","0","n","0","right","left","left","right","NA","692","22474","752824","692","NA","2","legacy","4","1024","2","48000","-16","experiment","1","odd","2","1472163","1468279","1469918","21207","881650","1469946","1441115","21318","128823","NA","1474170","1474871","1470959","43795","1474170","NA","Sternberg Task","89","95610","99","yes","1024"
"90","90","963.99","963.99","black","experiment","legacy","legacy","legacy","0","uniform","1","undefined","1","left","99","99","99","0","0","99","99","0","0","NA","99","99","99","0","99","0","Sun Oct 18 14:27:22 2020","The main experiment item","yes","NA","SternbergTask.osexp","C:/Users/chelsea/OneDrive - Tarleton State University/psych 5316- adv/Sternberg test","no","mono","no","18","no","white","no","no","768","legacy","87","11","C:/Users/chelsea/OneDrive - Tarleton State University/psych 5316- adv/Sternberg test/subject-1 CK.csv","legacy","6 1 2","Lentiform Loewenfeld","3.3.3","3","y","0","left","left","left","left","NA","789","22474","752824","789","NA","2","legacy","3","1024","2","48000","-16","experiment","1","odd","2","1478807","1474921","1476585","21207","881650","1476591","1441115","21318","128823","NA","1480816","1481612","1477596","43795","1480816","NA","Sternberg Task","90","96399","100","yes","1024"
"90.0990099009901","90.0990099009901","965.7524752475248","965.7524752475248","black","experiment","legacy","legacy","legacy","0","uniform","1","undefined","1","right","100","100","100","0","0","100","100","0","0","NA","100","100","100","0","100","0","Sun Oct 18 14:27:22 2020","The main experiment item","yes","NA","SternbergTask.osexp","C:/Users/chelsea/OneDrive - Tarleton State University/psych 5316- adv/Sternberg test","no","mono","no","18","no","white","no","no","768","legacy","88","11","C:/Users/chelsea/OneDrive - Tarleton State University/psych 5316- adv/Sternberg test/subject-1 CK.csv","legacy","7 3 2 8","Lentiform Loewenfeld","3.3.3","0","n","0","right","left","left","right","NA","1142","22474","752824","1142","NA","2","legacy","4","1024","2","48000","-16","experiment","1","odd","4","1485648","1481702","1483377","21207","881650","1483402","1441115","21318","128823","NA","1487655","1488803","1484430","43795","1487654","NA","Sternberg Task","91","97541","101","yes","1024"
