"acc","accuracy","average_response_time","avg_rt","background","block","canvas_backend","clock_backend","color_backend","compensation","coordinates","correct","correct_instructions1","correct_new_keyboard_response","correct_response","count_ISI","count_MemorySet","count_PracticeLoop","count_correctFeedback","count_expSequence","count_experiment","count_experimentLoop","count_fixation","count_incorrectFeedback","count_instructions1","count_instructions2","count_logger","count_new_keyboard_response","count_probe","count_thankYou","datetime","description","disable_garbage_collection","experiment_file","experiment_path","font_bold","font_family","font_italic","font_size","font_underline","foreground","form_clicks","fullscreen","height","keyboard_backend","live_row","live_row_PracticeLoop","logfile","mouse_backend","numberSet","opensesame_codename","opensesame_version","posInSet","present","repeat_cycle","response","response_instructions1","response_instructions2","response_new_keyboard_response","response_thankYou","response_time","response_time_instructions1","response_time_instructions2","response_time_new_keyboard_response","response_time_thankYou","round_decimals","sampler_backend","setSize","sound_buf_size","sound_channels","sound_freq","sound_sample_size","start","subject_nr","subject_parity","target","time_ISI","time_MemorySet","time_PracticeLoop","time_correctFeedback","time_expSequence","time_experiment","time_experimentLoop","time_fixation","time_incorrectFeedback","time_instructions1","time_instructions2","time_logger","time_new_keyboard_response","time_probe","time_thankYou","title","total_correct","total_response_time","total_responses","uniform_coordinates","width"
"100","100","1050","1050","black","practice","legacy","legacy","legacy","0","uniform","1","undefined","1","left","0","0","0","0","0","0","0","0","0","0","0","0","0","0","0","Sun Oct 18 19:05:44 2020","The main experiment item","yes","SternbergTask.osexp","/Users/tionnahough/Desktop","no","mono","no","18","no","white","no","yes","768","legacy","0","0","/Users/tionnahough/Desktop/TH-subject-1.csv","legacy","1 5 2 9","Lentiform Loewenfeld","3.3.3","2","y","0","left","right","NA","left","NA","1050","19253","NA","1050","NA","2","legacy","4","1024","2","48000","-16","experiment","1","odd","5","25748","24532","23154","NA","23506","3838","NA","23520","NA","3879","NA","28811","27760","27760","NA","Sternberg Task","1","1050","1","yes","1024"
"100","100","829.5","829.5","black","practice","legacy","legacy","legacy","0","uniform","1","undefined","1","left","1","1","0","1","1","0","0","1","1","0","0","1","1","1","0","Sun Oct 18 19:05:44 2020","The main experiment item","yes","SternbergTask.osexp","/Users/tionnahough/Desktop","no","mono","no","18","no","white","no","yes","768","legacy","1","1","/Users/tionnahough/Desktop/TH-subject-1.csv","legacy","4 8","Lentiform Loewenfeld","3.3.3","1","y","0","left","right","NA","left","NA","609","19253","NA","609","NA","2","legacy","2","1024","2","48000","-16","experiment","1","odd","4","32261","31047","23154","28869","30023","3838","NA","30035","NA","3879","NA","34884","34274","34274","NA","Sternberg Task","2","1659","2","yes","1024"
"100","100","841.6666666666666","841.6666666666666","black","practice","legacy","legacy","legacy","0","uniform","1","undefined","1","right","2","2","0","2","2","0","0","2","2","0","0","2","2","2","0","Sun Oct 18 19:05:44 2020","The main experiment item","yes","SternbergTask.osexp","/Users/tionnahough/Desktop","no","mono","no","18","no","white","no","yes","768","legacy","2","2","/Users/tionnahough/Desktop/TH-subject-1.csv","legacy","2 1","Lentiform Loewenfeld","3.3.3","0","n","0","right","right","NA","right","NA","866","19253","NA","866","NA","2","legacy","2","1024","2","48000","-16","experiment","1","odd","5","38220","37005","23154","34906","35982","3838","NA","35994","NA","3879","NA","41102","40235","40234","NA","Sternberg Task","3","2525","3","yes","1024"
"100","100","725.25","725.25","black","practice","legacy","legacy","legacy","0","uniform","1","undefined","1","right","3","3","0","3","3","0","0","3","3","0","0","3","3","3","0","Sun Oct 18 19:05:44 2020","The main experiment item","yes","SternbergTask.osexp","/Users/tionnahough/Desktop","no","mono","no","18","no","white","no","yes","768","legacy","3","3","/Users/tionnahough/Desktop/TH-subject-1.csv","legacy","5","Lentiform Loewenfeld","3.3.3","0","n","0","right","right","NA","right","NA","376","19253","NA","376","NA","2","legacy","1","1024","2","48000","-16","experiment","1","odd","3","44436","43223","23154","41126","42199","3838","NA","42211","NA","3879","NA","46825","46448","46448","NA","Sternberg Task","4","2901","4","yes","1024"
"100","100","802","802","black","practice","legacy","legacy","legacy","0","uniform","1","undefined","1","right","4","4","0","4","4","0","0","4","4","0","0","4","4","4","0","Sun Oct 18 19:05:44 2020","The main experiment item","yes","SternbergTask.osexp","/Users/tionnahough/Desktop","no","mono","no","18","no","white","no","yes","768","legacy","4","4","/Users/tionnahough/Desktop/TH-subject-1.csv","legacy","3 1 9 4","Lentiform Loewenfeld","3.3.3","0","n","0","right","right","NA","right","NA","1109","19253","NA","1109","NA","2","legacy","4","1024","2","48000","-16","experiment","1","odd","6","50160","48948","23154","46847","47923","3838","NA","47935","NA","3879","NA","53281","52171","52171","NA","Sternberg Task","5","4010","5","yes","1024"
"83.33333333333333","83.33333333333333","818","818","black","practice","legacy","legacy","legacy","0","uniform","0","undefined","0","left","5","5","0","5","5","0","0","5","5","0","0","5","5","5","0","Sun Oct 18 19:05:44 2020","The main experiment item","yes","SternbergTask.osexp","/Users/tionnahough/Desktop","no","mono","no","18","no","white","no","yes","768","legacy","5","5","/Users/tionnahough/Desktop/TH-subject-1.csv","legacy","1 7 9 8 5","Lentiform Loewenfeld","3.3.3","4","y","0","right","right","NA","right","NA","898","19253","NA","898","NA","2","legacy","5","1024","2","48000","-16","experiment","1","odd","8","56616","55401","23154","53303","54377","3838","NA","54389","NA","3879","NA","59528","58629","58629","NA","Sternberg Task","5","4908","6","yes","1024"
"85.71428571428571","85.71428571428571","782.2857142857143","782.2857142857143","black","practice","legacy","legacy","legacy","0","uniform","1","undefined","1","right","6","6","0","6","6","0","0","6","6","0","0","6","6","6","0","Sun Oct 18 19:05:44 2020","The main experiment item","yes","SternbergTask.osexp","/Users/tionnahough/Desktop","no","mono","no","18","no","white","no","yes","768","legacy","6","6","/Users/tionnahough/Desktop/TH-subject-1.csv","legacy","9 6 7 4 5","Lentiform Loewenfeld","3.3.3","0","n","0","right","right","NA","right","NA","568","19253","NA","568","NA","2","legacy","5","1024","2","48000","-16","experiment","1","odd","3","62862","61647","23154","53303","60623","3838","NA","60635","59550","3879","NA","65445","64875","64875","NA","Sternberg Task","6","5476","7","yes","1024"
"87.5","87.5","768.25","768.25","black","practice","legacy","legacy","legacy","0","uniform","1","undefined","1","left","7","7","0","7","7","0","0","7","7","0","0","7","7","7","0","Sun Oct 18 19:05:44 2020","The main experiment item","yes","SternbergTask.osexp","/Users/tionnahough/Desktop","no","mono","no","18","no","white","no","yes","768","legacy","7","7","/Users/tionnahough/Desktop/TH-subject-1.csv","legacy","4 3 1 7 9 8","Lentiform Loewenfeld","3.3.3","1","y","0","left","right","NA","left","NA","670","19253","NA","670","NA","2","legacy","6","1024","2","48000","-16","experiment","1","odd","4","68779","67565","23154","65467","66541","3838","NA","66553","59550","3879","NA","71463","70791","70791","NA","Sternberg Task","7","6146","8","yes","1024"
"88.88888888888889","88.88888888888889","740.3333333333334","740.3333333333334","black","practice","legacy","legacy","legacy","0","uniform","1","undefined","1","left","8","8","0","8","8","0","0","8","8","0","0","8","8","8","0","Sun Oct 18 19:05:44 2020","The main experiment item","yes","SternbergTask.osexp","/Users/tionnahough/Desktop","no","mono","no","18","no","white","no","yes","768","legacy","8","8","/Users/tionnahough/Desktop/TH-subject-1.csv","legacy","2 9 4","Lentiform Loewenfeld","3.3.3","3","y","0","left","right","NA","left","NA","517","19253","NA","517","NA","2","legacy","3","1024","2","48000","-16","experiment","1","odd","4","74790","73577","23154","71479","72553","3838","NA","72565","59550","3879","NA","77321","76803","76803","NA","Sternberg Task","8","6663","9","yes","1024"
"90","90","762.6","762.6","black","practice","legacy","legacy","legacy","0","uniform","1","undefined","1","left","9","9","0","9","9","0","0","9","9","0","0","9","9","9","0","Sun Oct 18 19:05:44 2020","The main experiment item","yes","SternbergTask.osexp","/Users/tionnahough/Desktop","no","mono","no","18","no","white","no","yes","768","legacy","9","9","/Users/tionnahough/Desktop/TH-subject-1.csv","legacy","6","Lentiform Loewenfeld","3.3.3","1","y","0","left","right","NA","left","NA","963","19253","NA","963","NA","2","legacy","1","1024","2","48000","-16","experiment","1","odd","6","80656","79443","23154","77344","78418","3838","NA","78430","59550","3879","NA","83633","82669","82669","NA","Sternberg Task","9","7626","10","yes","1024"
"81.81818181818181","81.81818181818181","748.1818181818181","748.1818181818181","black","practice","legacy","legacy","legacy","0","uniform","0","undefined","0","right","10","10","0","10","10","0","0","10","10","0","0","10","10","10","0","Sun Oct 18 19:05:44 2020","The main experiment item","yes","SternbergTask.osexp","/Users/tionnahough/Desktop","no","mono","no","18","no","white","no","yes","768","legacy","10","10","/Users/tionnahough/Desktop/TH-subject-1.csv","legacy","5 7 8 4 1 2","Lentiform Loewenfeld","3.3.3","0","n","0","left","right","NA","left","NA","604","19253","NA","604","NA","2","legacy","6","1024","2","48000","-16","experiment","1","odd","6","86967","85753","23154","83655","84729","3838","NA","84741","59550","3879","NA","89584","88979","88979","NA","Sternberg Task","9","8230","11","yes","1024"
"83.33333333333333","83.33333333333333","742.3333333333334","742.3333333333334","black","practice","legacy","legacy","legacy","0","uniform","1","undefined","1","right","11","11","0","11","11","0","0","11","11","0","0","11","11","11","0","Sun Oct 18 19:05:44 2020","The main experiment item","yes","SternbergTask.osexp","/Users/tionnahough/Desktop","no","mono","no","18","no","white","no","yes","768","legacy","11","11","/Users/tionnahough/Desktop/TH-subject-1.csv","legacy","4 1 5","Lentiform Loewenfeld","3.3.3","0","n","0","right","right","NA","right","NA","678","19253","NA","678","NA","2","legacy","3","1024","2","48000","-16","experiment","1","odd","2","92917","91703","23154","83655","90679","3838","NA","90690","89606","3879","NA","95610","94930","94930","NA","Sternberg Task","10","8908","12","yes","1024"
"84.61538461538461","84.61538461538461","734.3846153846154","734.3846153846154","black","experiment","legacy","legacy","legacy","0","uniform","1","undefined","1","right","12","12","0","12","12","0","0","12","12","0","0","12","12","12","0","Sun Oct 18 19:05:44 2020","The main experiment item","yes","SternbergTask.osexp","/Users/tionnahough/Desktop","no","mono","no","18","no","white","no","yes","768","legacy","0","11","/Users/tionnahough/Desktop/TH-subject-1.csv","legacy","1 3 2 6 9","Lentiform Loewenfeld","3.3.3","0","n","0","right","right","right","right","NA","639","19253","5936","639","NA","2","legacy","5","1024","2","48000","-16","experiment","1","odd","5","104929","103715","23154","95630","102691","3838","102615","102703","89606","3879","96677","107582","106942","106942","NA","Sternberg Task","11","9547","13","yes","1024"
"85.71428571428571","85.71428571428571","725.7857142857143","725.7857142857143","black","experiment","legacy","legacy","legacy","0","uniform","1","undefined","1","right","13","13","0","13","13","0","0","13","13","0","0","13","13","13","0","Sun Oct 18 19:05:44 2020","The main experiment item","yes","SternbergTask.osexp","/Users/tionnahough/Desktop","no","mono","no","18","no","white","no","yes","768","legacy","1","11","/Users/tionnahough/Desktop/TH-subject-1.csv","legacy","5 7 3","Lentiform Loewenfeld","3.3.3","0","n","0","right","right","right","right","NA","614","19253","5936","614","NA","2","legacy","3","1024","2","48000","-16","experiment","1","odd","9","110945","109729","23154","107605","108702","3838","102615","108714","89606","3879","96677","113572","112957","112957","NA","Sternberg Task","12","10161","14","yes","1024"
"86.66666666666667","86.66666666666667","739.6666666666666","739.6666666666666","black","experiment","legacy","legacy","legacy","0","uniform","1","undefined","1","left","14","14","0","14","14","0","0","14","14","0","0","14","14","14","0","Sun Oct 18 19:05:44 2020","The main experiment item","yes","SternbergTask.osexp","/Users/tionnahough/Desktop","no","mono","no","18","no","white","no","yes","768","legacy","2","11","/Users/tionnahough/Desktop/TH-subject-1.csv","legacy","9 3 1 2 5","Lentiform Loewenfeld","3.3.3","4","y","0","left","right","right","left","NA","934","19253","5936","934","NA","2","legacy","5","1024","2","48000","-16","experiment","1","odd","2","116906","115692","23154","113595","114669","3838","102615","114680","89606","3879","96677","119854","118919","118918","NA","Sternberg Task","13","11095","15","yes","1024"
"87.5","87.5","733.375","733.375","black","experiment","legacy","legacy","legacy","0","uniform","1","undefined","1","right","15","15","0","15","15","0","0","15","15","0","0","15","15","15","0","Sun Oct 18 19:05:44 2020","The main experiment item","yes","SternbergTask.osexp","/Users/tionnahough/Desktop","no","mono","no","18","no","white","no","yes","768","legacy","3","11","/Users/tionnahough/Desktop/TH-subject-1.csv","legacy","6 8 4","Lentiform Loewenfeld","3.3.3","0","n","0","right","right","right","right","NA","639","19253","5936","639","NA","2","legacy","3","1024","2","48000","-16","experiment","1","odd","1","123182","121969","23154","119868","120944","3838","102615","120956","89606","3879","96677","125835","125194","125194","NA","Sternberg Task","14","11734","16","yes","1024"
"88.23529411764706","88.23529411764706","732.1176470588235","732.1176470588235","black","experiment","legacy","legacy","legacy","0","uniform","1","undefined","1","left","16","16","0","16","16","0","0","16","16","0","0","16","16","16","0","Sun Oct 18 19:05:44 2020","The main experiment item","yes","SternbergTask.osexp","/Users/tionnahough/Desktop","no","mono","no","18","no","white","no","yes","768","legacy","4","11","/Users/tionnahough/Desktop/TH-subject-1.csv","legacy","3 5 7 1","Lentiform Loewenfeld","3.3.3","3","y","0","left","right","right","left","NA","712","19253","5936","712","NA","2","legacy","4","1024","2","48000","-16","experiment","1","odd","7","129168","127956","23154","125856","126932","3838","102615","126944","89606","3879","96677","131893","131180","131180","NA","Sternberg Task","15","12446","17","yes","1024"
"88.88888888888889","88.88888888888889","727.6666666666666","727.6666666666666","black","experiment","legacy","legacy","legacy","0","uniform","1","undefined","1","right","17","17","0","17","17","0","0","17","17","0","0","17","17","17","0","Sun Oct 18 19:05:44 2020","The main experiment item","yes","SternbergTask.osexp","/Users/tionnahough/Desktop","no","mono","no","18","no","white","no","yes","768","legacy","5","11","/Users/tionnahough/Desktop/TH-subject-1.csv","legacy","9 7 4 5 8","Lentiform Loewenfeld","3.3.3","0","n","0","right","right","right","right","NA","652","19253","5936","652","NA","2","legacy","5","1024","2","48000","-16","experiment","1","odd","6","135228","134014","23154","131916","132991","3838","102615","133001","89606","3879","96677","137893","137240","137240","NA","Sternberg Task","16","13098","18","yes","1024"
"89.47368421052632","89.47368421052632","722","722","black","experiment","legacy","legacy","legacy","0","uniform","1","undefined","1","right","18","18","0","18","18","0","0","18","18","0","0","18","18","18","0","Sun Oct 18 19:05:44 2020","The main experiment item","yes","SternbergTask.osexp","/Users/tionnahough/Desktop","no","mono","no","18","no","white","no","yes","768","legacy","6","11","/Users/tionnahough/Desktop/TH-subject-1.csv","legacy","6 9 4 5 3 2","Lentiform Loewenfeld","3.3.3","0","n","0","right","right","right","right","NA","620","19253","5936","620","NA","2","legacy","6","1024","2","48000","-16","experiment","1","odd","8","141226","140013","23154","137915","138990","3838","102615","139001","89606","3879","96677","143859","143238","143238","NA","Sternberg Task","17","13718","19","yes","1024"
"90","90","719.05","719.05","black","experiment","legacy","legacy","legacy","0","uniform","1","undefined","1","left","19","19","0","19","19","0","0","19","19","0","0","19","19","19","0","Sun Oct 18 19:05:44 2020","The main experiment item","yes","SternbergTask.osexp","/Users/tionnahough/Desktop","no","mono","no","18","no","white","no","yes","768","legacy","7","11","/Users/tionnahough/Desktop/TH-subject-1.csv","legacy","7 2 3","Lentiform Loewenfeld","3.3.3","3","y","0","left","right","right","left","NA","663","19253","5936","663","NA","2","legacy","3","1024","2","48000","-16","experiment","1","odd","3","147196","145983","23154","143882","144958","3838","102615","144970","89606","3879","96677","149872","149208","149208","NA","Sternberg Task","18","14381","20","yes","1024"
"90.47619047619048","90.47619047619048","713.2857142857143","713.2857142857143","black","experiment","legacy","legacy","legacy","0","uniform","1","undefined","1","left","20","20","0","20","20","0","0","20","20","0","0","20","20","20","0","Sun Oct 18 19:05:44 2020","The main experiment item","yes","SternbergTask.osexp","/Users/tionnahough/Desktop","no","mono","no","18","no","white","no","yes","768","legacy","8","11","/Users/tionnahough/Desktop/TH-subject-1.csv","legacy","8 9 5 6 7","Lentiform Loewenfeld","3.3.3","1","y","0","left","right","right","left","NA","598","19253","5936","598","NA","2","legacy","5","1024","2","48000","-16","experiment","1","odd","8","153205","151992","23154","149894","150968","3838","102615","150980","89606","3879","96677","155816","155217","155216","NA","Sternberg Task","19","14979","21","yes","1024"
"90.9090909090909","90.9090909090909","709.6818181818181","709.6818181818181","black","experiment","legacy","legacy","legacy","0","uniform","1","undefined","1","right","21","21","0","21","21","0","0","21","21","0","0","21","21","21","0","Sun Oct 18 19:05:44 2020","The main experiment item","yes","SternbergTask.osexp","/Users/tionnahough/Desktop","no","mono","no","18","no","white","no","yes","768","legacy","9","11","/Users/tionnahough/Desktop/TH-subject-1.csv","legacy","7 3 2 8","Lentiform Loewenfeld","3.3.3","0","n","0","right","right","right","right","NA","634","19253","5936","634","NA","2","legacy","4","1024","2","48000","-16","experiment","1","odd","4","159150","157938","23154","155839","156914","3838","102615","156926","89606","3879","96677","161797","161162","161162","NA","Sternberg Task","20","15613","22","yes","1024"
"91.30434782608695","91.30434782608695","708.1739130434783","708.1739130434783","black","experiment","legacy","legacy","legacy","0","uniform","1","undefined","1","right","22","22","0","22","22","0","0","22","22","0","0","22","22","22","0","Sun Oct 18 19:05:44 2020","The main experiment item","yes","SternbergTask.osexp","/Users/tionnahough/Desktop","no","mono","no","18","no","white","no","yes","768","legacy","10","11","/Users/tionnahough/Desktop/TH-subject-1.csv","legacy","2 3 8 5 6 7","Lentiform Loewenfeld","3.3.3","0","n","0","right","right","right","right","NA","675","19253","5936","675","NA","2","legacy","6","1024","2","48000","-16","experiment","1","odd","1","165135","163920","23154","161822","162897","3838","102615","162908","89606","3879","96677","167823","167147","167147","NA","Sternberg Task","21","16288","23","yes","1024"
"91.66666666666667","91.66666666666667","701.5416666666666","701.5416666666666","black","experiment","legacy","legacy","legacy","0","uniform","1","undefined","1","left","23","23","0","23","23","0","0","23","23","0","0","23","23","23","0","Sun Oct 18 19:05:44 2020","The main experiment item","yes","SternbergTask.osexp","/Users/tionnahough/Desktop","no","mono","no","18","no","white","no","yes","768","legacy","11","11","/Users/tionnahough/Desktop/TH-subject-1.csv","legacy","7 1 3","Lentiform Loewenfeld","3.3.3","2","y","0","left","right","right","left","NA","549","19253","5936","549","NA","2","legacy","3","1024","2","48000","-16","experiment","1","odd","1","171156","169944","23154","167844","168921","3838","102615","168932","89606","3879","96677","173719","173168","173168","NA","Sternberg Task","22","16837","24","yes","1024"
"92","92","697.68","697.68","black","experiment","legacy","legacy","legacy","0","uniform","1","undefined","1","right","24","24","0","24","24","0","0","24","24","0","0","24","24","24","0","Sun Oct 18 19:05:44 2020","The main experiment item","yes","SternbergTask.osexp","/Users/tionnahough/Desktop","no","mono","no","18","no","white","no","yes","768","legacy","12","11","/Users/tionnahough/Desktop/TH-subject-1.csv","legacy","2 6 4 3 9","Lentiform Loewenfeld","3.3.3","0","n","0","right","right","right","right","NA","605","19253","5936","605","NA","2","legacy","5","1024","2","48000","-16","experiment","1","odd","1","177053","175840","23154","173741","174816","3838","102615","174828","89606","3879","96677","179673","179066","179065","NA","Sternberg Task","23","17442","25","yes","1024"
"92.3076923076923","92.3076923076923","692.8461538461538","692.8461538461538","black","experiment","legacy","legacy","legacy","0","uniform","1","undefined","1","right","25","25","0","25","25","0","0","25","25","0","0","25","25","25","0","Sun Oct 18 19:05:44 2020","The main experiment item","yes","SternbergTask.osexp","/Users/tionnahough/Desktop","no","mono","no","18","no","white","no","yes","768","legacy","13","11","/Users/tionnahough/Desktop/TH-subject-1.csv","legacy","8 6 3 4 7","Lentiform Loewenfeld","3.3.3","0","n","0","right","right","right","right","NA","572","19253","5936","572","NA","2","legacy","5","1024","2","48000","-16","experiment","1","odd","1","183007","181794","23154","179695","180770","3838","102615","180782","89606","3879","96677","185593","185019","185019","NA","Sternberg Task","24","18014","26","yes","1024"
"92.5925925925926","92.5925925925926","694.1111111111111","694.1111111111111","black","experiment","legacy","legacy","legacy","0","uniform","1","undefined","1","right","26","26","0","26","26","0","0","26","26","0","0","26","26","26","0","Sun Oct 18 19:05:44 2020","The main experiment item","yes","SternbergTask.osexp","/Users/tionnahough/Desktop","no","mono","no","18","no","white","no","yes","768","legacy","14","11","/Users/tionnahough/Desktop/TH-subject-1.csv","legacy","4 2 7 6 1 3","Lentiform Loewenfeld","3.3.3","0","n","0","right","right","right","right","NA","727","19253","5936","727","NA","2","legacy","6","1024","2","48000","-16","experiment","1","odd","8","188927","187712","23154","185614","186689","3838","102615","186700","89606","3879","96677","191667","190939","190939","NA","Sternberg Task","25","18741","27","yes","1024"
"92.85714285714286","92.85714285714286","686.5357142857143","686.5357142857143","black","experiment","legacy","legacy","legacy","0","uniform","1","undefined","1","right","27","27","0","27","27","0","0","27","27","0","0","27","27","27","0","Sun Oct 18 19:05:44 2020","The main experiment item","yes","SternbergTask.osexp","/Users/tionnahough/Desktop","no","mono","no","18","no","white","no","yes","768","legacy","15","11","/Users/tionnahough/Desktop/TH-subject-1.csv","legacy","4 1","Lentiform Loewenfeld","3.3.3","0","n","0","right","right","right","right","NA","482","19253","5936","482","NA","2","legacy","2","1024","2","48000","-16","experiment","1","odd","6","195000","193787","23154","191688","192764","3838","102615","192775","89606","3879","96677","197494","197011","197011","NA","Sternberg Task","26","19223","28","yes","1024"
"93.10344827586206","93.10344827586206","686.9310344827586","686.9310344827586","black","experiment","legacy","legacy","legacy","0","uniform","1","undefined","1","right","28","28","0","28","28","0","0","28","28","0","0","28","28","28","0","Sun Oct 18 19:05:44 2020","The main experiment item","yes","SternbergTask.osexp","/Users/tionnahough/Desktop","no","mono","no","18","no","white","no","yes","768","legacy","16","11","/Users/tionnahough/Desktop/TH-subject-1.csv","legacy","1 6 4 3 9 7","Lentiform Loewenfeld","3.3.3","0","n","0","right","right","right","right","NA","698","19253","5936","698","NA","2","legacy","6","1024","2","48000","-16","experiment","1","odd","8","200827","199613","23154","197515","198589","3838","102615","198601","89606","3879","96677","203538","202839","202839","NA","Sternberg Task","27","19921","29","yes","1024"
"93.33333333333333","93.33333333333333","682.1666666666666","682.1666666666666","black","experiment","legacy","legacy","legacy","0","uniform","1","undefined","1","right","29","29","0","29","29","0","0","29","29","0","0","29","29","29","0","Sun Oct 18 19:05:44 2020","The main experiment item","yes","SternbergTask.osexp","/Users/tionnahough/Desktop","no","mono","no","18","no","white","no","yes","768","legacy","17","11","/Users/tionnahough/Desktop/TH-subject-1.csv","legacy","8 4 3 9","Lentiform Loewenfeld","3.3.3","0","n","0","right","right","right","right","NA","544","19253","5936","544","NA","2","legacy","4","1024","2","48000","-16","experiment","1","odd","5","206874","205659","23154","203560","204635","3838","102615","204646","89606","3879","96677","209432","208886","208886","NA","Sternberg Task","28","20465","30","yes","1024"
"93.54838709677419","93.54838709677419","678.5806451612904","678.5806451612904","black","experiment","legacy","legacy","legacy","0","uniform","1","undefined","1","right","30","30","0","30","30","0","0","30","30","0","0","30","30","30","0","Sun Oct 18 19:05:44 2020","The main experiment item","yes","SternbergTask.osexp","/Users/tionnahough/Desktop","no","mono","no","18","no","white","no","yes","768","legacy","18","11","/Users/tionnahough/Desktop/TH-subject-1.csv","legacy","6 3 1 7 9 8","Lentiform Loewenfeld","3.3.3","0","n","0","right","right","right","right","NA","571","19253","5936","571","NA","2","legacy","6","1024","2","48000","-16","experiment","1","odd","4","212768","211555","23154","209454","210531","3838","102615","210542","89606","3879","96677","215353","214780","214780","NA","Sternberg Task","29","21036","31","yes","1024"
"93.75","93.75","689.25","689.25","black","experiment","legacy","legacy","legacy","0","uniform","1","undefined","1","left","31","31","0","31","31","0","0","31","31","0","0","31","31","31","0","Sun Oct 18 19:05:44 2020","The main experiment item","yes","SternbergTask.osexp","/Users/tionnahough/Desktop","no","mono","no","18","no","white","no","yes","768","legacy","19","11","/Users/tionnahough/Desktop/TH-subject-1.csv","legacy","8 9 6 1","Lentiform Loewenfeld","3.3.3","2","y","0","left","right","right","left","NA","1020","19253","5936","1020","NA","2","legacy","4","1024","2","48000","-16","experiment","1","odd","9","218687","217474","23154","215375","216450","3838","102615","216461","89606","3879","96677","221720","220699","220699","NA","Sternberg Task","30","22056","32","yes","1024"
"93.93939393939394","93.93939393939394","690.7575757575758","690.7575757575758","black","experiment","legacy","legacy","legacy","0","uniform","1","undefined","1","left","32","32","0","32","32","0","0","32","32","0","0","32","32","32","0","Sun Oct 18 19:05:44 2020","The main experiment item","yes","SternbergTask.osexp","/Users/tionnahough/Desktop","no","mono","no","18","no","white","no","yes","768","legacy","20","11","/Users/tionnahough/Desktop/TH-subject-1.csv","legacy","3 2 1 4 7","Lentiform Loewenfeld","3.3.3","2","y","0","left","right","right","left","NA","739","19253","5936","739","NA","2","legacy","5","1024","2","48000","-16","experiment","1","odd","2","225053","223839","23154","221741","222816","3838","102615","222827","89606","3879","96677","227805","227065","227065","NA","Sternberg Task","31","22795","33","yes","1024"
"94.11764705882354","94.11764705882354","689.9411764705883","689.9411764705883","black","experiment","legacy","legacy","legacy","0","uniform","1","undefined","1","right","33","33","0","33","33","0","0","33","33","0","0","33","33","33","0","Sun Oct 18 19:05:44 2020","The main experiment item","yes","SternbergTask.osexp","/Users/tionnahough/Desktop","no","mono","no","18","no","white","no","yes","768","legacy","21","11","/Users/tionnahough/Desktop/TH-subject-1.csv","legacy","1 4 9 2 5","Lentiform Loewenfeld","3.3.3","0","n","0","right","right","right","right","NA","663","19253","5936","663","NA","2","legacy","5","1024","2","48000","-16","experiment","1","odd","7","231143","229925","23154","227826","228901","3838","102615","228913","89606","3879","96677","233818","233154","233154","NA","Sternberg Task","32","23458","34","yes","1024"
"91.42857142857143","91.42857142857143","691.4","691.4","black","experiment","legacy","legacy","legacy","0","uniform","0","undefined","0","left","34","34","0","34","34","0","0","34","34","0","0","34","34","34","0","Sun Oct 18 19:05:44 2020","The main experiment item","yes","SternbergTask.osexp","/Users/tionnahough/Desktop","no","mono","no","18","no","white","no","yes","768","legacy","22","11","/Users/tionnahough/Desktop/TH-subject-1.csv","legacy","6 9 7 4 5 1","Lentiform Loewenfeld","3.3.3","2","y","0","right","right","right","right","NA","741","19253","5936","741","NA","2","legacy","6","1024","2","48000","-16","experiment","1","odd","9","237154","235939","23154","233841","234916","3838","102615","234927","89606","3879","96677","239908","239166","239166","NA","Sternberg Task","32","24199","35","yes","1024"
"91.66666666666667","91.66666666666667","690.2777777777778","690.2777777777778","black","experiment","legacy","legacy","legacy","0","uniform","1","undefined","1","right","35","35","0","35","35","0","0","35","35","0","0","35","35","35","0","Sun Oct 18 19:05:44 2020","The main experiment item","yes","SternbergTask.osexp","/Users/tionnahough/Desktop","no","mono","no","18","no","white","no","yes","768","legacy","23","11","/Users/tionnahough/Desktop/TH-subject-1.csv","legacy","6 8","Lentiform Loewenfeld","3.3.3","0","n","0","right","right","right","right","NA","651","19253","5936","651","NA","2","legacy","2","1024","2","48000","-16","experiment","1","odd","9","243242","242028","23154","233841","241004","3838","102615","241015","239930","3879","96677","245906","245254","245254","NA","Sternberg Task","33","24850","36","yes","1024"
"91.89189189189189","91.89189189189189","691.1351351351351","691.1351351351351","black","experiment","legacy","legacy","legacy","0","uniform","1","undefined","1","right","36","36","0","36","36","0","0","36","36","0","0","36","36","36","0","Sun Oct 18 19:05:44 2020","The main experiment item","yes","SternbergTask.osexp","/Users/tionnahough/Desktop","no","mono","no","18","no","white","no","yes","768","legacy","24","11","/Users/tionnahough/Desktop/TH-subject-1.csv","legacy","8 2 1 4 5 9","Lentiform Loewenfeld","3.3.3","0","n","0","right","right","right","right","NA","722","19253","5936","722","NA","2","legacy","6","1024","2","48000","-16","experiment","1","odd","7","249239","248025","23154","245928","247001","3838","102615","247013","239930","3879","96677","251974","251251","251251","NA","Sternberg Task","34","25572","37","yes","1024"
"92.10526315789474","92.10526315789474","685.9736842105264","685.9736842105264","black","experiment","legacy","legacy","legacy","0","uniform","1","undefined","1","right","37","37","0","37","37","0","0","37","37","0","0","37","37","37","0","Sun Oct 18 19:05:44 2020","The main experiment item","yes","SternbergTask.osexp","/Users/tionnahough/Desktop","no","mono","no","18","no","white","no","yes","768","legacy","25","11","/Users/tionnahough/Desktop/TH-subject-1.csv","legacy","9","Lentiform Loewenfeld","3.3.3","0","n","0","right","right","right","right","NA","495","19253","5936","495","NA","2","legacy","1","1024","2","48000","-16","experiment","1","odd","6","255308","254094","23154","251996","253070","3838","102615","253081","239930","3879","96677","257816","257320","257319","NA","Sternberg Task","35","26067","38","yes","1024"
"92.3076923076923","92.3076923076923","683.5384615384615","683.5384615384615","black","experiment","legacy","legacy","legacy","0","uniform","1","undefined","1","right","38","38","0","38","38","0","0","38","38","0","0","38","38","38","0","Sun Oct 18 19:05:44 2020","The main experiment item","yes","SternbergTask.osexp","/Users/tionnahough/Desktop","no","mono","no","18","no","white","no","yes","768","legacy","26","11","/Users/tionnahough/Desktop/TH-subject-1.csv","legacy","2 7 5","Lentiform Loewenfeld","3.3.3","0","n","0","right","right","right","right","NA","591","19253","5936","591","NA","2","legacy","3","1024","2","48000","-16","experiment","1","odd","8","261152","259939","23154","257839","258915","3838","102615","258927","239930","3879","96677","263756","263164","263163","NA","Sternberg Task","36","26658","39","yes","1024"
"90","90","682.9","682.9","black","experiment","legacy","legacy","legacy","0","uniform","0","undefined","0","left","39","39","0","39","39","0","0","39","39","0","0","39","39","39","0","Sun Oct 18 19:05:44 2020","The main experiment item","yes","SternbergTask.osexp","/Users/tionnahough/Desktop","no","mono","no","18","no","white","no","yes","768","legacy","27","11","/Users/tionnahough/Desktop/TH-subject-1.csv","legacy","8 5 3 7 4 6","Lentiform Loewenfeld","3.3.3","6","y","0","right","right","right","right","NA","658","19253","5936","658","NA","2","legacy","6","1024","2","48000","-16","experiment","1","odd","6","267090","265877","23154","263778","264852","3838","102615","264864","239930","3879","96677","269760","269101","269101","NA","Sternberg Task","36","27316","40","yes","1024"
"90.2439024390244","90.2439024390244","684.1951219512196","684.1951219512196","black","experiment","legacy","legacy","legacy","0","uniform","1","undefined","1","right","40","40","0","40","40","0","0","40","40","0","0","40","40","40","0","Sun Oct 18 19:05:44 2020","The main experiment item","yes","SternbergTask.osexp","/Users/tionnahough/Desktop","no","mono","no","18","no","white","no","yes","768","legacy","28","11","/Users/tionnahough/Desktop/TH-subject-1.csv","legacy","7 6 4 8 1 2","Lentiform Loewenfeld","3.3.3","0","n","0","right","right","right","right","NA","736","19253","5936","736","NA","2","legacy","6","1024","2","48000","-16","experiment","1","odd","9","273094","271881","23154","263778","270855","3838","102615","270868","269781","3879","96677","275844","275107","275107","NA","Sternberg Task","37","28052","41","yes","1024"
"90.47619047619048","90.47619047619048","683.2619047619048","683.2619047619048","black","experiment","legacy","legacy","legacy","0","uniform","1","undefined","1","left","41","41","0","41","41","0","0","41","41","0","0","41","41","41","0","Sun Oct 18 19:05:44 2020","The main experiment item","yes","SternbergTask.osexp","/Users/tionnahough/Desktop","no","mono","no","18","no","white","no","yes","768","legacy","29","11","/Users/tionnahough/Desktop/TH-subject-1.csv","legacy","6 9 3 1","Lentiform Loewenfeld","3.3.3","4","y","0","left","right","right","left","NA","645","19253","5936","645","NA","2","legacy","4","1024","2","48000","-16","experiment","1","odd","1","279179","277965","23154","275867","276942","3838","102615","276953","269781","3879","96677","281839","281192","281191","NA","Sternberg Task","38","28697","42","yes","1024"
"90.69767441860465","90.69767441860465","681.0697674418604","681.0697674418604","black","experiment","legacy","legacy","legacy","0","uniform","1","undefined","1","right","42","42","0","42","42","0","0","42","42","0","0","42","42","42","0","Sun Oct 18 19:05:44 2020","The main experiment item","yes","SternbergTask.osexp","/Users/tionnahough/Desktop","no","mono","no","18","no","white","no","yes","768","legacy","30","11","/Users/tionnahough/Desktop/TH-subject-1.csv","legacy","2 8 6 3 1","Lentiform Loewenfeld","3.3.3","0","n","0","right","right","right","right","NA","589","19253","5936","589","NA","2","legacy","5","1024","2","48000","-16","experiment","1","odd","7","285165","283953","23154","281852","282930","3838","102615","282941","269781","3879","96677","287767","287177","287177","NA","Sternberg Task","39","29286","43","yes","1024"
"90.9090909090909","90.9090909090909","679.6590909090909","679.6590909090909","black","experiment","legacy","legacy","legacy","0","uniform","1","undefined","1","right","43","43","0","43","43","0","0","43","43","0","0","43","43","43","0","Sun Oct 18 19:05:44 2020","The main experiment item","yes","SternbergTask.osexp","/Users/tionnahough/Desktop","no","mono","no","18","no","white","no","yes","768","legacy","31","11","/Users/tionnahough/Desktop/TH-subject-1.csv","legacy","7 4 2 8 1 9","Lentiform Loewenfeld","3.3.3","0","n","0","right","right","right","right","NA","619","19253","5936","619","NA","2","legacy","6","1024","2","48000","-16","experiment","1","odd","5","291102","289888","23154","287789","288865","3838","102615","288876","269781","3879","96677","293734","293114","293114","NA","Sternberg Task","40","29905","44","yes","1024"
"91.11111111111111","91.11111111111111","676.5111111111111","676.5111111111111","black","experiment","legacy","legacy","legacy","0","uniform","1","undefined","1","left","44","44","0","44","44","0","0","44","44","0","0","44","44","44","0","Sun Oct 18 19:05:44 2020","The main experiment item","yes","SternbergTask.osexp","/Users/tionnahough/Desktop","no","mono","no","18","no","white","no","yes","768","legacy","32","11","/Users/tionnahough/Desktop/TH-subject-1.csv","legacy","9 3 8 2 1 4","Lentiform Loewenfeld","3.3.3","3","y","0","left","right","right","left","NA","538","19253","5936","538","NA","2","legacy","6","1024","2","48000","-16","experiment","1","odd","8","297069","295855","23154","293757","294831","3838","102615","294843","269781","3879","96677","299620","299081","299081","NA","Sternberg Task","41","30443","45","yes","1024"
"91.30434782608695","91.30434782608695","682.0652173913044","682.0652173913044","black","experiment","legacy","legacy","legacy","0","uniform","1","undefined","1","right","45","45","0","45","45","0","0","45","45","0","0","45","45","45","0","Sun Oct 18 19:05:44 2020","The main experiment item","yes","SternbergTask.osexp","/Users/tionnahough/Desktop","no","mono","no","18","no","white","no","yes","768","legacy","33","11","/Users/tionnahough/Desktop/TH-subject-1.csv","legacy","2 8 9 4 1","Lentiform Loewenfeld","3.3.3","0","n","0","right","right","right","right","NA","932","19253","5936","932","NA","2","legacy","5","1024","2","48000","-16","experiment","1","odd","5","302956","301741","23154","299643","300717","3838","102615","300729","269781","3879","96677","305902","304969","304968","NA","Sternberg Task","42","31375","46","yes","1024"
"91.48936170212765","91.48936170212765","678.2340425531914","678.2340425531914","black","experiment","legacy","legacy","legacy","0","uniform","1","undefined","1","right","46","46","0","46","46","0","0","46","46","0","0","46","46","46","0","Sun Oct 18 19:05:44 2020","The main experiment item","yes","SternbergTask.osexp","/Users/tionnahough/Desktop","no","mono","no","18","no","white","no","yes","768","legacy","34","11","/Users/tionnahough/Desktop/TH-subject-1.csv","legacy","2 8 7 9 5 3","Lentiform Loewenfeld","3.3.3","0","n","0","right","right","right","right","NA","502","19253","5936","502","NA","2","legacy","6","1024","2","48000","-16","experiment","1","odd","6","309235","308021","23154","305924","306998","3838","102615","307008","269781","3879","96677","311750","311247","311247","NA","Sternberg Task","43","31877","47","yes","1024"
"89.58333333333333","89.58333333333333","676.4791666666666","676.4791666666666","black","experiment","legacy","legacy","legacy","0","uniform","0","undefined","0","left","47","47","0","47","47","0","0","47","47","0","0","47","47","47","0","Sun Oct 18 19:05:44 2020","The main experiment item","yes","SternbergTask.osexp","/Users/tionnahough/Desktop","no","mono","no","18","no","white","no","yes","768","legacy","35","11","/Users/tionnahough/Desktop/TH-subject-1.csv","legacy","9 6 2 4 1","Lentiform Loewenfeld","3.3.3","4","y","0","right","right","right","right","NA","594","19253","5936","594","NA","2","legacy","5","1024","2","48000","-16","experiment","1","odd","4","315085","313871","23154","311773","312847","3838","102615","312858","269781","3879","96677","317694","317097","317096","NA","Sternberg Task","43","32471","48","yes","1024"
"89.79591836734694","89.79591836734694","678.3061224489796","678.3061224489796","black","experiment","legacy","legacy","legacy","0","uniform","1","undefined","1","right","48","48","0","48","48","0","0","48","48","0","0","48","48","48","0","Sun Oct 18 19:05:44 2020","The main experiment item","yes","SternbergTask.osexp","/Users/tionnahough/Desktop","no","mono","no","18","no","white","no","yes","768","legacy","36","11","/Users/tionnahough/Desktop/TH-subject-1.csv","legacy","8 5 4 2 9 6","Lentiform Loewenfeld","3.3.3","0","n","0","right","right","right","right","NA","766","19253","5936","766","NA","2","legacy","6","1024","2","48000","-16","experiment","1","odd","3","321022","319809","23154","311773","318784","3838","102615","318795","317708","3879","96677","323809","323042","323042","NA","Sternberg Task","44","33237","49","yes","1024"
"88","88","682.96","682.96","black","experiment","legacy","legacy","legacy","0","uniform","0","undefined","0","right","49","49","0","49","49","0","0","49","49","0","0","49","49","49","0","Sun Oct 18 19:05:44 2020","The main experiment item","yes","SternbergTask.osexp","/Users/tionnahough/Desktop","no","mono","no","18","no","white","no","yes","768","legacy","37","11","/Users/tionnahough/Desktop/TH-subject-1.csv","legacy","1 7 5 2 9","Lentiform Loewenfeld","3.3.3","0","n","0","left","right","right","left","NA","911","19253","5936","911","NA","2","legacy","5","1024","2","48000","-16","experiment","1","odd","3","327146","325932","23154","323831","324909","3838","102615","324920","317708","3879","96677","330069","329157","329157","NA","Sternberg Task","44","34148","50","yes","1024"
"88.23529411764706","88.23529411764706","680.3921568627451","680.3921568627451","black","experiment","legacy","legacy","legacy","0","uniform","1","undefined","1","left","50","50","0","50","50","0","0","50","50","0","0","50","50","50","0","Sun Oct 18 19:05:44 2020","The main experiment item","yes","SternbergTask.osexp","/Users/tionnahough/Desktop","no","mono","no","18","no","white","no","yes","768","legacy","38","11","/Users/tionnahough/Desktop/TH-subject-1.csv","legacy","3 4","Lentiform Loewenfeld","3.3.3","1","y","0","left","right","right","left","NA","552","19253","5936","552","NA","2","legacy","2","1024","2","48000","-16","experiment","1","odd","3","333417","332194","23154","323831","331170","3838","102615","331182","330092","3879","96677","335982","335429","335429","NA","Sternberg Task","45","34700","51","yes","1024"
"88.46153846153847","88.46153846153847","681.8846153846154","681.8846153846154","black","experiment","legacy","legacy","legacy","0","uniform","1","undefined","1","right","51","51","0","51","51","0","0","51","51","0","0","51","51","51","0","Sun Oct 18 19:05:44 2020","The main experiment item","yes","SternbergTask.osexp","/Users/tionnahough/Desktop","no","mono","no","18","no","white","no","yes","768","legacy","39","11","/Users/tionnahough/Desktop/TH-subject-1.csv","legacy","3 9 1","Lentiform Loewenfeld","3.3.3","0","n","0","right","right","right","right","NA","758","19253","5936","758","NA","2","legacy","3","1024","2","48000","-16","experiment","1","odd","7","339314","338100","23154","336003","337076","3838","102615","337087","330092","3879","96677","342085","341326","341326","NA","Sternberg Task","46","35458","52","yes","1024"
"88.67924528301887","88.67924528301887","683.2264150943396","683.2264150943396","black","experiment","legacy","legacy","legacy","0","uniform","1","undefined","1","right","52","52","0","52","52","0","0","52","52","0","0","52","52","52","0","Sun Oct 18 19:05:44 2020","The main experiment item","yes","SternbergTask.osexp","/Users/tionnahough/Desktop","no","mono","no","18","no","white","no","yes","768","legacy","40","11","/Users/tionnahough/Desktop/TH-subject-1.csv","legacy","4 8 1 2","Lentiform Loewenfeld","3.3.3","0","n","0","right","right","right","right","NA","753","19253","5936","753","NA","2","legacy","4","1024","2","48000","-16","experiment","1","odd","7","345415","344199","23154","342099","343176","3838","102615","343187","330092","3879","96677","348183","347428","347427","NA","Sternberg Task","47","36211","53","yes","1024"
"87.03703703703704","87.03703703703704","681.9444444444445","681.9444444444445","black","experiment","legacy","legacy","legacy","0","uniform","0","undefined","0","right","53","53","0","53","53","0","0","53","53","0","0","53","53","53","0","Sun Oct 18 19:05:44 2020","The main experiment item","yes","SternbergTask.osexp","/Users/tionnahough/Desktop","no","mono","no","18","no","white","no","yes","768","legacy","41","11","/Users/tionnahough/Desktop/TH-subject-1.csv","legacy","1 5 3 2 8","Lentiform Loewenfeld","3.3.3","0","n","0","left","right","right","left","NA","614","19253","5936","614","NA","2","legacy","5","1024","2","48000","-16","experiment","1","odd","4","351514","350302","23154","348204","349277","3838","102615","349289","330092","3879","96677","354141","353526","353526","NA","Sternberg Task","47","36825","54","yes","1024"
"87.27272727272727","87.27272727272727","680.5454545454545","680.5454545454545","black","experiment","legacy","legacy","legacy","0","uniform","1","undefined","1","right","54","54","0","54","54","0","0","54","54","0","0","54","54","54","0","Sun Oct 18 19:05:44 2020","The main experiment item","yes","SternbergTask.osexp","/Users/tionnahough/Desktop","no","mono","no","18","no","white","no","yes","768","legacy","42","11","/Users/tionnahough/Desktop/TH-subject-1.csv","legacy","6 2 9 3 8 4","Lentiform Loewenfeld","3.3.3","0","n","0","right","right","right","right","NA","605","19253","5936","605","NA","2","legacy","6","1024","2","48000","-16","experiment","1","odd","1","357476","356261","23154","348204","355237","3838","102615","355249","354163","3879","96677","360095","359488","359488","NA","Sternberg Task","48","37430","55","yes","1024"
"87.5","87.5","681.8214285714286","681.8214285714286","black","experiment","legacy","legacy","legacy","0","uniform","1","undefined","1","left","55","55","0","55","55","0","0","55","55","0","0","55","55","55","0","Sun Oct 18 19:05:44 2020","The main experiment item","yes","SternbergTask.osexp","/Users/tionnahough/Desktop","no","mono","no","18","no","white","no","yes","768","legacy","43","11","/Users/tionnahough/Desktop/TH-subject-1.csv","legacy","6 7 9 3 1 2","Lentiform Loewenfeld","3.3.3","1","y","0","left","right","right","left","NA","752","19253","5936","752","NA","2","legacy","6","1024","2","48000","-16","experiment","1","odd","6","363433","362219","23154","360117","361194","3838","102615","361206","354163","3879","96677","366198","365445","365445","NA","Sternberg Task","49","38182","56","yes","1024"
"87.71929824561404","87.71929824561404","679.2982456140351","679.2982456140351","black","experiment","legacy","legacy","legacy","0","uniform","1","undefined","1","left","56","56","0","56","56","0","0","56","56","0","0","56","56","56","0","Sun Oct 18 19:05:44 2020","The main experiment item","yes","SternbergTask.osexp","/Users/tionnahough/Desktop","no","mono","no","18","no","white","no","yes","768","legacy","44","11","/Users/tionnahough/Desktop/TH-subject-1.csv","legacy","4 6 2 5 1","Lentiform Loewenfeld","3.3.3","5","y","0","left","right","right","left","NA","538","19253","5936","538","NA","2","legacy","5","1024","2","48000","-16","experiment","1","odd","1","369534","368320","23154","366222","367296","3838","102615","367308","354163","3879","96677","372089","371549","371549","NA","Sternberg Task","50","38720","57","yes","1024"
"87.93103448275862","87.93103448275862","681.1896551724138","681.1896551724138","black","experiment","legacy","legacy","legacy","0","uniform","1","undefined","1","left","57","57","0","57","57","0","0","57","57","0","0","57","57","57","0","Sun Oct 18 19:05:44 2020","The main experiment item","yes","SternbergTask.osexp","/Users/tionnahough/Desktop","no","mono","no","18","no","white","no","yes","768","legacy","45","11","/Users/tionnahough/Desktop/TH-subject-1.csv","legacy","4 3 2 5 8","Lentiform Loewenfeld","3.3.3","2","y","0","left","right","right","left","NA","789","19253","5936","789","NA","2","legacy","5","1024","2","48000","-16","experiment","1","odd","3","375416","374202","23154","372102","373179","3838","102615","373190","354163","3879","96677","378219","377428","377428","NA","Sternberg Task","51","39509","58","yes","1024"
"88.13559322033899","88.13559322033899","686.5593220338983","686.5593220338983","black","experiment","legacy","legacy","legacy","0","uniform","1","undefined","1","right","58","58","0","58","58","0","0","58","58","0","0","58","58","58","0","Sun Oct 18 19:05:44 2020","The main experiment item","yes","SternbergTask.osexp","/Users/tionnahough/Desktop","no","mono","no","18","no","white","no","yes","768","legacy","46","11","/Users/tionnahough/Desktop/TH-subject-1.csv","legacy","7 1","Lentiform Loewenfeld","3.3.3","0","n","0","right","right","right","right","NA","998","19253","5936","998","NA","2","legacy","2","1024","2","48000","-16","experiment","1","odd","8","381551","380337","23154","378240","379313","3838","102615","379325","354163","3879","96677","384563","383563","383563","NA","Sternberg Task","52","40507","59","yes","1024"
"88.33333333333333","88.33333333333333","687.3333333333334","687.3333333333334","black","experiment","legacy","legacy","legacy","0","uniform","1","undefined","1","left","59","59","0","59","59","0","0","59","59","0","0","59","59","59","0","Sun Oct 18 19:05:44 2020","The main experiment item","yes","SternbergTask.osexp","/Users/tionnahough/Desktop","no","mono","no","18","no","white","no","yes","768","legacy","47","11","/Users/tionnahough/Desktop/TH-subject-1.csv","legacy","8 5 1 3 9","Lentiform Loewenfeld","3.3.3","4","y","0","left","right","right","left","NA","733","19253","5936","733","NA","2","legacy","5","1024","2","48000","-16","experiment","1","odd","3","387899","386684","23154","384586","385660","3838","102615","385671","354163","3879","96677","390646","389911","389911","NA","Sternberg Task","53","41240","60","yes","1024"
"88.52459016393442","88.52459016393442","691.2622950819672","691.2622950819672","black","experiment","legacy","legacy","legacy","0","uniform","1","undefined","1","left","60","60","0","60","60","0","0","60","60","0","0","60","60","60","0","Sun Oct 18 19:05:44 2020","The main experiment item","yes","SternbergTask.osexp","/Users/tionnahough/Desktop","no","mono","no","18","no","white","no","yes","768","legacy","48","11","/Users/tionnahough/Desktop/TH-subject-1.csv","legacy","4","Lentiform Loewenfeld","3.3.3","1","y","0","left","right","right","left","NA","927","19253","5936","927","NA","2","legacy","1","1024","2","48000","-16","experiment","1","odd","4","393979","392765","23154","390667","391741","3838","102615","391753","354163","3879","96677","396919","395991","395991","NA","Sternberg Task","54","42167","61","yes","1024"
"88.70967741935483","88.70967741935483","689.6451612903226","689.6451612903226","black","experiment","legacy","legacy","legacy","0","uniform","1","undefined","1","right","61","61","0","61","61","0","0","61","61","0","0","61","61","61","0","Sun Oct 18 19:05:44 2020","The main experiment item","yes","SternbergTask.osexp","/Users/tionnahough/Desktop","no","mono","no","18","no","white","no","yes","768","legacy","49","11","/Users/tionnahough/Desktop/TH-subject-1.csv","legacy","1 6 4","Lentiform Loewenfeld","3.3.3","0","n","0","right","right","right","right","NA","591","19253","5936","591","NA","2","legacy","3","1024","2","48000","-16","experiment","1","odd","7","400256","399042","23154","396942","398017","3838","102615","398029","354163","3879","96677","402861","402268","402267","NA","Sternberg Task","55","42758","62","yes","1024"
"88.88888888888889","88.88888888888889","690.5714285714286","690.5714285714286","black","experiment","legacy","legacy","legacy","0","uniform","1","undefined","1","right","62","62","0","62","62","0","0","62","62","0","0","62","62","62","0","Sun Oct 18 19:05:44 2020","The main experiment item","yes","SternbergTask.osexp","/Users/tionnahough/Desktop","no","mono","no","18","no","white","no","yes","768","legacy","50","11","/Users/tionnahough/Desktop/TH-subject-1.csv","legacy","7 9","Lentiform Loewenfeld","3.3.3","0","n","0","right","right","right","right","NA","748","19253","5936","748","NA","2","legacy","2","1024","2","48000","-16","experiment","1","odd","1","406195","404982","23154","402884","403959","3838","102615","403971","354163","3879","96677","408956","408207","408207","NA","Sternberg Task","56","43506","63","yes","1024"
"89.0625","89.0625","688.453125","688.453125","black","experiment","legacy","legacy","legacy","0","uniform","1","undefined","1","left","63","63","0","63","63","0","0","63","63","0","0","63","63","63","0","Sun Oct 18 19:05:44 2020","The main experiment item","yes","SternbergTask.osexp","/Users/tionnahough/Desktop","no","mono","no","18","no","white","no","yes","768","legacy","51","11","/Users/tionnahough/Desktop/TH-subject-1.csv","legacy","2 4 6 9","Lentiform Loewenfeld","3.3.3","3","y","0","left","right","right","left","NA","555","19253","5936","555","NA","2","legacy","4","1024","2","48000","-16","experiment","1","odd","6","412298","411078","23154","408979","410053","3838","102615","410065","354163","3879","96677","414876","414311","414311","NA","Sternberg Task","57","44061","64","yes","1024"
"89.23076923076923","89.23076923076923","686.6615384615385","686.6615384615385","black","experiment","legacy","legacy","legacy","0","uniform","1","undefined","1","left","64","64","0","64","64","0","0","64","64","0","0","64","64","64","0","Sun Oct 18 19:05:44 2020","The main experiment item","yes","SternbergTask.osexp","/Users/tionnahough/Desktop","no","mono","no","18","no","white","no","yes","768","legacy","52","11","/Users/tionnahough/Desktop/TH-subject-1.csv","legacy","3 5 4 7","Lentiform Loewenfeld","3.3.3","1","y","0","left","right","right","left","NA","572","19253","5936","572","NA","2","legacy","4","1024","2","48000","-16","experiment","1","odd","3","418204","416989","23154","414889","415964","3838","102615","415976","354163","3879","96677","420790","420217","420217","NA","Sternberg Task","58","44633","65","yes","1024"
"87.87878787878788","87.87878787878788","687.3333333333334","687.3333333333334","black","experiment","legacy","legacy","legacy","0","uniform","0","undefined","0","left","65","65","0","65","65","0","0","65","65","0","0","65","65","65","0","Sun Oct 18 19:05:44 2020","The main experiment item","yes","SternbergTask.osexp","/Users/tionnahough/Desktop","no","mono","no","18","no","white","no","yes","768","legacy","53","11","/Users/tionnahough/Desktop/TH-subject-1.csv","legacy","4 6 5 8","Lentiform Loewenfeld","3.3.3","1","y","0","right","right","right","right","NA","731","19253","5936","731","NA","2","legacy","4","1024","2","48000","-16","experiment","1","odd","4","424127","422913","23154","420813","421889","3838","102615","421900","354163","3879","96677","426872","426140","426139","NA","Sternberg Task","58","45364","66","yes","1024"
"88.05970149253731","88.05970149253731","691.4626865671642","691.4626865671642","black","experiment","legacy","legacy","legacy","0","uniform","1","undefined","1","left","66","66","0","66","66","0","0","66","66","0","0","66","66","66","0","Sun Oct 18 19:05:44 2020","The main experiment item","yes","SternbergTask.osexp","/Users/tionnahough/Desktop","no","mono","no","18","no","white","no","yes","768","legacy","54","11","/Users/tionnahough/Desktop/TH-subject-1.csv","legacy","8 5 4 7 3 1","Lentiform Loewenfeld","3.3.3","2","y","0","left","right","right","left","NA","964","19253","5936","964","NA","2","legacy","6","1024","2","48000","-16","experiment","1","odd","5","430206","428993","23154","420813","427969","3838","102615","427981","426893","3879","96677","433186","432220","432220","NA","Sternberg Task","59","46328","67","yes","1024"
"88.23529411764706","88.23529411764706","690.6617647058823","690.6617647058823","black","experiment","legacy","legacy","legacy","0","uniform","1","undefined","1","left","67","67","0","67","67","0","0","67","67","0","0","67","67","67","0","Sun Oct 18 19:05:44 2020","The main experiment item","yes","SternbergTask.osexp","/Users/tionnahough/Desktop","no","mono","no","18","no","white","no","yes","768","legacy","55","11","/Users/tionnahough/Desktop/TH-subject-1.csv","legacy","3 5 9 6 2 4","Lentiform Loewenfeld","3.3.3","1","y","0","left","right","right","left","NA","637","19253","5936","637","NA","2","legacy","6","1024","2","48000","-16","experiment","1","odd","3","436519","435305","23154","433207","434280","3838","102615","434292","426893","3879","96677","439170","438531","438531","NA","Sternberg Task","60","46965","68","yes","1024"
"88.40579710144928","88.40579710144928","689.0869565217391","689.0869565217391","black","experiment","legacy","legacy","legacy","0","uniform","1","undefined","1","right","68","68","0","68","68","0","0","68","68","0","0","68","68","68","0","Sun Oct 18 19:05:44 2020","The main experiment item","yes","SternbergTask.osexp","/Users/tionnahough/Desktop","no","mono","no","18","no","white","no","yes","768","legacy","56","11","/Users/tionnahough/Desktop/TH-subject-1.csv","legacy","1 4 3 6 5","Lentiform Loewenfeld","3.3.3","0","n","0","right","right","right","right","NA","582","19253","5936","582","NA","2","legacy","5","1024","2","48000","-16","experiment","1","odd","8","442505","441292","23154","439191","440268","3838","102615","440279","426893","3879","96677","445102","444519","444519","NA","Sternberg Task","61","47547","69","yes","1024"
"88.57142857142857","88.57142857142857","685.8285714285714","685.8285714285714","black","experiment","legacy","legacy","legacy","0","uniform","1","undefined","1","left","69","69","0","69","69","0","0","69","69","0","0","69","69","69","0","Sun Oct 18 19:05:44 2020","The main experiment item","yes","SternbergTask.osexp","/Users/tionnahough/Desktop","no","mono","no","18","no","white","no","yes","768","legacy","57","11","/Users/tionnahough/Desktop/TH-subject-1.csv","legacy","3 9 7 6 4","Lentiform Loewenfeld","3.3.3","3","y","0","left","right","right","left","NA","461","19253","5936","461","NA","2","legacy","5","1024","2","48000","-16","experiment","1","odd","7","448443","447227","23154","445124","446203","3838","102615","446214","426893","3879","96677","450918","450455","450455","NA","Sternberg Task","62","48008","70","yes","1024"
"88.73239436619718","88.73239436619718","682.8028169014085","682.8028169014085","black","experiment","legacy","legacy","legacy","0","uniform","1","undefined","1","left","70","70","0","70","70","0","0","70","70","0","0","70","70","70","0","Sun Oct 18 19:05:44 2020","The main experiment item","yes","SternbergTask.osexp","/Users/tionnahough/Desktop","no","mono","no","18","no","white","no","yes","768","legacy","58","11","/Users/tionnahough/Desktop/TH-subject-1.csv","legacy","4 1 5","Lentiform Loewenfeld","3.3.3","2","y","0","left","right","right","left","NA","471","19253","5936","471","NA","2","legacy","3","1024","2","48000","-16","experiment","1","odd","1","454251","453038","23154","450941","452014","3838","102615","452026","426893","3879","96677","456736","456263","456263","NA","Sternberg Task","63","48479","71","yes","1024"
"88.88888888888889","88.88888888888889","681.5416666666666","681.5416666666666","black","experiment","legacy","legacy","legacy","0","uniform","1","undefined","1","left","71","71","0","71","71","0","0","71","71","0","0","71","71","71","0","Sun Oct 18 19:05:44 2020","The main experiment item","yes","SternbergTask.osexp","/Users/tionnahough/Desktop","no","mono","no","18","no","white","no","yes","768","legacy","59","11","/Users/tionnahough/Desktop/TH-subject-1.csv","legacy","4 1 8 7 5","Lentiform Loewenfeld","3.3.3","3","y","0","left","right","right","left","NA","592","19253","5936","592","NA","2","legacy","5","1024","2","48000","-16","experiment","1","odd","8","460089","458878","23154","456771","457854","3838","102615","457867","426893","3879","96677","462695","462101","462101","NA","Sternberg Task","64","49071","72","yes","1024"
"89.04109589041096","89.04109589041096","681.013698630137","681.013698630137","black","experiment","legacy","legacy","legacy","0","uniform","1","undefined","1","left","72","72","0","72","72","0","0","72","72","0","0","72","72","72","0","Sun Oct 18 19:05:44 2020","The main experiment item","yes","SternbergTask.osexp","/Users/tionnahough/Desktop","no","mono","no","18","no","white","no","yes","768","legacy","60","11","/Users/tionnahough/Desktop/TH-subject-1.csv","legacy","9 5 3 8 4","Lentiform Loewenfeld","3.3.3","1","y","0","left","right","right","left","NA","643","19253","5936","643","NA","2","legacy","5","1024","2","48000","-16","experiment","1","odd","9","466019","464805","23154","462708","463781","3838","102615","463793","426893","3879","96677","468677","468032","468032","NA","Sternberg Task","65","49714","73","yes","1024"
"89.1891891891892","89.1891891891892","679.5945945945946","679.5945945945946","black","experiment","legacy","legacy","legacy","0","uniform","1","undefined","1","right","73","73","0","73","73","0","0","73","73","0","0","73","73","73","0","Sun Oct 18 19:05:44 2020","The main experiment item","yes","SternbergTask.osexp","/Users/tionnahough/Desktop","no","mono","no","18","no","white","no","yes","768","legacy","61","11","/Users/tionnahough/Desktop/TH-subject-1.csv","legacy","1 7 8 3 9","Lentiform Loewenfeld","3.3.3","0","n","0","right","right","right","right","NA","576","19253","5936","576","NA","2","legacy","5","1024","2","48000","-16","experiment","1","odd","2","472003","470790","23154","468691","469766","3838","102615","469777","426893","3879","96677","474592","474015","474015","NA","Sternberg Task","66","50290","74","yes","1024"
"89.33333333333333","89.33333333333333","679.88","679.88","black","experiment","legacy","legacy","legacy","0","uniform","1","undefined","1","left","74","74","0","74","74","0","0","74","74","0","0","74","74","74","0","Sun Oct 18 19:05:44 2020","The main experiment item","yes","SternbergTask.osexp","/Users/tionnahough/Desktop","no","mono","no","18","no","white","no","yes","768","legacy","62","11","/Users/tionnahough/Desktop/TH-subject-1.csv","legacy","6 1 2","Lentiform Loewenfeld","3.3.3","3","y","0","left","right","right","left","NA","701","19253","5936","701","NA","2","legacy","3","1024","2","48000","-16","experiment","1","odd","2","477926","476712","23154","474615","475688","3838","102615","475700","426893","3879","96677","480642","479940","479939","NA","Sternberg Task","67","50991","75","yes","1024"
"89.47368421052632","89.47368421052632","678.0657894736842","678.0657894736842","black","experiment","legacy","legacy","legacy","0","uniform","1","undefined","1","right","75","75","0","75","75","0","0","75","75","0","0","75","75","75","0","Sun Oct 18 19:05:44 2020","The main experiment item","yes","SternbergTask.osexp","/Users/tionnahough/Desktop","no","mono","no","18","no","white","no","yes","768","legacy","63","11","/Users/tionnahough/Desktop/TH-subject-1.csv","legacy","5","Lentiform Loewenfeld","3.3.3","0","n","0","right","right","right","right","NA","542","19253","5936","542","NA","2","legacy","1","1024","2","48000","-16","experiment","1","odd","8","483976","482762","23154","480664","481737","3838","102615","481748","426893","3879","96677","486531","485988","485987","NA","Sternberg Task","68","51533","76","yes","1024"
"89.6103896103896","89.6103896103896","676.025974025974","676.025974025974","black","experiment","legacy","legacy","legacy","0","uniform","1","undefined","1","left","76","76","0","76","76","0","0","76","76","0","0","76","76","76","0","Sun Oct 18 19:05:44 2020","The main experiment item","yes","SternbergTask.osexp","/Users/tionnahough/Desktop","no","mono","no","18","no","white","no","yes","768","legacy","64","11","/Users/tionnahough/Desktop/TH-subject-1.csv","legacy","3 4 9 6 2 9","Lentiform Loewenfeld","3.3.3","5","y","0","left","right","right","left","NA","521","19253","5936","521","NA","2","legacy","6","1024","2","48000","-16","experiment","1","odd","2","489865","488650","23154","486552","487626","3838","102615","487637","426893","3879","96677","492400","491877","491877","NA","Sternberg Task","69","52054","77","yes","1024"
"89.74358974358974","89.74358974358974","678.2051282051282","678.2051282051282","black","experiment","legacy","legacy","legacy","0","uniform","1","undefined","1","right","77","77","0","77","77","0","0","77","77","0","0","77","77","77","0","Sun Oct 18 19:05:44 2020","The main experiment item","yes","SternbergTask.osexp","/Users/tionnahough/Desktop","no","mono","no","18","no","white","no","yes","768","legacy","65","11","/Users/tionnahough/Desktop/TH-subject-1.csv","legacy","9 5 3 2 8 6","Lentiform Loewenfeld","3.3.3","0","n","0","right","right","right","right","NA","846","19253","5936","846","NA","2","legacy","6","1024","2","48000","-16","experiment","1","odd","7","495735","494520","23154","492423","493496","3838","102615","493508","426893","3879","96677","498594","497747","497747","NA","Sternberg Task","70","52900","78","yes","1024"
"89.87341772151899","89.87341772151899","677.632911392405","677.632911392405","black","experiment","legacy","legacy","legacy","0","uniform","1","undefined","1","left","78","78","0","78","78","0","0","78","78","0","0","78","78","78","0","Sun Oct 18 19:05:44 2020","The main experiment item","yes","SternbergTask.osexp","/Users/tionnahough/Desktop","no","mono","no","18","no","white","no","yes","768","legacy","66","11","/Users/tionnahough/Desktop/TH-subject-1.csv","legacy","5 2 9 6 1 7","Lentiform Loewenfeld","3.3.3","3","y","0","left","right","right","left","NA","633","19253","5936","633","NA","2","legacy","6","1024","2","48000","-16","experiment","1","odd","9","501928","500713","23154","498615","499689","3838","102615","499701","426893","3879","96677","504574","503940","503940","NA","Sternberg Task","71","53533","79","yes","1024"
"90","90","678.95","678.95","black","experiment","legacy","legacy","legacy","0","uniform","1","undefined","1","left","79","79","0","79","79","0","0","79","79","0","0","79","79","79","0","Sun Oct 18 19:05:44 2020","The main experiment item","yes","SternbergTask.osexp","/Users/tionnahough/Desktop","no","mono","no","18","no","white","no","yes","768","legacy","67","11","/Users/tionnahough/Desktop/TH-subject-1.csv","legacy","8 1 6","Lentiform Loewenfeld","3.3.3","3","y","0","left","right","right","left","NA","783","19253","5936","783","NA","2","legacy","3","1024","2","48000","-16","experiment","1","odd","6","507908","506694","23154","504596","505670","3838","102615","505682","426893","3879","96677","510704","509919","509919","NA","Sternberg Task","72","54316","80","yes","1024"
"90.12345679012346","90.12345679012346","683.1975308641976","683.1975308641976","black","experiment","legacy","legacy","legacy","0","uniform","1","undefined","1","right","80","80","0","80","80","0","0","80","80","0","0","80","80","80","0","Sun Oct 18 19:05:44 2020","The main experiment item","yes","SternbergTask.osexp","/Users/tionnahough/Desktop","no","mono","no","18","no","white","no","yes","768","legacy","68","11","/Users/tionnahough/Desktop/TH-subject-1.csv","legacy","1 4 9 3","Lentiform Loewenfeld","3.3.3","0","n","0","right","right","right","right","NA","1023","19253","5936","1023","NA","2","legacy","4","1024","2","48000","-16","experiment","1","odd","5","514038","512824","23154","510725","511800","3838","102615","511812","426893","3879","96677","517074","516050","516050","NA","Sternberg Task","73","55339","81","yes","1024"
"89.02439024390245","89.02439024390245","681.7560975609756","681.7560975609756","black","experiment","legacy","legacy","legacy","0","uniform","0","undefined","0","right","81","81","0","81","81","0","0","81","81","0","0","81","81","81","0","Sun Oct 18 19:05:44 2020","The main experiment item","yes","SternbergTask.osexp","/Users/tionnahough/Desktop","no","mono","no","18","no","white","no","yes","768","legacy","69","11","/Users/tionnahough/Desktop/TH-subject-1.csv","legacy","8 5 7 3 6","Lentiform Loewenfeld","3.3.3","0","n","0","left","right","right","left","NA","565","19253","5936","565","NA","2","legacy","5","1024","2","48000","-16","experiment","1","odd","9","520409","519195","23154","517097","518171","3838","102615","518184","426893","3879","96677","522987","522421","522421","NA","Sternberg Task","73","55904","82","yes","1024"
"89.1566265060241","89.1566265060241","678.6987951807229","678.6987951807229","black","experiment","legacy","legacy","legacy","0","uniform","1","undefined","1","left","82","82","0","82","82","0","0","82","82","0","0","82","82","82","0","Sun Oct 18 19:05:44 2020","The main experiment item","yes","SternbergTask.osexp","/Users/tionnahough/Desktop","no","mono","no","18","no","white","no","yes","768","legacy","70","11","/Users/tionnahough/Desktop/TH-subject-1.csv","legacy","7","Lentiform Loewenfeld","3.3.3","1","y","0","left","right","right","left","NA","428","19253","5936","428","NA","2","legacy","1","1024","2","48000","-16","experiment","1","odd","7","526322","525108","23154","517097","524084","3838","102615","524096","523009","3879","96677","528763","528334","528334","NA","Sternberg Task","74","56332","83","yes","1024"
"88.0952380952381","88.0952380952381","676.4166666666666","676.4166666666666","black","experiment","legacy","legacy","legacy","0","uniform","0","undefined","0","left","83","83","0","83","83","0","0","83","83","0","0","83","83","83","0","Sun Oct 18 19:05:44 2020","The main experiment item","yes","SternbergTask.osexp","/Users/tionnahough/Desktop","no","mono","no","18","no","white","no","yes","768","legacy","71","11","/Users/tionnahough/Desktop/TH-subject-1.csv","legacy","2 6 1 7 4","Lentiform Loewenfeld","3.3.3","2","y","0","right","right","right","right","NA","487","19253","5936","487","NA","2","legacy","5","1024","2","48000","-16","experiment","1","odd","6","532098","530884","23154","528785","529859","3838","102615","529872","523009","3879","96677","534599","534110","534110","NA","Sternberg Task","74","56819","84","yes","1024"
"88.23529411764706","88.23529411764706","674.3882352941176","674.3882352941176","black","experiment","legacy","legacy","legacy","0","uniform","1","undefined","1","left","84","84","0","84","84","0","0","84","84","0","0","84","84","84","0","Sun Oct 18 19:05:44 2020","The main experiment item","yes","SternbergTask.osexp","/Users/tionnahough/Desktop","no","mono","no","18","no","white","no","yes","768","legacy","72","11","/Users/tionnahough/Desktop/TH-subject-1.csv","legacy","9 1 6 7 8","Lentiform Loewenfeld","3.3.3","1","y","0","left","right","right","left","NA","504","19253","5936","504","NA","2","legacy","5","1024","2","48000","-16","experiment","1","odd","9","537932","536718","23154","528785","535694","3838","102615","535706","534620","3879","96677","540449","539944","539944","NA","Sternberg Task","75","57323","85","yes","1024"
"88.37209302325581","88.37209302325581","672.6860465116279","672.6860465116279","black","experiment","legacy","legacy","legacy","0","uniform","1","undefined","1","right","85","85","0","85","85","0","0","85","85","0","0","85","85","85","0","Sun Oct 18 19:05:44 2020","The main experiment item","yes","SternbergTask.osexp","/Users/tionnahough/Desktop","no","mono","no","18","no","white","no","yes","768","legacy","73","11","/Users/tionnahough/Desktop/TH-subject-1.csv","legacy","5 3 8 7 2 4","Lentiform Loewenfeld","3.3.3","0","n","0","right","right","right","right","NA","528","19253","5936","528","NA","2","legacy","6","1024","2","48000","-16","experiment","1","odd","9","543783","542570","23154","540471","541546","3838","102615","541557","534620","3879","96677","546324","545794","545794","NA","Sternberg Task","76","57851","86","yes","1024"
"88.50574712643679","88.50574712643679","674.7471264367816","674.7471264367816","black","experiment","legacy","legacy","legacy","0","uniform","1","undefined","1","right","86","86","0","86","86","0","0","86","86","0","0","86","86","86","0","Sun Oct 18 19:05:44 2020","The main experiment item","yes","SternbergTask.osexp","/Users/tionnahough/Desktop","no","mono","no","18","no","white","no","yes","768","legacy","74","11","/Users/tionnahough/Desktop/TH-subject-1.csv","legacy","1 7 5 2","Lentiform Loewenfeld","3.3.3","0","n","0","right","right","right","right","NA","852","19253","5936","852","NA","2","legacy","4","1024","2","48000","-16","experiment","1","odd","3","549663","548449","23154","546345","547424","3838","102615","547437","534620","3879","96677","552529","551676","551676","NA","Sternberg Task","77","58703","87","yes","1024"
"88.63636363636364","88.63636363636364","674.3636363636364","674.3636363636364","black","experiment","legacy","legacy","legacy","0","uniform","1","undefined","1","left","87","87","0","87","87","0","0","87","87","0","0","87","87","87","0","Sun Oct 18 19:05:44 2020","The main experiment item","yes","SternbergTask.osexp","/Users/tionnahough/Desktop","no","mono","no","18","no","white","no","yes","768","legacy","75","11","/Users/tionnahough/Desktop/TH-subject-1.csv","legacy","2 5 4 8 7","Lentiform Loewenfeld","3.3.3","3","y","0","left","right","right","left","NA","641","19253","5936","641","NA","2","legacy","5","1024","2","48000","-16","experiment","1","odd","4","555873","554658","23154","552560","553635","3838","102615","553646","534620","3879","96677","558527","557884","557884","NA","Sternberg Task","78","59344","88","yes","1024"
"88.76404494382022","88.76404494382022","673.4831460674158","673.4831460674158","black","experiment","legacy","legacy","legacy","0","uniform","1","undefined","1","right","88","88","0","88","88","0","0","88","88","0","0","88","88","88","0","Sun Oct 18 19:05:44 2020","The main experiment item","yes","SternbergTask.osexp","/Users/tionnahough/Desktop","no","mono","no","18","no","white","no","yes","768","legacy","76","11","/Users/tionnahough/Desktop/TH-subject-1.csv","legacy","3 4 9 6 7 8","Lentiform Loewenfeld","3.3.3","0","n","0","right","right","right","right","NA","596","19253","5936","596","NA","2","legacy","6","1024","2","48000","-16","experiment","1","odd","2","561860","560647","23154","558549","559623","3838","102615","559634","534620","3879","96677","564472","563874","563874","NA","Sternberg Task","79","59940","89","yes","1024"
"88.88888888888889","88.88888888888889","676.1666666666666","676.1666666666666","black","experiment","legacy","legacy","legacy","0","uniform","1","undefined","1","right","89","89","0","89","89","0","0","89","89","0","0","89","89","89","0","Sun Oct 18 19:05:44 2020","The main experiment item","yes","SternbergTask.osexp","/Users/tionnahough/Desktop","no","mono","no","18","no","white","no","yes","768","legacy","77","11","/Users/tionnahough/Desktop/TH-subject-1.csv","legacy","7 1 5 6 3","Lentiform Loewenfeld","3.3.3","0","n","0","right","right","right","right","NA","915","19253","5936","915","NA","2","legacy","5","1024","2","48000","-16","experiment","1","odd","8","567809","566595","23154","564495","565571","3838","102615","565583","534620","3879","96677","570738","569821","569821","NA","Sternberg Task","80","60855","90","yes","1024"
"89.01098901098901","89.01098901098901","676.3406593406594","676.3406593406594","black","experiment","legacy","legacy","legacy","0","uniform","1","undefined","1","left","90","90","0","90","90","0","0","90","90","0","0","90","90","90","0","Sun Oct 18 19:05:44 2020","The main experiment item","yes","SternbergTask.osexp","/Users/tionnahough/Desktop","no","mono","no","18","no","white","no","yes","768","legacy","78","11","/Users/tionnahough/Desktop/TH-subject-1.csv","legacy","7 8 4 6 9 5","Lentiform Loewenfeld","3.3.3","4","y","0","left","right","right","left","NA","692","19253","5936","692","NA","2","legacy","6","1024","2","48000","-16","experiment","1","odd","6","574071","572857","23154","570760","571833","3838","102615","571845","534620","3879","96677","576777","576083","576083","NA","Sternberg Task","81","61547","91","yes","1024"
"89.1304347826087","89.1304347826087","674.8913043478261","674.8913043478261","black","experiment","legacy","legacy","legacy","0","uniform","1","undefined","1","right","91","91","0","91","91","0","0","91","91","0","0","91","91","91","0","Sun Oct 18 19:05:44 2020","The main experiment item","yes","SternbergTask.osexp","/Users/tionnahough/Desktop","no","mono","no","18","no","white","no","yes","768","legacy","79","11","/Users/tionnahough/Desktop/TH-subject-1.csv","legacy","8 9","Lentiform Loewenfeld","3.3.3","0","n","0","right","right","right","right","NA","543","19253","5936","543","NA","2","legacy","2","1024","2","48000","-16","experiment","1","odd","5","580115","578901","23154","576800","577878","3838","102615","577889","534620","3879","96677","582672","582128","582128","NA","Sternberg Task","82","62090","92","yes","1024"
"89.24731182795699","89.24731182795699","673.8924731182796","673.8924731182796","black","experiment","legacy","legacy","legacy","0","uniform","1","undefined","1","left","92","92","0","92","92","0","0","92","92","0","0","92","92","92","0","Sun Oct 18 19:05:44 2020","The main experiment item","yes","SternbergTask.osexp","/Users/tionnahough/Desktop","no","mono","no","18","no","white","no","yes","768","legacy","80","11","/Users/tionnahough/Desktop/TH-subject-1.csv","legacy","9 4 2","Lentiform Loewenfeld","3.3.3","1","y","0","left","right","right","left","NA","582","19253","5936","582","NA","2","legacy","3","1024","2","48000","-16","experiment","1","odd","9","586006","584793","23154","582695","583769","3838","102615","583781","534620","3879","96677","588602","588018","588018","NA","Sternberg Task","83","62672","93","yes","1024"
"89.36170212765957","89.36170212765957","681.9148936170212","681.9148936170212","black","experiment","legacy","legacy","legacy","0","uniform","1","undefined","1","right","93","93","0","93","93","0","0","93","93","0","0","93","93","93","0","Sun Oct 18 19:05:44 2020","The main experiment item","yes","SternbergTask.osexp","/Users/tionnahough/Desktop","no","mono","no","18","no","white","no","yes","768","legacy","81","11","/Users/tionnahough/Desktop/TH-subject-1.csv","legacy","1","Lentiform Loewenfeld","3.3.3","0","n","0","right","right","right","right","NA","1428","19253","5936","1428","NA","2","legacy","1","1024","2","48000","-16","experiment","1","odd","7","591938","590723","23154","588624","589699","3838","102615","589710","534620","3879","96677","595381","593951","593951","NA","Sternberg Task","84","64100","94","yes","1024"
"89.47368421052632","89.47368421052632","683.0526315789474","683.0526315789474","black","experiment","legacy","legacy","legacy","0","uniform","1","undefined","1","left","94","94","0","94","94","0","0","94","94","0","0","94","94","94","0","Sun Oct 18 19:05:44 2020","The main experiment item","yes","SternbergTask.osexp","/Users/tionnahough/Desktop","no","mono","no","18","no","white","no","yes","768","legacy","82","11","/Users/tionnahough/Desktop/TH-subject-1.csv","legacy","9 5 8 1","Lentiform Loewenfeld","3.3.3","2","y","0","left","right","right","left","NA","790","19253","5936","790","NA","2","legacy","4","1024","2","48000","-16","experiment","1","odd","5","598716","597502","23154","595402","596478","3838","102615","596490","534620","3879","96677","601520","600728","600728","NA","Sternberg Task","85","64890","95","yes","1024"
"88.54166666666667","88.54166666666667","681.5520833333334","681.5520833333334","black","experiment","legacy","legacy","legacy","0","uniform","0","undefined","0","right","95","95","0","95","95","0","0","95","95","0","0","95","95","95","0","Sun Oct 18 19:05:44 2020","The main experiment item","yes","SternbergTask.osexp","/Users/tionnahough/Desktop","no","mono","no","18","no","white","no","yes","768","legacy","83","11","/Users/tionnahough/Desktop/TH-subject-1.csv","legacy","6 9 7 3 8 2","Lentiform Loewenfeld","3.3.3","0","n","0","left","right","right","left","NA","539","19253","5936","539","NA","2","legacy","6","1024","2","48000","-16","experiment","1","odd","5","604852","603638","23154","601541","602614","3838","102615","602626","534620","3879","96677","607405","606865","606864","NA","Sternberg Task","85","65429","96","yes","1024"
"88.65979381443299","88.65979381443299","680.2577319587629","680.2577319587629","black","experiment","legacy","legacy","legacy","0","uniform","1","undefined","1","left","96","96","0","96","96","0","0","96","96","0","0","96","96","96","0","Sun Oct 18 19:05:44 2020","The main experiment item","yes","SternbergTask.osexp","/Users/tionnahough/Desktop","no","mono","no","18","no","white","no","yes","768","legacy","84","11","/Users/tionnahough/Desktop/TH-subject-1.csv","legacy","7 1 8 5 6 2","Lentiform Loewenfeld","3.3.3","2","y","0","left","right","right","left","NA","556","19253","5936","556","NA","2","legacy","6","1024","2","48000","-16","experiment","1","odd","1","610739","609526","23154","601541","608501","3838","102615","608513","607428","3879","96677","613308","612751","612751","NA","Sternberg Task","86","65985","97","yes","1024"
"87.75510204081633","87.75510204081633","678.8877551020408","678.8877551020408","black","experiment","legacy","legacy","legacy","0","uniform","0","undefined","0","left","97","97","0","97","97","0","0","97","97","0","0","97","97","97","0","Sun Oct 18 19:05:44 2020","The main experiment item","yes","SternbergTask.osexp","/Users/tionnahough/Desktop","no","mono","no","18","no","white","no","yes","768","legacy","85","11","/Users/tionnahough/Desktop/TH-subject-1.csv","legacy","4 9 7 8 5 3","Lentiform Loewenfeld","3.3.3","4","y","0","right","right","right","right","NA","546","19253","5936","546","NA","2","legacy","6","1024","2","48000","-16","experiment","1","odd","8","616644","615430","23154","613331","614406","3838","102615","614418","607428","3879","96677","619203","618656","618656","NA","Sternberg Task","86","66531","98","yes","1024"
"87.87878787878788","87.87878787878788","677.939393939394","677.939393939394","black","experiment","legacy","legacy","legacy","0","uniform","1","undefined","1","left","98","98","0","98","98","0","0","98","98","0","0","98","98","98","0","Sun Oct 18 19:05:44 2020","The main experiment item","yes","SternbergTask.osexp","/Users/tionnahough/Desktop","no","mono","no","18","no","white","no","yes","768","legacy","86","11","/Users/tionnahough/Desktop/TH-subject-1.csv","legacy","5 7 3 6 2","Lentiform Loewenfeld","3.3.3","5","y","0","left","right","right","left","NA","585","19253","5936","585","NA","2","legacy","5","1024","2","48000","-16","experiment","1","odd","2","622535","621323","23154","613331","620299","3838","102615","620311","619226","3879","96677","625134","624547","624547","NA","Sternberg Task","87","67116","99","yes","1024"
"88","88","677.07","677.07","black","experiment","legacy","legacy","legacy","0","uniform","1","undefined","1","right","99","99","0","99","99","0","0","99","99","0","0","99","99","99","0","Sun Oct 18 19:05:44 2020","The main experiment item","yes","SternbergTask.osexp","/Users/tionnahough/Desktop","no","mono","no","18","no","white","no","yes","768","legacy","87","11","/Users/tionnahough/Desktop/TH-subject-1.csv","legacy","3 4 2","Lentiform Loewenfeld","3.3.3","0","n","0","right","right","right","right","NA","591","19253","5936","591","NA","2","legacy","3","1024","2","48000","-16","experiment","1","odd","5","628463","627249","23154","625147","626225","3838","102615","626237","619226","3879","96677","631068","630475","630475","NA","Sternberg Task","88","67707","100","yes","1024"
"88.11881188118812","88.11881188118812","676.1188118811881","676.1188118811881","black","experiment","legacy","legacy","legacy","0","uniform","1","undefined","1","left","100","100","0","100","100","0","0","100","100","0","0","100","100","100","0","Sun Oct 18 19:05:44 2020","The main experiment item","yes","SternbergTask.osexp","/Users/tionnahough/Desktop","no","mono","no","18","no","white","no","yes","768","legacy","88","11","/Users/tionnahough/Desktop/TH-subject-1.csv","legacy","6 8 9 3 4 9","Lentiform Loewenfeld","3.3.3","5","y","0","left","right","right","left","NA","581","19253","5936","581","NA","2","legacy","6","1024","2","48000","-16","experiment","1","odd","4","634403","633190","23154","631090","632165","3838","102615","632176","619226","3879","96677","636998","636415","636415","NA","Sternberg Task","89","68288","101","yes","1024"
"88.23529411764706","88.23529411764706","674.5196078431372","674.5196078431372","black","experiment","legacy","legacy","legacy","0","uniform","1","undefined","1","right","101","101","0","101","101","0","0","101","101","0","0","101","101","101","0","Sun Oct 18 19:05:44 2020","The main experiment item","yes","SternbergTask.osexp","/Users/tionnahough/Desktop","no","mono","no","18","no","white","no","yes","768","legacy","89","11","/Users/tionnahough/Desktop/TH-subject-1.csv","legacy","2 5 1 4","Lentiform Loewenfeld","3.3.3","0","n","0","right","right","right","right","NA","513","19253","5936","513","NA","2","legacy","4","1024","2","48000","-16","experiment","1","odd","6","640331","639117","23154","637020","638094","3838","102615","638105","619226","3879","96677","642861","642346","642346","NA","Sternberg Task","90","68801","102","yes","1024"
"88.3495145631068","88.3495145631068","673.5145631067961","673.5145631067961","black","experiment","legacy","legacy","legacy","0","uniform","1","undefined","1","left","102","102","0","102","102","0","0","102","102","0","0","102","102","102","0","Sun Oct 18 19:05:44 2020","The main experiment item","yes","SternbergTask.osexp","/Users/tionnahough/Desktop","no","mono","no","18","no","white","no","yes","768","legacy","90","11","/Users/tionnahough/Desktop/TH-subject-1.csv","legacy","8 3","Lentiform Loewenfeld","3.3.3","2","y","0","left","right","right","left","NA","571","19253","5936","571","NA","2","legacy","2","1024","2","48000","-16","experiment","1","odd","3","646196","644984","23154","642885","643959","3838","102615","643971","619226","3879","96677","648782","648209","648208","NA","Sternberg Task","91","69372","103","yes","1024"
"87.5","87.5","672.9326923076923","672.9326923076923","black","experiment","legacy","legacy","legacy","0","uniform","0","undefined","0","left","103","103","0","103","103","0","0","103","103","0","0","103","103","103","0","Sun Oct 18 19:05:44 2020","The main experiment item","yes","SternbergTask.osexp","/Users/tionnahough/Desktop","no","mono","no","18","no","white","no","yes","768","legacy","91","11","/Users/tionnahough/Desktop/TH-subject-1.csv","legacy","9 8 4","Lentiform Loewenfeld","3.3.3","1","y","0","right","right","right","right","NA","613","19253","5936","613","NA","2","legacy","3","1024","2","48000","-16","experiment","1","odd","9","652116","650903","23154","648804","649880","3838","102615","649891","619226","3879","96677","654742","654128","654128","NA","Sternberg Task","91","69985","104","yes","1024"
"87.61904761904762","87.61904761904762","670.8952380952381","670.8952380952381","black","experiment","legacy","legacy","legacy","0","uniform","1","undefined","1","left","104","104","0","104","104","0","0","104","104","0","0","104","104","104","0","Sun Oct 18 19:05:44 2020","The main experiment item","yes","SternbergTask.osexp","/Users/tionnahough/Desktop","no","mono","no","18","no","white","no","yes","768","legacy","92","11","/Users/tionnahough/Desktop/TH-subject-1.csv","legacy","1 4 9 3 2 5","Lentiform Loewenfeld","3.3.3","3","y","0","left","right","right","left","NA","459","19253","5936","459","NA","2","legacy","6","1024","2","48000","-16","experiment","1","odd","9","658075","656861","23154","648804","655838","3838","102615","655849","654764","3879","96677","660548","660087","660087","NA","Sternberg Task","92","70444","105","yes","1024"
"87.73584905660377","87.73584905660377","671.4811320754717","671.4811320754717","black","experiment","legacy","legacy","legacy","0","uniform","1","undefined","1","left","105","105","0","105","105","0","0","105","105","0","0","105","105","105","0","Sun Oct 18 19:05:44 2020","The main experiment item","yes","SternbergTask.osexp","/Users/tionnahough/Desktop","no","mono","no","18","no","white","no","yes","768","legacy","93","11","/Users/tionnahough/Desktop/TH-subject-1.csv","legacy","5 2 6","Lentiform Loewenfeld","3.3.3","2","y","0","left","right","right","left","NA","733","19253","5936","733","NA","2","legacy","3","1024","2","48000","-16","experiment","1","odd","2","663882","662669","23154","660571","661645","3838","102615","661657","654764","3879","96677","666630","665895","665894","NA","Sternberg Task","93","71177","106","yes","1024"
"87.85046728971963","87.85046728971963","670.0467289719626","670.0467289719626","black","experiment","legacy","legacy","legacy","0","uniform","1","undefined","1","left","106","106","0","106","106","0","0","106","106","0","0","106","106","106","0","Sun Oct 18 19:05:44 2020","The main experiment item","yes","SternbergTask.osexp","/Users/tionnahough/Desktop","no","mono","no","18","no","white","no","yes","768","legacy","94","11","/Users/tionnahough/Desktop/TH-subject-1.csv","legacy","7 6","Lentiform Loewenfeld","3.3.3","2","y","0","left","right","right","left","NA","518","19253","5936","518","NA","2","legacy","2","1024","2","48000","-16","experiment","1","odd","6","669954","668740","23154","666642","667716","3838","102615","667727","654764","3879","96677","672506","671979","671979","NA","Sternberg Task","94","71695","107","yes","1024"
"87.96296296296296","87.96296296296296","669.4166666666666","669.4166666666666","black","experiment","legacy","legacy","legacy","0","uniform","1","undefined","1","right","107","107","0","107","107","0","0","107","107","0","0","107","107","107","0","Sun Oct 18 19:05:44 2020","The main experiment item","yes","SternbergTask.osexp","/Users/tionnahough/Desktop","no","mono","no","18","no","white","no","yes","768","legacy","95","11","/Users/tionnahough/Desktop/TH-subject-1.csv","legacy","5 3 2 6 9 8","Lentiform Loewenfeld","3.3.3","0","n","0","right","right","right","right","NA","602","19253","5936","602","NA","2","legacy","6","1024","2","48000","-16","experiment","1","odd","4","675834","674620","23154","672522","673597","3838","102615","673608","654764","3879","96677","678450","677846","677846","NA","Sternberg Task","95","72297","108","yes","1024"
"87.1559633027523","87.1559633027523","668.3669724770642","668.3669724770642","black","experiment","legacy","legacy","legacy","0","uniform","0","undefined","0","right","108","108","0","108","108","0","0","108","108","0","0","108","108","108","0","Sun Oct 18 19:05:44 2020","The main experiment item","yes","SternbergTask.osexp","/Users/tionnahough/Desktop","no","mono","no","18","no","white","no","yes","768","legacy","96","11","/Users/tionnahough/Desktop/TH-subject-1.csv","legacy","7 9 1 6","Lentiform Loewenfeld","3.3.3","0","n","0","left","right","right","left","NA","555","19253","5936","555","NA","2","legacy","4","1024","2","48000","-16","experiment","1","odd","4","681786","680572","23154","678472","679548","3838","102615","679560","654764","3879","96677","684355","683798","683798","NA","Sternberg Task","95","72852","109","yes","1024"
"87.27272727272727","87.27272727272727","673.209090909091","673.209090909091","black","experiment","legacy","legacy","legacy","0","uniform","1","undefined","1","right","109","109","0","109","109","0","0","109","109","0","0","109","109","109","0","Sun Oct 18 19:05:44 2020","The main experiment item","yes","SternbergTask.osexp","/Users/tionnahough/Desktop","no","mono","no","18","no","white","no","yes","768","legacy","97","11","/Users/tionnahough/Desktop/TH-subject-1.csv","legacy","6 9 5","Lentiform Loewenfeld","3.3.3","0","n","0","right","right","right","right","NA","1201","19253","5936","1201","NA","2","legacy","3","1024","2","48000","-16","experiment","1","odd","8","687688","686474","23154","678472","685451","3838","102615","685462","684376","3879","96677","690903","689700","689699","NA","Sternberg Task","96","74053","110","yes","1024"
"87.38738738738739","87.38738738738739","670.7567567567568","670.7567567567568","black","experiment","legacy","legacy","legacy","0","uniform","1","undefined","1","left","110","110","0","110","110","0","0","110","110","0","0","110","110","110","0","Sun Oct 18 19:05:44 2020","The main experiment item","yes","SternbergTask.osexp","/Users/tionnahough/Desktop","no","mono","no","18","no","white","no","yes","768","legacy","98","11","/Users/tionnahough/Desktop/TH-subject-1.csv","legacy","7 4 2 6 3 5","Lentiform Loewenfeld","3.3.3","6","y","0","left","right","right","left","NA","401","19253","5936","401","NA","2","legacy","6","1024","2","48000","-16","experiment","1","odd","5","694239","693025","23154","690925","692000","3838","102615","692012","684376","3879","96677","696655","696251","696251","NA","Sternberg Task","97","74454","111","yes","1024"
"87.5","87.5","669.5803571428571","669.5803571428571","black","experiment","legacy","legacy","legacy","0","uniform","1","undefined","1","right","111","111","0","111","111","0","0","111","111","0","0","111","111","111","0","Sun Oct 18 19:05:44 2020","The main experiment item","yes","SternbergTask.osexp","/Users/tionnahough/Desktop","no","mono","no","18","no","white","no","yes","768","legacy","99","11","/Users/tionnahough/Desktop/TH-subject-1.csv","legacy","5 9 2 3","Lentiform Loewenfeld","3.3.3","0","n","0","right","right","right","right","NA","539","19253","5936","539","NA","2","legacy","4","1024","2","48000","-16","experiment","1","odd","8","699982","698767","23154","696668","697742","3838","102615","697754","684376","3879","96677","702535","701994","701994","NA","Sternberg Task","98","74993","112","yes","1024"
"86.72566371681415","86.72566371681415","667.5398230088496","667.5398230088496","black","experiment","legacy","legacy","legacy","0","uniform","0","undefined","0","left","112","112","0","112","112","0","0","112","112","0","0","112","112","112","0","Sun Oct 18 19:05:44 2020","The main experiment item","yes","SternbergTask.osexp","/Users/tionnahough/Desktop","no","mono","no","18","no","white","no","yes","768","legacy","100","11","/Users/tionnahough/Desktop/TH-subject-1.csv","legacy","2 3 7 4","Lentiform Loewenfeld","3.3.3","1","y","0","right","right","right","right","NA","439","19253","5936","439","NA","2","legacy","4","1024","2","48000","-16","experiment","1","odd","2","705892","704678","23154","702577","703653","3838","102615","703664","684376","3879","96677","708345","707904","707904","NA","Sternberg Task","98","75432","113","yes","1024"
"86.84210526315789","86.84210526315789","664.8771929824561","664.8771929824561","black","experiment","legacy","legacy","legacy","0","uniform","1","undefined","1","left","113","113","0","113","113","0","0","113","113","0","0","113","113","113","0","Sun Oct 18 19:05:44 2020","The main experiment item","yes","SternbergTask.osexp","/Users/tionnahough/Desktop","no","mono","no","18","no","white","no","yes","768","legacy","101","11","/Users/tionnahough/Desktop/TH-subject-1.csv","legacy","8 7 3","Lentiform Loewenfeld","3.3.3","1","y","0","left","right","right","left","NA","364","19253","5936","364","NA","2","legacy","3","1024","2","48000","-16","experiment","1","odd","8","711680","710466","23154","702577","709443","3838","102615","709454","708367","3879","96677","714058","713692","713692","NA","Sternberg Task","99","75796","114","yes","1024"
"86.95652173913044","86.95652173913044","663.6347826086957","663.6347826086957","black","experiment","legacy","legacy","legacy","0","uniform","1","undefined","1","left","114","114","0","114","114","0","0","114","114","0","0","114","114","114","0","Sun Oct 18 19:05:44 2020","The main experiment item","yes","SternbergTask.osexp","/Users/tionnahough/Desktop","no","mono","no","18","no","white","no","yes","768","legacy","102","11","/Users/tionnahough/Desktop/TH-subject-1.csv","legacy","2 3","Lentiform Loewenfeld","3.3.3","1","y","0","left","right","right","left","NA","522","19253","5936","522","NA","2","legacy","2","1024","2","48000","-16","experiment","1","odd","2","717394","716180","23154","714079","715153","3838","102615","715165","708367","3879","96677","719930","719406","719406","NA","Sternberg Task","100","76318","115","yes","1024"
"87.06896551724138","87.06896551724138","663.0258620689655","663.0258620689655","black","experiment","legacy","legacy","legacy","0","uniform","1","undefined","1","right","115","115","0","115","115","0","0","115","115","0","0","115","115","115","0","Sun Oct 18 19:05:44 2020","The main experiment item","yes","SternbergTask.osexp","/Users/tionnahough/Desktop","no","mono","no","18","no","white","no","yes","768","legacy","103","11","/Users/tionnahough/Desktop/TH-subject-1.csv","legacy","2 8 9","Lentiform Loewenfeld","3.3.3","0","n","0","right","right","right","right","NA","593","19253","5936","593","NA","2","legacy","3","1024","2","48000","-16","experiment","1","odd","6","723266","722052","23154","719953","721028","3838","102615","721040","708367","3879","96677","725873","725278","725278","NA","Sternberg Task","101","76911","116","yes","1024"
"86.32478632478633","86.32478632478633","659.7435897435897","659.7435897435897","black","experiment","legacy","legacy","legacy","0","uniform","0","undefined","0","right","116","116","0","116","116","0","0","116","116","0","0","116","116","116","0","Sun Oct 18 19:05:44 2020","The main experiment item","yes","SternbergTask.osexp","/Users/tionnahough/Desktop","no","mono","no","18","no","white","no","yes","768","legacy","104","11","/Users/tionnahough/Desktop/TH-subject-1.csv","legacy","8 4 3 5","Lentiform Loewenfeld","3.3.3","0","n","0","left","right","right","left","NA","279","19253","5936","279","NA","2","legacy","4","1024","2","48000","-16","experiment","1","odd","6","729206","727994","23154","725895","726970","3838","102615","726982","708367","3879","96677","731499","731218","731218","NA","Sternberg Task","101","77190","117","yes","1024"
"85.59322033898304","85.59322033898304","659.7542372881356","659.7542372881356","black","experiment","legacy","legacy","legacy","0","uniform","0","undefined","0","left","117","117","0","117","117","0","0","117","117","0","0","117","117","117","0","Sun Oct 18 19:05:44 2020","The main experiment item","yes","SternbergTask.osexp","/Users/tionnahough/Desktop","no","mono","no","18","no","white","no","yes","768","legacy","105","11","/Users/tionnahough/Desktop/TH-subject-1.csv","legacy","3 9 6 2","Lentiform Loewenfeld","3.3.3","4","y","0","right","right","right","right","NA","661","19253","5936","661","NA","2","legacy","4","1024","2","48000","-16","experiment","1","odd","2","734833","733619","23154","725895","732595","3838","102615","732606","731521","3879","96677","737508","736845","736845","NA","Sternberg Task","101","77851","118","yes","1024"
